"Log_BG","Log_Freq_HAL","Ortho_N","Stimulus","Type","acc","accuracy","average_response_time","avg_rt","background","bidi","canvas_backend","clock_backend","color_backend","compensation","coordinates","correct","correct_Experimental_intro","correct_Introduction","correct_Practice_intro","correct_experimenter_kb","correct_response","count_End_Of_Experiment","count_End_Of_Practice","count_Experimental_Loop","count_Experimental_intro","count_Fixation","count_Introduction","count_Practice_Loop","count_Practice_intro","count_Stimulus","count_block_break_feedback","count_experimental_sequence","count_experimenter_kb","count_increment_trial_count","count_init_trial_count","count_logger","count_practice_sequence","count_right","count_task","count_wrong","datetime","description","disable_garbage_collection","experiment_file","experiment_path","font_bold","font_family","font_italic","font_size","font_underline","foreground","form_clicks","fullscreen","height","keyboard_backend","live_row","live_row_Experimental_Loop","live_row_Practice_Loop","logfile","mouse_backend","opensesame_codename","opensesame_version","osf_always_upload_data","osf_always_upload_experiment","osf_datanode_id","osf_id","repeat_cycle","response","response_End_Of_Experiment","response_Experimental_intro","response_Introduction","response_Practice_intro","response_block_break_feedback","response_experimenter_kb","response_time","response_time_End_Of_Experiment","response_time_Experimental_intro","response_time_Introduction","response_time_Practice_intro","response_time_block_break_feedback","response_time_experimenter_kb","round_decimals","sampler_backend","sound_buf_size","sound_channels","sound_freq","sound_sample_size","start","subject_nr","subject_parity","time_End_Of_Experiment","time_End_Of_Practice","time_Experimental_Loop","time_Experimental_intro","time_Fixation","time_Introduction","time_Practice_Loop","time_Practice_intro","time_Stimulus","time_block_break_feedback","time_experimental_sequence","time_experimenter_kb","time_increment_trial_count","time_init_trial_count","time_logger","time_practice_sequence","time_right","time_task","time_wrong","title","total_correct","total_response_time","total_responses","uniform_coordinates","width"
"2.708989954","9.28","9","bowl","word","100","100","613.8","613.8","black","no","legacy","legacy","legacy","0","uniform","1","undefined","undefined","undefined","1","j","0","0","0","0","4","0","0","0","4","NA","0","4","0","0","0","3","4","0","4","Thu Feb 18 13:47:54 2021","The main experiment item","yes","Lexical_Decision_Task.osexp","/Users/chantallewis","no","Andale Mono","no","18","no","white","no","yes","576","legacy","0","0","3","/Users/chantallewis/subject-5218245.csv","legacy","Lentiform Loewenfeld","3.3.7","yes","yes","600bd7cfb6416f0113b04181","602110864497cf011d9c0822","0","j","NA","space","space","space","NA","j","509","NA","9940","9006","5407","NA","509","2","legacy","1024","2","48000","-16","task","5218245","odd","NA","27653","39597","29656","39623","6356","20791","15380","40126","NA","39620","40126","NA","39597","40635","25972","27123","6315","NA","Lexical Decision Task","5","3069","5","yes","1024"
"3.460446784","0","5","dess","non-word","83.33333333333333","83.33333333333333","585.5","585.5","black","no","legacy","legacy","legacy","0","uniform","0","undefined","undefined","undefined","0","f","0","0","0","0","5","0","0","0","5","NA","1","5","1","0","1","3","5","0","5","Thu Feb 18 13:47:54 2021","The main experiment item","yes","Lexical_Decision_Task.osexp","/Users/chantallewis","no","Andale Mono","no","18","no","white","no","yes","576","legacy","1","1","3","/Users/chantallewis/subject-5218245.csv","legacy","Lentiform Loewenfeld","3.3.7","yes","yes","600bd7cfb6416f0113b04181","602110864497cf011d9c0822","0","j","NA","space","space","space","NA","j","444","NA","9940","9006","5407","NA","444","2","legacy","1024","2","48000","-16","task","5218245","odd","NA","27653","39597","29656","41204","6356","20791","15380","41707","NA","41202","41707","41142","39597","42151","25972","40642","6315","NA","Lexical Decision Task","5","3513","6","yes","1024"
"2.95456409","0","4","taud","non-word","85.71428571428571","85.71428571428571","593.2857142857143","593.2857142857143","black","no","legacy","legacy","legacy","0","uniform","1","undefined","undefined","undefined","1","f","0","0","0","0","6","0","0","0","6","NA","2","6","2","0","2","3","6","0","6","Thu Feb 18 13:47:54 2021","The main experiment item","yes","Lexical_Decision_Task.osexp","/Users/chantallewis","no","Andale Mono","no","18","no","white","no","yes","576","legacy","2","2","3","/Users/chantallewis/subject-5218245.csv","legacy","Lentiform Loewenfeld","3.3.7","yes","yes","600bd7cfb6416f0113b04181","602110864497cf011d9c0822","0","f","NA","space","space","space","NA","f","640","NA","9940","9006","5407","NA","640","2","legacy","1024","2","48000","-16","task","5218245","odd","NA","27653","39597","29656","43717","6356","20791","15380","44220","NA","43714","44220","43655","39597","44861","25972","40642","6315","42155","Lexical Decision Task","6","4153","7","yes","1024"
"3.22685757","9.99","7","roll","word","87.5","87.5","626.625","626.625","black","no","legacy","legacy","legacy","0","uniform","1","undefined","undefined","undefined","1","j","0","0","0","0","7","0","0","0","7","NA","3","7","3","0","3","3","7","0","7","Thu Feb 18 13:47:54 2021","The main experiment item","yes","Lexical_Decision_Task.osexp","/Users/chantallewis","no","Andale Mono","no","18","no","white","no","yes","576","legacy","3","3","3","/Users/chantallewis/subject-5218245.csv","legacy","Lentiform Loewenfeld","3.3.7","yes","yes","600bd7cfb6416f0113b04181","602110864497cf011d9c0822","0","j","NA","space","space","space","NA","j","860","NA","9940","9006","5407","NA","860","2","legacy","1024","2","48000","-16","task","5218245","odd","NA","27653","39597","29656","45424","6356","20791","15380","45927","NA","45421","45927","45364","39597","46788","25972","44864","6315","42155","Lexical Decision Task","7","5013","8","yes","1024"
"2.979548375","8.71","4","soup","word","88.88888888888889","88.88888888888889","624.5555555555555","624.5555555555555","black","no","legacy","legacy","legacy","0","uniform","1","undefined","undefined","undefined","1","j","0","0","0","0","8","0","0","0","8","NA","4","8","4","0","4","3","8","0","8","Thu Feb 18 13:47:54 2021","The main experiment item","yes","Lexical_Decision_Task.osexp","/Users/chantallewis","no","Andale Mono","no","18","no","white","no","yes","576","legacy","4","4","3","/Users/chantallewis/subject-5218245.csv","legacy","Lentiform Loewenfeld","3.3.7","yes","yes","600bd7cfb6416f0113b04181","602110864497cf011d9c0822","0","j","NA","space","space","space","NA","j","608","NA","9940","9006","5407","NA","608","2","legacy","1024","2","48000","-16","task","5218245","odd","NA","27653","39597","29656","47350","6356","20791","15380","47853","NA","47348","47853","47292","39597","48462","25972","46792","6315","42155","Lexical Decision Task","8","5621","9","yes","1024"
"3.120025233","0","2","nyst","non-word","90","90","634.2","634.2","black","no","legacy","legacy","legacy","0","uniform","1","undefined","undefined","undefined","1","f","0","0","0","0","9","0","0","0","9","NA","5","9","5","0","5","3","9","0","9","Thu Feb 18 13:47:54 2021","The main experiment item","yes","Lexical_Decision_Task.osexp","/Users/chantallewis","no","Andale Mono","no","18","no","white","no","yes","576","legacy","5","5","3","/Users/chantallewis/subject-5218245.csv","legacy","Lentiform Loewenfeld","3.3.7","yes","yes","600bd7cfb6416f0113b04181","602110864497cf011d9c0822","0","f","NA","space","space","space","NA","f","721","NA","9940","9006","5407","NA","721","2","legacy","1024","2","48000","-16","task","5218245","odd","NA","27653","39597","29656","49025","6356","20791","15380","49528","NA","49022","49528","48966","39597","50250","25972","48466","6315","42155","Lexical Decision Task","9","6342","10","yes","1024"
"3.20871002","7.15","8","cram","word","81.81818181818181","81.81818181818181","673.3636363636364","673.3636363636364","black","no","legacy","legacy","legacy","0","uniform","0","undefined","undefined","undefined","0","j","0","0","0","0","10","0","0","0","10","NA","6","10","6","0","6","3","10","0","10","Thu Feb 18 13:47:54 2021","The main experiment item","yes","Lexical_Decision_Task.osexp","/Users/chantallewis","no","Andale Mono","no","18","no","white","no","yes","576","legacy","6","6","3","/Users/chantallewis/subject-5218245.csv","legacy","Lentiform Loewenfeld","3.3.7","yes","yes","600bd7cfb6416f0113b04181","602110864497cf011d9c0822","0","f","NA","space","space","space","NA","f","1065","NA","9940","9006","5407","NA","1065","2","legacy","1024","2","48000","-16","task","5218245","odd","NA","27653","39597","29656","50813","6356","20791","15380","51316","NA","50810","51316","50754","39597","52382","25972","50254","6315","42155","Lexical Decision Task","9","7407","11","yes","1024"
"3.705778213","0","6","stin","non-word","83.33333333333333","83.33333333333333","685.25","685.25","black","no","legacy","legacy","legacy","0","uniform","1","undefined","undefined","undefined","1","f","0","0","0","0","11","0","0","0","11","NA","7","11","7","0","7","3","11","0","11","Thu Feb 18 13:47:54 2021","The main experiment item","yes","Lexical_Decision_Task.osexp","/Users/chantallewis","no","Andale Mono","no","18","no","white","no","yes","576","legacy","7","7","3","/Users/chantallewis/subject-5218245.csv","legacy","Lentiform Loewenfeld","3.3.7","yes","yes","600bd7cfb6416f0113b04181","602110864497cf011d9c0822","0","f","NA","space","space","space","NA","f","816","NA","9940","9006","5407","NA","816","2","legacy","1024","2","48000","-16","task","5218245","odd","NA","27653","39597","29656","53949","6356","20791","15380","54452","NA","53946","54452","53886","39597","55268","25972","50254","6315","52386","Lexical Decision Task","10","8223","12","yes","1024"
"3.474361976","5.24","6","veer","word","84.61538461538461","84.61538461538461","708.0769230769231","708.0769230769231","black","no","legacy","legacy","legacy","0","uniform","1","undefined","undefined","undefined","1","j","0","0","0","0","12","0","0","0","12","NA","8","12","8","0","8","3","12","0","12","Thu Feb 18 13:47:54 2021","The main experiment item","yes","Lexical_Decision_Task.osexp","/Users/chantallewis","no","Andale Mono","no","18","no","white","no","yes","576","legacy","8","8","3","/Users/chantallewis/subject-5218245.csv","legacy","Lentiform Loewenfeld","3.3.7","yes","yes","600bd7cfb6416f0113b04181","602110864497cf011d9c0822","0","j","NA","space","space","space","NA","j","982","NA","9940","9006","5407","NA","982","2","legacy","1024","2","48000","-16","task","5218245","odd","NA","27653","39597","29656","55831","6356","20791","15380","56334","NA","55828","56335","55772","39597","57317","25972","55272","6315","52386","Lexical Decision Task","11","9205","13","yes","1024"
"2.705007959","6.01","4","wept","word","85.71428571428571","85.71428571428571","701.4285714285714","701.4285714285714","black","no","legacy","legacy","legacy","0","uniform","1","undefined","undefined","undefined","1","j","0","0","0","0","13","0","0","0","13","NA","9","13","9","0","9","3","13","0","13","Thu Feb 18 13:47:54 2021","The main experiment item","yes","Lexical_Decision_Task.osexp","/Users/chantallewis","no","Andale Mono","no","18","no","white","no","yes","576","legacy","9","9","3","/Users/chantallewis/subject-5218245.csv","legacy","Lentiform Loewenfeld","3.3.7","yes","yes","600bd7cfb6416f0113b04181","602110864497cf011d9c0822","0","j","NA","space","space","space","NA","j","615","NA","9940","9006","5407","NA","615","2","legacy","1024","2","48000","-16","task","5218245","odd","NA","27653","39597","29656","57881","6356","20791","15380","58384","NA","57878","58384","57821","39597","59000","25972","57321","6315","52386","Lexical Decision Task","12","9820","14","yes","1024"
"3.153104174","10.89","6","door","word","86.66666666666667","86.66666666666667","684.4666666666667","684.4666666666667","black","no","legacy","legacy","legacy","0","uniform","1","undefined","undefined","undefined","1","j","0","0","0","0","14","0","0","0","14","NA","10","14","10","0","10","3","14","0","14","Thu Feb 18 13:47:54 2021","The main experiment item","yes","Lexical_Decision_Task.osexp","/Users/chantallewis","no","Andale Mono","no","18","no","white","no","yes","576","legacy","10","10","3","/Users/chantallewis/subject-5218245.csv","legacy","Lentiform Loewenfeld","3.3.7","yes","yes","600bd7cfb6416f0113b04181","602110864497cf011d9c0822","0","j","NA","space","space","space","NA","j","447","NA","9940","9006","5407","NA","447","2","legacy","1024","2","48000","-16","task","5218245","odd","NA","27653","39597","29656","59560","6356","20791","15380","60063","NA","59558","60063","59504","39597","60511","25972","59004","6315","52386","Lexical Decision Task","13","10267","15","yes","1024"
"3.208172527","10.27","7","deck","word","87.5","87.5","671.1875","671.1875","black","no","legacy","legacy","legacy","0","uniform","1","undefined","undefined","undefined","1","j","0","0","0","0","15","0","0","0","15","NA","11","15","11","0","11","3","15","0","15","Thu Feb 18 13:47:54 2021","The main experiment item","yes","Lexical_Decision_Task.osexp","/Users/chantallewis","no","Andale Mono","no","18","no","white","no","yes","576","legacy","11","11","3","/Users/chantallewis/subject-5218245.csv","legacy","Lentiform Loewenfeld","3.3.7","yes","yes","600bd7cfb6416f0113b04181","602110864497cf011d9c0822","0","j","NA","space","space","space","NA","j","472","NA","9940","9006","5407","NA","472","2","legacy","1024","2","48000","-16","task","5218245","odd","NA","27653","39597","29656","61071","6356","20791","15380","61573","NA","61068","61574","61014","39597","62047","25972","60514","6315","52386","Lexical Decision Task","14","10739","16","yes","1024"
"3.363486562","6.93","9","lush","word","88.23529411764706","88.23529411764706","666.1176470588235","666.1176470588235","black","no","legacy","legacy","legacy","0","uniform","1","undefined","undefined","undefined","1","j","0","0","0","0","16","0","0","0","16","NA","12","16","12","0","12","3","16","0","16","Thu Feb 18 13:47:54 2021","The main experiment item","yes","Lexical_Decision_Task.osexp","/Users/chantallewis","no","Andale Mono","no","18","no","white","no","yes","576","legacy","12","12","3","/Users/chantallewis/subject-5218245.csv","legacy","Lentiform Loewenfeld","3.3.7","yes","yes","600bd7cfb6416f0113b04181","602110864497cf011d9c0822","0","j","NA","space","space","space","NA","j","585","NA","9940","9006","5407","NA","585","2","legacy","1024","2","48000","-16","task","5218245","odd","NA","27653","39597","29656","62607","6356","20791","15380","63110","NA","62604","63110","62550","39597","63696","25972","62050","6315","52386","Lexical Decision Task","15","11324","17","yes","1024"
"2.812467698","0","7","hafe","non-word","88.88888888888889","88.88888888888889","665.0555555555555","665.0555555555555","black","no","legacy","legacy","legacy","0","uniform","1","undefined","undefined","undefined","1","f","0","0","0","0","17","0","0","0","17","NA","13","17","13","0","13","3","17","0","17","Thu Feb 18 13:47:54 2021","The main experiment item","yes","Lexical_Decision_Task.osexp","/Users/chantallewis","no","Andale Mono","no","18","no","white","no","yes","576","legacy","13","13","3","/Users/chantallewis/subject-5218245.csv","legacy","Lentiform Loewenfeld","3.3.7","yes","yes","600bd7cfb6416f0113b04181","602110864497cf011d9c0822","0","f","NA","space","space","space","NA","f","647","NA","9940","9006","5407","NA","647","2","legacy","1024","2","48000","-16","task","5218245","odd","NA","27653","39597","29656","64258","6356","20791","15380","64761","NA","64256","64761","64200","39597","65409","25972","63700","6315","52386","Lexical Decision Task","16","11971","18","yes","1024"
"2.594027722","9.08","8","skip","word","89.47368421052632","89.47368421052632","658.421052631579","658.421052631579","black","no","legacy","legacy","legacy","0","uniform","1","undefined","undefined","undefined","1","j","0","0","0","0","18","0","0","0","18","NA","14","18","14","0","14","3","18","0","18","Thu Feb 18 13:47:54 2021","The main experiment item","yes","Lexical_Decision_Task.osexp","/Users/chantallewis","no","Andale Mono","no","18","no","white","no","yes","576","legacy","14","14","3","/Users/chantallewis/subject-5218245.csv","legacy","Lentiform Loewenfeld","3.3.7","yes","yes","600bd7cfb6416f0113b04181","602110864497cf011d9c0822","0","j","NA","space","space","space","NA","j","539","NA","9940","9006","5407","NA","539","2","legacy","1024","2","48000","-16","task","5218245","odd","NA","27653","39597","29656","65967","6356","20791","15380","66470","NA","65965","66470","65913","39597","67010","25972","65413","6315","52386","Lexical Decision Task","17","12510","19","yes","1024"
"3.259832699","0","9","flar","non-word","85","85","662.85","662.85","black","no","legacy","legacy","legacy","0","uniform","0","undefined","undefined","undefined","0","f","0","0","0","0","19","0","0","0","19","NA","15","19","15","0","15","3","19","0","19","Thu Feb 18 13:47:54 2021","The main experiment item","yes","Lexical_Decision_Task.osexp","/Users/chantallewis","no","Andale Mono","no","18","no","white","no","yes","576","legacy","15","15","3","/Users/chantallewis/subject-5218245.csv","legacy","Lentiform Loewenfeld","3.3.7","yes","yes","600bd7cfb6416f0113b04181","602110864497cf011d9c0822","0","j","NA","space","space","space","NA","j","747","NA","9940","9006","5407","NA","747","2","legacy","1024","2","48000","-16","task","5218245","odd","NA","27653","39597","29656","67571","6356","20791","15380","68074","NA","67569","68074","67513","39597","68822","25972","67013","6315","52386","Lexical Decision Task","17","13257","20","yes","1024"
"3.440331212","7.35","6","stew","word","85.71428571428571","85.71428571428571","662.047619047619","662.047619047619","black","no","legacy","legacy","legacy","0","uniform","1","undefined","undefined","undefined","1","j","0","0","0","0","20","0","0","0","20","NA","16","20","16","0","16","3","20","0","20","Thu Feb 18 13:47:54 2021","The main experiment item","yes","Lexical_Decision_Task.osexp","/Users/chantallewis","no","Andale Mono","no","18","no","white","no","yes","576","legacy","16","16","3","/Users/chantallewis/subject-5218245.csv","legacy","Lentiform Loewenfeld","3.3.7","yes","yes","600bd7cfb6416f0113b04181","602110864497cf011d9c0822","0","j","NA","space","space","space","NA","j","646","NA","9940","9006","5407","NA","646","2","legacy","1024","2","48000","-16","task","5218245","odd","NA","27653","39597","29656","70388","6356","20791","15380","70891","NA","70385","70891","70326","39597","71538","25972","67013","6315","68826","Lexical Decision Task","18","13903","21","yes","1024"
"3.168890155","0","6","thet","non-word","86.36363636363636","86.36363636363636","661.5454545454545","661.5454545454545","black","no","legacy","legacy","legacy","0","uniform","1","undefined","undefined","undefined","1","f","0","0","0","0","21","0","0","0","21","NA","17","21","17","0","17","3","21","0","21","Thu Feb 18 13:47:54 2021","The main experiment item","yes","Lexical_Decision_Task.osexp","/Users/chantallewis","no","Andale Mono","no","18","no","white","no","yes","576","legacy","17","17","3","/Users/chantallewis/subject-5218245.csv","legacy","Lentiform Loewenfeld","3.3.7","yes","yes","600bd7cfb6416f0113b04181","602110864497cf011d9c0822","0","f","NA","space","space","space","NA","f","651","NA","9940","9006","5407","NA","651","2","legacy","1024","2","48000","-16","task","5218245","odd","NA","27653","39597","29656","72101","6356","20791","15380","72604","NA","72098","72604","72042","39597","73256","25972","71541","6315","68826","Lexical Decision Task","19","14554","22","yes","1024"
"3.29439347","8.6","9","wand","word","86.95652173913044","86.95652173913044","660.7391304347826","660.7391304347826","black","no","legacy","legacy","legacy","0","uniform","1","undefined","undefined","undefined","1","j","0","0","0","0","22","0","0","0","22","NA","18","22","18","0","18","3","22","0","22","Thu Feb 18 13:47:54 2021","The main experiment item","yes","Lexical_Decision_Task.osexp","/Users/chantallewis","no","Andale Mono","no","18","no","white","no","yes","576","legacy","18","18","3","/Users/chantallewis/subject-5218245.csv","legacy","Lentiform Loewenfeld","3.3.7","yes","yes","600bd7cfb6416f0113b04181","602110864497cf011d9c0822","0","j","NA","space","space","space","NA","j","643","NA","9940","9006","5407","NA","643","2","legacy","1024","2","48000","-16","task","5218245","odd","NA","27653","39597","29656","73818","6356","20791","15380","74321","NA","73816","74321","73759","39597","74965","25972","73259","6315","68826","Lexical Decision Task","20","15197","23","yes","1024"
"2.868644438","10.52","4","town","word","87.5","87.5","656.75","656.75","black","no","legacy","legacy","legacy","0","uniform","1","undefined","undefined","undefined","1","j","0","0","0","0","23","0","0","0","23","NA","19","23","19","0","19","3","23","0","23","Thu Feb 18 13:47:54 2021","The main experiment item","yes","Lexical_Decision_Task.osexp","/Users/chantallewis","no","Andale Mono","no","18","no","white","no","yes","576","legacy","19","19","3","/Users/chantallewis/subject-5218245.csv","legacy","Lentiform Loewenfeld","3.3.7","yes","yes","600bd7cfb6416f0113b04181","602110864497cf011d9c0822","0","j","NA","space","space","space","NA","j","565","NA","9940","9006","5407","NA","565","2","legacy","1024","2","48000","-16","task","5218245","odd","NA","27653","39597","29656","75530","6356","20791","15380","76033","NA","75528","76033","75469","39597","76599","25972","74968","6315","68826","Lexical Decision Task","21","15762","24","yes","1024"
"3.077974404","10.41","8","tool","word","88","88","650.52","650.52","black","no","legacy","legacy","legacy","0","uniform","1","undefined","undefined","undefined","1","j","0","0","0","0","24","0","0","0","24","NA","20","24","20","0","20","3","24","0","24","Thu Feb 18 13:47:54 2021","The main experiment item","yes","Lexical_Decision_Task.osexp","/Users/chantallewis","no","Andale Mono","no","18","no","white","no","yes","576","legacy","20","20","3","/Users/chantallewis/subject-5218245.csv","legacy","Lentiform Loewenfeld","3.3.7","yes","yes","600bd7cfb6416f0113b04181","602110864497cf011d9c0822","0","j","NA","space","space","space","NA","j","501","NA","9940","9006","5407","NA","501","2","legacy","1024","2","48000","-16","task","5218245","odd","NA","27653","39597","29656","77161","6356","20791","15380","77665","NA","77159","77665","77102","39597","78166","25972","76602","6315","68826","Lexical Decision Task","22","16263","25","yes","1024"
"2.664011697","8.19","4","hawk","word","88.46153846153847","88.46153846153847","647.6923076923077","647.6923076923077","black","no","legacy","legacy","legacy","0","uniform","1","undefined","undefined","undefined","1","j","0","0","0","0","25","0","0","0","25","NA","21","25","21","0","21","3","25","0","25","Thu Feb 18 13:47:54 2021","The main experiment item","yes","Lexical_Decision_Task.osexp","/Users/chantallewis","no","Andale Mono","no","18","no","white","no","yes","576","legacy","21","21","3","/Users/chantallewis/subject-5218245.csv","legacy","Lentiform Loewenfeld","3.3.7","yes","yes","600bd7cfb6416f0113b04181","602110864497cf011d9c0822","0","j","NA","space","space","space","NA","j","577","NA","9940","9006","5407","NA","577","2","legacy","1024","2","48000","-16","task","5218245","odd","NA","27653","39597","29656","78730","6356","20791","15380","79233","NA","78727","79233","78670","39597","79811","25972","78170","6315","68826","Lexical Decision Task","23","16840","26","yes","1024"
"2.695481676","0","7","goke","non-word","88.88888888888889","88.88888888888889","647.5925925925926","647.5925925925926","black","no","legacy","legacy","legacy","0","uniform","1","undefined","undefined","undefined","1","f","0","0","0","0","26","0","0","0","26","NA","22","26","22","0","22","3","26","0","26","Thu Feb 18 13:47:54 2021","The main experiment item","yes","Lexical_Decision_Task.osexp","/Users/chantallewis","no","Andale Mono","no","18","no","white","no","yes","576","legacy","22","22","3","/Users/chantallewis/subject-5218245.csv","legacy","Lentiform Loewenfeld","3.3.7","yes","yes","600bd7cfb6416f0113b04181","602110864497cf011d9c0822","0","f","NA","space","space","space","NA","f","645","NA","9940","9006","5407","NA","645","2","legacy","1024","2","48000","-16","task","5218245","odd","NA","27653","39597","29656","80374","6356","20791","15380","80877","NA","80371","80877","80314","39597","81523","25972","79814","6315","68826","Lexical Decision Task","24","17485","27","yes","1024"
"3.076883066","0","8","mout","non-word","89.28571428571429","89.28571428571429","654","654","black","no","legacy","legacy","legacy","0","uniform","1","undefined","undefined","undefined","1","f","0","0","0","0","27","0","0","0","27","NA","23","27","23","0","23","3","27","0","27","Thu Feb 18 13:47:54 2021","The main experiment item","yes","Lexical_Decision_Task.osexp","/Users/chantallewis","no","Andale Mono","no","18","no","white","no","yes","576","legacy","23","23","3","/Users/chantallewis/subject-5218245.csv","legacy","Lentiform Loewenfeld","3.3.7","yes","yes","600bd7cfb6416f0113b04181","602110864497cf011d9c0822","0","f","NA","space","space","space","NA","f","827","NA","9940","9006","5407","NA","827","2","legacy","1024","2","48000","-16","task","5218245","odd","NA","27653","39597","29656","82087","6356","20791","15380","82591","NA","82085","82591","82027","39597","83419","25972","81527","6315","68826","Lexical Decision Task","25","18312","28","yes","1024"
"3.374198258","0","8","vist","non-word","89.65517241379311","89.65517241379311","659.1379310344828","659.1379310344828","black","no","legacy","legacy","legacy","0","uniform","1","undefined","undefined","undefined","1","f","0","0","0","0","28","0","0","0","28","NA","24","28","24","0","24","3","28","0","28","Thu Feb 18 13:47:54 2021","The main experiment item","yes","Lexical_Decision_Task.osexp","/Users/chantallewis","no","Andale Mono","no","18","no","white","no","yes","576","legacy","24","24","3","/Users/chantallewis/subject-5218245.csv","legacy","Lentiform Loewenfeld","3.3.7","yes","yes","600bd7cfb6416f0113b04181","602110864497cf011d9c0822","0","f","NA","space","space","space","NA","f","803","NA","9940","9006","5407","NA","803","2","legacy","1024","2","48000","-16","task","5218245","odd","NA","27653","39597","29656","83981","6356","20791","15380","84484","NA","83978","84484","83922","39597","85287","25972","83422","6315","68826","Lexical Decision Task","26","19115","29","yes","1024"
"2.873320602","0","4","lurg","non-word","90","90","661.6","661.6","black","no","legacy","legacy","legacy","0","uniform","1","undefined","undefined","undefined","1","f","0","0","0","0","29","0","0","0","29","NA","25","29","25","0","25","3","29","0","29","Thu Feb 18 13:47:54 2021","The main experiment item","yes","Lexical_Decision_Task.osexp","/Users/chantallewis","no","Andale Mono","no","18","no","white","no","yes","576","legacy","25","25","3","/Users/chantallewis/subject-5218245.csv","legacy","Lentiform Loewenfeld","3.3.7","yes","yes","600bd7cfb6416f0113b04181","602110864497cf011d9c0822","0","f","NA","space","space","space","NA","f","733","NA","9940","9006","5407","NA","733","2","legacy","1024","2","48000","-16","task","5218245","odd","NA","27653","39597","29656","85851","6356","20791","15380","86354","NA","85848","86354","85791","39597","87088","25972","85291","6315","68826","Lexical Decision Task","27","19848","30","yes","1024"
"2.884795364","0","6","flob","non-word","90.3225806451613","90.3225806451613","667.5806451612904","667.5806451612904","black","no","legacy","legacy","legacy","0","uniform","1","undefined","undefined","undefined","1","f","0","0","0","0","30","0","0","0","30","NA","26","30","26","0","26","3","30","0","30","Thu Feb 18 13:47:54 2021","The main experiment item","yes","Lexical_Decision_Task.osexp","/Users/chantallewis","no","Andale Mono","no","18","no","white","no","yes","576","legacy","26","26","3","/Users/chantallewis/subject-5218245.csv","legacy","Lentiform Loewenfeld","3.3.7","yes","yes","600bd7cfb6416f0113b04181","602110864497cf011d9c0822","0","f","NA","space","space","space","NA","f","847","NA","9940","9006","5407","NA","847","2","legacy","1024","2","48000","-16","task","5218245","odd","NA","27653","39597","29656","87649","6356","20791","15380","88152","NA","87646","88152","87591","39597","88999","25972","87091","6315","68826","Lexical Decision Task","28","20695","31","yes","1024"
"3.102203805","7.21","3","drip","word","90.625","90.625","668.0625","668.0625","black","no","legacy","legacy","legacy","0","uniform","1","undefined","undefined","undefined","1","j","0","0","0","0","31","0","0","0","31","NA","27","31","27","0","27","3","31","0","31","Thu Feb 18 13:47:54 2021","The main experiment item","yes","Lexical_Decision_Task.osexp","/Users/chantallewis","no","Andale Mono","no","18","no","white","no","yes","576","legacy","27","27","3","/Users/chantallewis/subject-5218245.csv","legacy","Lentiform Loewenfeld","3.3.7","yes","yes","600bd7cfb6416f0113b04181","602110864497cf011d9c0822","0","j","NA","space","space","space","NA","j","683","NA","9940","9006","5407","NA","683","2","legacy","1024","2","48000","-16","task","5218245","odd","NA","27653","39597","29656","89563","6356","20791","15380","90066","NA","89560","90066","89503","39597","90750","25972","89003","6315","68826","Lexical Decision Task","29","21378","32","yes","1024"
"2.980306438","0","7","slun","non-word","90.9090909090909","90.9090909090909","670.6060606060606","670.6060606060606","black","no","legacy","legacy","legacy","0","uniform","1","undefined","undefined","undefined","1","f","0","0","0","0","32","0","0","0","32","NA","28","32","28","0","28","3","32","0","32","Thu Feb 18 13:47:54 2021","The main experiment item","yes","Lexical_Decision_Task.osexp","/Users/chantallewis","no","Andale Mono","no","18","no","white","no","yes","576","legacy","28","28","3","/Users/chantallewis/subject-5218245.csv","legacy","Lentiform Loewenfeld","3.3.7","yes","yes","600bd7cfb6416f0113b04181","602110864497cf011d9c0822","0","f","NA","space","space","space","NA","f","752","NA","9940","9006","5407","NA","752","2","legacy","1024","2","48000","-16","task","5218245","odd","NA","27653","39597","29656","91314","6356","20791","15380","91817","NA","91311","91817","91254","39597","92570","25972","90754","6315","68826","Lexical Decision Task","30","22130","33","yes","1024"
"2.719886232","7.98","2","quiz","word","91.17647058823529","91.17647058823529","668.0294117647059","668.0294117647059","black","no","legacy","legacy","legacy","0","uniform","1","undefined","undefined","undefined","1","j","0","0","0","0","33","0","0","0","33","NA","29","33","29","0","29","3","33","0","33","Thu Feb 18 13:47:54 2021","The main experiment item","yes","Lexical_Decision_Task.osexp","/Users/chantallewis","no","Andale Mono","no","18","no","white","no","yes","576","legacy","29","29","3","/Users/chantallewis/subject-5218245.csv","legacy","Lentiform Loewenfeld","3.3.7","yes","yes","600bd7cfb6416f0113b04181","602110864497cf011d9c0822","0","j","NA","space","space","space","NA","j","583","NA","9940","9006","5407","NA","583","2","legacy","1024","2","48000","-16","task","5218245","odd","NA","27653","39597","29656","93133","6356","20791","15380","93636","NA","93130","93636","93073","39597","94220","25972","92573","6315","68826","Lexical Decision Task","31","22713","34","yes","1024"
"3.067193647","6.73","6","raft","word","91.42857142857143","91.42857142857143","679.2857142857143","679.2857142857143","black","no","legacy","legacy","legacy","0","uniform","1","undefined","undefined","undefined","1","j","0","0","0","0","34","0","0","0","34","NA","30","34","30","0","30","3","34","0","34","Thu Feb 18 13:47:54 2021","The main experiment item","yes","Lexical_Decision_Task.osexp","/Users/chantallewis","no","Andale Mono","no","18","no","white","no","yes","576","legacy","30","30","3","/Users/chantallewis/subject-5218245.csv","legacy","Lentiform Loewenfeld","3.3.7","yes","yes","600bd7cfb6416f0113b04181","602110864497cf011d9c0822","0","j","NA","space","space","space","NA","j","1062","NA","9940","9006","5407","NA","1062","2","legacy","1024","2","48000","-16","task","5218245","odd","NA","27653","39597","29656","94783","6356","20791","15380","95286","NA","94780","95286","94724","39597","96349","25972","94224","6315","68826","Lexical Decision Task","32","23775","35","yes","1024"
"2.771097306","0","9","jold","non-word","91.66666666666667","91.66666666666667","680.75","680.75","black","no","legacy","legacy","legacy","0","uniform","1","undefined","undefined","undefined","1","f","0","0","0","0","35","0","0","0","35","NA","31","35","31","0","31","3","35","0","35","Thu Feb 18 13:47:54 2021","The main experiment item","yes","Lexical_Decision_Task.osexp","/Users/chantallewis","no","Andale Mono","no","18","no","white","no","yes","576","legacy","31","31","3","/Users/chantallewis/subject-5218245.csv","legacy","Lentiform Loewenfeld","3.3.7","yes","yes","600bd7cfb6416f0113b04181","602110864497cf011d9c0822","0","f","NA","space","space","space","NA","f","732","NA","9940","9006","5407","NA","732","2","legacy","1024","2","48000","-16","task","5218245","odd","NA","27653","39597","29656","96913","6356","20791","15380","97416","NA","96910","97416","96854","39597","98148","25972","96353","6315","68826","Lexical Decision Task","33","24507","36","yes","1024"
"3.488597715","0","9","nain","non-word","91.89189189189189","91.89189189189189","677.5945945945946","677.5945945945946","black","no","legacy","legacy","legacy","0","uniform","1","undefined","undefined","undefined","1","f","0","0","0","0","36","0","0","0","36","NA","32","36","32","0","32","3","36","0","36","Thu Feb 18 13:47:54 2021","The main experiment item","yes","Lexical_Decision_Task.osexp","/Users/chantallewis","no","Andale Mono","no","18","no","white","no","yes","576","legacy","32","32","3","/Users/chantallewis/subject-5218245.csv","legacy","Lentiform Loewenfeld","3.3.7","yes","yes","600bd7cfb6416f0113b04181","602110864497cf011d9c0822","0","f","NA","space","space","space","NA","f","564","NA","9940","9006","5407","NA","564","2","legacy","1024","2","48000","-16","task","5218245","odd","NA","27653","39597","29656","98711","6356","20791","15380","99214","NA","98708","99214","98652","39597","99779","25972","98152","6315","68826","Lexical Decision Task","34","25071","37","yes","1024"
"2.981215883","10.66","5","hair","word","92.10526315789474","92.10526315789474","676.4736842105264","676.4736842105264","black","no","legacy","legacy","legacy","0","uniform","1","undefined","undefined","undefined","1","j","0","0","0","0","37","0","0","0","37","NA","33","37","33","0","33","3","37","0","37","Thu Feb 18 13:47:54 2021","The main experiment item","yes","Lexical_Decision_Task.osexp","/Users/chantallewis","no","Andale Mono","no","18","no","white","no","yes","576","legacy","33","33","3","/Users/chantallewis/subject-5218245.csv","legacy","Lentiform Loewenfeld","3.3.7","yes","yes","600bd7cfb6416f0113b04181","602110864497cf011d9c0822","0","j","NA","space","space","space","NA","j","635","NA","9940","9006","5407","NA","635","2","legacy","1024","2","48000","-16","task","5218245","odd","NA","27653","39597","29656","100343","6356","20791","15380","100846","NA","100340","100846","100283","39597","101482","25972","99783","6315","68826","Lexical Decision Task","35","25706","38","yes","1024"
"3.067070856","9.39","3","loud","word","92.3076923076923","92.3076923076923","679","679","black","no","legacy","legacy","legacy","0","uniform","1","undefined","undefined","undefined","1","j","0","0","0","0","38","0","0","0","38","NA","34","38","34","0","34","3","38","0","38","Thu Feb 18 13:47:54 2021","The main experiment item","yes","Lexical_Decision_Task.osexp","/Users/chantallewis","no","Andale Mono","no","18","no","white","no","yes","576","legacy","34","34","3","/Users/chantallewis/subject-5218245.csv","legacy","Lentiform Loewenfeld","3.3.7","yes","yes","600bd7cfb6416f0113b04181","602110864497cf011d9c0822","0","j","NA","space","space","space","NA","j","775","NA","9940","9006","5407","NA","775","2","legacy","1024","2","48000","-16","task","5218245","odd","NA","27653","39597","29656","102046","6356","20791","15380","102549","NA","102043","102549","101986","39597","103325","25972","101486","6315","68826","Lexical Decision Task","36","26481","39","yes","1024"
"3.068433376","8.09","2","bulb","word","92.5","92.5","677.35","677.35","black","no","legacy","legacy","legacy","0","uniform","1","undefined","undefined","undefined","1","j","0","0","0","0","39","0","0","0","39","NA","35","39","35","0","35","3","39","0","39","Thu Feb 18 13:47:54 2021","The main experiment item","yes","Lexical_Decision_Task.osexp","/Users/chantallewis","no","Andale Mono","no","18","no","white","no","yes","576","legacy","35","35","3","/Users/chantallewis/subject-5218245.csv","legacy","Lentiform Loewenfeld","3.3.7","yes","yes","600bd7cfb6416f0113b04181","602110864497cf011d9c0822","0","j","NA","space","space","space","NA","j","613","NA","9940","9006","5407","NA","613","2","legacy","1024","2","48000","-16","task","5218245","odd","NA","27653","39597","29656","103888","6356","20791","15380","104391","NA","103886","104391","103829","39597","105005","25972","103329","6315","68826","Lexical Decision Task","37","27094","40","yes","1024"
"3.382617311","0","4","pret","non-word","90.2439024390244","90.2439024390244","675.4146341463414","675.4146341463414","black","no","legacy","legacy","legacy","0","uniform","0","undefined","undefined","undefined","0","f","0","0","0","0","40","0","0","0","40","NA","36","40","36","0","36","3","40","0","40","Thu Feb 18 13:47:54 2021","The main experiment item","yes","Lexical_Decision_Task.osexp","/Users/chantallewis","no","Andale Mono","no","18","no","white","no","yes","576","legacy","36","36","3","/Users/chantallewis/subject-5218245.csv","legacy","Lentiform Loewenfeld","3.3.7","yes","yes","600bd7cfb6416f0113b04181","602110864497cf011d9c0822","0","j","NA","space","space","space","NA","j","598","NA","9940","9006","5407","NA","598","2","legacy","1024","2","48000","-16","task","5218245","odd","NA","27653","39597","29656","105568","6356","20791","15380","106071","NA","105565","106071","105508","39597","106670","25972","105008","6315","68826","Lexical Decision Task","37","27692","41","yes","1024"
"2.875447132","0","9","jelt","non-word","90.47619047619048","90.47619047619048","674","674","black","no","legacy","legacy","legacy","0","uniform","1","undefined","undefined","undefined","1","f","0","0","0","0","41","0","0","0","41","NA","37","41","37","0","37","3","41","0","41","Thu Feb 18 13:47:54 2021","The main experiment item","yes","Lexical_Decision_Task.osexp","/Users/chantallewis","no","Andale Mono","no","18","no","white","no","yes","576","legacy","37","37","3","/Users/chantallewis/subject-5218245.csv","legacy","Lentiform Loewenfeld","3.3.7","yes","yes","600bd7cfb6416f0113b04181","602110864497cf011d9c0822","0","f","NA","space","space","space","NA","f","616","NA","9940","9006","5407","NA","616","2","legacy","1024","2","48000","-16","task","5218245","odd","NA","27653","39597","29656","108236","6356","20791","15380","108739","NA","108234","108739","108174","39597","109356","25972","105008","6315","106674","Lexical Decision Task","38","28308","42","yes","1024"
"2.794720352","0","9","koot","non-word","90.69767441860465","90.69767441860465","677.5581395348837","677.5581395348837","black","no","legacy","legacy","legacy","0","uniform","1","undefined","undefined","undefined","1","f","0","0","0","0","42","0","0","0","42","NA","38","42","38","0","38","3","42","0","42","Thu Feb 18 13:47:54 2021","The main experiment item","yes","Lexical_Decision_Task.osexp","/Users/chantallewis","no","Andale Mono","no","18","no","white","no","yes","576","legacy","38","38","3","/Users/chantallewis/subject-5218245.csv","legacy","Lentiform Loewenfeld","3.3.7","yes","yes","600bd7cfb6416f0113b04181","602110864497cf011d9c0822","0","f","NA","space","space","space","NA","f","827","NA","9940","9006","5407","NA","827","2","legacy","1024","2","48000","-16","task","5218245","odd","NA","27653","39597","29656","109917","6356","20791","15380","110421","NA","109915","110421","109859","39597","111249","25972","109359","6315","106674","Lexical Decision Task","39","29135","43","yes","1024"
"3.303771854","0","9","dath","non-word","90.9090909090909","90.9090909090909","679.1363636363636","679.1363636363636","black","no","legacy","legacy","legacy","0","uniform","1","undefined","undefined","undefined","1","f","0","0","0","0","43","0","0","0","43","NA","39","43","39","0","39","3","43","0","43","Thu Feb 18 13:47:54 2021","The main experiment item","yes","Lexical_Decision_Task.osexp","/Users/chantallewis","no","Andale Mono","no","18","no","white","no","yes","576","legacy","39","39","3","/Users/chantallewis/subject-5218245.csv","legacy","Lentiform Loewenfeld","3.3.7","yes","yes","600bd7cfb6416f0113b04181","602110864497cf011d9c0822","0","f","NA","space","space","space","NA","f","747","NA","9940","9006","5407","NA","747","2","legacy","1024","2","48000","-16","task","5218245","odd","NA","27653","39597","29656","111812","6356","20791","15380","112316","NA","111809","112316","111752","39597","113064","25972","111252","6315","106674","Lexical Decision Task","40","29882","44","yes","1024"
"2.813801082","5.47","7","nook","word","91.11111111111111","91.11111111111111","686.2888888888889","686.2888888888889","black","no","legacy","legacy","legacy","0","uniform","1","undefined","undefined","undefined","1","j","0","0","0","0","44","0","0","0","44","NA","40","44","40","0","40","3","44","0","44","Thu Feb 18 13:47:54 2021","The main experiment item","yes","Lexical_Decision_Task.osexp","/Users/chantallewis","no","Andale Mono","no","18","no","white","no","yes","576","legacy","40","40","3","/Users/chantallewis/subject-5218245.csv","legacy","Lentiform Loewenfeld","3.3.7","yes","yes","600bd7cfb6416f0113b04181","602110864497cf011d9c0822","0","j","NA","space","space","space","NA","j","1001","NA","9940","9006","5407","NA","1001","2","legacy","1024","2","48000","-16","task","5218245","odd","NA","27653","39597","29656","113635","6356","20791","15380","114138","NA","113632","114138","113568","39597","115140","25972","113068","6315","106674","Lexical Decision Task","41","30883","45","yes","1024"
"3.257359335","8","6","brew","word","91.30434782608695","91.30434782608695","684.3478260869565","684.3478260869565","black","no","legacy","legacy","legacy","0","uniform","1","undefined","undefined","undefined","1","j","0","0","0","0","45","0","0","0","45","NA","41","45","41","0","41","3","45","0","45","Thu Feb 18 13:47:54 2021","The main experiment item","yes","Lexical_Decision_Task.osexp","/Users/chantallewis","no","Andale Mono","no","18","no","white","no","yes","576","legacy","41","41","3","/Users/chantallewis/subject-5218245.csv","legacy","Lentiform Loewenfeld","3.3.7","yes","yes","600bd7cfb6416f0113b04181","602110864497cf011d9c0822","0","j","NA","space","space","space","NA","j","597","NA","9940","9006","5407","NA","597","2","legacy","1024","2","48000","-16","task","5218245","odd","NA","27653","39597","29656","115703","6356","20791","15380","116206","NA","115700","116206","115644","39597","116804","25972","115144","6315","106674","Lexical Decision Task","42","31480","46","yes","1024"
"2.714888338","0","3","brug","non-word","89.36170212765957","89.36170212765957","683.3191489361702","683.3191489361702","black","no","legacy","legacy","legacy","0","uniform","0","undefined","undefined","undefined","0","f","0","0","0","0","46","0","0","0","46","NA","42","46","42","0","42","3","46","0","46","Thu Feb 18 13:47:54 2021","The main experiment item","yes","Lexical_Decision_Task.osexp","/Users/chantallewis","no","Andale Mono","no","18","no","white","no","yes","576","legacy","42","42","3","/Users/chantallewis/subject-5218245.csv","legacy","Lentiform Loewenfeld","3.3.7","yes","yes","600bd7cfb6416f0113b04181","602110864497cf011d9c0822","0","j","NA","space","space","space","NA","j","636","NA","9940","9006","5407","NA","636","2","legacy","1024","2","48000","-16","task","5218245","odd","NA","27653","39597","29656","117366","6356","20791","15380","117869","NA","117363","117869","117307","39597","118506","25972","116807","6315","106674","Lexical Decision Task","42","32116","47","yes","1024"
"2.6599162","0","6","flug","non-word","89.58333333333333","89.58333333333333","693.375","693.375","black","no","legacy","legacy","legacy","0","uniform","1","undefined","undefined","undefined","1","f","0","0","0","0","47","0","0","0","47","NA","43","47","43","0","43","3","47","0","47","Thu Feb 18 13:47:54 2021","The main experiment item","yes","Lexical_Decision_Task.osexp","/Users/chantallewis","no","Andale Mono","no","18","no","white","no","yes","576","legacy","43","43","3","/Users/chantallewis/subject-5218245.csv","legacy","Lentiform Loewenfeld","3.3.7","yes","yes","600bd7cfb6416f0113b04181","602110864497cf011d9c0822","0","f","NA","space","space","space","NA","f","1166","NA","9940","9006","5407","NA","1166","2","legacy","1024","2","48000","-16","task","5218245","odd","NA","27653","39597","29656","120074","6356","20791","15380","120577","NA","120071","120577","120009","39597","121744","25972","116807","6315","118509","Lexical Decision Task","43","33282","48","yes","1024"
"3.195807436","0","6","stup","non-word","89.79591836734694","89.79591836734694","695.9183673469388","695.9183673469388","black","no","legacy","legacy","legacy","0","uniform","1","undefined","undefined","undefined","1","f","0","0","0","0","48","0","0","0","48","NA","44","48","44","0","44","3","48","0","48","Thu Feb 18 13:47:54 2021","The main experiment item","yes","Lexical_Decision_Task.osexp","/Users/chantallewis","no","Andale Mono","no","18","no","white","no","yes","576","legacy","44","44","3","/Users/chantallewis/subject-5218245.csv","legacy","Lentiform Loewenfeld","3.3.7","yes","yes","600bd7cfb6416f0113b04181","602110864497cf011d9c0822","0","f","NA","space","space","space","NA","f","818","NA","9940","9006","5407","NA","818","2","legacy","1024","2","48000","-16","task","5218245","odd","NA","27653","39597","29656","122306","6356","20791","15380","122809","NA","122303","122809","122247","39597","123628","25972","121747","6315","118509","Lexical Decision Task","44","34100","49","yes","1024"
"3.140404328","10.66","9","deep","word","90","90","697.08","697.08","black","no","legacy","legacy","legacy","0","uniform","1","undefined","undefined","undefined","1","j","0","0","0","0","49","0","0","0","49","NA","45","49","45","0","45","3","49","0","49","Thu Feb 18 13:47:54 2021","The main experiment item","yes","Lexical_Decision_Task.osexp","/Users/chantallewis","no","Andale Mono","no","18","no","white","no","yes","576","legacy","45","45","3","/Users/chantallewis/subject-5218245.csv","legacy","Lentiform Loewenfeld","3.3.7","yes","yes","600bd7cfb6416f0113b04181","602110864497cf011d9c0822","0","j","NA","space","space","space","NA","j","754","NA","9940","9006","5407","NA","754","2","legacy","1024","2","48000","-16","task","5218245","odd","NA","27653","39597","29656","124191","6356","20791","15380","124694","NA","124188","124694","124131","39597","125450","25972","123631","6315","118509","Lexical Decision Task","45","34854","50","yes","1024"
"3.378276681","6.39","8","bran","word","88.23529411764706","88.23529411764706","696.6274509803922","696.6274509803922","black","no","legacy","legacy","legacy","0","uniform","0","undefined","undefined","undefined","0","j","0","0","0","0","50","0","0","0","50","NA","46","50","46","0","46","3","50","0","50","Thu Feb 18 13:47:54 2021","The main experiment item","yes","Lexical_Decision_Task.osexp","/Users/chantallewis","no","Andale Mono","no","18","no","white","no","yes","576","legacy","46","46","3","/Users/chantallewis/subject-5218245.csv","legacy","Lentiform Loewenfeld","3.3.7","yes","yes","600bd7cfb6416f0113b04181","602110864497cf011d9c0822","0","f","NA","space","space","space","NA","f","674","NA","9940","9006","5407","NA","674","2","legacy","1024","2","48000","-16","task","5218245","odd","NA","27653","39597","29656","126013","6356","20791","15380","126516","NA","126010","126516","125954","39597","127191","25972","125454","6315","118509","Lexical Decision Task","45","35528","51","yes","1024"
"2.819763221","0","2","durp","non-word","88.46153846153847","88.46153846153847","695.7307692307693","695.7307692307693","black","no","legacy","legacy","legacy","0","uniform","1","undefined","undefined","undefined","1","f","0","0","0","0","51","0","0","0","51","NA","47","51","47","0","47","3","51","0","51","Thu Feb 18 13:47:54 2021","The main experiment item","yes","Lexical_Decision_Task.osexp","/Users/chantallewis","no","Andale Mono","no","18","no","white","no","yes","576","legacy","47","47","3","/Users/chantallewis/subject-5218245.csv","legacy","Lentiform Loewenfeld","3.3.7","yes","yes","600bd7cfb6416f0113b04181","602110864497cf011d9c0822","0","f","NA","space","space","space","NA","f","650","NA","9940","9006","5407","NA","650","2","legacy","1024","2","48000","-16","task","5218245","odd","NA","27653","39597","29656","128757","6356","20791","15380","129260","NA","128754","129260","128695","39597","129911","25972","125454","6315","127195","Lexical Decision Task","46","36178","52","yes","1024"
"2.6599162","0","2","saff","non-word","88.67924528301887","88.67924528301887","695.433962264151","695.433962264151","black","no","legacy","legacy","legacy","0","uniform","1","undefined","undefined","undefined","1","f","0","0","0","0","52","0","0","0","52","NA","48","52","48","0","48","3","52","0","52","Thu Feb 18 13:47:54 2021","The main experiment item","yes","Lexical_Decision_Task.osexp","/Users/chantallewis","no","Andale Mono","no","18","no","white","no","yes","576","legacy","48","48","3","/Users/chantallewis/subject-5218245.csv","legacy","Lentiform Loewenfeld","3.3.7","yes","yes","600bd7cfb6416f0113b04181","602110864497cf011d9c0822","0","f","NA","space","space","space","NA","f","680","NA","9940","9006","5407","NA","680","2","legacy","1024","2","48000","-16","task","5218245","odd","NA","27653","39597","29656","130475","6356","20791","15380","130978","NA","130472","130979","130416","39597","131660","25972","129915","6315","127195","Lexical Decision Task","47","36858","53","yes","1024"
"2.64476673","0","5","moft","non-word","88.88888888888889","88.88888888888889","694.2592592592592","694.2592592592592","black","no","legacy","legacy","legacy","0","uniform","1","undefined","undefined","undefined","1","f","0","0","0","0","53","0","0","0","53","NA","49","53","49","0","49","3","53","0","53","Thu Feb 18 13:47:54 2021","The main experiment item","yes","Lexical_Decision_Task.osexp","/Users/chantallewis","no","Andale Mono","no","18","no","white","no","yes","576","legacy","49","49","3","/Users/chantallewis/subject-5218245.csv","legacy","Lentiform Loewenfeld","3.3.7","yes","yes","600bd7cfb6416f0113b04181","602110864497cf011d9c0822","0","f","NA","space","space","space","NA","f","632","NA","9940","9006","5407","NA","632","2","legacy","1024","2","48000","-16","task","5218245","odd","NA","27653","39597","29656","132223","6356","20791","15380","132725","NA","132220","132726","132164","39597","133359","25972","131664","6315","127195","Lexical Decision Task","48","37490","54","yes","1024"
"2.972357144","0","5","dasp","non-word","89.0909090909091","89.0909090909091","698.2","698.2","black","no","legacy","legacy","legacy","0","uniform","1","undefined","undefined","undefined","1","f","0","0","0","0","54","0","0","0","54","0","50","54","50","0","50","3","54","0","54","Thu Feb 18 13:47:54 2021","The main experiment item","yes","Lexical_Decision_Task.osexp","/Users/chantallewis","no","Andale Mono","no","18","no","white","no","yes","576","legacy","50","50","3","/Users/chantallewis/subject-5218245.csv","legacy","Lentiform Loewenfeld","3.3.7","yes","yes","600bd7cfb6416f0113b04181","602110864497cf011d9c0822","0","f","NA","space","space","space","space","f","911","NA","9940","9006","5407","3558","911","2","legacy","1024","2","48000","-16","task","5218245","odd","NA","27653","39597","29656","137505","6356","20791","15380","138009","133893","137502","138009","133863","39597","138921","25972","133363","6315","127195","Lexical Decision Task","49","38401","55","yes","1024"
"3.174641193","0","3","ramb","non-word","87.5","87.5","698.3392857142857","698.3392857142857","black","no","legacy","legacy","legacy","0","uniform","0","undefined","undefined","undefined","0","f","0","0","0","0","55","0","0","0","55","0","51","55","51","0","51","3","55","0","55","Thu Feb 18 13:47:54 2021","The main experiment item","yes","Lexical_Decision_Task.osexp","/Users/chantallewis","no","Andale Mono","no","18","no","white","no","yes","576","legacy","51","51","3","/Users/chantallewis/subject-5218245.csv","legacy","Lentiform Loewenfeld","3.3.7","yes","yes","600bd7cfb6416f0113b04181","602110864497cf011d9c0822","0","j","NA","space","space","space","space","j","706","NA","9940","9006","5407","3558","706","2","legacy","1024","2","48000","-16","task","5218245","odd","NA","27653","39597","29656","139484","6356","20791","15380","139988","133893","139482","139988","139425","39597","140695","25972","138925","6315","127195","Lexical Decision Task","49","39107","56","yes","1024"
"2.953276337","6.32","4","thaw","word","85.96491228070175","85.96491228070175","697.578947368421","697.578947368421","black","no","legacy","legacy","legacy","0","uniform","0","undefined","undefined","undefined","0","j","0","0","0","0","56","0","0","0","56","0","52","56","52","0","52","3","56","0","56","Thu Feb 18 13:47:54 2021","The main experiment item","yes","Lexical_Decision_Task.osexp","/Users/chantallewis","no","Andale Mono","no","18","no","white","no","yes","576","legacy","52","52","3","/Users/chantallewis/subject-5218245.csv","legacy","Lentiform Loewenfeld","3.3.7","yes","yes","600bd7cfb6416f0113b04181","602110864497cf011d9c0822","0","f","NA","space","space","space","space","f","655","NA","9940","9006","5407","3558","655","2","legacy","1024","2","48000","-16","task","5218245","odd","NA","27653","39597","29656","142261","6356","20791","15380","142764","133893","142258","142764","142199","39597","143420","25972","138925","6315","140699","Lexical Decision Task","49","39762","57","yes","1024"
"3.230789326","5.38","5","prim","word","84.48275862068965","84.48275862068965","707.2586206896551","707.2586206896551","black","no","legacy","legacy","legacy","0","uniform","0","undefined","undefined","undefined","0","j","0","0","0","0","57","0","0","0","57","0","53","57","53","0","53","3","57","0","57","Thu Feb 18 13:47:54 2021","The main experiment item","yes","Lexical_Decision_Task.osexp","/Users/chantallewis","no","Andale Mono","no","18","no","white","no","yes","576","legacy","53","53","3","/Users/chantallewis/subject-5218245.csv","legacy","Lentiform Loewenfeld","3.3.7","yes","yes","600bd7cfb6416f0113b04181","602110864497cf011d9c0822","0","f","NA","space","space","space","space","f","1259","NA","9940","9006","5407","3558","1259","2","legacy","1024","2","48000","-16","task","5218245","odd","NA","27653","39597","29656","144986","6356","20791","15380","145490","133893","144984","145490","144924","39597","146750","25972","138925","6315","143424","Lexical Decision Task","49","41021","58","yes","1024"
"2.858136002","0","4","phip","non-word","84.7457627118644","84.7457627118644","711.6779661016949","711.6779661016949","black","no","legacy","legacy","legacy","0","uniform","1","undefined","undefined","undefined","1","f","0","0","0","0","58","0","0","0","58","0","54","58","54","0","54","3","58","0","58","Thu Feb 18 13:47:54 2021","The main experiment item","yes","Lexical_Decision_Task.osexp","/Users/chantallewis","no","Andale Mono","no","18","no","white","no","yes","576","legacy","54","54","3","/Users/chantallewis/subject-5218245.csv","legacy","Lentiform Loewenfeld","3.3.7","yes","yes","600bd7cfb6416f0113b04181","602110864497cf011d9c0822","0","f","NA","space","space","space","space","f","968","NA","9940","9006","5407","3558","968","2","legacy","1024","2","48000","-16","task","5218245","odd","NA","27653","39597","29656","148316","6356","20791","15380","148819","133893","148313","148819","148254","39597","149788","25972","138925","6315","146754","Lexical Decision Task","50","41989","59","yes","1024"
"3.031408464","0","7","drow","non-word","85","85","711.3333333333334","711.3333333333334","black","no","legacy","legacy","legacy","0","uniform","1","undefined","undefined","undefined","1","f","0","0","0","0","59","0","0","0","59","0","55","59","55","0","55","3","59","0","59","Thu Feb 18 13:47:54 2021","The main experiment item","yes","Lexical_Decision_Task.osexp","/Users/chantallewis","no","Andale Mono","no","18","no","white","no","yes","576","legacy","55","55","3","/Users/chantallewis/subject-5218245.csv","legacy","Lentiform Loewenfeld","3.3.7","yes","yes","600bd7cfb6416f0113b04181","602110864497cf011d9c0822","0","f","NA","space","space","space","space","f","691","NA","9940","9006","5407","3558","691","2","legacy","1024","2","48000","-16","task","5218245","odd","NA","27653","39597","29656","150351","6356","20791","15380","150854","133893","150348","150854","150292","39597","151546","25972","149792","6315","146754","Lexical Decision Task","51","42680","60","yes","1024"
"3.282244367","0","6","fute","non-word","85.24590163934427","85.24590163934427","709.7540983606557","709.7540983606557","black","no","legacy","legacy","legacy","0","uniform","1","undefined","undefined","undefined","1","f","0","0","0","0","60","0","0","0","60","0","56","60","56","0","56","3","60","0","60","Thu Feb 18 13:47:54 2021","The main experiment item","yes","Lexical_Decision_Task.osexp","/Users/chantallewis","no","Andale Mono","no","18","no","white","no","yes","576","legacy","56","56","3","/Users/chantallewis/subject-5218245.csv","legacy","Lentiform Loewenfeld","3.3.7","yes","yes","600bd7cfb6416f0113b04181","602110864497cf011d9c0822","0","f","NA","space","space","space","space","f","615","NA","9940","9006","5407","3558","615","2","legacy","1024","2","48000","-16","task","5218245","odd","NA","27653","39597","29656","152110","6356","20791","15380","152613","133893","152107","152613","152050","39597","153229","25972","151549","6315","146754","Lexical Decision Task","52","43295","61","yes","1024"
"2.799799878","0","4","ciff","non-word","85.48387096774194","85.48387096774194","706.3064516129032","706.3064516129032","black","no","legacy","legacy","legacy","0","uniform","1","undefined","undefined","undefined","1","f","0","0","0","0","61","0","0","0","61","0","57","61","57","0","57","3","61","0","61","Thu Feb 18 13:47:54 2021","The main experiment item","yes","Lexical_Decision_Task.osexp","/Users/chantallewis","no","Andale Mono","no","18","no","white","no","yes","576","legacy","57","57","3","/Users/chantallewis/subject-5218245.csv","legacy","Lentiform Loewenfeld","3.3.7","yes","yes","600bd7cfb6416f0113b04181","602110864497cf011d9c0822","0","f","NA","space","space","space","space","f","496","NA","9940","9006","5407","3558","496","2","legacy","1024","2","48000","-16","task","5218245","odd","NA","27653","39597","29656","153792","6356","20791","15380","154295","133893","153789","154295","153733","39597","154792","25972","153232","6315","146754","Lexical Decision Task","53","43791","62","yes","1024"
"2.746890964","9.67","3","plug","word","85.71428571428571","85.71428571428571","712.952380952381","712.952380952381","black","no","legacy","legacy","legacy","0","uniform","1","undefined","undefined","undefined","1","j","0","0","0","0","62","0","0","0","62","0","58","62","58","0","58","3","62","0","62","Thu Feb 18 13:47:54 2021","The main experiment item","yes","Lexical_Decision_Task.osexp","/Users/chantallewis","no","Andale Mono","no","18","no","white","no","yes","576","legacy","58","58","3","/Users/chantallewis/subject-5218245.csv","legacy","Lentiform Loewenfeld","3.3.7","yes","yes","600bd7cfb6416f0113b04181","602110864497cf011d9c0822","0","j","NA","space","space","space","space","j","1125","NA","9940","9006","5407","3558","1125","2","legacy","1024","2","48000","-16","task","5218245","odd","NA","27653","39597","29656","155355","6356","20791","15380","155858","133893","155352","155858","155296","39597","156984","25972","154796","6315","146754","Lexical Decision Task","54","44916","63","yes","1024"
"2.576725172","0","8","gowl","non-word","84.375","84.375","717.5625","717.5625","black","no","legacy","legacy","legacy","0","uniform","0","undefined","undefined","undefined","0","f","0","0","0","0","63","0","0","0","63","0","59","63","59","0","59","3","63","0","63","Thu Feb 18 13:47:54 2021","The main experiment item","yes","Lexical_Decision_Task.osexp","/Users/chantallewis","no","Andale Mono","no","18","no","white","no","yes","576","legacy","59","59","3","/Users/chantallewis/subject-5218245.csv","legacy","Lentiform Loewenfeld","3.3.7","yes","yes","600bd7cfb6416f0113b04181","602110864497cf011d9c0822","0","j","NA","space","space","space","space","j","1008","NA","9940","9006","5407","3558","1008","2","legacy","1024","2","48000","-16","task","5218245","odd","NA","27653","39597","29656","157546","6356","20791","15380","158049","133893","157543","158049","157487","39597","159058","25972","156987","6315","146754","Lexical Decision Task","54","45924","64","yes","1024"
"2.698100546","0","9","mulk","non-word","84.61538461538461","84.61538461538461","715.0307692307692","715.0307692307692","black","no","legacy","legacy","legacy","0","uniform","1","undefined","undefined","undefined","1","f","0","0","0","0","64","0","0","0","64","0","60","64","60","0","60","3","64","0","64","Thu Feb 18 13:47:54 2021","The main experiment item","yes","Lexical_Decision_Task.osexp","/Users/chantallewis","no","Andale Mono","no","18","no","white","no","yes","576","legacy","60","60","3","/Users/chantallewis/subject-5218245.csv","legacy","Lentiform Loewenfeld","3.3.7","yes","yes","600bd7cfb6416f0113b04181","602110864497cf011d9c0822","0","f","NA","space","space","space","space","f","553","NA","9940","9006","5407","3558","553","2","legacy","1024","2","48000","-16","task","5218245","odd","NA","27653","39597","29656","160625","6356","20791","15380","161128","133893","160622","161128","160562","39597","161681","25972","156987","6315","159062","Lexical Decision Task","55","46477","65","yes","1024"
"3.153001286","8.7","5","palm","word","84.84848484848484","84.84848484848484","713.469696969697","713.469696969697","black","no","legacy","legacy","legacy","0","uniform","1","undefined","undefined","undefined","1","j","0","0","0","0","65","0","0","0","65","0","61","65","61","0","61","3","65","0","65","Thu Feb 18 13:47:54 2021","The main experiment item","yes","Lexical_Decision_Task.osexp","/Users/chantallewis","no","Andale Mono","no","18","no","white","no","yes","576","legacy","61","61","3","/Users/chantallewis/subject-5218245.csv","legacy","Lentiform Loewenfeld","3.3.7","yes","yes","600bd7cfb6416f0113b04181","602110864497cf011d9c0822","0","j","NA","space","space","space","space","j","612","NA","9940","9006","5407","3558","612","2","legacy","1024","2","48000","-16","task","5218245","odd","NA","27653","39597","29656","162244","6356","20791","15380","162747","133893","162242","162747","162185","39597","163360","25972","161685","6315","159062","Lexical Decision Task","56","47089","66","yes","1024"
"3.374137706","10.21","4","tree","word","85.07462686567165","85.07462686567165","714.6865671641791","714.6865671641791","black","no","legacy","legacy","legacy","0","uniform","1","undefined","undefined","undefined","1","j","0","0","0","0","66","0","0","0","66","0","62","66","62","0","62","3","66","0","66","Thu Feb 18 13:47:54 2021","The main experiment item","yes","Lexical_Decision_Task.osexp","/Users/chantallewis","no","Andale Mono","no","18","no","white","no","yes","576","legacy","62","62","3","/Users/chantallewis/subject-5218245.csv","legacy","Lentiform Loewenfeld","3.3.7","yes","yes","600bd7cfb6416f0113b04181","602110864497cf011d9c0822","0","j","NA","space","space","space","space","j","795","NA","9940","9006","5407","3558","795","2","legacy","1024","2","48000","-16","task","5218245","odd","NA","27653","39597","29656","163924","6356","20791","15380","164427","133893","163921","164427","163864","39597","165223","25972","163364","6315","159062","Lexical Decision Task","57","47884","67","yes","1024"
"3.105055783","0","2","norp","non-word","85.29411764705883","85.29411764705883","714.2941176470588","714.2941176470588","black","no","legacy","legacy","legacy","0","uniform","1","undefined","undefined","undefined","1","f","0","0","0","0","67","0","0","0","67","0","63","67","63","0","63","3","67","0","67","Thu Feb 18 13:47:54 2021","The main experiment item","yes","Lexical_Decision_Task.osexp","/Users/chantallewis","no","Andale Mono","no","18","no","white","no","yes","576","legacy","63","63","3","/Users/chantallewis/subject-5218245.csv","legacy","Lentiform Loewenfeld","3.3.7","yes","yes","600bd7cfb6416f0113b04181","602110864497cf011d9c0822","0","f","NA","space","space","space","space","f","688","NA","9940","9006","5407","3558","688","2","legacy","1024","2","48000","-16","task","5218245","odd","NA","27653","39597","29656","165786","6356","20791","15380","166289","133893","165783","166289","165726","39597","166978","25972","165226","6315","159062","Lexical Decision Task","58","48572","68","yes","1024"
"3.159867847","5.98","5","brim","word","85.5072463768116","85.5072463768116","715.4347826086956","715.4347826086956","black","no","legacy","legacy","legacy","0","uniform","1","undefined","undefined","undefined","1","j","0","0","0","0","68","0","0","0","68","0","64","68","64","0","64","3","68","0","68","Thu Feb 18 13:47:54 2021","The main experiment item","yes","Lexical_Decision_Task.osexp","/Users/chantallewis","no","Andale Mono","no","18","no","white","no","yes","576","legacy","64","64","3","/Users/chantallewis/subject-5218245.csv","legacy","Lentiform Loewenfeld","3.3.7","yes","yes","600bd7cfb6416f0113b04181","602110864497cf011d9c0822","0","j","NA","space","space","space","space","j","793","NA","9940","9006","5407","3558","793","2","legacy","1024","2","48000","-16","task","5218245","odd","NA","27653","39597","29656","167541","6356","20791","15380","168044","133893","167538","168044","167482","39597","168838","25972","166981","6315","159062","Lexical Decision Task","59","49365","69","yes","1024"
"3.031812271","6.52","3","gulp","word","85.71428571428571","85.71428571428571","713.6142857142858","713.6142857142858","black","no","legacy","legacy","legacy","0","uniform","1","undefined","undefined","undefined","1","j","0","0","0","0","69","0","0","0","69","0","65","69","65","0","65","3","69","0","69","Thu Feb 18 13:47:54 2021","The main experiment item","yes","Lexical_Decision_Task.osexp","/Users/chantallewis","no","Andale Mono","no","18","no","white","no","yes","576","legacy","65","65","3","/Users/chantallewis/subject-5218245.csv","legacy","Lentiform Loewenfeld","3.3.7","yes","yes","600bd7cfb6416f0113b04181","602110864497cf011d9c0822","0","j","NA","space","space","space","space","j","588","NA","9940","9006","5407","3558","588","2","legacy","1024","2","48000","-16","task","5218245","odd","NA","27653","39597","29656","169402","6356","20791","15380","169905","133893","169399","169905","169342","39597","170494","25972","168842","6315","159062","Lexical Decision Task","60","49953","70","yes","1024"
"2.843025032","0","9","pusk","non-word","84.50704225352112","84.50704225352112","715.3943661971831","715.3943661971831","black","no","legacy","legacy","legacy","0","uniform","0","undefined","undefined","undefined","0","f","0","0","0","0","70","0","0","0","70","0","66","70","66","0","66","3","70","0","70","Thu Feb 18 13:47:54 2021","The main experiment item","yes","Lexical_Decision_Task.osexp","/Users/chantallewis","no","Andale Mono","no","18","no","white","no","yes","576","legacy","66","66","3","/Users/chantallewis/subject-5218245.csv","legacy","Lentiform Loewenfeld","3.3.7","yes","yes","600bd7cfb6416f0113b04181","602110864497cf011d9c0822","0","j","NA","space","space","space","space","j","840","NA","9940","9006","5407","3558","840","2","legacy","1024","2","48000","-16","task","5218245","odd","NA","27653","39597","29656","171058","6356","20791","15380","171561","133893","171055","171561","170998","39597","172402","25972","170498","6315","159062","Lexical Decision Task","60","50793","71","yes","1024"
"3.14849993","10.75","7","hour","word","84.72222222222223","84.72222222222223","716.5277777777778","716.5277777777778","black","no","legacy","legacy","legacy","0","uniform","1","undefined","undefined","undefined","1","j","0","0","0","0","71","0","0","0","71","0","67","71","67","0","67","3","71","0","71","Thu Feb 18 13:47:54 2021","The main experiment item","yes","Lexical_Decision_Task.osexp","/Users/chantallewis","no","Andale Mono","no","18","no","white","no","yes","576","legacy","67","67","3","/Users/chantallewis/subject-5218245.csv","legacy","Lentiform Loewenfeld","3.3.7","yes","yes","600bd7cfb6416f0113b04181","602110864497cf011d9c0822","0","j","NA","space","space","space","space","j","797","NA","9940","9006","5407","3558","797","2","legacy","1024","2","48000","-16","task","5218245","odd","NA","27653","39597","29656","173969","6356","20791","15380","174472","133893","173966","174472","173906","39597","175270","25972","170498","6315","172406","Lexical Decision Task","61","51590","72","yes","1024"
"3.15462682","0","6","noal","non-word","84.93150684931507","84.93150684931507","714.986301369863","714.986301369863","black","no","legacy","legacy","legacy","0","uniform","1","undefined","undefined","undefined","1","f","0","0","0","0","72","0","0","0","72","0","68","72","68","0","68","3","72","0","72","Thu Feb 18 13:47:54 2021","The main experiment item","yes","Lexical_Decision_Task.osexp","/Users/chantallewis","no","Andale Mono","no","18","no","white","no","yes","576","legacy","68","68","3","/Users/chantallewis/subject-5218245.csv","legacy","Lentiform Loewenfeld","3.3.7","yes","yes","600bd7cfb6416f0113b04181","602110864497cf011d9c0822","0","f","NA","space","space","space","space","f","604","NA","9940","9006","5407","3558","604","2","legacy","1024","2","48000","-16","task","5218245","odd","NA","27653","39597","29656","175833","6356","20791","15380","176335","133893","175831","176335","175774","39597","176940","25972","175274","6315","172406","Lexical Decision Task","62","52194","73","yes","1024"
"3.010582609","0","2","drod","non-word","85.13513513513513","85.13513513513513","714.6621621621622","714.6621621621622","black","no","legacy","legacy","legacy","0","uniform","1","undefined","undefined","undefined","1","f","0","0","0","0","73","0","0","0","73","0","69","73","69","0","69","3","73","0","73","Thu Feb 18 13:47:54 2021","The main experiment item","yes","Lexical_Decision_Task.osexp","/Users/chantallewis","no","Andale Mono","no","18","no","white","no","yes","576","legacy","69","69","3","/Users/chantallewis/subject-5218245.csv","legacy","Lentiform Loewenfeld","3.3.7","yes","yes","600bd7cfb6416f0113b04181","602110864497cf011d9c0822","0","f","NA","space","space","space","space","f","691","NA","9940","9006","5407","3558","691","2","legacy","1024","2","48000","-16","task","5218245","odd","NA","27653","39597","29656","177503","6356","20791","15380","178006","133893","177500","178006","177444","39597","178698","25972","176944","6315","172406","Lexical Decision Task","63","52885","74","yes","1024"
"3.274157849","0","8","leet","non-word","85.33333333333333","85.33333333333333","715.0133333333333","715.0133333333333","black","no","legacy","legacy","legacy","0","uniform","1","undefined","undefined","undefined","1","f","0","0","0","0","74","0","0","0","74","0","70","74","70","0","70","3","74","0","74","Thu Feb 18 13:47:54 2021","The main experiment item","yes","Lexical_Decision_Task.osexp","/Users/chantallewis","no","Andale Mono","no","18","no","white","no","yes","576","legacy","70","70","3","/Users/chantallewis/subject-5218245.csv","legacy","Lentiform Loewenfeld","3.3.7","yes","yes","600bd7cfb6416f0113b04181","602110864497cf011d9c0822","0","f","NA","space","space","space","space","f","741","NA","9940","9006","5407","3558","741","2","legacy","1024","2","48000","-16","task","5218245","odd","NA","27653","39597","29656","179261","6356","20791","15380","179764","133893","179258","179764","179202","39597","180506","25972","178702","6315","172406","Lexical Decision Task","64","53626","75","yes","1024"
"2.696356389","0","1","pizz","non-word","85.52631578947368","85.52631578947368","714.9342105263158","714.9342105263158","black","no","legacy","legacy","legacy","0","uniform","1","undefined","undefined","undefined","1","f","0","0","0","0","75","0","0","0","75","0","71","75","71","0","71","3","75","0","75","Thu Feb 18 13:47:54 2021","The main experiment item","yes","Lexical_Decision_Task.osexp","/Users/chantallewis","no","Andale Mono","no","18","no","white","no","yes","576","legacy","71","71","3","/Users/chantallewis/subject-5218245.csv","legacy","Lentiform Loewenfeld","3.3.7","yes","yes","600bd7cfb6416f0113b04181","602110864497cf011d9c0822","0","f","NA","space","space","space","space","f","709","NA","9940","9006","5407","3558","709","2","legacy","1024","2","48000","-16","task","5218245","odd","NA","27653","39597","29656","181070","6356","20791","15380","181573","133893","181067","181573","181009","39597","182283","25972","180509","6315","172406","Lexical Decision Task","65","54335","76","yes","1024"
"3.094121596","0","8","fode","non-word","85.71428571428571","85.71428571428571","713.961038961039","713.961038961039","black","no","legacy","legacy","legacy","0","uniform","1","undefined","undefined","undefined","1","f","0","0","0","0","76","0","0","0","76","0","72","76","72","0","72","3","76","0","76","Thu Feb 18 13:47:54 2021","The main experiment item","yes","Lexical_Decision_Task.osexp","/Users/chantallewis","no","Andale Mono","no","18","no","white","no","yes","576","legacy","72","72","3","/Users/chantallewis/subject-5218245.csv","legacy","Lentiform Loewenfeld","3.3.7","yes","yes","600bd7cfb6416f0113b04181","602110864497cf011d9c0822","0","f","NA","space","space","space","space","f","640","NA","9940","9006","5407","3558","640","2","legacy","1024","2","48000","-16","task","5218245","odd","NA","27653","39597","29656","182847","6356","20791","15380","183350","133893","182844","183350","182787","39597","183992","25972","182287","6315","172406","Lexical Decision Task","66","54975","77","yes","1024"
"3.134602053","0","8","jart","non-word","85.8974358974359","85.8974358974359","712.8717948717949","712.8717948717949","black","no","legacy","legacy","legacy","0","uniform","1","undefined","undefined","undefined","1","f","0","0","0","0","77","0","0","0","77","0","73","77","73","0","73","3","77","0","77","Thu Feb 18 13:47:54 2021","The main experiment item","yes","Lexical_Decision_Task.osexp","/Users/chantallewis","no","Andale Mono","no","18","no","white","no","yes","576","legacy","73","73","3","/Users/chantallewis/subject-5218245.csv","legacy","Lentiform Loewenfeld","3.3.7","yes","yes","600bd7cfb6416f0113b04181","602110864497cf011d9c0822","0","f","NA","space","space","space","space","f","629","NA","9940","9006","5407","3558","629","2","legacy","1024","2","48000","-16","task","5218245","odd","NA","27653","39597","29656","184556","6356","20791","15380","185059","133893","184553","185059","184496","39597","185689","25972","183996","6315","172406","Lexical Decision Task","67","55604","78","yes","1024"
"2.709837904","6.85","8","skim","word","86.07594936708861","86.07594936708861","714.4050632911392","714.4050632911392","black","no","legacy","legacy","legacy","0","uniform","1","undefined","undefined","undefined","1","j","0","0","0","0","78","0","0","0","78","0","74","78","74","0","74","3","78","0","78","Thu Feb 18 13:47:54 2021","The main experiment item","yes","Lexical_Decision_Task.osexp","/Users/chantallewis","no","Andale Mono","no","18","no","white","no","yes","576","legacy","74","74","3","/Users/chantallewis/subject-5218245.csv","legacy","Lentiform Loewenfeld","3.3.7","yes","yes","600bd7cfb6416f0113b04181","602110864497cf011d9c0822","0","j","NA","space","space","space","space","j","834","NA","9940","9006","5407","3558","834","2","legacy","1024","2","48000","-16","task","5218245","odd","NA","27653","39597","29656","186252","6356","20791","15380","186756","133893","186249","186756","186193","39597","187591","25972","185693","6315","172406","Lexical Decision Task","68","56438","79","yes","1024"
"3.384413096","10.15","3","glad","word","86.25","86.25","711.8875","711.8875","black","no","legacy","legacy","legacy","0","uniform","1","undefined","undefined","undefined","1","j","0","0","0","0","79","0","0","0","79","0","75","79","75","0","75","3","79","0","79","Thu Feb 18 13:47:54 2021","The main experiment item","yes","Lexical_Decision_Task.osexp","/Users/chantallewis","no","Andale Mono","no","18","no","white","no","yes","576","legacy","75","75","3","/Users/chantallewis/subject-5218245.csv","legacy","Lentiform Loewenfeld","3.3.7","yes","yes","600bd7cfb6416f0113b04181","602110864497cf011d9c0822","0","j","NA","space","space","space","space","j","513","NA","9940","9006","5407","3558","513","2","legacy","1024","2","48000","-16","task","5218245","odd","NA","27653","39597","29656","188155","6356","20791","15380","188658","133893","188152","188658","188095","39597","189172","25972","187595","6315","172406","Lexical Decision Task","69","56951","80","yes","1024"
"3.028977705","0","7","frow","non-word","86.41975308641975","86.41975308641975","715.3086419753087","715.3086419753087","black","no","legacy","legacy","legacy","0","uniform","1","undefined","undefined","undefined","1","f","0","0","0","0","80","0","0","0","80","0","76","80","76","0","76","3","80","0","80","Thu Feb 18 13:47:54 2021","The main experiment item","yes","Lexical_Decision_Task.osexp","/Users/chantallewis","no","Andale Mono","no","18","no","white","no","yes","576","legacy","76","76","3","/Users/chantallewis/subject-5218245.csv","legacy","Lentiform Loewenfeld","3.3.7","yes","yes","600bd7cfb6416f0113b04181","602110864497cf011d9c0822","0","f","NA","space","space","space","space","f","989","NA","9940","9006","5407","3558","989","2","legacy","1024","2","48000","-16","task","5218245","odd","NA","27653","39597","29656","189736","6356","20791","15380","190239","133893","189733","190239","189676","39597","191229","25972","189176","6315","172406","Lexical Decision Task","70","57940","81","yes","1024"
"2.68604012","0","3","mulb","non-word","86.58536585365853","86.58536585365853","713.890243902439","713.890243902439","black","no","legacy","legacy","legacy","0","uniform","1","undefined","undefined","undefined","1","f","0","0","0","0","81","0","0","0","81","0","77","81","77","0","77","3","81","0","81","Thu Feb 18 13:47:54 2021","The main experiment item","yes","Lexical_Decision_Task.osexp","/Users/chantallewis","no","Andale Mono","no","18","no","white","no","yes","576","legacy","77","77","3","/Users/chantallewis/subject-5218245.csv","legacy","Lentiform Loewenfeld","3.3.7","yes","yes","600bd7cfb6416f0113b04181","602110864497cf011d9c0822","0","f","NA","space","space","space","space","f","599","NA","9940","9006","5407","3558","599","2","legacy","1024","2","48000","-16","task","5218245","odd","NA","27653","39597","29656","191792","6356","20791","15380","192295","133893","191789","192295","191733","39597","192895","25972","191233","6315","172406","Lexical Decision Task","71","58539","82","yes","1024"
"3.156347201","0","8","lasp","non-word","86.74698795180723","86.74698795180723","712.6024096385543","712.6024096385543","black","no","legacy","legacy","legacy","0","uniform","1","undefined","undefined","undefined","1","f","0","0","0","0","82","0","0","0","82","0","78","82","78","0","78","3","82","0","82","Thu Feb 18 13:47:54 2021","The main experiment item","yes","Lexical_Decision_Task.osexp","/Users/chantallewis","no","Andale Mono","no","18","no","white","no","yes","576","legacy","78","78","3","/Users/chantallewis/subject-5218245.csv","legacy","Lentiform Loewenfeld","3.3.7","yes","yes","600bd7cfb6416f0113b04181","602110864497cf011d9c0822","0","f","NA","space","space","space","space","f","607","NA","9940","9006","5407","3558","607","2","legacy","1024","2","48000","-16","task","5218245","odd","NA","27653","39597","29656","193458","6356","20791","15380","193960","133893","193456","193960","193399","39597","194569","25972","192899","6315","172406","Lexical Decision Task","72","59146","83","yes","1024"
"3.495914186","0","4","peng","non-word","85.71428571428571","85.71428571428571","715.7738095238095","715.7738095238095","black","no","legacy","legacy","legacy","0","uniform","0","undefined","undefined","undefined","0","f","0","0","0","0","83","0","0","0","83","0","79","83","79","0","79","3","83","0","83","Thu Feb 18 13:47:54 2021","The main experiment item","yes","Lexical_Decision_Task.osexp","/Users/chantallewis","no","Andale Mono","no","18","no","white","no","yes","576","legacy","79","79","3","/Users/chantallewis/subject-5218245.csv","legacy","Lentiform Loewenfeld","3.3.7","yes","yes","600bd7cfb6416f0113b04181","602110864497cf011d9c0822","0","j","NA","space","space","space","space","j","979","NA","9940","9006","5407","3558","979","2","legacy","1024","2","48000","-16","task","5218245","odd","NA","27653","39597","29656","195131","6356","20791","15380","195634","133893","195128","195634","195072","39597","196614","25972","194572","6315","172406","Lexical Decision Task","72","60125","84","yes","1024"
"2.755364069","7.72","2","hoax","word","85.88235294117646","85.88235294117646","717.0705882352942","717.0705882352942","black","no","legacy","legacy","legacy","0","uniform","1","undefined","undefined","undefined","1","j","0","0","0","0","84","0","0","0","84","0","80","84","80","0","80","3","84","0","84","Thu Feb 18 13:47:54 2021","The main experiment item","yes","Lexical_Decision_Task.osexp","/Users/chantallewis","no","Andale Mono","no","18","no","white","no","yes","576","legacy","80","80","3","/Users/chantallewis/subject-5218245.csv","legacy","Lentiform Loewenfeld","3.3.7","yes","yes","600bd7cfb6416f0113b04181","602110864497cf011d9c0822","0","j","NA","space","space","space","space","j","826","NA","9940","9006","5407","3558","826","2","legacy","1024","2","48000","-16","task","5218245","odd","NA","27653","39597","29656","198181","6356","20791","15380","198684","133893","198178","198684","198118","39597","199511","25972","194572","6315","196618","Lexical Decision Task","73","60951","85","yes","1024"
"3.299579929","0","2","flis","non-word","86.04651162790698","86.04651162790698","718.3837209302326","718.3837209302326","black","no","legacy","legacy","legacy","0","uniform","1","undefined","undefined","undefined","1","f","0","0","0","0","85","0","0","0","85","0","81","85","81","0","81","3","85","0","85","Thu Feb 18 13:47:54 2021","The main experiment item","yes","Lexical_Decision_Task.osexp","/Users/chantallewis","no","Andale Mono","no","18","no","white","no","yes","576","legacy","81","81","3","/Users/chantallewis/subject-5218245.csv","legacy","Lentiform Loewenfeld","3.3.7","yes","yes","600bd7cfb6416f0113b04181","602110864497cf011d9c0822","0","f","NA","space","space","space","space","f","830","NA","9940","9006","5407","3558","830","2","legacy","1024","2","48000","-16","task","5218245","odd","NA","27653","39597","29656","200075","6356","20791","15380","200578","133893","200072","200578","200014","39597","201409","25972","199514","6315","196618","Lexical Decision Task","74","61781","86","yes","1024"
"3.062080345","0","6","tomp","non-word","86.20689655172414","86.20689655172414","717.7126436781609","717.7126436781609","black","no","legacy","legacy","legacy","0","uniform","1","undefined","undefined","undefined","1","f","0","0","0","0","86","0","0","0","86","0","82","86","82","0","82","3","86","0","86","Thu Feb 18 13:47:54 2021","The main experiment item","yes","Lexical_Decision_Task.osexp","/Users/chantallewis","no","Andale Mono","no","18","no","white","no","yes","576","legacy","82","82","3","/Users/chantallewis/subject-5218245.csv","legacy","Lentiform Loewenfeld","3.3.7","yes","yes","600bd7cfb6416f0113b04181","602110864497cf011d9c0822","0","f","NA","space","space","space","space","f","660","NA","9940","9006","5407","3558","660","2","legacy","1024","2","48000","-16","task","5218245","odd","NA","27653","39597","29656","201972","6356","20791","15380","202475","133893","201969","202475","201913","39597","203136","25972","201412","6315","196618","Lexical Decision Task","75","62441","87","yes","1024"
"3.197740804","6.74","3","ache","word","86.36363636363636","86.36363636363636","717.1590909090909","717.1590909090909","black","no","legacy","legacy","legacy","0","uniform","1","undefined","undefined","undefined","1","j","0","0","0","0","87","0","0","0","87","0","83","87","83","0","83","3","87","0","87","Thu Feb 18 13:47:54 2021","The main experiment item","yes","Lexical_Decision_Task.osexp","/Users/chantallewis","no","Andale Mono","no","18","no","white","no","yes","576","legacy","83","83","3","/Users/chantallewis/subject-5218245.csv","legacy","Lentiform Loewenfeld","3.3.7","yes","yes","600bd7cfb6416f0113b04181","602110864497cf011d9c0822","0","j","NA","space","space","space","space","j","669","NA","9940","9006","5407","3558","669","2","legacy","1024","2","48000","-16","task","5218245","odd","NA","27653","39597","29656","203710","6356","20791","15380","204212","133893","203707","204213","203639","39597","204883","25972","203139","6315","196618","Lexical Decision Task","76","63110","88","yes","1024"
"3.121778632","0","9","sark","non-word","86.51685393258427","86.51685393258427","716.9662921348314","716.9662921348314","black","no","legacy","legacy","legacy","0","uniform","1","undefined","undefined","undefined","1","f","0","0","0","0","88","0","0","0","88","0","84","88","84","0","84","3","88","0","88","Thu Feb 18 13:47:54 2021","The main experiment item","yes","Lexical_Decision_Task.osexp","/Users/chantallewis","no","Andale Mono","no","18","no","white","no","yes","576","legacy","84","84","3","/Users/chantallewis/subject-5218245.csv","legacy","Lentiform Loewenfeld","3.3.7","yes","yes","600bd7cfb6416f0113b04181","602110864497cf011d9c0822","0","f","NA","space","space","space","space","f","700","NA","9940","9006","5407","3558","700","2","legacy","1024","2","48000","-16","task","5218245","odd","NA","27653","39597","29656","205445","6356","20791","15380","205948","133893","205443","205948","205386","39597","206649","25972","204886","6315","196618","Lexical Decision Task","77","63810","89","yes","1024"
"3.064581521","5.51","6","cask","word","86.66666666666667","86.66666666666667","718.2888888888889","718.2888888888889","black","no","legacy","legacy","legacy","0","uniform","1","undefined","undefined","undefined","1","j","0","0","0","0","89","0","0","0","89","0","85","89","85","0","85","3","89","0","89","Thu Feb 18 13:47:54 2021","The main experiment item","yes","Lexical_Decision_Task.osexp","/Users/chantallewis","no","Andale Mono","no","18","no","white","no","yes","576","legacy","85","85","3","/Users/chantallewis/subject-5218245.csv","legacy","Lentiform Loewenfeld","3.3.7","yes","yes","600bd7cfb6416f0113b04181","602110864497cf011d9c0822","0","j","NA","space","space","space","space","j","836","NA","9940","9006","5407","3558","836","2","legacy","1024","2","48000","-16","task","5218245","odd","NA","27653","39597","29656","207213","6356","20791","15380","207716","133893","207210","207716","207153","39597","208553","25972","206653","6315","196618","Lexical Decision Task","78","64646","90","yes","1024"
"2.803231716","5.26","3","kiln","word","86.81318681318682","86.81318681318682","720.3186813186813","720.3186813186813","black","no","legacy","legacy","legacy","0","uniform","1","undefined","undefined","undefined","1","j","0","0","0","0","90","0","0","0","90","0","86","90","86","0","86","3","90","0","90","Thu Feb 18 13:47:54 2021","The main experiment item","yes","Lexical_Decision_Task.osexp","/Users/chantallewis","no","Andale Mono","no","18","no","white","no","yes","576","legacy","86","86","3","/Users/chantallewis/subject-5218245.csv","legacy","Lentiform Loewenfeld","3.3.7","yes","yes","600bd7cfb6416f0113b04181","602110864497cf011d9c0822","0","j","NA","space","space","space","space","j","903","NA","9940","9006","5407","3558","903","2","legacy","1024","2","48000","-16","task","5218245","odd","NA","27653","39597","29656","209116","6356","20791","15380","209619","133893","209114","209619","209057","39597","210523","25972","208557","6315","196618","Lexical Decision Task","79","65549","91","yes","1024"
"3.307211407","6.07","7","honk","word","86.95652173913044","86.95652173913044","718.2826086956521","718.2826086956521","black","no","legacy","legacy","legacy","0","uniform","1","undefined","undefined","undefined","1","j","0","0","0","0","91","0","0","0","91","0","87","91","87","0","87","3","91","0","91","Thu Feb 18 13:47:54 2021","The main experiment item","yes","Lexical_Decision_Task.osexp","/Users/chantallewis","no","Andale Mono","no","18","no","white","no","yes","576","legacy","87","87","3","/Users/chantallewis/subject-5218245.csv","legacy","Lentiform Loewenfeld","3.3.7","yes","yes","600bd7cfb6416f0113b04181","602110864497cf011d9c0822","0","j","NA","space","space","space","space","j","533","NA","9940","9006","5407","3558","533","2","legacy","1024","2","48000","-16","task","5218245","odd","NA","27653","39597","29656","211087","6356","20791","15380","211590","133893","211084","211590","211026","39597","212124","25972","210526","6315","196618","Lexical Decision Task","80","66082","92","yes","1024"
"2.898725182","0","7","turl","non-word","86.02150537634408","86.02150537634408","719.9569892473119","719.9569892473119","black","no","legacy","legacy","legacy","0","uniform","0","undefined","undefined","undefined","0","f","0","0","0","0","92","0","0","0","92","0","88","92","88","0","88","3","92","0","92","Thu Feb 18 13:47:54 2021","The main experiment item","yes","Lexical_Decision_Task.osexp","/Users/chantallewis","no","Andale Mono","no","18","no","white","no","yes","576","legacy","88","88","3","/Users/chantallewis/subject-5218245.csv","legacy","Lentiform Loewenfeld","3.3.7","yes","yes","600bd7cfb6416f0113b04181","602110864497cf011d9c0822","0","j","NA","space","space","space","space","j","874","NA","9940","9006","5407","3558","874","2","legacy","1024","2","48000","-16","task","5218245","odd","NA","27653","39597","29656","212688","6356","20791","15380","213191","133893","212685","213191","212628","39597","214066","25972","212128","6315","196618","Lexical Decision Task","80","66956","93","yes","1024"
"2.971428938","9.86","7","spot","word","86.17021276595744","86.17021276595744","718.4468085106383","718.4468085106383","black","no","legacy","legacy","legacy","0","uniform","1","undefined","undefined","undefined","1","j","0","0","0","0","93","0","0","0","93","0","89","93","89","0","89","3","93","0","93","Thu Feb 18 13:47:54 2021","The main experiment item","yes","Lexical_Decision_Task.osexp","/Users/chantallewis","no","Andale Mono","no","18","no","white","no","yes","576","legacy","89","89","3","/Users/chantallewis/subject-5218245.csv","legacy","Lentiform Loewenfeld","3.3.7","yes","yes","600bd7cfb6416f0113b04181","602110864497cf011d9c0822","0","j","NA","space","space","space","space","j","578","NA","9940","9006","5407","3558","578","2","legacy","1024","2","48000","-16","task","5218245","odd","NA","27653","39597","29656","215634","6356","20791","15380","216137","133893","215631","216137","215571","39597","216716","25972","212128","6315","214071","Lexical Decision Task","81","67534","94","yes","1024"
"2.924968096","0","4","phim","non-word","86.3157894736842","86.3157894736842","718.2526315789473","718.2526315789473","black","no","legacy","legacy","legacy","0","uniform","1","undefined","undefined","undefined","1","f","0","0","0","0","94","0","0","0","94","0","90","94","90","0","90","3","94","0","94","Thu Feb 18 13:47:54 2021","The main experiment item","yes","Lexical_Decision_Task.osexp","/Users/chantallewis","no","Andale Mono","no","18","no","white","no","yes","576","legacy","90","90","3","/Users/chantallewis/subject-5218245.csv","legacy","Lentiform Loewenfeld","3.3.7","yes","yes","600bd7cfb6416f0113b04181","602110864497cf011d9c0822","0","f","NA","space","space","space","space","f","700","NA","9940","9006","5407","3558","700","2","legacy","1024","2","48000","-16","task","5218245","odd","NA","27653","39597","29656","217281","6356","20791","15380","217785","133893","217279","217785","217220","39597","218487","25972","216720","6315","214071","Lexical Decision Task","82","68234","95","yes","1024"
"3.091901331","0","9","nipe","non-word","86.45833333333333","86.45833333333333","717.1145833333334","717.1145833333334","black","no","legacy","legacy","legacy","0","uniform","1","undefined","undefined","undefined","1","f","0","0","0","0","95","0","0","0","95","0","91","95","91","0","91","3","95","0","95","Thu Feb 18 13:47:54 2021","The main experiment item","yes","Lexical_Decision_Task.osexp","/Users/chantallewis","no","Andale Mono","no","18","no","white","no","yes","576","legacy","91","91","3","/Users/chantallewis/subject-5218245.csv","legacy","Lentiform Loewenfeld","3.3.7","yes","yes","600bd7cfb6416f0113b04181","602110864497cf011d9c0822","0","f","NA","space","space","space","space","f","609","NA","9940","9006","5407","3558","609","2","legacy","1024","2","48000","-16","task","5218245","odd","NA","27653","39597","29656","219052","6356","20791","15380","219555","133893","219049","219555","218990","39597","220165","25972","218490","6315","214071","Lexical Decision Task","83","68843","96","yes","1024"
"3.347850856","10.51","2","rich","word","86.5979381443299","86.5979381443299","717.020618556701","717.020618556701","black","no","legacy","legacy","legacy","0","uniform","1","undefined","undefined","undefined","1","j","0","0","0","0","96","0","0","0","96","0","92","96","92","0","92","3","96","0","96","Thu Feb 18 13:47:54 2021","The main experiment item","yes","Lexical_Decision_Task.osexp","/Users/chantallewis","no","Andale Mono","no","18","no","white","no","yes","576","legacy","92","92","3","/Users/chantallewis/subject-5218245.csv","legacy","Lentiform Loewenfeld","3.3.7","yes","yes","600bd7cfb6416f0113b04181","602110864497cf011d9c0822","0","j","NA","space","space","space","space","j","708","NA","9940","9006","5407","3558","708","2","legacy","1024","2","48000","-16","task","5218245","odd","NA","27653","39597","29656","220728","6356","20791","15380","221231","133893","220725","221231","220669","39597","221940","25972","220169","6315","214071","Lexical Decision Task","84","69551","97","yes","1024"
"2.920123326","7.43","4","duel","word","86.73469387755102","86.73469387755102","716.4183673469388","716.4183673469388","black","no","legacy","legacy","legacy","0","uniform","1","undefined","undefined","undefined","1","j","0","0","0","0","97","0","0","0","97","0","93","97","93","0","93","3","97","0","97","Thu Feb 18 13:47:54 2021","The main experiment item","yes","Lexical_Decision_Task.osexp","/Users/chantallewis","no","Andale Mono","no","18","no","white","no","yes","576","legacy","93","93","3","/Users/chantallewis/subject-5218245.csv","legacy","Lentiform Loewenfeld","3.3.7","yes","yes","600bd7cfb6416f0113b04181","602110864497cf011d9c0822","0","j","NA","space","space","space","space","j","658","NA","9940","9006","5407","3558","658","2","legacy","1024","2","48000","-16","task","5218245","odd","NA","27653","39597","29656","222504","6356","20791","15380","223007","133893","222502","223007","222443","39597","223666","25972","221943","6315","214071","Lexical Decision Task","85","70209","98","yes","1024"
"3.209246849","0","7","slem","non-word","86.86868686868686","86.86868686868686","720.0909090909091","720.0909090909091","black","no","legacy","legacy","legacy","0","uniform","1","undefined","undefined","undefined","1","f","0","0","0","0","98","0","0","0","98","0","94","98","94","0","94","3","98","0","98","Thu Feb 18 13:47:54 2021","The main experiment item","yes","Lexical_Decision_Task.osexp","/Users/chantallewis","no","Andale Mono","no","18","no","white","no","yes","576","legacy","94","94","3","/Users/chantallewis/subject-5218245.csv","legacy","Lentiform Loewenfeld","3.3.7","yes","yes","600bd7cfb6416f0113b04181","602110864497cf011d9c0822","0","f","NA","space","space","space","space","f","1080","NA","9940","9006","5407","3558","1080","2","legacy","1024","2","48000","-16","task","5218245","odd","NA","27653","39597","29656","224229","6356","20791","15380","224733","133893","224227","224733","224170","39597","225814","25972","223670","6315","214071","Lexical Decision Task","86","71289","99","yes","1024"
"3.165936429","0","7","leps","non-word","87","87","721.81","721.81","black","no","legacy","legacy","legacy","0","uniform","1","undefined","undefined","undefined","1","f","0","0","0","0","99","0","0","0","99","0","95","99","95","0","95","3","99","0","99","Thu Feb 18 13:47:54 2021","The main experiment item","yes","Lexical_Decision_Task.osexp","/Users/chantallewis","no","Andale Mono","no","18","no","white","no","yes","576","legacy","95","95","3","/Users/chantallewis/subject-5218245.csv","legacy","Lentiform Loewenfeld","3.3.7","yes","yes","600bd7cfb6416f0113b04181","602110864497cf011d9c0822","0","f","NA","space","space","space","space","f","892","NA","9940","9006","5407","3558","892","2","legacy","1024","2","48000","-16","task","5218245","odd","NA","27653","39597","29656","226377","6356","20791","15380","226881","133893","226374","226881","226318","39597","227774","25972","225818","6315","214071","Lexical Decision Task","87","72181","100","yes","1024"
"2.937852093","0","7","bamp","non-word","87.12871287128714","87.12871287128714","723.7920792079208","723.7920792079208","black","no","legacy","legacy","legacy","0","uniform","1","undefined","undefined","undefined","1","f","0","0","0","0","100","0","0","0","100","0","96","100","96","0","96","3","100","0","100","Thu Feb 18 13:47:54 2021","The main experiment item","yes","Lexical_Decision_Task.osexp","/Users/chantallewis","no","Andale Mono","no","18","no","white","no","yes","576","legacy","96","96","3","/Users/chantallewis/subject-5218245.csv","legacy","Lentiform Loewenfeld","3.3.7","yes","yes","600bd7cfb6416f0113b04181","602110864497cf011d9c0822","0","f","NA","space","space","space","space","f","922","NA","9940","9006","5407","3558","922","2","legacy","1024","2","48000","-16","task","5218245","odd","NA","27653","39597","29656","228337","6356","20791","15380","228840","133893","228335","228840","228278","39597","229763","25972","227778","6315","214071","Lexical Decision Task","88","73103","101","yes","1024"
"2.907588697","8.91","9","mood","word","87.25490196078431","87.25490196078431","722.6372549019608","722.6372549019608","black","no","legacy","legacy","legacy","0","uniform","1","undefined","undefined","undefined","1","j","0","0","0","0","101","0","0","0","101","0","97","101","97","0","97","3","101","0","101","Thu Feb 18 13:47:54 2021","The main experiment item","yes","Lexical_Decision_Task.osexp","/Users/chantallewis","no","Andale Mono","no","18","no","white","no","yes","576","legacy","97","97","3","/Users/chantallewis/subject-5218245.csv","legacy","Lentiform Loewenfeld","3.3.7","yes","yes","600bd7cfb6416f0113b04181","602110864497cf011d9c0822","0","j","NA","space","space","space","space","j","606","NA","9940","9006","5407","3558","606","2","legacy","1024","2","48000","-16","task","5218245","odd","NA","27653","39597","29656","230326","6356","20791","15380","230830","133893","230324","230830","230267","39597","231437","25972","229767","6315","214071","Lexical Decision Task","89","73709","102","yes","1024"
