"Log_BG","Log_Freq_HAL","Ortho_N","Stimulus","Type","acc","accuracy","average_response_time","avg_rt","background","bidi","canvas_backend","clock_backend","color_backend","compensation","coordinates","correct","correct_Experimental_intro","correct_Introduction","correct_Practice_intro","correct_experimenter_kb","correct_response","count_End_Of_Experiment","count_End_Of_Practice","count_Experimental_Loop","count_Experimental_intro","count_Fixation","count_Introduction","count_Practice_Loop","count_Practice_intro","count_Stimulus","count_block_break_feedback","count_experimental_sequence","count_experimenter_kb","count_increment_trial_count","count_init_trial_count","count_logger","count_practice_sequence","count_right","count_task","count_wrong","datetime","description","disable_garbage_collection","experiment_file","experiment_path","font_bold","font_family","font_italic","font_size","font_underline","foreground","form_clicks","fullscreen","height","keyboard_backend","live_row","live_row_Experimental_Loop","live_row_Practice_Loop","logfile","mouse_backend","opensesame_codename","opensesame_version","osf_always_upload_data","osf_always_upload_experiment","osf_datanode_id","osf_id","repeat_cycle","response","response_End_Of_Experiment","response_Experimental_intro","response_Introduction","response_Practice_intro","response_block_break_feedback","response_experimenter_kb","response_time","response_time_End_Of_Experiment","response_time_Experimental_intro","response_time_Introduction","response_time_Practice_intro","response_time_block_break_feedback","response_time_experimenter_kb","round_decimals","sampler_backend","sound_buf_size","sound_channels","sound_freq","sound_sample_size","start","subject_nr","subject_parity","time_End_Of_Experiment","time_End_Of_Practice","time_Experimental_Loop","time_Experimental_intro","time_Fixation","time_Introduction","time_Practice_Loop","time_Practice_intro","time_Stimulus","time_block_break_feedback","time_experimental_sequence","time_experimenter_kb","time_increment_trial_count","time_init_trial_count","time_logger","time_practice_sequence","time_right","time_task","time_wrong","title","total_correct","total_response_time","total_responses","uniform_coordinates","width"
"3.372543801","9.24","8","coat","word","80","80","1675.8","1675.8","black","no","legacy","legacy","legacy","0","uniform","1","undefined","undefined","undefined","1","j","0","0","0","0","4","0","0","0","4","NA","0","4","0","0","0","3","4","0","4","Thu Feb 18 11:23:16 2021","The main experiment item","yes","Lexical_Decision_Task.osexp","/Users/helen/Desktop","no","Andale Mono","no","18","no","white","no","yes","576","legacy","0","0","3","/Users/helen/Desktop/subject-5203522.csv","legacy","Lentiform Loewenfeld","3.3.7","yes","yes","600bd7cfb6416f0113b04181","602110864497cf011d9c0822","0","j","NA","right shift","right shift","right shift","NA","j","1688","NA","11725","37520","22668","NA","1688","2","legacy","1024","2","48000","-16","task","5203522","even","NA","80806","94533","82808","94582","8421","68613","45945","95084","NA","94579","95084","NA","94533","96774","78885","80264","8295","72262","Lexical Decision Task","4","8379","5","yes","1024"
"2.744553742","0","2","nawk","non-word","83.33333333333333","83.33333333333333","1549.6666666666667","1549.6666666666667","black","no","legacy","legacy","legacy","0","uniform","1","undefined","undefined","undefined","1","f","0","0","0","0","5","0","0","0","5","NA","1","5","1","0","1","3","5","0","5","Thu Feb 18 11:23:16 2021","The main experiment item","yes","Lexical_Decision_Task.osexp","/Users/helen/Desktop","no","Andale Mono","no","18","no","white","no","yes","576","legacy","1","1","3","/Users/helen/Desktop/subject-5203522.csv","legacy","Lentiform Loewenfeld","3.3.7","yes","yes","600bd7cfb6416f0113b04181","602110864497cf011d9c0822","0","f","NA","right shift","right shift","right shift","NA","f","919","NA","11725","37520","22668","NA","919","2","legacy","1024","2","48000","-16","task","5203522","even","NA","80806","94533","82808","97391","8421","68613","45945","97893","NA","97389","97893","97282","94533","98814","78885","96782","8295","72262","Lexical Decision Task","5","9298","6","yes","1024"
"3.131833513","7.66","4","limb","word","85.71428571428571","85.71428571428571","1428","1428","black","no","legacy","legacy","legacy","0","uniform","1","undefined","undefined","undefined","1","j","0","0","0","0","6","0","0","0","6","NA","2","6","2","0","2","3","6","0","6","Thu Feb 18 11:23:16 2021","The main experiment item","yes","Lexical_Decision_Task.osexp","/Users/helen/Desktop","no","Andale Mono","no","18","no","white","no","yes","576","legacy","2","2","3","/Users/helen/Desktop/subject-5203522.csv","legacy","Lentiform Loewenfeld","3.3.7","yes","yes","600bd7cfb6416f0113b04181","602110864497cf011d9c0822","0","j","NA","right shift","right shift","right shift","NA","j","698","NA","11725","37520","22668","NA","698","2","legacy","1024","2","48000","-16","task","5203522","even","NA","80806","94533","82808","99404","8421","68613","45945","99906","NA","99401","99906","99319","94533","100606","78885","98818","8295","72262","Lexical Decision Task","6","9996","7","yes","1024"
"2.971428938","9.86","7","spot","word","87.5","87.5","1336.875","1336.875","black","no","legacy","legacy","legacy","0","uniform","1","undefined","undefined","undefined","1","j","0","0","0","0","7","0","0","0","7","NA","3","7","3","0","3","3","7","0","7","Thu Feb 18 11:23:16 2021","The main experiment item","yes","Lexical_Decision_Task.osexp","/Users/helen/Desktop","no","Andale Mono","no","18","no","white","no","yes","576","legacy","3","3","3","/Users/helen/Desktop/subject-5203522.csv","legacy","Lentiform Loewenfeld","3.3.7","yes","yes","600bd7cfb6416f0113b04181","602110864497cf011d9c0822","0","j","NA","right shift","right shift","right shift","NA","j","699","NA","11725","37520","22668","NA","699","2","legacy","1024","2","48000","-16","task","5203522","even","NA","80806","94533","82808","101195","8421","68613","45945","101697","NA","101192","101697","101110","94533","102398","78885","100610","8295","72262","Lexical Decision Task","7","10695","8","yes","1024"
"2.767650507","0","6","yolt","non-word","88.88888888888889","88.88888888888889","1298","1298","black","no","legacy","legacy","legacy","0","uniform","1","undefined","undefined","undefined","1","f","0","0","0","0","8","0","0","0","8","NA","4","8","4","0","4","3","8","0","8","Thu Feb 18 11:23:16 2021","The main experiment item","yes","Lexical_Decision_Task.osexp","/Users/helen/Desktop","no","Andale Mono","no","18","no","white","no","yes","576","legacy","4","4","3","/Users/helen/Desktop/subject-5203522.csv","legacy","Lentiform Loewenfeld","3.3.7","yes","yes","600bd7cfb6416f0113b04181","602110864497cf011d9c0822","0","f","NA","right shift","right shift","right shift","NA","f","987","NA","11725","37520","22668","NA","987","2","legacy","1024","2","48000","-16","task","5203522","even","NA","80806","94533","82808","102987","8421","68613","45945","103489","NA","102985","103489","102903","94533","104478","78885","102403","8295","72262","Lexical Decision Task","8","11682","9","yes","1024"
"2.892836167","10.01","5","soft","word","90","90","1270.2","1270.2","black","no","legacy","legacy","legacy","0","uniform","1","undefined","undefined","undefined","1","j","0","0","0","0","9","0","0","0","9","NA","5","9","5","0","5","3","9","0","9","Thu Feb 18 11:23:16 2021","The main experiment item","yes","Lexical_Decision_Task.osexp","/Users/helen/Desktop","no","Andale Mono","no","18","no","white","no","yes","576","legacy","5","5","3","/Users/helen/Desktop/subject-5203522.csv","legacy","Lentiform Loewenfeld","3.3.7","yes","yes","600bd7cfb6416f0113b04181","602110864497cf011d9c0822","0","j","NA","right shift","right shift","right shift","NA","j","1020","NA","11725","37520","22668","NA","1020","2","legacy","1024","2","48000","-16","task","5203522","even","NA","80806","94533","82808","105066","8421","68613","45945","105568","NA","105064","105568","104982","94533","106590","78885","104482","8295","72262","Lexical Decision Task","9","12702","10","yes","1024"
"3.068433376","8.09","2","bulb","word","90.9090909090909","90.9090909090909","1347","1347","black","no","legacy","legacy","legacy","0","uniform","1","undefined","undefined","undefined","1","j","0","0","0","0","10","0","0","0","10","NA","6","10","6","0","6","3","10","0","10","Thu Feb 18 11:23:16 2021","The main experiment item","yes","Lexical_Decision_Task.osexp","/Users/helen/Desktop","no","Andale Mono","no","18","no","white","no","yes","576","legacy","6","6","3","/Users/helen/Desktop/subject-5203522.csv","legacy","Lentiform Loewenfeld","3.3.7","yes","yes","600bd7cfb6416f0113b04181","602110864497cf011d9c0822","0","j","NA","right shift","right shift","right shift","NA","j","2115","NA","11725","37520","22668","NA","2115","2","legacy","1024","2","48000","-16","task","5203522","even","NA","80806","94533","82808","107179","8421","68613","45945","107681","NA","107176","107681","107094","94533","109798","78885","106594","8295","72262","Lexical Decision Task","10","14817","11","yes","1024"
"3.049218023","7.4","9","robe","word","91.66666666666667","91.66666666666667","1292.3333333333333","1292.3333333333333","black","no","legacy","legacy","legacy","0","uniform","1","undefined","undefined","undefined","1","j","0","0","0","0","11","0","0","0","11","NA","7","11","7","0","7","3","11","0","11","Thu Feb 18 11:23:16 2021","The main experiment item","yes","Lexical_Decision_Task.osexp","/Users/helen/Desktop","no","Andale Mono","no","18","no","white","no","yes","576","legacy","7","7","3","/Users/helen/Desktop/subject-5203522.csv","legacy","Lentiform Loewenfeld","3.3.7","yes","yes","600bd7cfb6416f0113b04181","602110864497cf011d9c0822","0","j","NA","right shift","right shift","right shift","NA","j","691","NA","11725","37520","22668","NA","691","2","legacy","1024","2","48000","-16","task","5203522","even","NA","80806","94533","82808","110387","8421","68613","45945","110889","NA","110384","110889","110302","94533","111582","78885","109802","8295","72262","Lexical Decision Task","11","15508","12","yes","1024"
"2.95456409","0","4","taud","non-word","92.3076923076923","92.3076923076923","1275","1275","black","no","legacy","legacy","legacy","0","uniform","1","undefined","undefined","undefined","1","f","0","0","0","0","12","0","0","0","12","NA","8","12","8","0","8","3","12","0","12","Thu Feb 18 11:23:16 2021","The main experiment item","yes","Lexical_Decision_Task.osexp","/Users/helen/Desktop","no","Andale Mono","no","18","no","white","no","yes","576","legacy","8","8","3","/Users/helen/Desktop/subject-5203522.csv","legacy","Lentiform Loewenfeld","3.3.7","yes","yes","600bd7cfb6416f0113b04181","602110864497cf011d9c0822","0","f","NA","right shift","right shift","right shift","NA","f","1067","NA","11725","37520","22668","NA","1067","2","legacy","1024","2","48000","-16","task","5203522","even","NA","80806","94533","82808","112171","8421","68613","45945","112673","NA","112168","112673","112086","94533","113742","78885","111586","8295","72262","Lexical Decision Task","12","16575","13","yes","1024"
"3.216517684","10.87","3","film","word","92.85714285714286","92.85714285714286","1222.4285714285713","1222.4285714285713","black","no","legacy","legacy","legacy","0","uniform","1","undefined","undefined","undefined","1","j","0","0","0","0","13","0","0","0","13","NA","9","13","9","0","9","3","13","0","13","Thu Feb 18 11:23:16 2021","The main experiment item","yes","Lexical_Decision_Task.osexp","/Users/helen/Desktop","no","Andale Mono","no","18","no","white","no","yes","576","legacy","9","9","3","/Users/helen/Desktop/subject-5203522.csv","legacy","Lentiform Loewenfeld","3.3.7","yes","yes","600bd7cfb6416f0113b04181","602110864497cf011d9c0822","0","j","NA","right shift","right shift","right shift","NA","j","539","NA","11725","37520","22668","NA","539","2","legacy","1024","2","48000","-16","task","5203522","even","NA","80806","94533","82808","114331","8421","68613","45945","114833","NA","114328","114833","114246","94533","115374","78885","113746","8295","72262","Lexical Decision Task","13","17114","14","yes","1024"
"3.259832699","0","9","flar","non-word","93.33333333333333","93.33333333333333","1264.4","1264.4","black","no","legacy","legacy","legacy","0","uniform","1","undefined","undefined","undefined","1","f","0","0","0","0","14","0","0","0","14","NA","10","14","10","0","10","3","14","0","14","Thu Feb 18 11:23:16 2021","The main experiment item","yes","Lexical_Decision_Task.osexp","/Users/helen/Desktop","no","Andale Mono","no","18","no","white","no","yes","576","legacy","10","10","3","/Users/helen/Desktop/subject-5203522.csv","legacy","Lentiform Loewenfeld","3.3.7","yes","yes","600bd7cfb6416f0113b04181","602110864497cf011d9c0822","0","f","NA","right shift","right shift","right shift","NA","f","1852","NA","11725","37520","22668","NA","1852","2","legacy","1024","2","48000","-16","task","5203522","even","NA","80806","94533","82808","115962","8421","68613","45945","116464","NA","115960","116464","115878","94533","118318","78885","115378","8295","72262","Lexical Decision Task","14","18966","15","yes","1024"
"3.488597715","0","9","nain","non-word","93.75","93.75","1245.125","1245.125","black","no","legacy","legacy","legacy","0","uniform","1","undefined","undefined","undefined","1","f","0","0","0","0","15","0","0","0","15","NA","11","15","11","0","11","3","15","0","15","Thu Feb 18 11:23:16 2021","The main experiment item","yes","Lexical_Decision_Task.osexp","/Users/helen/Desktop","no","Andale Mono","no","18","no","white","no","yes","576","legacy","11","11","3","/Users/helen/Desktop/subject-5203522.csv","legacy","Lentiform Loewenfeld","3.3.7","yes","yes","600bd7cfb6416f0113b04181","602110864497cf011d9c0822","0","f","NA","right shift","right shift","right shift","NA","f","956","NA","11725","37520","22668","NA","956","2","legacy","1024","2","48000","-16","task","5203522","even","NA","80806","94533","82808","118906","8421","68613","45945","119408","NA","118903","119408","118822","94533","120366","78885","118322","8295","72262","Lexical Decision Task","15","19922","16","yes","1024"
"2.838639236","0","4","furg","non-word","94.11764705882354","94.11764705882354","1221.7058823529412","1221.7058823529412","black","no","legacy","legacy","legacy","0","uniform","1","undefined","undefined","undefined","1","f","0","0","0","0","16","0","0","0","16","NA","12","16","12","0","12","3","16","0","16","Thu Feb 18 11:23:16 2021","The main experiment item","yes","Lexical_Decision_Task.osexp","/Users/helen/Desktop","no","Andale Mono","no","18","no","white","no","yes","576","legacy","12","12","3","/Users/helen/Desktop/subject-5203522.csv","legacy","Lentiform Loewenfeld","3.3.7","yes","yes","600bd7cfb6416f0113b04181","602110864497cf011d9c0822","0","f","NA","right shift","right shift","right shift","NA","f","847","NA","11725","37520","22668","NA","847","2","legacy","1024","2","48000","-16","task","5203522","even","NA","80806","94533","82808","120983","8421","68613","45945","121485","NA","120980","121485","120898","94533","122334","78885","120398","8295","72262","Lexical Decision Task","16","20769","17","yes","1024"
"3.230789326","5.38","5","prim","word","94.44444444444444","94.44444444444444","1204.6666666666667","1204.6666666666667","black","no","legacy","legacy","legacy","0","uniform","1","undefined","undefined","undefined","1","j","0","0","0","0","17","0","0","0","17","NA","13","17","13","0","13","3","17","0","17","Thu Feb 18 11:23:16 2021","The main experiment item","yes","Lexical_Decision_Task.osexp","/Users/helen/Desktop","no","Andale Mono","no","18","no","white","no","yes","576","legacy","13","13","3","/Users/helen/Desktop/subject-5203522.csv","legacy","Lentiform Loewenfeld","3.3.7","yes","yes","600bd7cfb6416f0113b04181","602110864497cf011d9c0822","0","j","NA","right shift","right shift","right shift","NA","j","915","NA","11725","37520","22668","NA","915","2","legacy","1024","2","48000","-16","task","5203522","even","NA","80806","94533","82808","122922","8421","68613","45945","123425","NA","122920","123425","122838","94533","124342","78885","122338","8295","72262","Lexical Decision Task","17","21684","18","yes","1024"
"2.972819734","0","4","scew","non-word","89.47368421052632","89.47368421052632","1180","1180","black","no","legacy","legacy","legacy","0","uniform","0","undefined","undefined","undefined","0","f","0","0","0","0","18","0","0","0","18","NA","14","18","14","0","14","3","18","0","18","Thu Feb 18 11:23:16 2021","The main experiment item","yes","Lexical_Decision_Task.osexp","/Users/helen/Desktop","no","Andale Mono","no","18","no","white","no","yes","576","legacy","14","14","3","/Users/helen/Desktop/subject-5203522.csv","legacy","Lentiform Loewenfeld","3.3.7","yes","yes","600bd7cfb6416f0113b04181","602110864497cf011d9c0822","0","j","NA","right shift","right shift","right shift","NA","j","736","NA","11725","37520","22668","NA","736","2","legacy","1024","2","48000","-16","task","5203522","even","NA","80806","94533","82808","124966","8421","68613","45945","125468","NA","124963","125468","124882","94533","126206","78885","124382","8295","72262","Lexical Decision Task","17","22420","19","yes","1024"
"3.119255889","6.63","2","itch","word","90","90","1156.4","1156.4","black","no","legacy","legacy","legacy","0","uniform","1","undefined","undefined","undefined","1","j","0","0","0","0","19","0","0","0","19","NA","15","19","15","0","15","3","19","0","19","Thu Feb 18 11:23:16 2021","The main experiment item","yes","Lexical_Decision_Task.osexp","/Users/helen/Desktop","no","Andale Mono","no","18","no","white","no","yes","576","legacy","15","15","3","/Users/helen/Desktop/subject-5203522.csv","legacy","Lentiform Loewenfeld","3.3.7","yes","yes","600bd7cfb6416f0113b04181","602110864497cf011d9c0822","0","j","NA","right shift","right shift","right shift","NA","j","708","NA","11725","37520","22668","NA","708","2","legacy","1024","2","48000","-16","task","5203522","even","NA","80806","94533","82808","127794","8421","68613","45945","128296","NA","127791","128296","127710","94533","129006","78885","124382","8295","126210","Lexical Decision Task","18","23128","20","yes","1024"
"2.8162413","0","5","nusk","non-word","90.47619047619048","90.47619047619048","1138.952380952381","1138.952380952381","black","no","legacy","legacy","legacy","0","uniform","1","undefined","undefined","undefined","1","f","0","0","0","0","20","0","0","0","20","NA","16","20","16","0","16","3","20","0","20","Thu Feb 18 11:23:16 2021","The main experiment item","yes","Lexical_Decision_Task.osexp","/Users/helen/Desktop","no","Andale Mono","no","18","no","white","no","yes","576","legacy","16","16","3","/Users/helen/Desktop/subject-5203522.csv","legacy","Lentiform Loewenfeld","3.3.7","yes","yes","600bd7cfb6416f0113b04181","602110864497cf011d9c0822","0","f","NA","right shift","right shift","right shift","NA","f","790","NA","11725","37520","22668","NA","790","2","legacy","1024","2","48000","-16","task","5203522","even","NA","80806","94533","82808","129608","8421","68613","45945","130110","NA","129605","130110","129523","94533","130902","78885","129023","8295","126210","Lexical Decision Task","19","23918","21","yes","1024"
"2.884795364","0","6","flob","non-word","90.9090909090909","90.9090909090909","1113.1363636363637","1113.1363636363637","black","no","legacy","legacy","legacy","0","uniform","1","undefined","undefined","undefined","1","f","0","0","0","0","21","0","0","0","21","NA","17","21","17","0","17","3","21","0","21","Thu Feb 18 11:23:16 2021","The main experiment item","yes","Lexical_Decision_Task.osexp","/Users/helen/Desktop","no","Andale Mono","no","18","no","white","no","yes","576","legacy","17","17","3","/Users/helen/Desktop/subject-5203522.csv","legacy","Lentiform Loewenfeld","3.3.7","yes","yes","600bd7cfb6416f0113b04181","602110864497cf011d9c0822","0","f","NA","right shift","right shift","right shift","NA","f","571","NA","11725","37520","22668","NA","571","2","legacy","1024","2","48000","-16","task","5203522","even","NA","80806","94533","82808","131490","8421","68613","45945","131993","NA","131488","131993","131406","94533","132566","78885","130906","8295","126210","Lexical Decision Task","20","24489","22","yes","1024"
"2.812467698","0","7","hafe","non-word","91.30434782608695","91.30434782608695","1102.0869565217392","1102.0869565217392","black","no","legacy","legacy","legacy","0","uniform","1","undefined","undefined","undefined","1","f","0","0","0","0","22","0","0","0","22","NA","18","22","18","0","18","3","22","0","22","Thu Feb 18 11:23:16 2021","The main experiment item","yes","Lexical_Decision_Task.osexp","/Users/helen/Desktop","no","Andale Mono","no","18","no","white","no","yes","576","legacy","18","18","3","/Users/helen/Desktop/subject-5203522.csv","legacy","Lentiform Loewenfeld","3.3.7","yes","yes","600bd7cfb6416f0113b04181","602110864497cf011d9c0822","0","f","NA","right shift","right shift","right shift","NA","f","859","NA","11725","37520","22668","NA","859","2","legacy","1024","2","48000","-16","task","5203522","even","NA","80806","94533","82808","133155","8421","68613","45945","133657","NA","133152","133657","133070","94533","134518","78885","132570","8295","126210","Lexical Decision Task","21","25348","23","yes","1024"
"2.966923697","5.4","2","fume","word","91.66666666666667","91.66666666666667","1083.625","1083.625","black","no","legacy","legacy","legacy","0","uniform","1","undefined","undefined","undefined","1","j","0","0","0","0","23","0","0","0","23","NA","19","23","19","0","19","3","23","0","23","Thu Feb 18 11:23:16 2021","The main experiment item","yes","Lexical_Decision_Task.osexp","/Users/helen/Desktop","no","Andale Mono","no","18","no","white","no","yes","576","legacy","19","19","3","/Users/helen/Desktop/subject-5203522.csv","legacy","Lentiform Loewenfeld","3.3.7","yes","yes","600bd7cfb6416f0113b04181","602110864497cf011d9c0822","0","j","NA","right shift","right shift","right shift","NA","j","659","NA","11725","37520","22668","NA","659","2","legacy","1024","2","48000","-16","task","5203522","even","NA","80806","94533","82808","135106","8421","68613","45945","135609","NA","135104","135609","135022","94533","136270","78885","134522","8295","126210","Lexical Decision Task","22","26007","24","yes","1024"
"2.799799878","0","4","ciff","non-word","92","92","1084.88","1084.88","black","no","legacy","legacy","legacy","0","uniform","1","undefined","undefined","undefined","1","f","0","0","0","0","24","0","0","0","24","NA","20","24","20","0","20","3","24","0","24","Thu Feb 18 11:23:16 2021","The main experiment item","yes","Lexical_Decision_Task.osexp","/Users/helen/Desktop","no","Andale Mono","no","18","no","white","no","yes","576","legacy","20","20","3","/Users/helen/Desktop/subject-5203522.csv","legacy","Lentiform Loewenfeld","3.3.7","yes","yes","600bd7cfb6416f0113b04181","602110864497cf011d9c0822","0","f","NA","right shift","right shift","right shift","NA","f","1115","NA","11725","37520","22668","NA","1115","2","legacy","1024","2","48000","-16","task","5203522","even","NA","80806","94533","82808","136859","8421","68613","45945","137361","NA","136856","137361","136774","94533","138478","78885","136274","8295","126210","Lexical Decision Task","23","27122","25","yes","1024"
"3.031408464","0","7","drow","non-word","88.46153846153847","88.46153846153847","1073.4615384615386","1073.4615384615386","black","no","legacy","legacy","legacy","0","uniform","0","undefined","undefined","undefined","0","f","0","0","0","0","25","0","0","0","25","NA","21","25","21","0","21","3","25","0","25","Thu Feb 18 11:23:16 2021","The main experiment item","yes","Lexical_Decision_Task.osexp","/Users/helen/Desktop","no","Andale Mono","no","18","no","white","no","yes","576","legacy","21","21","3","/Users/helen/Desktop/subject-5203522.csv","legacy","Lentiform Loewenfeld","3.3.7","yes","yes","600bd7cfb6416f0113b04181","602110864497cf011d9c0822","0","j","NA","right shift","right shift","right shift","NA","j","788","NA","11725","37520","22668","NA","788","2","legacy","1024","2","48000","-16","task","5203522","even","NA","80806","94533","82808","139066","8421","68613","45945","139568","NA","139063","139568","138982","94533","140358","78885","138482","8295","126210","Lexical Decision Task","23","27910","26","yes","1024"
"3.382617311","0","4","pret","non-word","85.18518518518519","85.18518518518519","1064.3333333333333","1064.3333333333333","black","no","legacy","legacy","legacy","0","uniform","0","undefined","undefined","undefined","0","f","0","0","0","0","26","0","0","0","26","NA","22","26","22","0","22","3","26","0","26","Thu Feb 18 11:23:16 2021","The main experiment item","yes","Lexical_Decision_Task.osexp","/Users/helen/Desktop","no","Andale Mono","no","18","no","white","no","yes","576","legacy","22","22","3","/Users/helen/Desktop/subject-5203522.csv","legacy","Lentiform Loewenfeld","3.3.7","yes","yes","600bd7cfb6416f0113b04181","602110864497cf011d9c0822","0","j","NA","right shift","right shift","right shift","NA","j","827","NA","11725","37520","22668","NA","827","2","legacy","1024","2","48000","-16","task","5203522","even","NA","80806","94533","82808","141947","8421","68613","45945","142449","NA","141944","142449","141862","94533","143278","78885","138482","8295","140362","Lexical Decision Task","23","28737","27","yes","1024"
"2.755364069","7.72","2","hoax","word","85.71428571428571","85.71428571428571","1053.607142857143","1053.607142857143","black","no","legacy","legacy","legacy","0","uniform","1","undefined","undefined","undefined","1","j","0","0","0","0","27","0","0","0","27","NA","23","27","23","0","23","3","27","0","27","Thu Feb 18 11:23:16 2021","The main experiment item","yes","Lexical_Decision_Task.osexp","/Users/helen/Desktop","no","Andale Mono","no","18","no","white","no","yes","576","legacy","23","23","3","/Users/helen/Desktop/subject-5203522.csv","legacy","Lentiform Loewenfeld","3.3.7","yes","yes","600bd7cfb6416f0113b04181","602110864497cf011d9c0822","0","j","NA","right shift","right shift","right shift","NA","j","764","NA","11725","37520","22668","NA","764","2","legacy","1024","2","48000","-16","task","5203522","even","NA","80806","94533","82808","144866","8421","68613","45945","145368","NA","144864","145368","144782","94533","146134","78885","138482","8295","143282","Lexical Decision Task","24","29501","28","yes","1024"
"3.132473155","0","4","glim","non-word","86.20689655172414","86.20689655172414","1036.6896551724137","1036.6896551724137","black","no","legacy","legacy","legacy","0","uniform","1","undefined","undefined","undefined","1","f","0","0","0","0","28","0","0","0","28","NA","24","28","24","0","24","3","28","0","28","Thu Feb 18 11:23:16 2021","The main experiment item","yes","Lexical_Decision_Task.osexp","/Users/helen/Desktop","no","Andale Mono","no","18","no","white","no","yes","576","legacy","24","24","3","/Users/helen/Desktop/subject-5203522.csv","legacy","Lentiform Loewenfeld","3.3.7","yes","yes","600bd7cfb6416f0113b04181","602110864497cf011d9c0822","0","f","NA","right shift","right shift","right shift","NA","f","563","NA","11725","37520","22668","NA","563","2","legacy","1024","2","48000","-16","task","5203522","even","NA","80806","94533","82808","146722","8421","68613","45945","147225","NA","146720","147225","146638","94533","147790","78885","146138","8295","143282","Lexical Decision Task","25","30064","29","yes","1024"
"2.839898939","8.99","6","soap","word","86.66666666666667","86.66666666666667","1023.0666666666667","1023.0666666666667","black","no","legacy","legacy","legacy","0","uniform","1","undefined","undefined","undefined","1","j","0","0","0","0","29","0","0","0","29","NA","25","29","25","0","25","3","29","0","29","Thu Feb 18 11:23:16 2021","The main experiment item","yes","Lexical_Decision_Task.osexp","/Users/helen/Desktop","no","Andale Mono","no","18","no","white","no","yes","576","legacy","25","25","3","/Users/helen/Desktop/subject-5203522.csv","legacy","Lentiform Loewenfeld","3.3.7","yes","yes","600bd7cfb6416f0113b04181","602110864497cf011d9c0822","0","j","NA","right shift","right shift","right shift","NA","j","628","NA","11725","37520","22668","NA","628","2","legacy","1024","2","48000","-16","task","5203522","even","NA","80806","94533","82808","148378","8421","68613","45945","148880","NA","148375","148880","148294","94533","149510","78885","147794","8295","143282","Lexical Decision Task","26","30692","30","yes","1024"
"2.819763221","0","2","durp","non-word","87.09677419354838","87.09677419354838","1012.0967741935484","1012.0967741935484","black","no","legacy","legacy","legacy","0","uniform","1","undefined","undefined","undefined","1","f","0","0","0","0","30","0","0","0","30","NA","26","30","26","0","26","3","30","0","30","Thu Feb 18 11:23:16 2021","The main experiment item","yes","Lexical_Decision_Task.osexp","/Users/helen/Desktop","no","Andale Mono","no","18","no","white","no","yes","576","legacy","26","26","3","/Users/helen/Desktop/subject-5203522.csv","legacy","Lentiform Loewenfeld","3.3.7","yes","yes","600bd7cfb6416f0113b04181","602110864497cf011d9c0822","0","f","NA","right shift","right shift","right shift","NA","f","683","NA","11725","37520","22668","NA","683","2","legacy","1024","2","48000","-16","task","5203522","even","NA","80806","94533","82808","150099","8421","68613","45945","150601","NA","150096","150601","150014","94533","151286","78885","149514","8295","143282","Lexical Decision Task","27","31375","31","yes","1024"
"3.276537627","9.15","5","trap","word","87.5","87.5","1000.09375","1000.09375","black","no","legacy","legacy","legacy","0","uniform","1","undefined","undefined","undefined","1","j","0","0","0","0","31","0","0","0","31","NA","27","31","27","0","27","3","31","0","31","Thu Feb 18 11:23:16 2021","The main experiment item","yes","Lexical_Decision_Task.osexp","/Users/helen/Desktop","no","Andale Mono","no","18","no","white","no","yes","576","legacy","27","27","3","/Users/helen/Desktop/subject-5203522.csv","legacy","Lentiform Loewenfeld","3.3.7","yes","yes","600bd7cfb6416f0113b04181","602110864497cf011d9c0822","0","j","NA","right shift","right shift","right shift","NA","j","628","NA","11725","37520","22668","NA","628","2","legacy","1024","2","48000","-16","task","5203522","even","NA","80806","94533","82808","151874","8421","68613","45945","152376","NA","151871","152376","151790","94533","153006","78885","151290","8295","143282","Lexical Decision Task","28","32003","32","yes","1024"
"2.893578687","8.69","3","surf","word","87.87878787878788","87.87878787878788","987.5757575757576","987.5757575757576","black","no","legacy","legacy","legacy","0","uniform","1","undefined","undefined","undefined","1","j","0","0","0","0","32","0","0","0","32","NA","28","32","28","0","28","3","32","0","32","Thu Feb 18 11:23:16 2021","The main experiment item","yes","Lexical_Decision_Task.osexp","/Users/helen/Desktop","no","Andale Mono","no","18","no","white","no","yes","576","legacy","28","28","3","/Users/helen/Desktop/subject-5203522.csv","legacy","Lentiform Loewenfeld","3.3.7","yes","yes","600bd7cfb6416f0113b04181","602110864497cf011d9c0822","0","j","NA","right shift","right shift","right shift","NA","j","587","NA","11725","37520","22668","NA","587","2","legacy","1024","2","48000","-16","task","5203522","even","NA","80806","94533","82808","153595","8421","68613","45945","154097","NA","153592","154097","153510","94533","154686","78885","153010","8295","143282","Lexical Decision Task","29","32590","33","yes","1024"
"2.86332286","6.71","2","feud","word","85.29411764705883","85.29411764705883","977","977","black","no","legacy","legacy","legacy","0","uniform","0","undefined","undefined","undefined","0","j","0","0","0","0","33","0","0","0","33","NA","29","33","29","0","29","3","33","0","33","Thu Feb 18 11:23:16 2021","The main experiment item","yes","Lexical_Decision_Task.osexp","/Users/helen/Desktop","no","Andale Mono","no","18","no","white","no","yes","576","legacy","29","29","3","/Users/helen/Desktop/subject-5203522.csv","legacy","Lentiform Loewenfeld","3.3.7","yes","yes","600bd7cfb6416f0113b04181","602110864497cf011d9c0822","0","f","NA","right shift","right shift","right shift","NA","f","628","NA","11725","37520","22668","NA","628","2","legacy","1024","2","48000","-16","task","5203522","even","NA","80806","94533","82808","155274","8421","68613","45945","155776","NA","155271","155776","155190","94533","156406","78885","154690","8295","143282","Lexical Decision Task","29","33218","34","yes","1024"
"3.16326079","0","5","parg","non-word","85.71428571428571","85.71428571428571","972.9428571428572","972.9428571428572","black","no","legacy","legacy","legacy","0","uniform","1","undefined","undefined","undefined","1","f","0","0","0","0","34","0","0","0","34","NA","30","34","30","0","30","3","34","0","34","Thu Feb 18 11:23:16 2021","The main experiment item","yes","Lexical_Decision_Task.osexp","/Users/helen/Desktop","no","Andale Mono","no","18","no","white","no","yes","576","legacy","30","30","3","/Users/helen/Desktop/subject-5203522.csv","legacy","Lentiform Loewenfeld","3.3.7","yes","yes","600bd7cfb6416f0113b04181","602110864497cf011d9c0822","0","f","NA","right shift","right shift","right shift","NA","f","835","NA","11725","37520","22668","NA","835","2","legacy","1024","2","48000","-16","task","5203522","even","NA","80806","94533","82808","157995","8421","68613","45945","158497","NA","157992","158497","157910","94533","159334","78885","154690","8295","156410","Lexical Decision Task","30","34053","35","yes","1024"
"2.873320602","0","4","lurg","non-word","83.33333333333333","83.33333333333333","969.5555555555555","969.5555555555555","black","no","legacy","legacy","legacy","0","uniform","0","undefined","undefined","undefined","0","f","0","0","0","0","35","0","0","0","35","NA","31","35","31","0","31","3","35","0","35","Thu Feb 18 11:23:16 2021","The main experiment item","yes","Lexical_Decision_Task.osexp","/Users/helen/Desktop","no","Andale Mono","no","18","no","white","no","yes","576","legacy","31","31","3","/Users/helen/Desktop/subject-5203522.csv","legacy","Lentiform Loewenfeld","3.3.7","yes","yes","600bd7cfb6416f0113b04181","602110864497cf011d9c0822","0","j","NA","right shift","right shift","right shift","NA","j","851","NA","11725","37520","22668","NA","851","2","legacy","1024","2","48000","-16","task","5203522","even","NA","80806","94533","82808","159923","8421","68613","45945","160425","NA","159921","160425","159839","94533","161278","78885","159338","8295","156410","Lexical Decision Task","30","34904","36","yes","1024"
"2.937852093","0","7","bamp","non-word","83.78378378378379","83.78378378378379","972.3783783783783","972.3783783783783","black","no","legacy","legacy","legacy","0","uniform","1","undefined","undefined","undefined","1","f","0","0","0","0","36","0","0","0","36","NA","32","36","32","0","32","3","36","0","36","Thu Feb 18 11:23:16 2021","The main experiment item","yes","Lexical_Decision_Task.osexp","/Users/helen/Desktop","no","Andale Mono","no","18","no","white","no","yes","576","legacy","32","32","3","/Users/helen/Desktop/subject-5203522.csv","legacy","Lentiform Loewenfeld","3.3.7","yes","yes","600bd7cfb6416f0113b04181","602110864497cf011d9c0822","0","f","NA","right shift","right shift","right shift","NA","f","1074","NA","11725","37520","22668","NA","1074","2","legacy","1024","2","48000","-16","task","5203522","even","NA","80806","94533","82808","162868","8421","68613","45945","163370","NA","162865","163370","162782","94533","164446","78885","159338","8295","161282","Lexical Decision Task","31","35978","37","yes","1024"
"3.159867847","5.98","5","brim","word","84.21052631578948","84.21052631578948","973.6052631578947","973.6052631578947","black","no","legacy","legacy","legacy","0","uniform","1","undefined","undefined","undefined","1","j","0","0","0","0","37","0","0","0","37","NA","33","37","33","0","33","3","37","0","37","Thu Feb 18 11:23:16 2021","The main experiment item","yes","Lexical_Decision_Task.osexp","/Users/helen/Desktop","no","Andale Mono","no","18","no","white","no","yes","576","legacy","33","33","3","/Users/helen/Desktop/subject-5203522.csv","legacy","Lentiform Loewenfeld","3.3.7","yes","yes","600bd7cfb6416f0113b04181","602110864497cf011d9c0822","0","j","NA","right shift","right shift","right shift","NA","j","1019","NA","11725","37520","22668","NA","1019","2","legacy","1024","2","48000","-16","task","5203522","even","NA","80806","94533","82808","165035","8421","68613","45945","165537","NA","165032","165537","164950","94533","166558","78885","164450","8295","161282","Lexical Decision Task","32","36997","38","yes","1024"
"2.664011697","8.19","4","hawk","word","84.61538461538461","84.61538461538461","968.6153846153846","968.6153846153846","black","no","legacy","legacy","legacy","0","uniform","1","undefined","undefined","undefined","1","j","0","0","0","0","38","0","0","0","38","NA","34","38","34","0","34","3","38","0","38","Thu Feb 18 11:23:16 2021","The main experiment item","yes","Lexical_Decision_Task.osexp","/Users/helen/Desktop","no","Andale Mono","no","18","no","white","no","yes","576","legacy","34","34","3","/Users/helen/Desktop/subject-5203522.csv","legacy","Lentiform Loewenfeld","3.3.7","yes","yes","600bd7cfb6416f0113b04181","602110864497cf011d9c0822","0","j","NA","right shift","right shift","right shift","NA","j","779","NA","11725","37520","22668","NA","779","2","legacy","1024","2","48000","-16","task","5203522","even","NA","80806","94533","82808","167147","8421","68613","45945","167649","NA","167144","167649","167062","94533","168430","78885","166562","8295","161282","Lexical Decision Task","33","37776","39","yes","1024"
"2.907588697","8.91","9","mood","word","85","85","957.9","957.9","black","no","legacy","legacy","legacy","0","uniform","1","undefined","undefined","undefined","1","j","0","0","0","0","39","0","0","0","39","NA","35","39","35","0","35","3","39","0","39","Thu Feb 18 11:23:16 2021","The main experiment item","yes","Lexical_Decision_Task.osexp","/Users/helen/Desktop","no","Andale Mono","no","18","no","white","no","yes","576","legacy","35","35","3","/Users/helen/Desktop/subject-5203522.csv","legacy","Lentiform Loewenfeld","3.3.7","yes","yes","600bd7cfb6416f0113b04181","602110864497cf011d9c0822","0","j","NA","right shift","right shift","right shift","NA","j","540","NA","11725","37520","22668","NA","540","2","legacy","1024","2","48000","-16","task","5203522","even","NA","80806","94533","82808","169018","8421","68613","45945","169520","NA","169016","169520","168934","94533","170062","78885","168434","8295","161282","Lexical Decision Task","34","38316","40","yes","1024"
"3.374198258","0","8","vist","non-word","82.92682926829268","82.92682926829268","950.4146341463414","950.4146341463414","black","no","legacy","legacy","legacy","0","uniform","0","undefined","undefined","undefined","0","f","0","0","0","0","40","0","0","0","40","NA","36","40","36","0","36","3","40","0","40","Thu Feb 18 11:23:16 2021","The main experiment item","yes","Lexical_Decision_Task.osexp","/Users/helen/Desktop","no","Andale Mono","no","18","no","white","no","yes","576","legacy","36","36","3","/Users/helen/Desktop/subject-5203522.csv","legacy","Lentiform Loewenfeld","3.3.7","yes","yes","600bd7cfb6416f0113b04181","602110864497cf011d9c0822","0","j","NA","right shift","right shift","right shift","NA","j","651","NA","11725","37520","22668","NA","651","2","legacy","1024","2","48000","-16","task","5203522","even","NA","80806","94533","82808","170651","8421","68613","45945","171153","NA","170648","171153","170566","94533","171806","78885","170066","8295","161282","Lexical Decision Task","34","38967","41","yes","1024"
"2.706148589","0","4","hube","non-word","83.33333333333333","83.33333333333333","953.7619047619048","953.7619047619048","black","no","legacy","legacy","legacy","0","uniform","1","undefined","undefined","undefined","1","f","0","0","0","0","41","0","0","0","41","NA","37","41","37","0","37","3","41","0","41","Thu Feb 18 11:23:16 2021","The main experiment item","yes","Lexical_Decision_Task.osexp","/Users/helen/Desktop","no","Andale Mono","no","18","no","white","no","yes","576","legacy","37","37","3","/Users/helen/Desktop/subject-5203522.csv","legacy","Lentiform Loewenfeld","3.3.7","yes","yes","600bd7cfb6416f0113b04181","602110864497cf011d9c0822","0","f","NA","right shift","right shift","right shift","NA","f","1091","NA","11725","37520","22668","NA","1091","2","legacy","1024","2","48000","-16","task","5203522","even","NA","80806","94533","82808","173395","8421","68613","45945","173897","NA","173392","173897","173310","94533","174990","78885","170066","8295","171810","Lexical Decision Task","35","40058","42","yes","1024"
"3.443783828","7.65","3","verb","word","83.72093023255815","83.72093023255815","961.6279069767442","961.6279069767442","black","no","legacy","legacy","legacy","0","uniform","1","undefined","undefined","undefined","1","j","0","0","0","0","42","0","0","0","42","NA","38","42","38","0","38","3","42","0","42","Thu Feb 18 11:23:16 2021","The main experiment item","yes","Lexical_Decision_Task.osexp","/Users/helen/Desktop","no","Andale Mono","no","18","no","white","no","yes","576","legacy","38","38","3","/Users/helen/Desktop/subject-5203522.csv","legacy","Lentiform Loewenfeld","3.3.7","yes","yes","600bd7cfb6416f0113b04181","602110864497cf011d9c0822","0","j","NA","right shift","right shift","right shift","NA","j","1292","NA","11725","37520","22668","NA","1292","2","legacy","1024","2","48000","-16","task","5203522","even","NA","80806","94533","82808","175578","8421","68613","45945","176080","NA","175576","176080","175494","94533","177374","78885","174994","8295","171810","Lexical Decision Task","36","41350","43","yes","1024"
"3.153104174","10.89","6","door","word","84.0909090909091","84.0909090909091","954.2272727272727","954.2272727272727","black","no","legacy","legacy","legacy","0","uniform","1","undefined","undefined","undefined","1","j","0","0","0","0","43","0","0","0","43","NA","39","43","39","0","39","3","43","0","43","Thu Feb 18 11:23:16 2021","The main experiment item","yes","Lexical_Decision_Task.osexp","/Users/helen/Desktop","no","Andale Mono","no","18","no","white","no","yes","576","legacy","39","39","3","/Users/helen/Desktop/subject-5203522.csv","legacy","Lentiform Loewenfeld","3.3.7","yes","yes","600bd7cfb6416f0113b04181","602110864497cf011d9c0822","0","j","NA","right shift","right shift","right shift","NA","j","636","NA","11725","37520","22668","NA","636","2","legacy","1024","2","48000","-16","task","5203522","even","NA","80806","94533","82808","177962","8421","68613","45945","178464","NA","177959","178464","177878","94533","179102","78885","177378","8295","171810","Lexical Decision Task","37","41986","44","yes","1024"
"2.698387659","6.66","7","skid","word","84.44444444444444","84.44444444444444","952.6666666666666","952.6666666666666","black","no","legacy","legacy","legacy","0","uniform","1","undefined","undefined","undefined","1","j","0","0","0","0","44","0","0","0","44","NA","40","44","40","0","40","3","44","0","44","Thu Feb 18 11:23:16 2021","The main experiment item","yes","Lexical_Decision_Task.osexp","/Users/helen/Desktop","no","Andale Mono","no","18","no","white","no","yes","576","legacy","40","40","3","/Users/helen/Desktop/subject-5203522.csv","legacy","Lentiform Loewenfeld","3.3.7","yes","yes","600bd7cfb6416f0113b04181","602110864497cf011d9c0822","0","j","NA","right shift","right shift","right shift","NA","j","884","NA","11725","37520","22668","NA","884","2","legacy","1024","2","48000","-16","task","5203522","even","NA","80806","94533","82808","179690","8421","68613","45945","180192","NA","179688","180192","179606","94533","181078","78885","179106","8295","171810","Lexical Decision Task","38","42870","45","yes","1024"
"3.090140555","5.81","8","pout","word","84.78260869565217","84.78260869565217","949.5869565217391","949.5869565217391","black","no","legacy","legacy","legacy","0","uniform","1","undefined","undefined","undefined","1","j","0","0","0","0","45","0","0","0","45","NA","41","45","41","0","41","3","45","0","45","Thu Feb 18 11:23:16 2021","The main experiment item","yes","Lexical_Decision_Task.osexp","/Users/helen/Desktop","no","Andale Mono","no","18","no","white","no","yes","576","legacy","41","41","3","/Users/helen/Desktop/subject-5203522.csv","legacy","Lentiform Loewenfeld","3.3.7","yes","yes","600bd7cfb6416f0113b04181","602110864497cf011d9c0822","0","j","NA","right shift","right shift","right shift","NA","j","811","NA","11725","37520","22668","NA","811","2","legacy","1024","2","48000","-16","task","5203522","even","NA","80806","94533","82808","181667","8421","68613","45945","182169","NA","181664","182169","181582","94533","182982","78885","181082","8295","171810","Lexical Decision Task","39","43681","46","yes","1024"
"3.208172527","10.27","7","deck","word","85.1063829787234","85.1063829787234","944.4255319148937","944.4255319148937","black","no","legacy","legacy","legacy","0","uniform","1","undefined","undefined","undefined","1","j","0","0","0","0","46","0","0","0","46","NA","42","46","42","0","42","3","46","0","46","Thu Feb 18 11:23:16 2021","The main experiment item","yes","Lexical_Decision_Task.osexp","/Users/helen/Desktop","no","Andale Mono","no","18","no","white","no","yes","576","legacy","42","42","3","/Users/helen/Desktop/subject-5203522.csv","legacy","Lentiform Loewenfeld","3.3.7","yes","yes","600bd7cfb6416f0113b04181","602110864497cf011d9c0822","0","j","NA","right shift","right shift","right shift","NA","j","707","NA","11725","37520","22668","NA","707","2","legacy","1024","2","48000","-16","task","5203522","even","NA","80806","94533","82808","183571","8421","68613","45945","184073","NA","183568","184073","183486","94533","184782","78885","182986","8295","171810","Lexical Decision Task","40","44388","47","yes","1024"
"2.813801082","5.47","7","nook","word","85.41666666666667","85.41666666666667","948.8333333333334","948.8333333333334","black","no","legacy","legacy","legacy","0","uniform","1","undefined","undefined","undefined","1","j","0","0","0","0","47","0","0","0","47","NA","43","47","43","0","43","3","47","0","47","Thu Feb 18 11:23:16 2021","The main experiment item","yes","Lexical_Decision_Task.osexp","/Users/helen/Desktop","no","Andale Mono","no","18","no","white","no","yes","576","legacy","43","43","3","/Users/helen/Desktop/subject-5203522.csv","legacy","Lentiform Loewenfeld","3.3.7","yes","yes","600bd7cfb6416f0113b04181","602110864497cf011d9c0822","0","j","NA","right shift","right shift","right shift","NA","j","1156","NA","11725","37520","22668","NA","1156","2","legacy","1024","2","48000","-16","task","5203522","even","NA","80806","94533","82808","185370","8421","68613","45945","185872","NA","185367","185872","185286","94533","187030","78885","184786","8295","171810","Lexical Decision Task","41","45544","48","yes","1024"
"3.120025233","0","2","nyst","non-word","85.71428571428571","85.71428571428571","943.0816326530612","943.0816326530612","black","no","legacy","legacy","legacy","0","uniform","1","undefined","undefined","undefined","1","f","0","0","0","0","48","0","0","0","48","NA","44","48","44","0","44","3","48","0","48","Thu Feb 18 11:23:16 2021","The main experiment item","yes","Lexical_Decision_Task.osexp","/Users/helen/Desktop","no","Andale Mono","no","18","no","white","no","yes","576","legacy","44","44","3","/Users/helen/Desktop/subject-5203522.csv","legacy","Lentiform Loewenfeld","3.3.7","yes","yes","600bd7cfb6416f0113b04181","602110864497cf011d9c0822","0","f","NA","right shift","right shift","right shift","NA","f","667","NA","11725","37520","22668","NA","667","2","legacy","1024","2","48000","-16","task","5203522","even","NA","80806","94533","82808","187627","8421","68613","45945","188129","NA","187624","188129","187542","94533","188798","78885","187042","8295","171810","Lexical Decision Task","42","46211","49","yes","1024"
"2.898725182","0","7","turl","non-word","86","86","941.54","941.54","black","no","legacy","legacy","legacy","0","uniform","1","undefined","undefined","undefined","1","f","0","0","0","0","49","0","0","0","49","NA","45","49","45","0","45","3","49","0","49","Thu Feb 18 11:23:16 2021","The main experiment item","yes","Lexical_Decision_Task.osexp","/Users/helen/Desktop","no","Andale Mono","no","18","no","white","no","yes","576","legacy","45","45","3","/Users/helen/Desktop/subject-5203522.csv","legacy","Lentiform Loewenfeld","3.3.7","yes","yes","600bd7cfb6416f0113b04181","602110864497cf011d9c0822","0","f","NA","right shift","right shift","right shift","NA","f","866","NA","11725","37520","22668","NA","866","2","legacy","1024","2","48000","-16","task","5203522","even","NA","80806","94533","82808","189388","8421","68613","45945","189890","NA","189385","189890","189303","94533","190758","78885","188802","8295","171810","Lexical Decision Task","43","47077","50","yes","1024"
"3.316948329","0","1","besc","non-word","84.31372549019608","84.31372549019608","936.8039215686274","936.8039215686274","black","no","legacy","legacy","legacy","0","uniform","0","undefined","undefined","undefined","0","f","0","0","0","0","50","0","0","0","50","NA","46","50","46","0","46","3","50","0","50","Thu Feb 18 11:23:16 2021","The main experiment item","yes","Lexical_Decision_Task.osexp","/Users/helen/Desktop","no","Andale Mono","no","18","no","white","no","yes","576","legacy","46","46","3","/Users/helen/Desktop/subject-5203522.csv","legacy","Lentiform Loewenfeld","3.3.7","yes","yes","600bd7cfb6416f0113b04181","602110864497cf011d9c0822","0","j","NA","right shift","right shift","right shift","NA","j","700","NA","11725","37520","22668","NA","700","2","legacy","1024","2","48000","-16","task","5203522","even","NA","80806","94533","82808","191346","8421","68613","45945","191848","NA","191343","191848","191262","94533","192550","78885","190762","8295","171810","Lexical Decision Task","43","47777","51","yes","1024"
"3.29439347","8.6","9","wand","word","84.61538461538461","84.61538461538461","930.7115384615385","930.7115384615385","black","no","legacy","legacy","legacy","0","uniform","1","undefined","undefined","undefined","1","j","0","0","0","0","51","0","0","0","51","NA","47","51","47","0","47","3","51","0","51","Thu Feb 18 11:23:16 2021","The main experiment item","yes","Lexical_Decision_Task.osexp","/Users/helen/Desktop","no","Andale Mono","no","18","no","white","no","yes","576","legacy","47","47","3","/Users/helen/Desktop/subject-5203522.csv","legacy","Lentiform Loewenfeld","3.3.7","yes","yes","600bd7cfb6416f0113b04181","602110864497cf011d9c0822","0","j","NA","right shift","right shift","right shift","NA","j","620","NA","11725","37520","22668","NA","620","2","legacy","1024","2","48000","-16","task","5203522","even","NA","80806","94533","82808","194138","8421","68613","45945","194640","NA","194136","194640","194054","94533","195262","78885","190762","8295","192554","Lexical Decision Task","44","48397","52","yes","1024"
"3.460446784","0","5","dess","non-word","84.90566037735849","84.90566037735849","933.1509433962265","933.1509433962265","black","no","legacy","legacy","legacy","0","uniform","1","undefined","undefined","undefined","1","f","0","0","0","0","52","0","0","0","52","NA","48","52","48","0","48","3","52","0","52","Thu Feb 18 11:23:16 2021","The main experiment item","yes","Lexical_Decision_Task.osexp","/Users/helen/Desktop","no","Andale Mono","no","18","no","white","no","yes","576","legacy","48","48","3","/Users/helen/Desktop/subject-5203522.csv","legacy","Lentiform Loewenfeld","3.3.7","yes","yes","600bd7cfb6416f0113b04181","602110864497cf011d9c0822","0","f","NA","right shift","right shift","right shift","NA","f","1060","NA","11725","37520","22668","NA","1060","2","legacy","1024","2","48000","-16","task","5203522","even","NA","80806","94533","82808","195850","8421","68613","45945","196352","NA","195847","196352","195766","94533","197414","78885","195266","8295","192554","Lexical Decision Task","45","49457","53","yes","1024"
"3.14849993","10.75","7","hour","word","85.18518518518519","85.18518518518519","926.4629629629629","926.4629629629629","black","no","legacy","legacy","legacy","0","uniform","1","undefined","undefined","undefined","1","j","0","0","0","0","53","0","0","0","53","NA","49","53","49","0","49","3","53","0","53","Thu Feb 18 11:23:16 2021","The main experiment item","yes","Lexical_Decision_Task.osexp","/Users/helen/Desktop","no","Andale Mono","no","18","no","white","no","yes","576","legacy","49","49","3","/Users/helen/Desktop/subject-5203522.csv","legacy","Lentiform Loewenfeld","3.3.7","yes","yes","600bd7cfb6416f0113b04181","602110864497cf011d9c0822","0","j","NA","right shift","right shift","right shift","NA","j","572","NA","11725","37520","22668","NA","572","2","legacy","1024","2","48000","-16","task","5203522","even","NA","80806","94533","82808","198002","8421","68613","45945","198504","NA","198000","198504","197918","94533","199078","78885","197418","8295","192554","Lexical Decision Task","46","50029","54","yes","1024"
"3.043885998","0","9","gome","non-word","85.45454545454545","85.45454545454545","940.8","940.8","black","no","legacy","legacy","legacy","0","uniform","1","undefined","undefined","undefined","1","f","0","0","0","0","54","0","0","0","54","0","50","54","50","0","50","3","54","0","54","Thu Feb 18 11:23:16 2021","The main experiment item","yes","Lexical_Decision_Task.osexp","/Users/helen/Desktop","no","Andale Mono","no","18","no","white","no","yes","576","legacy","50","50","3","/Users/helen/Desktop/subject-5203522.csv","legacy","Lentiform Loewenfeld","3.3.7","yes","yes","600bd7cfb6416f0113b04181","602110864497cf011d9c0822","0","f","NA","right shift","right shift","right shift","right shift","f","1715","NA","11725","37520","22668","12213","1715","2","legacy","1024","2","48000","-16","task","5203522","even","NA","80806","94533","82808","211915","8421","68613","45945","212417","199616","211913","212417","199582","94533","214134","78885","199082","8295","192554","Lexical Decision Task","47","51744","55","yes","1024"
"2.983324025","9.56","2","debt","word","85.71428571428571","85.71428571428571","937.3392857142857","937.3392857142857","black","no","legacy","legacy","legacy","0","uniform","1","undefined","undefined","undefined","1","j","0","0","0","0","55","0","0","0","55","0","51","55","51","0","51","3","55","0","55","Thu Feb 18 11:23:16 2021","The main experiment item","yes","Lexical_Decision_Task.osexp","/Users/helen/Desktop","no","Andale Mono","no","18","no","white","no","yes","576","legacy","51","51","3","/Users/helen/Desktop/subject-5203522.csv","legacy","Lentiform Loewenfeld","3.3.7","yes","yes","600bd7cfb6416f0113b04181","602110864497cf011d9c0822","0","j","NA","right shift","right shift","right shift","right shift","j","747","NA","11725","37520","22668","12213","747","2","legacy","1024","2","48000","-16","task","5203522","even","NA","80806","94533","82808","214723","8421","68613","45945","215225","199616","214720","215225","214638","94533","215974","78885","214138","8295","192554","Lexical Decision Task","48","52491","56","yes","1024"
"3.088136089","8.32","9","worm","word","85.96491228070175","85.96491228070175","934.561403508772","934.561403508772","black","no","legacy","legacy","legacy","0","uniform","1","undefined","undefined","undefined","1","j","0","0","0","0","56","0","0","0","56","0","52","56","52","0","52","3","56","0","56","Thu Feb 18 11:23:16 2021","The main experiment item","yes","Lexical_Decision_Task.osexp","/Users/helen/Desktop","no","Andale Mono","no","18","no","white","no","yes","576","legacy","52","52","3","/Users/helen/Desktop/subject-5203522.csv","legacy","Lentiform Loewenfeld","3.3.7","yes","yes","600bd7cfb6416f0113b04181","602110864497cf011d9c0822","0","j","NA","right shift","right shift","right shift","right shift","j","779","NA","11725","37520","22668","12213","779","2","legacy","1024","2","48000","-16","task","5203522","even","NA","80806","94533","82808","216563","8421","68613","45945","217065","199616","216560","217065","216478","94533","217846","78885","215978","8295","192554","Lexical Decision Task","49","53270","57","yes","1024"
"3.100255637","0","6","brax","non-word","84.48275862068965","84.48275862068965","931.8448275862069","931.8448275862069","black","no","legacy","legacy","legacy","0","uniform","0","undefined","undefined","undefined","0","f","0","0","0","0","57","0","0","0","57","0","53","57","53","0","53","3","57","0","57","Thu Feb 18 11:23:16 2021","The main experiment item","yes","Lexical_Decision_Task.osexp","/Users/helen/Desktop","no","Andale Mono","no","18","no","white","no","yes","576","legacy","53","53","3","/Users/helen/Desktop/subject-5203522.csv","legacy","Lentiform Loewenfeld","3.3.7","yes","yes","600bd7cfb6416f0113b04181","602110864497cf011d9c0822","0","j","NA","right shift","right shift","right shift","right shift","j","777","NA","11725","37520","22668","12213","777","2","legacy","1024","2","48000","-16","task","5203522","even","NA","80806","94533","82808","218436","8421","68613","45945","218939","199616","218434","218939","218351","94533","219718","78885","217850","8295","192554","Lexical Decision Task","49","54047","58","yes","1024"
"2.69019608","9.01","2","myth","word","84.7457627118644","84.7457627118644","928.8474576271186","928.8474576271186","black","no","legacy","legacy","legacy","0","uniform","1","undefined","undefined","undefined","1","j","0","0","0","0","58","0","0","0","58","0","54","58","54","0","54","3","58","0","58","Thu Feb 18 11:23:16 2021","The main experiment item","yes","Lexical_Decision_Task.osexp","/Users/helen/Desktop","no","Andale Mono","no","18","no","white","no","yes","576","legacy","54","54","3","/Users/helen/Desktop/subject-5203522.csv","legacy","Lentiform Loewenfeld","3.3.7","yes","yes","600bd7cfb6416f0113b04181","602110864497cf011d9c0822","0","j","NA","right shift","right shift","right shift","right shift","j","755","NA","11725","37520","22668","12213","755","2","legacy","1024","2","48000","-16","task","5203522","even","NA","80806","94533","82808","221307","8421","68613","45945","221809","199616","221304","221809","221222","94533","222566","78885","217850","8295","219722","Lexical Decision Task","50","54802","59","yes","1024"
"2.576725172","0","8","gowl","non-word","85","85","925.15","925.15","black","no","legacy","legacy","legacy","0","uniform","1","undefined","undefined","undefined","1","f","0","0","0","0","59","0","0","0","59","0","55","59","55","0","55","3","59","0","59","Thu Feb 18 11:23:16 2021","The main experiment item","yes","Lexical_Decision_Task.osexp","/Users/helen/Desktop","no","Andale Mono","no","18","no","white","no","yes","576","legacy","55","55","3","/Users/helen/Desktop/subject-5203522.csv","legacy","Lentiform Loewenfeld","3.3.7","yes","yes","600bd7cfb6416f0113b04181","602110864497cf011d9c0822","0","f","NA","right shift","right shift","right shift","right shift","f","707","NA","11725","37520","22668","12213","707","2","legacy","1024","2","48000","-16","task","5203522","even","NA","80806","94533","82808","223154","8421","68613","45945","223657","199616","223152","223657","223070","94533","224366","78885","222570","8295","219722","Lexical Decision Task","51","55509","60","yes","1024"
"3.091901331","0","9","nipe","non-word","85.24590163934427","85.24590163934427","927.6065573770492","927.6065573770492","black","no","legacy","legacy","legacy","0","uniform","1","undefined","undefined","undefined","1","f","0","0","0","0","60","0","0","0","60","0","56","60","56","0","56","3","60","0","60","Thu Feb 18 11:23:16 2021","The main experiment item","yes","Lexical_Decision_Task.osexp","/Users/helen/Desktop","no","Andale Mono","no","18","no","white","no","yes","576","legacy","56","56","3","/Users/helen/Desktop/subject-5203522.csv","legacy","Lentiform Loewenfeld","3.3.7","yes","yes","600bd7cfb6416f0113b04181","602110864497cf011d9c0822","0","f","NA","right shift","right shift","right shift","right shift","f","1075","NA","11725","37520","22668","12213","1075","2","legacy","1024","2","48000","-16","task","5203522","even","NA","80806","94533","82808","224955","8421","68613","45945","225457","199616","224952","225457","224870","94533","226534","78885","224370","8295","219722","Lexical Decision Task","52","56584","61","yes","1024"
"3.094121596","0","8","fode","non-word","85.48387096774194","85.48387096774194","927.1451612903226","927.1451612903226","black","no","legacy","legacy","legacy","0","uniform","1","undefined","undefined","undefined","1","f","0","0","0","0","61","0","0","0","61","0","57","61","57","0","57","3","61","0","61","Thu Feb 18 11:23:16 2021","The main experiment item","yes","Lexical_Decision_Task.osexp","/Users/helen/Desktop","no","Andale Mono","no","18","no","white","no","yes","576","legacy","57","57","3","/Users/helen/Desktop/subject-5203522.csv","legacy","Lentiform Loewenfeld","3.3.7","yes","yes","600bd7cfb6416f0113b04181","602110864497cf011d9c0822","0","f","NA","right shift","right shift","right shift","right shift","f","899","NA","11725","37520","22668","12213","899","2","legacy","1024","2","48000","-16","task","5203522","even","NA","80806","94533","82808","227123","8421","68613","45945","227625","199616","227120","227625","227038","94533","228526","78885","226538","8295","219722","Lexical Decision Task","53","57483","62","yes","1024"
"2.821076612","0","4","lult","non-word","85.71428571428571","85.71428571428571","926.063492063492","926.063492063492","black","no","legacy","legacy","legacy","0","uniform","1","undefined","undefined","undefined","1","f","0","0","0","0","62","0","0","0","62","0","58","62","58","0","58","3","62","0","62","Thu Feb 18 11:23:16 2021","The main experiment item","yes","Lexical_Decision_Task.osexp","/Users/helen/Desktop","no","Andale Mono","no","18","no","white","no","yes","576","legacy","58","58","3","/Users/helen/Desktop/subject-5203522.csv","legacy","Lentiform Loewenfeld","3.3.7","yes","yes","600bd7cfb6416f0113b04181","602110864497cf011d9c0822","0","f","NA","right shift","right shift","right shift","right shift","f","859","NA","11725","37520","22668","12213","859","2","legacy","1024","2","48000","-16","task","5203522","even","NA","80806","94533","82808","229115","8421","68613","45945","229617","199616","229112","229617","229030","94533","230478","78885","228530","8295","219722","Lexical Decision Task","54","58342","63","yes","1024"
"2.843025032","0","9","pusk","non-word","85.9375","85.9375","924.265625","924.265625","black","no","legacy","legacy","legacy","0","uniform","1","undefined","undefined","undefined","1","f","0","0","0","0","63","0","0","0","63","0","59","63","59","0","59","3","63","0","63","Thu Feb 18 11:23:16 2021","The main experiment item","yes","Lexical_Decision_Task.osexp","/Users/helen/Desktop","no","Andale Mono","no","18","no","white","no","yes","576","legacy","59","59","3","/Users/helen/Desktop/subject-5203522.csv","legacy","Lentiform Loewenfeld","3.3.7","yes","yes","600bd7cfb6416f0113b04181","602110864497cf011d9c0822","0","f","NA","right shift","right shift","right shift","right shift","f","811","NA","11725","37520","22668","12213","811","2","legacy","1024","2","48000","-16","task","5203522","even","NA","80806","94533","82808","231067","8421","68613","45945","231569","199616","231064","231569","230982","94533","232382","78885","230482","8295","219722","Lexical Decision Task","55","59153","64","yes","1024"
"3.081107167","0","6","chot","non-word","86.15384615384616","86.15384615384616","922.5230769230769","922.5230769230769","black","no","legacy","legacy","legacy","0","uniform","1","undefined","undefined","undefined","1","f","0","0","0","0","64","0","0","0","64","0","60","64","60","0","60","3","64","0","64","Thu Feb 18 11:23:16 2021","The main experiment item","yes","Lexical_Decision_Task.osexp","/Users/helen/Desktop","no","Andale Mono","no","18","no","white","no","yes","576","legacy","60","60","3","/Users/helen/Desktop/subject-5203522.csv","legacy","Lentiform Loewenfeld","3.3.7","yes","yes","600bd7cfb6416f0113b04181","602110864497cf011d9c0822","0","f","NA","right shift","right shift","right shift","right shift","f","811","NA","11725","37520","22668","12213","811","2","legacy","1024","2","48000","-16","task","5203522","even","NA","80806","94533","82808","232971","8421","68613","45945","233473","199616","232968","233473","232886","94533","234286","78885","232386","8295","219722","Lexical Decision Task","56","59964","65","yes","1024"
"2.868644438","10.52","4","town","word","86.36363636363636","86.36363636363636","921.1969696969697","921.1969696969697","black","no","legacy","legacy","legacy","0","uniform","1","undefined","undefined","undefined","1","j","0","0","0","0","65","0","0","0","65","0","61","65","61","0","61","3","65","0","65","Thu Feb 18 11:23:16 2021","The main experiment item","yes","Lexical_Decision_Task.osexp","/Users/helen/Desktop","no","Andale Mono","no","18","no","white","no","yes","576","legacy","61","61","3","/Users/helen/Desktop/subject-5203522.csv","legacy","Lentiform Loewenfeld","3.3.7","yes","yes","600bd7cfb6416f0113b04181","602110864497cf011d9c0822","0","j","NA","right shift","right shift","right shift","right shift","j","835","NA","11725","37520","22668","12213","835","2","legacy","1024","2","48000","-16","task","5203522","even","NA","80806","94533","82808","234875","8421","68613","45945","235377","199616","234872","235377","234790","94533","236214","78885","234290","8295","219722","Lexical Decision Task","57","60799","66","yes","1024"
"2.858136002","0","4","phip","non-word","86.56716417910448","86.56716417910448","923.0149253731344","923.0149253731344","black","no","legacy","legacy","legacy","0","uniform","1","undefined","undefined","undefined","1","f","0","0","0","0","66","0","0","0","66","0","62","66","62","0","62","3","66","0","66","Thu Feb 18 11:23:16 2021","The main experiment item","yes","Lexical_Decision_Task.osexp","/Users/helen/Desktop","no","Andale Mono","no","18","no","white","no","yes","576","legacy","62","62","3","/Users/helen/Desktop/subject-5203522.csv","legacy","Lentiform Loewenfeld","3.3.7","yes","yes","600bd7cfb6416f0113b04181","602110864497cf011d9c0822","0","f","NA","right shift","right shift","right shift","right shift","f","1043","NA","11725","37520","22668","12213","1043","2","legacy","1024","2","48000","-16","task","5203522","even","NA","80806","94533","82808","236803","8421","68613","45945","237305","199616","236800","237305","236718","94533","238350","78885","236218","8295","219722","Lexical Decision Task","58","61842","67","yes","1024"
"3.302475237","0","7","leel","non-word","86.76470588235294","86.76470588235294","921.0147058823529","921.0147058823529","black","no","legacy","legacy","legacy","0","uniform","1","undefined","undefined","undefined","1","f","0","0","0","0","67","0","0","0","67","0","63","67","63","0","63","3","67","0","67","Thu Feb 18 11:23:16 2021","The main experiment item","yes","Lexical_Decision_Task.osexp","/Users/helen/Desktop","no","Andale Mono","no","18","no","white","no","yes","576","legacy","63","63","3","/Users/helen/Desktop/subject-5203522.csv","legacy","Lentiform Loewenfeld","3.3.7","yes","yes","600bd7cfb6416f0113b04181","602110864497cf011d9c0822","0","f","NA","right shift","right shift","right shift","right shift","f","787","NA","11725","37520","22668","12213","787","2","legacy","1024","2","48000","-16","task","5203522","even","NA","80806","94533","82808","238939","8421","68613","45945","239441","199616","238936","239441","238854","94533","240230","78885","238354","8295","219722","Lexical Decision Task","59","62629","68","yes","1024"
"3.102203805","7.21","3","drip","word","86.95652173913044","86.95652173913044","926.7246376811594","926.7246376811594","black","no","legacy","legacy","legacy","0","uniform","1","undefined","undefined","undefined","1","j","0","0","0","0","68","0","0","0","68","0","64","68","64","0","64","3","68","0","68","Thu Feb 18 11:23:16 2021","The main experiment item","yes","Lexical_Decision_Task.osexp","/Users/helen/Desktop","no","Andale Mono","no","18","no","white","no","yes","576","legacy","64","64","3","/Users/helen/Desktop/subject-5203522.csv","legacy","Lentiform Loewenfeld","3.3.7","yes","yes","600bd7cfb6416f0113b04181","602110864497cf011d9c0822","0","j","NA","right shift","right shift","right shift","right shift","j","1315","NA","11725","37520","22668","12213","1315","2","legacy","1024","2","48000","-16","task","5203522","even","NA","80806","94533","82808","240819","8421","68613","45945","241321","199616","240816","241321","240734","94533","242638","78885","240234","8295","219722","Lexical Decision Task","60","63944","69","yes","1024"
"2.897810299","0","5","glur","non-word","87.14285714285714","87.14285714285714","924.6142857142858","924.6142857142858","black","no","legacy","legacy","legacy","0","uniform","1","undefined","undefined","undefined","1","f","0","0","0","0","69","0","0","0","69","0","65","69","65","0","65","3","69","0","69","Thu Feb 18 11:23:16 2021","The main experiment item","yes","Lexical_Decision_Task.osexp","/Users/helen/Desktop","no","Andale Mono","no","18","no","white","no","yes","576","legacy","65","65","3","/Users/helen/Desktop/subject-5203522.csv","legacy","Lentiform Loewenfeld","3.3.7","yes","yes","600bd7cfb6416f0113b04181","602110864497cf011d9c0822","0","f","NA","right shift","right shift","right shift","right shift","f","779","NA","11725","37520","22668","12213","779","2","legacy","1024","2","48000","-16","task","5203522","even","NA","80806","94533","82808","243227","8421","68613","45945","243729","199616","243224","243729","243142","94533","244510","78885","242642","8295","219722","Lexical Decision Task","61","64723","70","yes","1024"
"2.6599162","0","6","flug","non-word","87.32394366197182","87.32394366197182","922.9014084507043","922.9014084507043","black","no","legacy","legacy","legacy","0","uniform","1","undefined","undefined","undefined","1","f","0","0","0","0","70","0","0","0","70","0","66","70","66","0","66","3","70","0","70","Thu Feb 18 11:23:16 2021","The main experiment item","yes","Lexical_Decision_Task.osexp","/Users/helen/Desktop","no","Andale Mono","no","18","no","white","no","yes","576","legacy","66","66","3","/Users/helen/Desktop/subject-5203522.csv","legacy","Lentiform Loewenfeld","3.3.7","yes","yes","600bd7cfb6416f0113b04181","602110864497cf011d9c0822","0","f","NA","right shift","right shift","right shift","right shift","f","803","NA","11725","37520","22668","12213","803","2","legacy","1024","2","48000","-16","task","5203522","even","NA","80806","94533","82808","245098","8421","68613","45945","245601","199616","245096","245601","245014","94533","246406","78885","244514","8295","219722","Lexical Decision Task","62","65526","71","yes","1024"
"3.492014979","0","9","yine","non-word","87.5","87.5","921.4583333333334","921.4583333333334","black","no","legacy","legacy","legacy","0","uniform","1","undefined","undefined","undefined","1","f","0","0","0","0","71","0","0","0","71","0","67","71","67","0","67","3","71","0","71","Thu Feb 18 11:23:16 2021","The main experiment item","yes","Lexical_Decision_Task.osexp","/Users/helen/Desktop","no","Andale Mono","no","18","no","white","no","yes","576","legacy","67","67","3","/Users/helen/Desktop/subject-5203522.csv","legacy","Lentiform Loewenfeld","3.3.7","yes","yes","600bd7cfb6416f0113b04181","602110864497cf011d9c0822","0","f","NA","right shift","right shift","right shift","right shift","f","819","NA","11725","37520","22668","12213","819","2","legacy","1024","2","48000","-16","task","5203522","even","NA","80806","94533","82808","246994","8421","68613","45945","247497","199616","246992","247497","246910","94533","248318","78885","246410","8295","219722","Lexical Decision Task","63","66345","72","yes","1024"
"2.996511672","0","7","hoil","non-word","87.67123287671232","87.67123287671232","924.8630136986301","924.8630136986301","black","no","legacy","legacy","legacy","0","uniform","1","undefined","undefined","undefined","1","f","0","0","0","0","72","0","0","0","72","0","68","72","68","0","68","3","72","0","72","Thu Feb 18 11:23:16 2021","The main experiment item","yes","Lexical_Decision_Task.osexp","/Users/helen/Desktop","no","Andale Mono","no","18","no","white","no","yes","576","legacy","68","68","3","/Users/helen/Desktop/subject-5203522.csv","legacy","Lentiform Loewenfeld","3.3.7","yes","yes","600bd7cfb6416f0113b04181","602110864497cf011d9c0822","0","f","NA","right shift","right shift","right shift","right shift","f","1170","NA","11725","37520","22668","12213","1170","2","legacy","1024","2","48000","-16","task","5203522","even","NA","80806","94533","82808","248908","8421","68613","45945","249410","199616","248905","249410","248823","94533","250582","78885","248323","8295","219722","Lexical Decision Task","64","67515","73","yes","1024"
"3.174641193","0","3","ramb","non-word","87.83783783783784","87.83783783783784","938.027027027027","938.027027027027","black","no","legacy","legacy","legacy","0","uniform","1","undefined","undefined","undefined","1","f","0","0","0","0","73","0","0","0","73","0","69","73","69","0","69","3","73","0","73","Thu Feb 18 11:23:16 2021","The main experiment item","yes","Lexical_Decision_Task.osexp","/Users/helen/Desktop","no","Andale Mono","no","18","no","white","no","yes","576","legacy","69","69","3","/Users/helen/Desktop/subject-5203522.csv","legacy","Lentiform Loewenfeld","3.3.7","yes","yes","600bd7cfb6416f0113b04181","602110864497cf011d9c0822","0","f","NA","right shift","right shift","right shift","right shift","f","1899","NA","11725","37520","22668","12213","1899","2","legacy","1024","2","48000","-16","task","5203522","even","NA","80806","94533","82808","251171","8421","68613","45945","251673","199616","251168","251673","251086","94533","253574","78885","250586","8295","219722","Lexical Decision Task","65","69414","74","yes","1024"
"2.698100546","0","9","mulk","non-word","88","88","938.4666666666667","938.4666666666667","black","no","legacy","legacy","legacy","0","uniform","1","undefined","undefined","undefined","1","f","0","0","0","0","74","0","0","0","74","0","70","74","70","0","70","3","74","0","74","Thu Feb 18 11:23:16 2021","The main experiment item","yes","Lexical_Decision_Task.osexp","/Users/helen/Desktop","no","Andale Mono","no","18","no","white","no","yes","576","legacy","70","70","3","/Users/helen/Desktop/subject-5203522.csv","legacy","Lentiform Loewenfeld","3.3.7","yes","yes","600bd7cfb6416f0113b04181","602110864497cf011d9c0822","0","f","NA","right shift","right shift","right shift","right shift","f","971","NA","11725","37520","22668","12213","971","2","legacy","1024","2","48000","-16","task","5203522","even","NA","80806","94533","82808","254162","8421","68613","45945","254665","199616","254160","254665","254078","94533","255638","78885","253578","8295","219722","Lexical Decision Task","66","70385","75","yes","1024"
"2.986323777","10.85","8","ship","word","88.15789473684211","88.15789473684211","936.0526315789474","936.0526315789474","black","no","legacy","legacy","legacy","0","uniform","1","undefined","undefined","undefined","1","j","0","0","0","0","75","0","0","0","75","0","71","75","71","0","71","3","75","0","75","Thu Feb 18 11:23:16 2021","The main experiment item","yes","Lexical_Decision_Task.osexp","/Users/helen/Desktop","no","Andale Mono","no","18","no","white","no","yes","576","legacy","71","71","3","/Users/helen/Desktop/subject-5203522.csv","legacy","Lentiform Loewenfeld","3.3.7","yes","yes","600bd7cfb6416f0113b04181","602110864497cf011d9c0822","0","j","NA","right shift","right shift","right shift","right shift","j","755","NA","11725","37520","22668","12213","755","2","legacy","1024","2","48000","-16","task","5203522","even","NA","80806","94533","82808","256235","8421","68613","45945","256737","199616","256232","256737","256151","94533","257494","78885","255651","8295","219722","Lexical Decision Task","67","71140","76","yes","1024"
"3.209246849","0","7","slem","non-word","88.31168831168831","88.31168831168831","933.7012987012987","933.7012987012987","black","no","legacy","legacy","legacy","0","uniform","1","undefined","undefined","undefined","1","f","0","0","0","0","76","0","0","0","76","0","72","76","72","0","72","3","76","0","76","Thu Feb 18 11:23:16 2021","The main experiment item","yes","Lexical_Decision_Task.osexp","/Users/helen/Desktop","no","Andale Mono","no","18","no","white","no","yes","576","legacy","72","72","3","/Users/helen/Desktop/subject-5203522.csv","legacy","Lentiform Loewenfeld","3.3.7","yes","yes","600bd7cfb6416f0113b04181","602110864497cf011d9c0822","0","f","NA","right shift","right shift","right shift","right shift","f","755","NA","11725","37520","22668","12213","755","2","legacy","1024","2","48000","-16","task","5203522","even","NA","80806","94533","82808","258083","8421","68613","45945","258585","199616","258080","258585","257998","94533","259342","78885","257498","8295","219722","Lexical Decision Task","68","71895","77","yes","1024"
"2.616654026","9.37","5","gift","word","88.46153846153847","88.46153846153847","934.0769230769231","934.0769230769231","black","no","legacy","legacy","legacy","0","uniform","1","undefined","undefined","undefined","1","j","0","0","0","0","77","0","0","0","77","0","73","77","73","0","73","3","77","0","77","Thu Feb 18 11:23:16 2021","The main experiment item","yes","Lexical_Decision_Task.osexp","/Users/helen/Desktop","no","Andale Mono","no","18","no","white","no","yes","576","legacy","73","73","3","/Users/helen/Desktop/subject-5203522.csv","legacy","Lentiform Loewenfeld","3.3.7","yes","yes","600bd7cfb6416f0113b04181","602110864497cf011d9c0822","0","j","NA","right shift","right shift","right shift","right shift","j","963","NA","11725","37520","22668","12213","963","2","legacy","1024","2","48000","-16","task","5203522","even","NA","80806","94533","82808","259931","8421","68613","45945","260433","199616","259928","260433","259846","94533","261398","78885","259346","8295","219722","Lexical Decision Task","69","72858","78","yes","1024"
"3.165936429","0","7","leps","non-word","88.60759493670886","88.60759493670886","932.5316455696203","932.5316455696203","black","no","legacy","legacy","legacy","0","uniform","1","undefined","undefined","undefined","1","f","0","0","0","0","78","0","0","0","78","0","74","78","74","0","74","3","78","0","78","Thu Feb 18 11:23:16 2021","The main experiment item","yes","Lexical_Decision_Task.osexp","/Users/helen/Desktop","no","Andale Mono","no","18","no","white","no","yes","576","legacy","74","74","3","/Users/helen/Desktop/subject-5203522.csv","legacy","Lentiform Loewenfeld","3.3.7","yes","yes","600bd7cfb6416f0113b04181","602110864497cf011d9c0822","0","f","NA","right shift","right shift","right shift","right shift","f","812","NA","11725","37520","22668","12213","812","2","legacy","1024","2","48000","-16","task","5203522","even","NA","80806","94533","82808","262002","8421","68613","45945","262504","199616","261999","262504","261917","94533","263318","78885","261417","8295","219722","Lexical Decision Task","70","73670","79","yes","1024"
"3.353210739","0","9","reet","non-word","88.75","88.75","932.3125","932.3125","black","no","legacy","legacy","legacy","0","uniform","1","undefined","undefined","undefined","1","f","0","0","0","0","79","0","0","0","79","0","75","79","75","0","75","3","79","0","79","Thu Feb 18 11:23:16 2021","The main experiment item","yes","Lexical_Decision_Task.osexp","/Users/helen/Desktop","no","Andale Mono","no","18","no","white","no","yes","576","legacy","75","75","3","/Users/helen/Desktop/subject-5203522.csv","legacy","Lentiform Loewenfeld","3.3.7","yes","yes","600bd7cfb6416f0113b04181","602110864497cf011d9c0822","0","f","NA","right shift","right shift","right shift","right shift","f","915","NA","11725","37520","22668","12213","915","2","legacy","1024","2","48000","-16","task","5203522","even","NA","80806","94533","82808","263907","8421","68613","45945","264409","199616","263904","264409","263822","94533","265326","78885","263322","8295","219722","Lexical Decision Task","71","74585","80","yes","1024"
"3.156347201","0","8","lasp","non-word","88.88888888888889","88.88888888888889","932.2716049382716","932.2716049382716","black","no","legacy","legacy","legacy","0","uniform","1","undefined","undefined","undefined","1","f","0","0","0","0","80","0","0","0","80","0","76","80","76","0","76","3","80","0","80","Thu Feb 18 11:23:16 2021","The main experiment item","yes","Lexical_Decision_Task.osexp","/Users/helen/Desktop","no","Andale Mono","no","18","no","white","no","yes","576","legacy","76","76","3","/Users/helen/Desktop/subject-5203522.csv","legacy","Lentiform Loewenfeld","3.3.7","yes","yes","600bd7cfb6416f0113b04181","602110864497cf011d9c0822","0","f","NA","right shift","right shift","right shift","right shift","f","929","NA","11725","37520","22668","12213","929","2","legacy","1024","2","48000","-16","task","5203522","even","NA","80806","94533","82808","265950","8421","68613","45945","266452","199616","265948","266452","265866","94533","267383","78885","265365","8295","219722","Lexical Decision Task","72","75514","81","yes","1024"
"3.261341392","5.08","8","reek","word","89.02439024390245","89.02439024390245","932.1585365853658","932.1585365853658","black","no","legacy","legacy","legacy","0","uniform","1","undefined","undefined","undefined","1","j","0","0","0","0","81","0","0","0","81","0","77","81","77","0","77","3","81","0","81","Thu Feb 18 11:23:16 2021","The main experiment item","yes","Lexical_Decision_Task.osexp","/Users/helen/Desktop","no","Andale Mono","no","18","no","white","no","yes","576","legacy","77","77","3","/Users/helen/Desktop/subject-5203522.csv","legacy","Lentiform Loewenfeld","3.3.7","yes","yes","600bd7cfb6416f0113b04181","602110864497cf011d9c0822","0","j","NA","right shift","right shift","right shift","right shift","j","923","NA","11725","37520","22668","12213","923","2","legacy","1024","2","48000","-16","task","5203522","even","NA","80806","94533","82808","267995","8421","68613","45945","268497","199616","267992","268497","267910","94533","269422","78885","267410","8295","219722","Lexical Decision Task","73","76437","82","yes","1024"
"3.252447662","9.67","9","boat","word","89.1566265060241","89.1566265060241","930.5542168674699","930.5542168674699","black","no","legacy","legacy","legacy","0","uniform","1","undefined","undefined","undefined","1","j","0","0","0","0","82","0","0","0","82","0","78","82","78","0","78","3","82","0","82","Thu Feb 18 11:23:16 2021","The main experiment item","yes","Lexical_Decision_Task.osexp","/Users/helen/Desktop","no","Andale Mono","no","18","no","white","no","yes","576","legacy","78","78","3","/Users/helen/Desktop/subject-5203522.csv","legacy","Lentiform Loewenfeld","3.3.7","yes","yes","600bd7cfb6416f0113b04181","602110864497cf011d9c0822","0","j","NA","right shift","right shift","right shift","right shift","j","799","NA","11725","37520","22668","12213","799","2","legacy","1024","2","48000","-16","task","5203522","even","NA","80806","94533","82808","270039","8421","68613","45945","270541","199616","270036","270541","269954","94533","271342","78885","269454","8295","219722","Lexical Decision Task","74","77236","83","yes","1024"
"2.693726949","5.08","3","swig","word","89.28571428571429","89.28571428571429","931.702380952381","931.702380952381","black","no","legacy","legacy","legacy","0","uniform","1","undefined","undefined","undefined","1","j","0","0","0","0","83","0","0","0","83","0","79","83","79","0","79","3","83","0","83","Thu Feb 18 11:23:16 2021","The main experiment item","yes","Lexical_Decision_Task.osexp","/Users/helen/Desktop","no","Andale Mono","no","18","no","white","no","yes","576","legacy","79","79","3","/Users/helen/Desktop/subject-5203522.csv","legacy","Lentiform Loewenfeld","3.3.7","yes","yes","600bd7cfb6416f0113b04181","602110864497cf011d9c0822","0","j","NA","right shift","right shift","right shift","right shift","j","1027","NA","11725","37520","22668","12213","1027","2","legacy","1024","2","48000","-16","task","5203522","even","NA","80806","94533","82808","271931","8421","68613","45945","272433","199616","271928","272433","271846","94533","273462","78885","271346","8295","219722","Lexical Decision Task","75","78263","84","yes","1024"
"2.771097306","0","9","jold","non-word","89.41176470588235","89.41176470588235","930.5529411764705","930.5529411764705","black","no","legacy","legacy","legacy","0","uniform","1","undefined","undefined","undefined","1","f","0","0","0","0","84","0","0","0","84","0","80","84","80","0","80","3","84","0","84","Thu Feb 18 11:23:16 2021","The main experiment item","yes","Lexical_Decision_Task.osexp","/Users/helen/Desktop","no","Andale Mono","no","18","no","white","no","yes","576","legacy","80","80","3","/Users/helen/Desktop/subject-5203522.csv","legacy","Lentiform Loewenfeld","3.3.7","yes","yes","600bd7cfb6416f0113b04181","602110864497cf011d9c0822","0","f","NA","right shift","right shift","right shift","right shift","f","834","NA","11725","37520","22668","12213","834","2","legacy","1024","2","48000","-16","task","5203522","even","NA","80806","94533","82808","274052","8421","68613","45945","274554","199616","274049","274554","273967","94533","275390","78885","273466","8295","219722","Lexical Decision Task","76","79097","85","yes","1024"
"3.168890155","0","6","thet","non-word","89.53488372093024","89.53488372093024","930.0930232558139","930.0930232558139","black","no","legacy","legacy","legacy","0","uniform","1","undefined","undefined","undefined","1","f","0","0","0","0","85","0","0","0","85","0","81","85","81","0","81","3","85","0","85","Thu Feb 18 11:23:16 2021","The main experiment item","yes","Lexical_Decision_Task.osexp","/Users/helen/Desktop","no","Andale Mono","no","18","no","white","no","yes","576","legacy","81","81","3","/Users/helen/Desktop/subject-5203522.csv","legacy","Lentiform Loewenfeld","3.3.7","yes","yes","600bd7cfb6416f0113b04181","602110864497cf011d9c0822","0","f","NA","right shift","right shift","right shift","right shift","f","891","NA","11725","37520","22668","12213","891","2","legacy","1024","2","48000","-16","task","5203522","even","NA","80806","94533","82808","275979","8421","68613","45945","276481","199616","275976","276481","275894","94533","277374","78885","275394","8295","219722","Lexical Decision Task","77","79988","86","yes","1024"
"3.274543461","7.46","7","scar","word","89.65517241379311","89.65517241379311","928.8965517241379","928.8965517241379","black","no","legacy","legacy","legacy","0","uniform","1","undefined","undefined","undefined","1","j","0","0","0","0","86","0","0","0","86","0","82","86","82","0","82","3","86","0","86","Thu Feb 18 11:23:16 2021","The main experiment item","yes","Lexical_Decision_Task.osexp","/Users/helen/Desktop","no","Andale Mono","no","18","no","white","no","yes","576","legacy","82","82","3","/Users/helen/Desktop/subject-5203522.csv","legacy","Lentiform Loewenfeld","3.3.7","yes","yes","600bd7cfb6416f0113b04181","602110864497cf011d9c0822","0","j","NA","right shift","right shift","right shift","right shift","j","826","NA","11725","37520","22668","12213","826","2","legacy","1024","2","48000","-16","task","5203522","even","NA","80806","94533","82808","277964","8421","68613","45945","278466","199616","277961","278466","277879","94533","279294","78885","277379","8295","219722","Lexical Decision Task","78","80814","87","yes","1024"
"2.68604012","0","3","mulb","non-word","89.77272727272727","89.77272727272727","928.2045454545455","928.2045454545455","black","no","legacy","legacy","legacy","0","uniform","1","undefined","undefined","undefined","1","f","0","0","0","0","87","0","0","0","87","0","83","87","83","0","83","3","87","0","87","Thu Feb 18 11:23:16 2021","The main experiment item","yes","Lexical_Decision_Task.osexp","/Users/helen/Desktop","no","Andale Mono","no","18","no","white","no","yes","576","legacy","83","83","3","/Users/helen/Desktop/subject-5203522.csv","legacy","Lentiform Loewenfeld","3.3.7","yes","yes","600bd7cfb6416f0113b04181","602110864497cf011d9c0822","0","f","NA","right shift","right shift","right shift","right shift","f","868","NA","11725","37520","22668","12213","868","2","legacy","1024","2","48000","-16","task","5203522","even","NA","80806","94533","82808","279882","8421","68613","45945","280384","199616","279880","280384","279798","94533","281254","78885","279298","8295","219722","Lexical Decision Task","79","81682","88","yes","1024"
"2.803231716","5.26","3","kiln","word","88.76404494382022","88.76404494382022","926.1685393258427","926.1685393258427","black","no","legacy","legacy","legacy","0","uniform","0","undefined","undefined","undefined","0","j","0","0","0","0","88","0","0","0","88","0","84","88","84","0","84","3","88","0","88","Thu Feb 18 11:23:16 2021","The main experiment item","yes","Lexical_Decision_Task.osexp","/Users/helen/Desktop","no","Andale Mono","no","18","no","white","no","yes","576","legacy","84","84","3","/Users/helen/Desktop/subject-5203522.csv","legacy","Lentiform Loewenfeld","3.3.7","yes","yes","600bd7cfb6416f0113b04181","602110864497cf011d9c0822","0","f","NA","right shift","right shift","right shift","right shift","f","747","NA","11725","37520","22668","12213","747","2","legacy","1024","2","48000","-16","task","5203522","even","NA","80806","94533","82808","281843","8421","68613","45945","282345","199616","281840","282345","281758","94533","283094","78885","281258","8295","219722","Lexical Decision Task","79","82429","89","yes","1024"
"3.039414119","0","9","meep","non-word","88.88888888888889","88.88888888888889","924.6333333333333","924.6333333333333","black","no","legacy","legacy","legacy","0","uniform","1","undefined","undefined","undefined","1","f","0","0","0","0","89","0","0","0","89","0","85","89","85","0","85","3","89","0","89","Thu Feb 18 11:23:16 2021","The main experiment item","yes","Lexical_Decision_Task.osexp","/Users/helen/Desktop","no","Andale Mono","no","18","no","white","no","yes","576","legacy","85","85","3","/Users/helen/Desktop/subject-5203522.csv","legacy","Lentiform Loewenfeld","3.3.7","yes","yes","600bd7cfb6416f0113b04181","602110864497cf011d9c0822","0","f","NA","right shift","right shift","right shift","right shift","f","788","NA","11725","37520","22668","12213","788","2","legacy","1024","2","48000","-16","task","5203522","even","NA","80806","94533","82808","284682","8421","68613","45945","285184","199616","284680","285184","284598","94533","285974","78885","281258","8295","283098","Lexical Decision Task","80","83217","90","yes","1024"
"3.431095062","5.74","9","perk","word","89.01098901098901","89.01098901098901","924.0769230769231","924.0769230769231","black","no","legacy","legacy","legacy","0","uniform","1","undefined","undefined","undefined","1","j","0","0","0","0","90","0","0","0","90","0","86","90","86","0","86","3","90","0","90","Thu Feb 18 11:23:16 2021","The main experiment item","yes","Lexical_Decision_Task.osexp","/Users/helen/Desktop","no","Andale Mono","no","18","no","white","no","yes","576","legacy","86","86","3","/Users/helen/Desktop/subject-5203522.csv","legacy","Lentiform Loewenfeld","3.3.7","yes","yes","600bd7cfb6416f0113b04181","602110864497cf011d9c0822","0","j","NA","right shift","right shift","right shift","right shift","j","874","NA","11725","37520","22668","12213","874","2","legacy","1024","2","48000","-16","task","5203522","even","NA","80806","94533","82808","286564","8421","68613","45945","287066","199616","286561","287066","286479","94533","287943","78885","285978","8295","283098","Lexical Decision Task","81","84091","91","yes","1024"
"2.746890964","9.67","3","plug","word","89.1304347826087","89.1304347826087","921.8804347826087","921.8804347826087","black","no","legacy","legacy","legacy","0","uniform","1","undefined","undefined","undefined","1","j","0","0","0","0","91","0","0","0","91","0","87","91","87","0","87","3","91","0","91","Thu Feb 18 11:23:16 2021","The main experiment item","yes","Lexical_Decision_Task.osexp","/Users/helen/Desktop","no","Andale Mono","no","18","no","white","no","yes","576","legacy","87","87","3","/Users/helen/Desktop/subject-5203522.csv","legacy","Lentiform Loewenfeld","3.3.7","yes","yes","600bd7cfb6416f0113b04181","602110864497cf011d9c0822","0","j","NA","right shift","right shift","right shift","right shift","j","722","NA","11725","37520","22668","12213","722","2","legacy","1024","2","48000","-16","task","5203522","even","NA","80806","94533","82808","288532","8421","68613","45945","289034","199616","288529","289034","288447","94533","289759","78885","287946","8295","283098","Lexical Decision Task","82","84813","92","yes","1024"
"2.980911938","7.15","7","hoop","word","89.24731182795699","89.24731182795699","919.5591397849462","919.5591397849462","black","no","legacy","legacy","legacy","0","uniform","1","undefined","undefined","undefined","1","j","0","0","0","0","92","0","0","0","92","0","88","92","88","0","88","3","92","0","92","Thu Feb 18 11:23:16 2021","The main experiment item","yes","Lexical_Decision_Task.osexp","/Users/helen/Desktop","no","Andale Mono","no","18","no","white","no","yes","576","legacy","88","88","3","/Users/helen/Desktop/subject-5203522.csv","legacy","Lentiform Loewenfeld","3.3.7","yes","yes","600bd7cfb6416f0113b04181","602110864497cf011d9c0822","0","j","NA","right shift","right shift","right shift","right shift","j","706","NA","11725","37520","22668","12213","706","2","legacy","1024","2","48000","-16","task","5203522","even","NA","80806","94533","82808","290347","8421","68613","45945","290850","199616","290345","290850","290263","94533","291558","78885","289763","8295","283098","Lexical Decision Task","83","85519","93","yes","1024"
"3.067070856","9.39","3","loud","word","89.36170212765957","89.36170212765957","918.5","918.5","black","no","legacy","legacy","legacy","0","uniform","1","undefined","undefined","undefined","1","j","0","0","0","0","93","0","0","0","93","0","89","93","89","0","89","3","93","0","93","Thu Feb 18 11:23:16 2021","The main experiment item","yes","Lexical_Decision_Task.osexp","/Users/helen/Desktop","no","Andale Mono","no","18","no","white","no","yes","576","legacy","89","89","3","/Users/helen/Desktop/subject-5203522.csv","legacy","Lentiform Loewenfeld","3.3.7","yes","yes","600bd7cfb6416f0113b04181","602110864497cf011d9c0822","0","j","NA","right shift","right shift","right shift","right shift","j","820","NA","11725","37520","22668","12213","820","2","legacy","1024","2","48000","-16","task","5203522","even","NA","80806","94533","82808","292147","8421","68613","45945","292649","199616","292144","292649","292062","94533","293471","78885","291562","8295","283098","Lexical Decision Task","84","86339","94","yes","1024"
"3.195807436","0","6","stup","non-word","89.47368421052632","89.47368421052632","917.4421052631579","917.4421052631579","black","no","legacy","legacy","legacy","0","uniform","1","undefined","undefined","undefined","1","f","0","0","0","0","94","0","0","0","94","0","90","94","90","0","90","3","94","0","94","Thu Feb 18 11:23:16 2021","The main experiment item","yes","Lexical_Decision_Task.osexp","/Users/helen/Desktop","no","Andale Mono","no","18","no","white","no","yes","576","legacy","90","90","3","/Users/helen/Desktop/subject-5203522.csv","legacy","Lentiform Loewenfeld","3.3.7","yes","yes","600bd7cfb6416f0113b04181","602110864497cf011d9c0822","0","f","NA","right shift","right shift","right shift","right shift","f","818","NA","11725","37520","22668","12213","818","2","legacy","1024","2","48000","-16","task","5203522","even","NA","80806","94533","82808","294060","8421","68613","45945","294562","199616","294057","294562","293975","94533","295382","78885","293475","8295","283098","Lexical Decision Task","85","87157","95","yes","1024"
"2.68604012","0","4","pumb","non-word","89.58333333333333","89.58333333333333","916.6666666666666","916.6666666666666","black","no","legacy","legacy","legacy","0","uniform","1","undefined","undefined","undefined","1","f","0","0","0","0","95","0","0","0","95","0","91","95","91","0","91","3","95","0","95","Thu Feb 18 11:23:16 2021","The main experiment item","yes","Lexical_Decision_Task.osexp","/Users/helen/Desktop","no","Andale Mono","no","18","no","white","no","yes","576","legacy","91","91","3","/Users/helen/Desktop/subject-5203522.csv","legacy","Lentiform Loewenfeld","3.3.7","yes","yes","600bd7cfb6416f0113b04181","602110864497cf011d9c0822","0","f","NA","right shift","right shift","right shift","right shift","f","843","NA","11725","37520","22668","12213","843","2","legacy","1024","2","48000","-16","task","5203522","even","NA","80806","94533","82808","295970","8421","68613","45945","296473","199616","295968","296473","295886","94533","297318","78885","295386","8295","283098","Lexical Decision Task","86","88000","96","yes","1024"
"3.003891166","8.05","2","frog","word","89.69072164948453","89.69072164948453","914.5876288659794","914.5876288659794","black","no","legacy","legacy","legacy","0","uniform","1","undefined","undefined","undefined","1","j","0","0","0","0","96","0","0","0","96","0","92","96","92","0","92","3","96","0","96","Thu Feb 18 11:23:16 2021","The main experiment item","yes","Lexical_Decision_Task.osexp","/Users/helen/Desktop","no","Andale Mono","no","18","no","white","no","yes","576","legacy","92","92","3","/Users/helen/Desktop/subject-5203522.csv","legacy","Lentiform Loewenfeld","3.3.7","yes","yes","600bd7cfb6416f0113b04181","602110864497cf011d9c0822","0","j","NA","right shift","right shift","right shift","right shift","j","715","NA","11725","37520","22668","12213","715","2","legacy","1024","2","48000","-16","task","5203522","even","NA","80806","94533","82808","297907","8421","68613","45945","298409","199616","297904","298409","297822","94533","299126","78885","297322","8295","283098","Lexical Decision Task","87","88715","97","yes","1024"
"3.218535505","7.85","7","goat","word","89.79591836734694","89.79591836734694","911.4081632653061","911.4081632653061","black","no","legacy","legacy","legacy","0","uniform","1","undefined","undefined","undefined","1","j","0","0","0","0","97","0","0","0","97","0","93","97","93","0","93","3","97","0","97","Thu Feb 18 11:23:16 2021","The main experiment item","yes","Lexical_Decision_Task.osexp","/Users/helen/Desktop","no","Andale Mono","no","18","no","white","no","yes","576","legacy","93","93","3","/Users/helen/Desktop/subject-5203522.csv","legacy","Lentiform Loewenfeld","3.3.7","yes","yes","600bd7cfb6416f0113b04181","602110864497cf011d9c0822","0","j","NA","right shift","right shift","right shift","right shift","j","603","NA","11725","37520","22668","12213","603","2","legacy","1024","2","48000","-16","task","5203522","even","NA","80806","94533","82808","299714","8421","68613","45945","300217","199616","299712","300217","299630","94533","300822","78885","299130","8295","283098","Lexical Decision Task","88","89318","98","yes","1024"
"3.064581521","5.51","6","cask","word","89.8989898989899","89.8989898989899","909.3333333333334","909.3333333333334","black","no","legacy","legacy","legacy","0","uniform","1","undefined","undefined","undefined","1","j","0","0","0","0","98","0","0","0","98","0","94","98","94","0","94","3","98","0","98","Thu Feb 18 11:23:16 2021","The main experiment item","yes","Lexical_Decision_Task.osexp","/Users/helen/Desktop","no","Andale Mono","no","18","no","white","no","yes","576","legacy","94","94","3","/Users/helen/Desktop/subject-5203522.csv","legacy","Lentiform Loewenfeld","3.3.7","yes","yes","600bd7cfb6416f0113b04181","602110864497cf011d9c0822","0","j","NA","right shift","right shift","right shift","right shift","j","706","NA","11725","37520","22668","12213","706","2","legacy","1024","2","48000","-16","task","5203522","even","NA","80806","94533","82808","301412","8421","68613","45945","301914","199616","301409","301914","301327","94533","302622","78885","300827","8295","283098","Lexical Decision Task","89","90024","99","yes","1024"
