"Log_BG","Log_Freq_HAL","Ortho_N","Stimulus","Type","acc","accuracy","average_response_time","avg_rt","background","bidi","canvas_backend","clock_backend","color_backend","compensation","coordinates","correct","correct_Experimental_intro","correct_Introduction","correct_Practice_intro","correct_experimenter_kb","correct_response","count_End_Of_Experiment","count_End_Of_Practice","count_Experimental_Loop","count_Experimental_intro","count_Fixation","count_Introduction","count_Practice_Loop","count_Practice_intro","count_Stimulus","count_block_break_feedback","count_experimental_sequence","count_experimenter_kb","count_increment_trial_count","count_init_trial_count","count_logger","count_practice_sequence","count_right","count_task","count_wrong","datetime","description","disable_garbage_collection","experiment_file","experiment_path","font_bold","font_family","font_italic","font_size","font_underline","foreground","form_clicks","fullscreen","height","keyboard_backend","live_row","live_row_Experimental_Loop","live_row_Practice_Loop","logfile","mouse_backend","opensesame_codename","opensesame_version","osf_always_upload_data","osf_always_upload_experiment","osf_datanode_id","osf_id","repeat_cycle","response","response_End_Of_Experiment","response_Experimental_intro","response_Introduction","response_Practice_intro","response_block_break_feedback","response_experimenter_kb","response_time","response_time_End_Of_Experiment","response_time_Experimental_intro","response_time_Introduction","response_time_Practice_intro","response_time_block_break_feedback","response_time_experimenter_kb","round_decimals","sampler_backend","sound_buf_size","sound_channels","sound_freq","sound_sample_size","start","subject_nr","subject_parity","time_End_Of_Experiment","time_End_Of_Practice","time_Experimental_Loop","time_Experimental_intro","time_Fixation","time_Introduction","time_Practice_Loop","time_Practice_intro","time_Stimulus","time_block_break_feedback","time_experimental_sequence","time_experimenter_kb","time_increment_trial_count","time_init_trial_count","time_logger","time_practice_sequence","time_right","time_task","time_wrong","title","total_correct","total_response_time","total_responses","uniform_coordinates","width"
"3.259832699","0","9","flar","non-word","100","100","1493.4","1493.4","black","no","legacy","legacy","legacy","0","uniform","1","undefined","undefined","undefined","1","f","0","0","0","0","4","0","0","0","4","NA","0","4","0","0","0","3","4","0","4","Fri Feb 19 14:00:53 2021","The main experiment item","yes","Lexical_Decision_Task.osexp","/Users/annemurray","no","Andale Mono","no","18","no","white","no","yes","576","legacy","0","0","3","/Users/annemurray/subject-5206078.csv","legacy","Lentiform Loewenfeld","3.3.7","yes","yes","600bd7cfb6416f0113b04181","602110864497cf011d9c0822","0","f","NA","space","space","space","NA","f","1696","NA","4342","18440","11261","NA","1696","2","legacy","1024","2","48000","-16","task","5206078","even","NA","43494","49841","45497","49864","3762","33473","22211","50367","NA","49862","50367","NA","49841","52064","41597","42963","3717","NA","Lexical Decision Task","5","7467","5","yes","1024"
"3.248054965","7.86","5","glow","word","100","100","1399","1399","black","no","legacy","legacy","legacy","0","uniform","1","undefined","undefined","undefined","1","j","0","0","0","0","5","0","0","0","5","NA","1","5","1","0","1","3","5","0","5","Fri Feb 19 14:00:53 2021","The main experiment item","yes","Lexical_Decision_Task.osexp","/Users/annemurray","no","Andale Mono","no","18","no","white","no","yes","576","legacy","1","1","3","/Users/annemurray/subject-5206078.csv","legacy","Lentiform Loewenfeld","3.3.7","yes","yes","600bd7cfb6416f0113b04181","602110864497cf011d9c0822","0","j","NA","space","space","space","NA","j","927","NA","4342","18440","11261","NA","927","2","legacy","1024","2","48000","-16","task","5206078","even","NA","43494","49841","45497","52619","3762","33473","22211","53122","NA","52617","53122","52570","49841","54050","41597","52070","3717","NA","Lexical Decision Task","6","8394","6","yes","1024"
"2.784379519","0","2","snaf","non-word","100","100","1393.7142857142858","1393.7142857142858","black","no","legacy","legacy","legacy","0","uniform","1","undefined","undefined","undefined","1","f","0","0","0","0","6","0","0","0","6","NA","2","6","2","0","2","3","6","0","6","Fri Feb 19 14:00:53 2021","The main experiment item","yes","Lexical_Decision_Task.osexp","/Users/annemurray","no","Andale Mono","no","18","no","white","no","yes","576","legacy","2","2","3","/Users/annemurray/subject-5206078.csv","legacy","Lentiform Loewenfeld","3.3.7","yes","yes","600bd7cfb6416f0113b04181","602110864497cf011d9c0822","0","f","NA","space","space","space","NA","f","1362","NA","4342","18440","11261","NA","1362","2","legacy","1024","2","48000","-16","task","5206078","even","NA","43494","49841","45497","54600","3762","33473","22211","55103","NA","54598","55103","54554","49841","56466","41597","54054","3717","NA","Lexical Decision Task","7","9756","7","yes","1024"
"3.165936429","0","7","leps","non-word","100","100","1426.125","1426.125","black","no","legacy","legacy","legacy","0","uniform","1","undefined","undefined","undefined","1","f","0","0","0","0","7","0","0","0","7","NA","3","7","3","0","3","3","7","0","7","Fri Feb 19 14:00:53 2021","The main experiment item","yes","Lexical_Decision_Task.osexp","/Users/annemurray","no","Andale Mono","no","18","no","white","no","yes","576","legacy","3","3","3","/Users/annemurray/subject-5206078.csv","legacy","Lentiform Loewenfeld","3.3.7","yes","yes","600bd7cfb6416f0113b04181","602110864497cf011d9c0822","0","f","NA","space","space","space","NA","f","1653","NA","4342","18440","11261","NA","1653","2","legacy","1024","2","48000","-16","task","5206078","even","NA","43494","49841","45497","57015","3762","33473","22211","57518","NA","57013","57518","56969","49841","59172","41597","56469","3717","NA","Lexical Decision Task","8","11409","8","yes","1024"
"3.269668578","0","7","trag","non-word","100","100","1458.2222222222222","1458.2222222222222","black","no","legacy","legacy","legacy","0","uniform","1","undefined","undefined","undefined","1","f","0","0","0","0","8","0","0","0","8","NA","4","8","4","0","4","3","8","0","8","Fri Feb 19 14:00:53 2021","The main experiment item","yes","Lexical_Decision_Task.osexp","/Users/annemurray","no","Andale Mono","no","18","no","white","no","yes","576","legacy","4","4","3","/Users/annemurray/subject-5206078.csv","legacy","Lentiform Loewenfeld","3.3.7","yes","yes","600bd7cfb6416f0113b04181","602110864497cf011d9c0822","0","f","NA","space","space","space","NA","f","1715","NA","4342","18440","11261","NA","1715","2","legacy","1024","2","48000","-16","task","5206078","even","NA","43494","49841","45497","59720","3762","33473","22211","60223","NA","59719","60223","59675","49841","61940","41597","59175","3717","NA","Lexical Decision Task","9","13124","9","yes","1024"
"2.845304797","0","6","buct","non-word","100","100","1448.6","1448.6","black","no","legacy","legacy","legacy","0","uniform","1","undefined","undefined","undefined","1","f","0","0","0","0","9","0","0","0","9","NA","5","9","5","0","5","3","9","0","9","Fri Feb 19 14:00:53 2021","The main experiment item","yes","Lexical_Decision_Task.osexp","/Users/annemurray","no","Andale Mono","no","18","no","white","no","yes","576","legacy","5","5","3","/Users/annemurray/subject-5206078.csv","legacy","Lentiform Loewenfeld","3.3.7","yes","yes","600bd7cfb6416f0113b04181","602110864497cf011d9c0822","0","f","NA","space","space","space","NA","f","1362","NA","4342","18440","11261","NA","1362","2","legacy","1024","2","48000","-16","task","5206078","even","NA","43494","49841","45497","62488","3762","33473","22211","62991","NA","62486","62991","62443","49841","64354","41597","61943","3717","NA","Lexical Decision Task","10","14486","10","yes","1024"
"2.807758206","6.25","4","hurl","word","100","100","1430","1430","black","no","legacy","legacy","legacy","0","uniform","1","undefined","undefined","undefined","1","j","0","0","0","0","10","0","0","0","10","NA","6","10","6","0","6","3","10","0","10","Fri Feb 19 14:00:53 2021","The main experiment item","yes","Lexical_Decision_Task.osexp","/Users/annemurray","no","Andale Mono","no","18","no","white","no","yes","576","legacy","6","6","3","/Users/annemurray/subject-5206078.csv","legacy","Lentiform Loewenfeld","3.3.7","yes","yes","600bd7cfb6416f0113b04181","602110864497cf011d9c0822","0","j","NA","space","space","space","NA","j","1244","NA","4342","18440","11261","NA","1244","2","legacy","1024","2","48000","-16","task","5206078","even","NA","43494","49841","45497","64903","3762","33473","22211","65406","NA","64901","65406","64857","49841","66651","41597","64357","3717","NA","Lexical Decision Task","11","15730","11","yes","1024"
"3.20996159","0","4","clee","non-word","91.66666666666667","91.66666666666667","1560.8333333333333","1560.8333333333333","black","no","legacy","legacy","legacy","0","uniform","0","undefined","undefined","undefined","0","f","0","0","0","0","11","0","0","0","11","NA","7","11","7","0","7","3","11","0","11","Fri Feb 19 14:00:53 2021","The main experiment item","yes","Lexical_Decision_Task.osexp","/Users/annemurray","no","Andale Mono","no","18","no","white","no","yes","576","legacy","7","7","3","/Users/annemurray/subject-5206078.csv","legacy","Lentiform Loewenfeld","3.3.7","yes","yes","600bd7cfb6416f0113b04181","602110864497cf011d9c0822","0","None","NA","space","space","space","NA","None","3000","NA","4342","18440","11261","NA","3000","2","legacy","1024","2","48000","-16","task","5206078","even","NA","43494","49841","45497","67202","3762","33473","22211","67705","NA","67200","67705","67156","49841","70705","41597","66656","3717","NA","Lexical Decision Task","11","18730","12","yes","1024"
"2.842815106","7.86","8","lump","word","92.3076923076923","92.3076923076923","1569.4615384615386","1569.4615384615386","black","no","legacy","legacy","legacy","0","uniform","1","undefined","undefined","undefined","1","j","0","0","0","0","12","0","0","0","12","NA","8","12","8","0","8","3","12","0","12","Fri Feb 19 14:00:53 2021","The main experiment item","yes","Lexical_Decision_Task.osexp","/Users/annemurray","no","Andale Mono","no","18","no","white","no","yes","576","legacy","8","8","3","/Users/annemurray/subject-5206078.csv","legacy","Lentiform Loewenfeld","3.3.7","yes","yes","600bd7cfb6416f0113b04181","602110864497cf011d9c0822","0","j","NA","space","space","space","NA","j","1673","NA","4342","18440","11261","NA","1673","2","legacy","1024","2","48000","-16","task","5206078","even","NA","43494","49841","45497","72256","3762","33473","22211","72759","NA","72255","72759","72208","49841","74434","41597","66656","3717","70708","Lexical Decision Task","12","20403","13","yes","1024"
"3.382617311","0","4","pret","non-word","85.71428571428571","85.71428571428571","1569.2142857142858","1569.2142857142858","black","no","legacy","legacy","legacy","0","uniform","0","undefined","undefined","undefined","0","f","0","0","0","0","13","0","0","0","13","NA","9","13","9","0","9","3","13","0","13","Fri Feb 19 14:00:53 2021","The main experiment item","yes","Lexical_Decision_Task.osexp","/Users/annemurray","no","Andale Mono","no","18","no","white","no","yes","576","legacy","9","9","3","/Users/annemurray/subject-5206078.csv","legacy","Lentiform Loewenfeld","3.3.7","yes","yes","600bd7cfb6416f0113b04181","602110864497cf011d9c0822","0","j","NA","space","space","space","NA","j","1566","NA","4342","18440","11261","NA","1566","2","legacy","1024","2","48000","-16","task","5206078","even","NA","43494","49841","45497","74982","3762","33473","22211","75485","NA","74980","75485","74936","49841","77052","41597","74436","3717","70708","Lexical Decision Task","12","21969","14","yes","1024"
"2.980306438","0","7","slun","non-word","86.66666666666667","86.66666666666667","1590.4","1590.4","black","no","legacy","legacy","legacy","0","uniform","1","undefined","undefined","undefined","1","f","0","0","0","0","14","0","0","0","14","NA","10","14","10","0","10","3","14","0","14","Fri Feb 19 14:00:53 2021","The main experiment item","yes","Lexical_Decision_Task.osexp","/Users/annemurray","no","Andale Mono","no","18","no","white","no","yes","576","legacy","10","10","3","/Users/annemurray/subject-5206078.csv","legacy","Lentiform Loewenfeld","3.3.7","yes","yes","600bd7cfb6416f0113b04181","602110864497cf011d9c0822","0","f","NA","space","space","space","NA","f","1887","NA","4342","18440","11261","NA","1887","2","legacy","1024","2","48000","-16","task","5206078","even","NA","43494","49841","45497","78606","3762","33473","22211","79109","NA","78604","79109","78557","49841","80998","41597","74436","3717","77057","Lexical Decision Task","13","23856","15","yes","1024"
"2.706148589","0","4","hube","non-word","87.5","87.5","1602.375","1602.375","black","no","legacy","legacy","legacy","0","uniform","1","undefined","undefined","undefined","1","f","0","0","0","0","15","0","0","0","15","NA","11","15","11","0","11","3","15","0","15","Fri Feb 19 14:00:53 2021","The main experiment item","yes","Lexical_Decision_Task.osexp","/Users/annemurray","no","Andale Mono","no","18","no","white","no","yes","576","legacy","11","11","3","/Users/annemurray/subject-5206078.csv","legacy","Lentiform Loewenfeld","3.3.7","yes","yes","600bd7cfb6416f0113b04181","602110864497cf011d9c0822","0","f","NA","space","space","space","NA","f","1782","NA","4342","18440","11261","NA","1782","2","legacy","1024","2","48000","-16","task","5206078","even","NA","43494","49841","45497","81548","3762","33473","22211","82051","NA","81546","82051","81502","49841","83835","41597","81002","3717","77057","Lexical Decision Task","14","25638","16","yes","1024"
"3.076883066","0","8","mout","non-word","88.23529411764706","88.23529411764706","1620.6470588235295","1620.6470588235295","black","no","legacy","legacy","legacy","0","uniform","1","undefined","undefined","undefined","1","f","0","0","0","0","16","0","0","0","16","NA","12","16","12","0","12","3","16","0","16","Fri Feb 19 14:00:53 2021","The main experiment item","yes","Lexical_Decision_Task.osexp","/Users/annemurray","no","Andale Mono","no","18","no","white","no","yes","576","legacy","12","12","3","/Users/annemurray/subject-5206078.csv","legacy","Lentiform Loewenfeld","3.3.7","yes","yes","600bd7cfb6416f0113b04181","602110864497cf011d9c0822","0","f","NA","space","space","space","NA","f","1913","NA","4342","18440","11261","NA","1913","2","legacy","1024","2","48000","-16","task","5206078","even","NA","43494","49841","45497","84386","3762","33473","22211","84889","NA","84384","84889","84340","49841","86803","41597","83840","3717","77057","Lexical Decision Task","15","27551","17","yes","1024"
"3.378276681","6.39","8","bran","word","83.33333333333333","83.33333333333333","1641.0555555555557","1641.0555555555557","black","no","legacy","legacy","legacy","0","uniform","0","undefined","undefined","undefined","0","j","0","0","0","0","17","0","0","0","17","NA","13","17","13","0","13","3","17","0","17","Fri Feb 19 14:00:53 2021","The main experiment item","yes","Lexical_Decision_Task.osexp","/Users/annemurray","no","Andale Mono","no","18","no","white","no","yes","576","legacy","13","13","3","/Users/annemurray/subject-5206078.csv","legacy","Lentiform Loewenfeld","3.3.7","yes","yes","600bd7cfb6416f0113b04181","602110864497cf011d9c0822","0","f","NA","space","space","space","NA","f","1988","NA","4342","18440","11261","NA","1988","2","legacy","1024","2","48000","-16","task","5206078","even","NA","43494","49841","45497","87353","3762","33473","22211","87856","NA","87351","87856","87307","49841","89846","41597","86807","3717","77057","Lexical Decision Task","15","29539","18","yes","1024"
"3.274157849","0","8","leet","non-word","78.94736842105263","78.94736842105263","1604.5263157894738","1604.5263157894738","black","no","legacy","legacy","legacy","0","uniform","0","undefined","undefined","undefined","0","f","0","0","0","0","18","0","0","0","18","NA","14","18","14","0","14","3","18","0","18","Fri Feb 19 14:00:53 2021","The main experiment item","yes","Lexical_Decision_Task.osexp","/Users/annemurray","no","Andale Mono","no","18","no","white","no","yes","576","legacy","14","14","3","/Users/annemurray/subject-5206078.csv","legacy","Lentiform Loewenfeld","3.3.7","yes","yes","600bd7cfb6416f0113b04181","602110864497cf011d9c0822","0","j","NA","space","space","space","NA","j","947","NA","4342","18440","11261","NA","947","2","legacy","1024","2","48000","-16","task","5206078","even","NA","43494","49841","45497","91401","3762","33473","22211","91904","NA","91398","91904","91351","49841","92852","41597","86807","3717","89851","Lexical Decision Task","15","30486","19","yes","1024"
"3.372543801","9.24","8","coat","word","80","80","1570.2","1570.2","black","no","legacy","legacy","legacy","0","uniform","1","undefined","undefined","undefined","1","j","0","0","0","0","19","0","0","0","19","NA","15","19","15","0","15","3","19","0","19","Fri Feb 19 14:00:53 2021","The main experiment item","yes","Lexical_Decision_Task.osexp","/Users/annemurray","no","Andale Mono","no","18","no","white","no","yes","576","legacy","15","15","3","/Users/annemurray/subject-5206078.csv","legacy","Lentiform Loewenfeld","3.3.7","yes","yes","600bd7cfb6416f0113b04181","602110864497cf011d9c0822","0","j","NA","space","space","space","NA","j","918","NA","4342","18440","11261","NA","918","2","legacy","1024","2","48000","-16","task","5206078","even","NA","43494","49841","45497","94407","3762","33473","22211","94909","NA","94405","94909","94357","49841","95828","41597","86807","3717","92857","Lexical Decision Task","16","31404","20","yes","1024"
"3.22685757","9.99","7","roll","word","80.95238095238095","80.95238095238095","1547.3333333333333","1547.3333333333333","black","no","legacy","legacy","legacy","0","uniform","1","undefined","undefined","undefined","1","j","0","0","0","0","20","0","0","0","20","NA","16","20","16","0","16","3","20","0","20","Fri Feb 19 14:00:53 2021","The main experiment item","yes","Lexical_Decision_Task.osexp","/Users/annemurray","no","Andale Mono","no","18","no","white","no","yes","576","legacy","16","16","3","/Users/annemurray/subject-5206078.csv","legacy","Lentiform Loewenfeld","3.3.7","yes","yes","600bd7cfb6416f0113b04181","602110864497cf011d9c0822","0","j","NA","space","space","space","NA","j","1090","NA","4342","18440","11261","NA","1090","2","legacy","1024","2","48000","-16","task","5206078","even","NA","43494","49841","45497","96377","3762","33473","22211","96880","NA","96375","96880","96331","49841","97971","41597","95831","3717","92857","Lexical Decision Task","17","32494","21","yes","1024"
"3.194328374","9.42","6","harm","word","81.81818181818181","81.81818181818181","1508.8181818181818","1508.8181818181818","black","no","legacy","legacy","legacy","0","uniform","1","undefined","undefined","undefined","1","j","0","0","0","0","21","0","0","0","21","NA","17","21","17","0","17","3","21","0","21","Fri Feb 19 14:00:53 2021","The main experiment item","yes","Lexical_Decision_Task.osexp","/Users/annemurray","no","Andale Mono","no","18","no","white","no","yes","576","legacy","17","17","3","/Users/annemurray/subject-5206078.csv","legacy","Lentiform Loewenfeld","3.3.7","yes","yes","600bd7cfb6416f0113b04181","602110864497cf011d9c0822","0","j","NA","space","space","space","NA","j","700","NA","4342","18440","11261","NA","700","2","legacy","1024","2","48000","-16","task","5206078","even","NA","43494","49841","45497","98521","3762","33473","22211","99024","NA","98519","99024","98475","49841","99725","41597","97975","3717","92857","Lexical Decision Task","18","33194","22","yes","1024"
"2.664011697","8.19","4","hawk","word","78.26086956521739","78.26086956521739","1507.0434782608695","1507.0434782608695","black","no","legacy","legacy","legacy","0","uniform","0","undefined","undefined","undefined","0","j","0","0","0","0","22","0","0","0","22","NA","18","22","18","0","18","3","22","0","22","Fri Feb 19 14:00:53 2021","The main experiment item","yes","Lexical_Decision_Task.osexp","/Users/annemurray","no","Andale Mono","no","18","no","white","no","yes","576","legacy","18","18","3","/Users/annemurray/subject-5206078.csv","legacy","Lentiform Loewenfeld","3.3.7","yes","yes","600bd7cfb6416f0113b04181","602110864497cf011d9c0822","0","f","NA","space","space","space","NA","f","1468","NA","4342","18440","11261","NA","1468","2","legacy","1024","2","48000","-16","task","5206078","even","NA","43494","49841","45497","100274","3762","33473","22211","100777","NA","100272","100777","100228","49841","102246","41597","99728","3717","92857","Lexical Decision Task","18","34662","23","yes","1024"
"2.746890964","9.67","3","plug","word","79.16666666666667","79.16666666666667","1474.2916666666667","1474.2916666666667","black","no","legacy","legacy","legacy","0","uniform","1","undefined","undefined","undefined","1","j","0","0","0","0","23","0","0","0","23","NA","19","23","19","0","19","3","23","0","23","Fri Feb 19 14:00:53 2021","The main experiment item","yes","Lexical_Decision_Task.osexp","/Users/annemurray","no","Andale Mono","no","18","no","white","no","yes","576","legacy","19","19","3","/Users/annemurray/subject-5206078.csv","legacy","Lentiform Loewenfeld","3.3.7","yes","yes","600bd7cfb6416f0113b04181","602110864497cf011d9c0822","0","j","NA","space","space","space","NA","j","721","NA","4342","18440","11261","NA","721","2","legacy","1024","2","48000","-16","task","5206078","even","NA","43494","49841","45497","103799","3762","33473","22211","104302","NA","103797","104302","103749","49841","105025","41597","99728","3717","102249","Lexical Decision Task","19","35383","24","yes","1024"
"2.75025376","10.2","6","jump","word","80","80","1440.88","1440.88","black","no","legacy","legacy","legacy","0","uniform","1","undefined","undefined","undefined","1","j","0","0","0","0","24","0","0","0","24","NA","20","24","20","0","20","3","24","0","24","Fri Feb 19 14:00:53 2021","The main experiment item","yes","Lexical_Decision_Task.osexp","/Users/annemurray","no","Andale Mono","no","18","no","white","no","yes","576","legacy","20","20","3","/Users/annemurray/subject-5206078.csv","legacy","Lentiform Loewenfeld","3.3.7","yes","yes","600bd7cfb6416f0113b04181","602110864497cf011d9c0822","0","j","NA","space","space","space","NA","j","639","NA","4342","18440","11261","NA","639","2","legacy","1024","2","48000","-16","task","5206078","even","NA","43494","49841","45497","105575","3762","33473","22211","106078","NA","105573","106078","105529","49841","106718","41597","105029","3717","102249","Lexical Decision Task","20","36022","25","yes","1024"
"3.031812271","6.52","3","gulp","word","80.76923076923077","80.76923076923077","1418.1153846153845","1418.1153846153845","black","no","legacy","legacy","legacy","0","uniform","1","undefined","undefined","undefined","1","j","0","0","0","0","25","0","0","0","25","NA","21","25","21","0","21","3","25","0","25","Fri Feb 19 14:00:53 2021","The main experiment item","yes","Lexical_Decision_Task.osexp","/Users/annemurray","no","Andale Mono","no","18","no","white","no","yes","576","legacy","21","21","3","/Users/annemurray/subject-5206078.csv","legacy","Lentiform Loewenfeld","3.3.7","yes","yes","600bd7cfb6416f0113b04181","602110864497cf011d9c0822","0","j","NA","space","space","space","NA","j","849","NA","4342","18440","11261","NA","849","2","legacy","1024","2","48000","-16","task","5206078","even","NA","43494","49841","45497","107267","3762","33473","22211","107770","NA","107265","107770","107221","49841","108621","41597","106721","3717","102249","Lexical Decision Task","21","36871","26","yes","1024"
"3.216517684","10.87","3","film","word","81.48148148148148","81.48148148148148","1392.4814814814815","1392.4814814814815","black","no","legacy","legacy","legacy","0","uniform","1","undefined","undefined","undefined","1","j","0","0","0","0","26","0","0","0","26","NA","22","26","22","0","22","3","26","0","26","Fri Feb 19 14:00:53 2021","The main experiment item","yes","Lexical_Decision_Task.osexp","/Users/annemurray","no","Andale Mono","no","18","no","white","no","yes","576","legacy","22","22","3","/Users/annemurray/subject-5206078.csv","legacy","Lentiform Loewenfeld","3.3.7","yes","yes","600bd7cfb6416f0113b04181","602110864497cf011d9c0822","0","j","NA","space","space","space","NA","j","726","NA","4342","18440","11261","NA","726","2","legacy","1024","2","48000","-16","task","5206078","even","NA","43494","49841","45497","109170","3762","33473","22211","109673","NA","109168","109673","109123","49841","110401","41597","108623","3717","102249","Lexical Decision Task","22","37597","27","yes","1024"
"2.696356389","0","1","pizz","non-word","82.14285714285714","82.14285714285714","1392.9642857142858","1392.9642857142858","black","no","legacy","legacy","legacy","0","uniform","1","undefined","undefined","undefined","1","f","0","0","0","0","27","0","0","0","27","NA","23","27","23","0","23","3","27","0","27","Fri Feb 19 14:00:53 2021","The main experiment item","yes","Lexical_Decision_Task.osexp","/Users/annemurray","no","Andale Mono","no","18","no","white","no","yes","576","legacy","23","23","3","/Users/annemurray/subject-5206078.csv","legacy","Lentiform Loewenfeld","3.3.7","yes","yes","600bd7cfb6416f0113b04181","602110864497cf011d9c0822","0","f","NA","space","space","space","NA","f","1406","NA","4342","18440","11261","NA","1406","2","legacy","1024","2","48000","-16","task","5206078","even","NA","43494","49841","45497","110952","3762","33473","22211","111455","NA","110950","111455","110906","49841","112862","41597","110406","3717","102249","Lexical Decision Task","23","39003","28","yes","1024"
"3.15462682","0","6","noal","non-word","79.3103448275862","79.3103448275862","1384.0689655172414","1384.0689655172414","black","no","legacy","legacy","legacy","0","uniform","0","undefined","undefined","undefined","0","f","0","0","0","0","28","0","0","0","28","NA","24","28","24","0","24","3","28","0","28","Fri Feb 19 14:00:53 2021","The main experiment item","yes","Lexical_Decision_Task.osexp","/Users/annemurray","no","Andale Mono","no","18","no","white","no","yes","576","legacy","24","24","3","/Users/annemurray/subject-5206078.csv","legacy","Lentiform Loewenfeld","3.3.7","yes","yes","600bd7cfb6416f0113b04181","602110864497cf011d9c0822","0","j","NA","space","space","space","NA","j","1135","NA","4342","18440","11261","NA","1135","2","legacy","1024","2","48000","-16","task","5206078","even","NA","43494","49841","45497","113414","3762","33473","22211","113917","NA","113412","113917","113367","49841","115054","41597","112867","3717","102249","Lexical Decision Task","23","40138","29","yes","1024"
"3.307211407","6.07","7","honk","word","80","80","1364.9333333333334","1364.9333333333334","black","no","legacy","legacy","legacy","0","uniform","1","undefined","undefined","undefined","1","j","0","0","0","0","29","0","0","0","29","NA","25","29","25","0","25","3","29","0","29","Fri Feb 19 14:00:53 2021","The main experiment item","yes","Lexical_Decision_Task.osexp","/Users/annemurray","no","Andale Mono","no","18","no","white","no","yes","576","legacy","25","25","3","/Users/annemurray/subject-5206078.csv","legacy","Lentiform Loewenfeld","3.3.7","yes","yes","600bd7cfb6416f0113b04181","602110864497cf011d9c0822","0","j","NA","space","space","space","NA","j","810","NA","4342","18440","11261","NA","810","2","legacy","1024","2","48000","-16","task","5206078","even","NA","43494","49841","45497","116608","3762","33473","22211","117111","NA","116605","117111","116558","49841","117922","41597","112867","3717","115058","Lexical Decision Task","24","40948","30","yes","1024"
"3.049218023","7.4","9","robe","word","80.64516129032258","80.64516129032258","1340.1290322580646","1340.1290322580646","black","no","legacy","legacy","legacy","0","uniform","1","undefined","undefined","undefined","1","j","0","0","0","0","30","0","0","0","30","NA","26","30","26","0","26","3","30","0","30","Fri Feb 19 14:00:53 2021","The main experiment item","yes","Lexical_Decision_Task.osexp","/Users/annemurray","no","Andale Mono","no","18","no","white","no","yes","576","legacy","26","26","3","/Users/annemurray/subject-5206078.csv","legacy","Lentiform Loewenfeld","3.3.7","yes","yes","600bd7cfb6416f0113b04181","602110864497cf011d9c0822","0","j","NA","space","space","space","NA","j","596","NA","4342","18440","11261","NA","596","2","legacy","1024","2","48000","-16","task","5206078","even","NA","43494","49841","45497","118472","3762","33473","22211","118975","NA","118470","118975","118425","49841","119572","41597","117925","3717","115058","Lexical Decision Task","25","41544","31","yes","1024"
"3.14849993","10.75","7","hour","word","81.25","81.25","1317.4375","1317.4375","black","no","legacy","legacy","legacy","0","uniform","1","undefined","undefined","undefined","1","j","0","0","0","0","31","0","0","0","31","NA","27","31","27","0","27","3","31","0","31","Fri Feb 19 14:00:53 2021","The main experiment item","yes","Lexical_Decision_Task.osexp","/Users/annemurray","no","Andale Mono","no","18","no","white","no","yes","576","legacy","27","27","3","/Users/annemurray/subject-5206078.csv","legacy","Lentiform Loewenfeld","3.3.7","yes","yes","600bd7cfb6416f0113b04181","602110864497cf011d9c0822","0","j","NA","space","space","space","NA","j","614","NA","4342","18440","11261","NA","614","2","legacy","1024","2","48000","-16","task","5206078","even","NA","43494","49841","45497","120123","3762","33473","22211","120626","NA","120121","120626","120077","49841","121241","41597","119577","3717","115058","Lexical Decision Task","26","42158","32","yes","1024"
"3.140404328","10.66","9","deep","word","81.81818181818181","81.81818181818181","1301.6060606060605","1301.6060606060605","black","no","legacy","legacy","legacy","0","uniform","1","undefined","undefined","undefined","1","j","0","0","0","0","32","0","0","0","32","NA","28","32","28","0","28","3","32","0","32","Fri Feb 19 14:00:53 2021","The main experiment item","yes","Lexical_Decision_Task.osexp","/Users/annemurray","no","Andale Mono","no","18","no","white","no","yes","576","legacy","28","28","3","/Users/annemurray/subject-5206078.csv","legacy","Lentiform Loewenfeld","3.3.7","yes","yes","600bd7cfb6416f0113b04181","602110864497cf011d9c0822","0","j","NA","space","space","space","NA","j","795","NA","4342","18440","11261","NA","795","2","legacy","1024","2","48000","-16","task","5206078","even","NA","43494","49841","45497","121790","3762","33473","22211","122293","NA","121788","122293","121744","49841","123089","41597","121244","3717","115058","Lexical Decision Task","27","42953","33","yes","1024"
"3.090140555","5.81","8","pout","word","82.3529411764706","82.3529411764706","1285.0294117647059","1285.0294117647059","black","no","legacy","legacy","legacy","0","uniform","1","undefined","undefined","undefined","1","j","0","0","0","0","33","0","0","0","33","NA","29","33","29","0","29","3","33","0","33","Fri Feb 19 14:00:53 2021","The main experiment item","yes","Lexical_Decision_Task.osexp","/Users/annemurray","no","Andale Mono","no","18","no","white","no","yes","576","legacy","29","29","3","/Users/annemurray/subject-5206078.csv","legacy","Lentiform Loewenfeld","3.3.7","yes","yes","600bd7cfb6416f0113b04181","602110864497cf011d9c0822","0","j","NA","space","space","space","NA","j","738","NA","4342","18440","11261","NA","738","2","legacy","1024","2","48000","-16","task","5206078","even","NA","43494","49841","45497","123639","3762","33473","22211","124142","NA","123637","124142","123592","49841","124881","41597","123092","3717","115058","Lexical Decision Task","28","43691","34","yes","1024"
"3.302475237","0","7","leel","non-word","82.85714285714286","82.85714285714286","1275.2285714285715","1275.2285714285715","black","no","legacy","legacy","legacy","0","uniform","1","undefined","undefined","undefined","1","f","0","0","0","0","34","0","0","0","34","NA","30","34","30","0","30","3","34","0","34","Fri Feb 19 14:00:53 2021","The main experiment item","yes","Lexical_Decision_Task.osexp","/Users/annemurray","no","Andale Mono","no","18","no","white","no","yes","576","legacy","30","30","3","/Users/annemurray/subject-5206078.csv","legacy","Lentiform Loewenfeld","3.3.7","yes","yes","600bd7cfb6416f0113b04181","602110864497cf011d9c0822","0","f","NA","space","space","space","NA","f","942","NA","4342","18440","11261","NA","942","2","legacy","1024","2","48000","-16","task","5206078","even","NA","43494","49841","45497","125431","3762","33473","22211","125934","NA","125429","125934","125384","49841","126877","41597","124884","3717","115058","Lexical Decision Task","29","44633","35","yes","1024"
"2.895974732","6.65","5","sift","word","83.33333333333333","83.33333333333333","1274.638888888889","1274.638888888889","black","no","legacy","legacy","legacy","0","uniform","1","undefined","undefined","undefined","1","j","0","0","0","0","35","0","0","0","35","NA","31","35","31","0","31","3","35","0","35","Fri Feb 19 14:00:53 2021","The main experiment item","yes","Lexical_Decision_Task.osexp","/Users/annemurray","no","Andale Mono","no","18","no","white","no","yes","576","legacy","31","31","3","/Users/annemurray/subject-5206078.csv","legacy","Lentiform Loewenfeld","3.3.7","yes","yes","600bd7cfb6416f0113b04181","602110864497cf011d9c0822","0","j","NA","space","space","space","NA","j","1254","NA","4342","18440","11261","NA","1254","2","legacy","1024","2","48000","-16","task","5206078","even","NA","43494","49841","45497","127426","3762","33473","22211","127929","NA","127424","127929","127380","49841","129185","41597","126880","3717","115058","Lexical Decision Task","30","45887","36","yes","1024"
"3.102203805","7.21","3","drip","word","83.78378378378379","83.78378378378379","1259.5405405405406","1259.5405405405406","black","no","legacy","legacy","legacy","0","uniform","1","undefined","undefined","undefined","1","j","0","0","0","0","36","0","0","0","36","NA","32","36","32","0","32","3","36","0","36","Fri Feb 19 14:00:53 2021","The main experiment item","yes","Lexical_Decision_Task.osexp","/Users/annemurray","no","Andale Mono","no","18","no","white","no","yes","576","legacy","32","32","3","/Users/annemurray/subject-5206078.csv","legacy","Lentiform Loewenfeld","3.3.7","yes","yes","600bd7cfb6416f0113b04181","602110864497cf011d9c0822","0","j","NA","space","space","space","NA","j","716","NA","4342","18440","11261","NA","716","2","legacy","1024","2","48000","-16","task","5206078","even","NA","43494","49841","45497","129735","3762","33473","22211","130238","NA","129733","130238","129688","49841","130956","41597","129188","3717","115058","Lexical Decision Task","31","46603","37","yes","1024"
"2.755364069","7.72","2","hoax","word","84.21052631578948","84.21052631578948","1249.4473684210527","1249.4473684210527","black","no","legacy","legacy","legacy","0","uniform","1","undefined","undefined","undefined","1","j","0","0","0","0","37","0","0","0","37","NA","33","37","33","0","33","3","37","0","37","Fri Feb 19 14:00:53 2021","The main experiment item","yes","Lexical_Decision_Task.osexp","/Users/annemurray","no","Andale Mono","no","18","no","white","no","yes","576","legacy","33","33","3","/Users/annemurray/subject-5206078.csv","legacy","Lentiform Loewenfeld","3.3.7","yes","yes","600bd7cfb6416f0113b04181","602110864497cf011d9c0822","0","j","NA","space","space","space","NA","j","876","NA","4342","18440","11261","NA","876","2","legacy","1024","2","48000","-16","task","5206078","even","NA","43494","49841","45497","131505","3762","33473","22211","132008","NA","131503","132008","131459","49841","132885","41597","130959","3717","115058","Lexical Decision Task","32","47479","38","yes","1024"
"2.996511672","0","7","hoil","non-word","82.05128205128206","82.05128205128206","1236.4358974358975","1236.4358974358975","black","no","legacy","legacy","legacy","0","uniform","0","undefined","undefined","undefined","0","f","0","0","0","0","38","0","0","0","38","NA","34","38","34","0","34","3","38","0","38","Fri Feb 19 14:00:53 2021","The main experiment item","yes","Lexical_Decision_Task.osexp","/Users/annemurray","no","Andale Mono","no","18","no","white","no","yes","576","legacy","34","34","3","/Users/annemurray/subject-5206078.csv","legacy","Lentiform Loewenfeld","3.3.7","yes","yes","600bd7cfb6416f0113b04181","602110864497cf011d9c0822","0","j","NA","space","space","space","NA","j","742","NA","4342","18440","11261","NA","742","2","legacy","1024","2","48000","-16","task","5206078","even","NA","43494","49841","45497","133434","3762","33473","22211","133937","NA","133432","133937","133388","49841","134680","41597","132888","3717","115058","Lexical Decision Task","32","48221","39","yes","1024"
"3.225825991","0","7","talm","non-word","82.5","82.5","1234.175","1234.175","black","no","legacy","legacy","legacy","0","uniform","1","undefined","undefined","undefined","1","f","0","0","0","0","39","0","0","0","39","NA","35","39","35","0","35","3","39","0","39","Fri Feb 19 14:00:53 2021","The main experiment item","yes","Lexical_Decision_Task.osexp","/Users/annemurray","no","Andale Mono","no","18","no","white","no","yes","576","legacy","35","35","3","/Users/annemurray/subject-5206078.csv","legacy","Lentiform Loewenfeld","3.3.7","yes","yes","600bd7cfb6416f0113b04181","602110864497cf011d9c0822","0","f","NA","space","space","space","NA","f","1146","NA","4342","18440","11261","NA","1146","2","legacy","1024","2","48000","-16","task","5206078","even","NA","43494","49841","45497","136232","3762","33473","22211","136735","NA","136230","136735","136183","49841","137883","41597","132888","3717","134683","Lexical Decision Task","33","49367","40","yes","1024"
"2.6599162","0","6","flug","non-word","82.92682926829268","82.92682926829268","1228.0487804878048","1228.0487804878048","black","no","legacy","legacy","legacy","0","uniform","1","undefined","undefined","undefined","1","f","0","0","0","0","40","0","0","0","40","NA","36","40","36","0","36","3","40","0","40","Fri Feb 19 14:00:53 2021","The main experiment item","yes","Lexical_Decision_Task.osexp","/Users/annemurray","no","Andale Mono","no","18","no","white","no","yes","576","legacy","36","36","3","/Users/annemurray/subject-5206078.csv","legacy","Lentiform Loewenfeld","3.3.7","yes","yes","600bd7cfb6416f0113b04181","602110864497cf011d9c0822","0","f","NA","space","space","space","NA","f","983","NA","4342","18440","11261","NA","983","2","legacy","1024","2","48000","-16","task","5206078","even","NA","43494","49841","45497","138431","3762","33473","22211","138934","NA","138429","138934","138385","49841","139918","41597","137885","3717","134683","Lexical Decision Task","34","50350","41","yes","1024"
"3.311895072","0","9","gung","non-word","83.33333333333333","83.33333333333333","1221.1190476190477","1221.1190476190477","black","no","legacy","legacy","legacy","0","uniform","1","undefined","undefined","undefined","1","f","0","0","0","0","41","0","0","0","41","NA","37","41","37","0","37","3","41","0","41","Fri Feb 19 14:00:53 2021","The main experiment item","yes","Lexical_Decision_Task.osexp","/Users/annemurray","no","Andale Mono","no","18","no","white","no","yes","576","legacy","37","37","3","/Users/annemurray/subject-5206078.csv","legacy","Lentiform Loewenfeld","3.3.7","yes","yes","600bd7cfb6416f0113b04181","602110864497cf011d9c0822","0","f","NA","space","space","space","NA","f","937","NA","4342","18440","11261","NA","937","2","legacy","1024","2","48000","-16","task","5206078","even","NA","43494","49841","45497","140468","3762","33473","22211","140971","NA","140466","140971","140421","49841","141909","41597","139921","3717","134683","Lexical Decision Task","35","51287","42","yes","1024"
"3.443783828","7.65","3","verb","word","83.72093023255815","83.72093023255815","1207.6976744186047","1207.6976744186047","black","no","legacy","legacy","legacy","0","uniform","1","undefined","undefined","undefined","1","j","0","0","0","0","42","0","0","0","42","NA","38","42","38","0","38","3","42","0","42","Fri Feb 19 14:00:53 2021","The main experiment item","yes","Lexical_Decision_Task.osexp","/Users/annemurray","no","Andale Mono","no","18","no","white","no","yes","576","legacy","38","38","3","/Users/annemurray/subject-5206078.csv","legacy","Lentiform Loewenfeld","3.3.7","yes","yes","600bd7cfb6416f0113b04181","602110864497cf011d9c0822","0","j","NA","space","space","space","NA","j","644","NA","4342","18440","11261","NA","644","2","legacy","1024","2","48000","-16","task","5206078","even","NA","43494","49841","45497","142458","3762","33473","22211","142961","NA","142456","142961","142412","49841","143606","41597","141912","3717","134683","Lexical Decision Task","36","51931","43","yes","1024"
"3.120135028","0","3","vals","non-word","84.0909090909091","84.0909090909091","1197.590909090909","1197.590909090909","black","no","legacy","legacy","legacy","0","uniform","1","undefined","undefined","undefined","1","f","0","0","0","0","43","0","0","0","43","NA","39","43","39","0","39","3","43","0","43","Fri Feb 19 14:00:53 2021","The main experiment item","yes","Lexical_Decision_Task.osexp","/Users/annemurray","no","Andale Mono","no","18","no","white","no","yes","576","legacy","39","39","3","/Users/annemurray/subject-5206078.csv","legacy","Lentiform Loewenfeld","3.3.7","yes","yes","600bd7cfb6416f0113b04181","602110864497cf011d9c0822","0","f","NA","space","space","space","NA","f","763","NA","4342","18440","11261","NA","763","2","legacy","1024","2","48000","-16","task","5206078","even","NA","43494","49841","45497","144150","3762","33473","22211","144653","NA","144148","144653","144109","49841","145417","41597","143609","3717","134683","Lexical Decision Task","37","52694","44","yes","1024"
"3.299579929","0","2","flis","non-word","84.44444444444444","84.44444444444444","1192.6","1192.6","black","no","legacy","legacy","legacy","0","uniform","1","undefined","undefined","undefined","1","f","0","0","0","0","44","0","0","0","44","NA","40","44","40","0","40","3","44","0","44","Fri Feb 19 14:00:53 2021","The main experiment item","yes","Lexical_Decision_Task.osexp","/Users/annemurray","no","Andale Mono","no","18","no","white","no","yes","576","legacy","40","40","3","/Users/annemurray/subject-5206078.csv","legacy","Lentiform Loewenfeld","3.3.7","yes","yes","600bd7cfb6416f0113b04181","602110864497cf011d9c0822","0","f","NA","space","space","space","NA","f","973","NA","4342","18440","11261","NA","973","2","legacy","1024","2","48000","-16","task","5206078","even","NA","43494","49841","45497","145966","3762","33473","22211","146469","NA","145964","146469","145921","49841","147443","41597","145421","3717","134683","Lexical Decision Task","38","53667","45","yes","1024"
"2.744553742","0","2","nawk","non-word","84.78260869565217","84.78260869565217","1183.3478260869565","1183.3478260869565","black","no","legacy","legacy","legacy","0","uniform","1","undefined","undefined","undefined","1","f","0","0","0","0","45","0","0","0","45","NA","41","45","41","0","41","3","45","0","45","Fri Feb 19 14:00:53 2021","The main experiment item","yes","Lexical_Decision_Task.osexp","/Users/annemurray","no","Andale Mono","no","18","no","white","no","yes","576","legacy","41","41","3","/Users/annemurray/subject-5206078.csv","legacy","Lentiform Loewenfeld","3.3.7","yes","yes","600bd7cfb6416f0113b04181","602110864497cf011d9c0822","0","f","NA","space","space","space","NA","f","767","NA","4342","18440","11261","NA","767","2","legacy","1024","2","48000","-16","task","5206078","even","NA","43494","49841","45497","147993","3762","33473","22211","148496","NA","147991","148496","147947","49841","149264","41597","147447","3717","134683","Lexical Decision Task","39","54434","46","yes","1024"
"2.907588697","8.91","9","mood","word","85.1063829787234","85.1063829787234","1171.1914893617022","1171.1914893617022","black","no","legacy","legacy","legacy","0","uniform","1","undefined","undefined","undefined","1","j","0","0","0","0","46","0","0","0","46","NA","42","46","42","0","42","3","46","0","46","Fri Feb 19 14:00:53 2021","The main experiment item","yes","Lexical_Decision_Task.osexp","/Users/annemurray","no","Andale Mono","no","18","no","white","no","yes","576","legacy","42","42","3","/Users/annemurray/subject-5206078.csv","legacy","Lentiform Loewenfeld","3.3.7","yes","yes","600bd7cfb6416f0113b04181","602110864497cf011d9c0822","0","j","NA","space","space","space","NA","j","612","NA","4342","18440","11261","NA","612","2","legacy","1024","2","48000","-16","task","5206078","even","NA","43494","49841","45497","149813","3762","33473","22211","150316","NA","149811","150316","149767","49841","150930","41597","149267","3717","134683","Lexical Decision Task","40","55046","47","yes","1024"
"3.197740804","6.74","3","ache","word","85.41666666666667","85.41666666666667","1162.9791666666667","1162.9791666666667","black","no","legacy","legacy","legacy","0","uniform","1","undefined","undefined","undefined","1","j","0","0","0","0","47","0","0","0","47","NA","43","47","43","0","43","3","47","0","47","Fri Feb 19 14:00:53 2021","The main experiment item","yes","Lexical_Decision_Task.osexp","/Users/annemurray","no","Andale Mono","no","18","no","white","no","yes","576","legacy","43","43","3","/Users/annemurray/subject-5206078.csv","legacy","Lentiform Loewenfeld","3.3.7","yes","yes","600bd7cfb6416f0113b04181","602110864497cf011d9c0822","0","j","NA","space","space","space","NA","j","777","NA","4342","18440","11261","NA","777","2","legacy","1024","2","48000","-16","task","5206078","even","NA","43494","49841","45497","151479","3762","33473","22211","151982","NA","151477","151982","151433","49841","152760","41597","150933","3717","134683","Lexical Decision Task","41","55823","48","yes","1024"
"3.100255637","0","6","brax","non-word","85.71428571428571","85.71428571428571","1160.1020408163265","1160.1020408163265","black","no","legacy","legacy","legacy","0","uniform","1","undefined","undefined","undefined","1","f","0","0","0","0","48","0","0","0","48","NA","44","48","44","0","44","3","48","0","48","Fri Feb 19 14:00:53 2021","The main experiment item","yes","Lexical_Decision_Task.osexp","/Users/annemurray","no","Andale Mono","no","18","no","white","no","yes","576","legacy","44","44","3","/Users/annemurray/subject-5206078.csv","legacy","Lentiform Loewenfeld","3.3.7","yes","yes","600bd7cfb6416f0113b04181","602110864497cf011d9c0822","0","f","NA","space","space","space","NA","f","1022","NA","4342","18440","11261","NA","1022","2","legacy","1024","2","48000","-16","task","5206078","even","NA","43494","49841","45497","153309","3762","33473","22211","153812","NA","153307","153812","153263","49841","154836","41597","152763","3717","134683","Lexical Decision Task","42","56845","49","yes","1024"
"3.276537627","9.15","5","trap","word","86","86","1151.4","1151.4","black","no","legacy","legacy","legacy","0","uniform","1","undefined","undefined","undefined","1","j","0","0","0","0","49","0","0","0","49","NA","45","49","45","0","45","3","49","0","49","Fri Feb 19 14:00:53 2021","The main experiment item","yes","Lexical_Decision_Task.osexp","/Users/annemurray","no","Andale Mono","no","18","no","white","no","yes","576","legacy","45","45","3","/Users/annemurray/subject-5206078.csv","legacy","Lentiform Loewenfeld","3.3.7","yes","yes","600bd7cfb6416f0113b04181","602110864497cf011d9c0822","0","j","NA","space","space","space","NA","j","725","NA","4342","18440","11261","NA","725","2","legacy","1024","2","48000","-16","task","5206078","even","NA","43494","49841","45497","155385","3762","33473","22211","155888","NA","155383","155888","155339","49841","156614","41597","154839","3717","134683","Lexical Decision Task","43","57570","50","yes","1024"
"3.208172527","10.27","7","deck","word","86.27450980392157","86.27450980392157","1144.3725490196077","1144.3725490196077","black","no","legacy","legacy","legacy","0","uniform","1","undefined","undefined","undefined","1","j","0","0","0","0","50","0","0","0","50","NA","46","50","46","0","46","3","50","0","50","Fri Feb 19 14:00:53 2021","The main experiment item","yes","Lexical_Decision_Task.osexp","/Users/annemurray","no","Andale Mono","no","18","no","white","no","yes","576","legacy","46","46","3","/Users/annemurray/subject-5206078.csv","legacy","Lentiform Loewenfeld","3.3.7","yes","yes","600bd7cfb6416f0113b04181","602110864497cf011d9c0822","0","j","NA","space","space","space","NA","j","793","NA","4342","18440","11261","NA","793","2","legacy","1024","2","48000","-16","task","5206078","even","NA","43494","49841","45497","157163","3762","33473","22211","157666","NA","157161","157666","157117","49841","158460","41597","156617","3717","134683","Lexical Decision Task","44","58363","51","yes","1024"
"2.884795364","0","6","flob","non-word","86.53846153846153","86.53846153846153","1147","1147","black","no","legacy","legacy","legacy","0","uniform","1","undefined","undefined","undefined","1","f","0","0","0","0","51","0","0","0","51","NA","47","51","47","0","47","3","51","0","51","Fri Feb 19 14:00:53 2021","The main experiment item","yes","Lexical_Decision_Task.osexp","/Users/annemurray","no","Andale Mono","no","18","no","white","no","yes","576","legacy","47","47","3","/Users/annemurray/subject-5206078.csv","legacy","Lentiform Loewenfeld","3.3.7","yes","yes","600bd7cfb6416f0113b04181","602110864497cf011d9c0822","0","f","NA","space","space","space","NA","f","1281","NA","4342","18440","11261","NA","1281","2","legacy","1024","2","48000","-16","task","5206078","even","NA","43494","49841","45497","159009","3762","33473","22211","159512","NA","159007","159512","158963","49841","160795","41597","158463","3717","134683","Lexical Decision Task","45","59644","52","yes","1024"
"2.771097306","0","9","jold","non-word","86.79245283018868","86.79245283018868","1146.6792452830189","1146.6792452830189","black","no","legacy","legacy","legacy","0","uniform","1","undefined","undefined","undefined","1","f","0","0","0","0","52","0","0","0","52","NA","48","52","48","0","48","3","52","0","52","Fri Feb 19 14:00:53 2021","The main experiment item","yes","Lexical_Decision_Task.osexp","/Users/annemurray","no","Andale Mono","no","18","no","white","no","yes","576","legacy","48","48","3","/Users/annemurray/subject-5206078.csv","legacy","Lentiform Loewenfeld","3.3.7","yes","yes","600bd7cfb6416f0113b04181","602110864497cf011d9c0822","0","f","NA","space","space","space","NA","f","1130","NA","4342","18440","11261","NA","1130","2","legacy","1024","2","48000","-16","task","5206078","even","NA","43494","49841","45497","161344","3762","33473","22211","161847","NA","161342","161847","161298","49841","162978","41597","160798","3717","134683","Lexical Decision Task","46","60774","53","yes","1024"
"2.8162413","0","5","nusk","non-word","87.03703703703704","87.03703703703704","1139.5185185185185","1139.5185185185185","black","no","legacy","legacy","legacy","0","uniform","1","undefined","undefined","undefined","1","f","0","0","0","0","53","0","0","0","53","NA","49","53","49","0","49","3","53","0","53","Fri Feb 19 14:00:53 2021","The main experiment item","yes","Lexical_Decision_Task.osexp","/Users/annemurray","no","Andale Mono","no","18","no","white","no","yes","576","legacy","49","49","3","/Users/annemurray/subject-5206078.csv","legacy","Lentiform Loewenfeld","3.3.7","yes","yes","600bd7cfb6416f0113b04181","602110864497cf011d9c0822","0","f","NA","space","space","space","NA","f","760","NA","4342","18440","11261","NA","760","2","legacy","1024","2","48000","-16","task","5206078","even","NA","43494","49841","45497","163527","3762","33473","22211","164030","NA","163525","164030","163481","49841","164791","41597","162981","3717","134683","Lexical Decision Task","47","61534","54","yes","1024"
"3.488597715","0","9","nain","non-word","87.27272727272727","87.27272727272727","1138.490909090909","1138.490909090909","black","no","legacy","legacy","legacy","0","uniform","1","undefined","undefined","undefined","1","f","0","0","0","0","54","0","0","0","54","0","50","54","50","0","50","3","54","0","54","Fri Feb 19 14:00:53 2021","The main experiment item","yes","Lexical_Decision_Task.osexp","/Users/annemurray","no","Andale Mono","no","18","no","white","no","yes","576","legacy","50","50","3","/Users/annemurray/subject-5206078.csv","legacy","Lentiform Loewenfeld","3.3.7","yes","yes","600bd7cfb6416f0113b04181","602110864497cf011d9c0822","0","f","NA","space","space","space","space","f","1083","NA","4342","18440","11261","5763","1083","2","legacy","1024","2","48000","-16","task","5206078","even","NA","43494","49841","45497","171124","3762","33473","22211","171627","165321","171123","171627","165294","49841","172711","41597","164794","3717","134683","Lexical Decision Task","48","62617","55","yes","1024"
"3.316948329","0","1","besc","non-word","87.5","87.5","1131.392857142857","1131.392857142857","black","no","legacy","legacy","legacy","0","uniform","1","undefined","undefined","undefined","1","f","0","0","0","0","55","0","0","0","55","0","51","55","51","0","51","3","55","0","55","Fri Feb 19 14:00:53 2021","The main experiment item","yes","Lexical_Decision_Task.osexp","/Users/annemurray","no","Andale Mono","no","18","no","white","no","yes","576","legacy","51","51","3","/Users/annemurray/subject-5206078.csv","legacy","Lentiform Loewenfeld","3.3.7","yes","yes","600bd7cfb6416f0113b04181","602110864497cf011d9c0822","0","f","NA","space","space","space","space","f","741","NA","4342","18440","11261","5763","741","2","legacy","1024","2","48000","-16","task","5206078","even","NA","43494","49841","45497","173260","3762","33473","22211","173761","165321","173258","173761","173215","49841","174503","41597","172715","3717","134683","Lexical Decision Task","49","63358","56","yes","1024"
"2.990042563","6.64","9","plow","word","85.96491228070175","85.96491228070175","1127.561403508772","1127.561403508772","black","no","legacy","legacy","legacy","0","uniform","0","undefined","undefined","undefined","0","j","0","0","0","0","56","0","0","0","56","0","52","56","52","0","52","3","56","0","56","Fri Feb 19 14:00:53 2021","The main experiment item","yes","Lexical_Decision_Task.osexp","/Users/annemurray","no","Andale Mono","no","18","no","white","no","yes","576","legacy","52","52","3","/Users/annemurray/subject-5206078.csv","legacy","Lentiform Loewenfeld","3.3.7","yes","yes","600bd7cfb6416f0113b04181","602110864497cf011d9c0822","0","f","NA","space","space","space","space","f","913","NA","4342","18440","11261","5763","913","2","legacy","1024","2","48000","-16","task","5206078","even","NA","43494","49841","45497","175054","3762","33473","22211","175557","165321","175052","175557","175005","49841","176471","41597","174505","3717","134683","Lexical Decision Task","49","64271","57","yes","1024"
"3.209246849","0","7","slem","non-word","86.20689655172414","86.20689655172414","1126.2931034482758","1126.2931034482758","black","no","legacy","legacy","legacy","0","uniform","1","undefined","undefined","undefined","1","f","0","0","0","0","57","0","0","0","57","0","53","57","53","0","53","3","57","0","57","Fri Feb 19 14:00:53 2021","The main experiment item","yes","Lexical_Decision_Task.osexp","/Users/annemurray","no","Andale Mono","no","18","no","white","no","yes","576","legacy","53","53","3","/Users/annemurray/subject-5206078.csv","legacy","Lentiform Loewenfeld","3.3.7","yes","yes","600bd7cfb6416f0113b04181","602110864497cf011d9c0822","0","f","NA","space","space","space","space","f","1054","NA","4342","18440","11261","5763","1054","2","legacy","1024","2","48000","-16","task","5206078","even","NA","43494","49841","45497","178024","3762","33473","22211","178527","165321","178022","178527","177975","49841","179583","41597","174505","3717","176475","Lexical Decision Task","50","65325","58","yes","1024"
"3.366547468","0","6","plat","non-word","84.7457627118644","84.7457627118644","1120.9661016949153","1120.9661016949153","black","no","legacy","legacy","legacy","0","uniform","0","undefined","undefined","undefined","0","f","0","0","0","0","58","0","0","0","58","0","54","58","54","0","54","3","58","0","58","Fri Feb 19 14:00:53 2021","The main experiment item","yes","Lexical_Decision_Task.osexp","/Users/annemurray","no","Andale Mono","no","18","no","white","no","yes","576","legacy","54","54","3","/Users/annemurray/subject-5206078.csv","legacy","Lentiform Loewenfeld","3.3.7","yes","yes","600bd7cfb6416f0113b04181","602110864497cf011d9c0822","0","j","NA","space","space","space","space","j","812","NA","4342","18440","11261","5763","812","2","legacy","1024","2","48000","-16","task","5206078","even","NA","43494","49841","45497","180132","3762","33473","22211","180635","165321","180130","180635","180086","49841","181449","41597","179586","3717","176475","Lexical Decision Task","50","66137","59","yes","1024"
"3.431095062","5.74","9","perk","word","85","85","1115.3666666666666","1115.3666666666666","black","no","legacy","legacy","legacy","0","uniform","1","undefined","undefined","undefined","1","j","0","0","0","0","59","0","0","0","59","0","55","59","55","0","55","3","59","0","59","Fri Feb 19 14:00:53 2021","The main experiment item","yes","Lexical_Decision_Task.osexp","/Users/annemurray","no","Andale Mono","no","18","no","white","no","yes","576","legacy","55","55","3","/Users/annemurray/subject-5206078.csv","legacy","Lentiform Loewenfeld","3.3.7","yes","yes","600bd7cfb6416f0113b04181","602110864497cf011d9c0822","0","j","NA","space","space","space","space","j","785","NA","4342","18440","11261","5763","785","2","legacy","1024","2","48000","-16","task","5206078","even","NA","43494","49841","45497","183002","3762","33473","22211","183505","165321","183000","183505","182952","49841","184292","41597","179586","3717","181452","Lexical Decision Task","51","66922","60","yes","1024"
"2.897810299","0","5","glur","non-word","85.24590163934427","85.24590163934427","1110.27868852459","1110.27868852459","black","no","legacy","legacy","legacy","0","uniform","1","undefined","undefined","undefined","1","f","0","0","0","0","60","0","0","0","60","0","56","60","56","0","56","3","60","0","60","Fri Feb 19 14:00:53 2021","The main experiment item","yes","Lexical_Decision_Task.osexp","/Users/annemurray","no","Andale Mono","no","18","no","white","no","yes","576","legacy","56","56","3","/Users/annemurray/subject-5206078.csv","legacy","Lentiform Loewenfeld","3.3.7","yes","yes","600bd7cfb6416f0113b04181","602110864497cf011d9c0822","0","f","NA","space","space","space","space","f","805","NA","4342","18440","11261","5763","805","2","legacy","1024","2","48000","-16","task","5206078","even","NA","43494","49841","45497","184842","3762","33473","22211","185344","165321","184840","185344","184796","49841","186150","41597","184296","3717","181452","Lexical Decision Task","52","67727","61","yes","1024"
"2.843025032","0","9","pusk","non-word","85.48387096774194","85.48387096774194","1103.758064516129","1103.758064516129","black","no","legacy","legacy","legacy","0","uniform","1","undefined","undefined","undefined","1","f","0","0","0","0","61","0","0","0","61","0","57","61","57","0","57","3","61","0","61","Fri Feb 19 14:00:53 2021","The main experiment item","yes","Lexical_Decision_Task.osexp","/Users/annemurray","no","Andale Mono","no","18","no","white","no","yes","576","legacy","57","57","3","/Users/annemurray/subject-5206078.csv","legacy","Lentiform Loewenfeld","3.3.7","yes","yes","600bd7cfb6416f0113b04181","602110864497cf011d9c0822","0","f","NA","space","space","space","space","f","706","NA","4342","18440","11261","5763","706","2","legacy","1024","2","48000","-16","task","5206078","even","NA","43494","49841","45497","186700","3762","33473","22211","187203","165321","186698","187203","186653","49841","187910","41597","186153","3717","181452","Lexical Decision Task","53","68433","62","yes","1024"
"2.709837904","6.85","8","skim","word","84.12698412698413","84.12698412698413","1104.5873015873017","1104.5873015873017","black","no","legacy","legacy","legacy","0","uniform","0","undefined","undefined","undefined","0","j","0","0","0","0","62","0","0","0","62","0","58","62","58","0","58","3","62","0","62","Fri Feb 19 14:00:53 2021","The main experiment item","yes","Lexical_Decision_Task.osexp","/Users/annemurray","no","Andale Mono","no","18","no","white","no","yes","576","legacy","58","58","3","/Users/annemurray/subject-5206078.csv","legacy","Lentiform Loewenfeld","3.3.7","yes","yes","600bd7cfb6416f0113b04181","602110864497cf011d9c0822","0","f","NA","space","space","space","space","f","1156","NA","4342","18440","11261","5763","1156","2","legacy","1024","2","48000","-16","task","5206078","even","NA","43494","49841","45497","188461","3762","33473","22211","188964","165321","188459","188964","188415","49841","190122","41597","187915","3717","181452","Lexical Decision Task","53","69589","63","yes","1024"
"2.705007959","6.01","4","wept","word","84.375","84.375","1104.96875","1104.96875","black","no","legacy","legacy","legacy","0","uniform","1","undefined","undefined","undefined","1","j","0","0","0","0","63","0","0","0","63","0","59","63","59","0","59","3","63","0","63","Fri Feb 19 14:00:53 2021","The main experiment item","yes","Lexical_Decision_Task.osexp","/Users/annemurray","no","Andale Mono","no","18","no","white","no","yes","576","legacy","59","59","3","/Users/annemurray/subject-5206078.csv","legacy","Lentiform Loewenfeld","3.3.7","yes","yes","600bd7cfb6416f0113b04181","602110864497cf011d9c0822","0","j","NA","space","space","space","space","j","1129","NA","4342","18440","11261","5763","1129","2","legacy","1024","2","48000","-16","task","5206078","even","NA","43494","49841","45497","191677","3762","33473","22211","192180","165321","191675","192180","191627","49841","193310","41597","187915","3717","190127","Lexical Decision Task","54","70718","64","yes","1024"
"2.821076612","0","4","lult","non-word","84.61538461538461","84.61538461538461","1101.076923076923","1101.076923076923","black","no","legacy","legacy","legacy","0","uniform","1","undefined","undefined","undefined","1","f","0","0","0","0","64","0","0","0","64","0","60","64","60","0","60","3","64","0","64","Fri Feb 19 14:00:53 2021","The main experiment item","yes","Lexical_Decision_Task.osexp","/Users/annemurray","no","Andale Mono","no","18","no","white","no","yes","576","legacy","60","60","3","/Users/annemurray/subject-5206078.csv","legacy","Lentiform Loewenfeld","3.3.7","yes","yes","600bd7cfb6416f0113b04181","602110864497cf011d9c0822","0","f","NA","space","space","space","space","f","852","NA","4342","18440","11261","5763","852","2","legacy","1024","2","48000","-16","task","5206078","even","NA","43494","49841","45497","193860","3762","33473","22211","194363","165321","193858","194363","193813","49841","195217","41597","193313","3717","190127","Lexical Decision Task","55","71570","65","yes","1024"
"3.481012421","8.34","5","teen","word","84.84848484848484","84.84848484848484","1094.8636363636363","1094.8636363636363","black","no","legacy","legacy","legacy","0","uniform","1","undefined","undefined","undefined","1","j","0","0","0","0","65","0","0","0","65","0","61","65","61","0","61","3","65","0","65","Fri Feb 19 14:00:53 2021","The main experiment item","yes","Lexical_Decision_Task.osexp","/Users/annemurray","no","Andale Mono","no","18","no","white","no","yes","576","legacy","61","61","3","/Users/annemurray/subject-5206078.csv","legacy","Lentiform Loewenfeld","3.3.7","yes","yes","600bd7cfb6416f0113b04181","602110864497cf011d9c0822","0","j","NA","space","space","space","space","j","691","NA","4342","18440","11261","5763","691","2","legacy","1024","2","48000","-16","task","5206078","even","NA","43494","49841","45497","195769","3762","33473","22211","196272","165321","195767","196272","195722","49841","196964","41597","195222","3717","190127","Lexical Decision Task","56","72261","66","yes","1024"
"3.094121596","0","8","fode","non-word","85.07462686567165","85.07462686567165","1094.1791044776119","1094.1791044776119","black","no","legacy","legacy","legacy","0","uniform","1","undefined","undefined","undefined","1","f","0","0","0","0","66","0","0","0","66","0","62","66","62","0","62","3","66","0","66","Fri Feb 19 14:00:53 2021","The main experiment item","yes","Lexical_Decision_Task.osexp","/Users/annemurray","no","Andale Mono","no","18","no","white","no","yes","576","legacy","62","62","3","/Users/annemurray/subject-5206078.csv","legacy","Lentiform Loewenfeld","3.3.7","yes","yes","600bd7cfb6416f0113b04181","602110864497cf011d9c0822","0","f","NA","space","space","space","space","f","1049","NA","4342","18440","11261","5763","1049","2","legacy","1024","2","48000","-16","task","5206078","even","NA","43494","49841","45497","197514","3762","33473","22211","198017","165321","197512","198017","197467","49841","199067","41597","196967","3717","190127","Lexical Decision Task","57","73310","67","yes","1024"
"3.066077331","0","7","vorn","non-word","85.29411764705883","85.29411764705883","1089.7205882352941","1089.7205882352941","black","no","legacy","legacy","legacy","0","uniform","1","undefined","undefined","undefined","1","f","0","0","0","0","67","0","0","0","67","0","63","67","63","0","63","3","67","0","67","Fri Feb 19 14:00:53 2021","The main experiment item","yes","Lexical_Decision_Task.osexp","/Users/annemurray","no","Andale Mono","no","18","no","white","no","yes","576","legacy","63","63","3","/Users/annemurray/subject-5206078.csv","legacy","Lentiform Loewenfeld","3.3.7","yes","yes","600bd7cfb6416f0113b04181","602110864497cf011d9c0822","0","f","NA","space","space","space","space","f","791","NA","4342","18440","11261","5763","791","2","legacy","1024","2","48000","-16","task","5206078","even","NA","43494","49841","45497","199617","3762","33473","22211","200120","165321","199615","200120","199570","49841","200913","41597","199070","3717","190127","Lexical Decision Task","58","74101","68","yes","1024"
"2.86332286","6.71","2","feud","word","85.5072463768116","85.5072463768116","1088.768115942029","1088.768115942029","black","no","legacy","legacy","legacy","0","uniform","1","undefined","undefined","undefined","1","j","0","0","0","0","68","0","0","0","68","0","64","68","64","0","64","3","68","0","68","Fri Feb 19 14:00:53 2021","The main experiment item","yes","Lexical_Decision_Task.osexp","/Users/annemurray","no","Andale Mono","no","18","no","white","no","yes","576","legacy","64","64","3","/Users/annemurray/subject-5206078.csv","legacy","Lentiform Loewenfeld","3.3.7","yes","yes","600bd7cfb6416f0113b04181","602110864497cf011d9c0822","0","j","NA","space","space","space","space","j","1024","NA","4342","18440","11261","5763","1024","2","legacy","1024","2","48000","-16","task","5206078","even","NA","43494","49841","45497","201465","3762","33473","22211","201968","165321","201463","201968","201419","49841","202994","41597","200919","3717","190127","Lexical Decision Task","59","75125","69","yes","1024"
"2.668385917","5.48","4","twig","word","85.71428571428571","85.71428571428571","1082.4714285714285","1082.4714285714285","black","no","legacy","legacy","legacy","0","uniform","1","undefined","undefined","undefined","1","j","0","0","0","0","69","0","0","0","69","0","65","69","65","0","65","3","69","0","69","Fri Feb 19 14:00:53 2021","The main experiment item","yes","Lexical_Decision_Task.osexp","/Users/annemurray","no","Andale Mono","no","18","no","white","no","yes","576","legacy","65","65","3","/Users/annemurray/subject-5206078.csv","legacy","Lentiform Loewenfeld","3.3.7","yes","yes","600bd7cfb6416f0113b04181","602110864497cf011d9c0822","0","j","NA","space","space","space","space","j","648","NA","4342","18440","11261","5763","648","2","legacy","1024","2","48000","-16","task","5206078","even","NA","43494","49841","45497","203543","3762","33473","22211","204045","165321","203541","204046","203497","49841","204695","41597","202997","3717","190127","Lexical Decision Task","60","75773","70","yes","1024"
"2.68604012","0","4","pumb","non-word","85.91549295774648","85.91549295774648","1085.3661971830986","1085.3661971830986","black","no","legacy","legacy","legacy","0","uniform","1","undefined","undefined","undefined","1","f","0","0","0","0","70","0","0","0","70","0","66","70","66","0","66","3","70","0","70","Fri Feb 19 14:00:53 2021","The main experiment item","yes","Lexical_Decision_Task.osexp","/Users/annemurray","no","Andale Mono","no","18","no","white","no","yes","576","legacy","66","66","3","/Users/annemurray/subject-5206078.csv","legacy","Lentiform Loewenfeld","3.3.7","yes","yes","600bd7cfb6416f0113b04181","602110864497cf011d9c0822","0","f","NA","space","space","space","space","f","1288","NA","4342","18440","11261","5763","1288","2","legacy","1024","2","48000","-16","task","5206078","even","NA","43494","49841","45497","205245","3762","33473","22211","205748","165321","205243","205748","205198","49841","207038","41597","204698","3717","190127","Lexical Decision Task","61","77061","71","yes","1024"
"2.839268497","0","8","maft","non-word","86.11111111111111","86.11111111111111","1083.9027777777778","1083.9027777777778","black","no","legacy","legacy","legacy","0","uniform","1","undefined","undefined","undefined","1","f","0","0","0","0","71","0","0","0","71","0","67","71","67","0","67","3","71","0","71","Fri Feb 19 14:00:53 2021","The main experiment item","yes","Lexical_Decision_Task.osexp","/Users/annemurray","no","Andale Mono","no","18","no","white","no","yes","576","legacy","67","67","3","/Users/annemurray/subject-5206078.csv","legacy","Lentiform Loewenfeld","3.3.7","yes","yes","600bd7cfb6416f0113b04181","602110864497cf011d9c0822","0","f","NA","space","space","space","space","f","980","NA","4342","18440","11261","5763","980","2","legacy","1024","2","48000","-16","task","5206078","even","NA","43494","49841","45497","207587","3762","33473","22211","208090","165321","207585","208090","207541","49841","209072","41597","207041","3717","190127","Lexical Decision Task","62","78041","72","yes","1024"
"3.195807436","0","6","stup","non-word","86.3013698630137","86.3013698630137","1084.0684931506848","1084.0684931506848","black","no","legacy","legacy","legacy","0","uniform","1","undefined","undefined","undefined","1","f","0","0","0","0","72","0","0","0","72","0","68","72","68","0","68","3","72","0","72","Fri Feb 19 14:00:53 2021","The main experiment item","yes","Lexical_Decision_Task.osexp","/Users/annemurray","no","Andale Mono","no","18","no","white","no","yes","576","legacy","68","68","3","/Users/annemurray/subject-5206078.csv","legacy","Lentiform Loewenfeld","3.3.7","yes","yes","600bd7cfb6416f0113b04181","602110864497cf011d9c0822","0","f","NA","space","space","space","space","f","1096","NA","4342","18440","11261","5763","1096","2","legacy","1024","2","48000","-16","task","5206078","even","NA","43494","49841","45497","209621","3762","33473","22211","210124","165321","209619","210124","209575","49841","211222","41597","209075","3717","190127","Lexical Decision Task","63","79137","73","yes","1024"
"3.705778213","0","6","stin","non-word","86.48648648648648","86.48648648648648","1080.1351351351352","1080.1351351351352","black","no","legacy","legacy","legacy","0","uniform","1","undefined","undefined","undefined","1","f","0","0","0","0","73","0","0","0","73","0","69","73","69","0","69","3","73","0","73","Fri Feb 19 14:00:53 2021","The main experiment item","yes","Lexical_Decision_Task.osexp","/Users/annemurray","no","Andale Mono","no","18","no","white","no","yes","576","legacy","69","69","3","/Users/annemurray/subject-5206078.csv","legacy","Lentiform Loewenfeld","3.3.7","yes","yes","600bd7cfb6416f0113b04181","602110864497cf011d9c0822","0","f","NA","space","space","space","space","f","793","NA","4342","18440","11261","5763","793","2","legacy","1024","2","48000","-16","task","5206078","even","NA","43494","49841","45497","211772","3762","33473","22211","212275","165321","211770","212275","211726","49841","213070","41597","211226","3717","190127","Lexical Decision Task","64","79930","74","yes","1024"
"2.814027728","8.2","4","foam","word","86.66666666666667","86.66666666666667","1074.3466666666666","1074.3466666666666","black","no","legacy","legacy","legacy","0","uniform","1","undefined","undefined","undefined","1","j","0","0","0","0","74","0","0","0","74","0","70","74","70","0","70","3","74","0","74","Fri Feb 19 14:00:53 2021","The main experiment item","yes","Lexical_Decision_Task.osexp","/Users/annemurray","no","Andale Mono","no","18","no","white","no","yes","576","legacy","70","70","3","/Users/annemurray/subject-5206078.csv","legacy","Lentiform Loewenfeld","3.3.7","yes","yes","600bd7cfb6416f0113b04181","602110864497cf011d9c0822","0","j","NA","space","space","space","space","j","646","NA","4342","18440","11261","5763","646","2","legacy","1024","2","48000","-16","task","5206078","even","NA","43494","49841","45497","213621","3762","33473","22211","214124","165321","213619","214124","213574","49841","214771","41597","213074","3717","190127","Lexical Decision Task","65","80576","75","yes","1024"
"2.868644438","10.52","4","town","word","86.84210526315789","86.84210526315789","1068.1973684210527","1068.1973684210527","black","no","legacy","legacy","legacy","0","uniform","1","undefined","undefined","undefined","1","j","0","0","0","0","75","0","0","0","75","0","71","75","71","0","71","3","75","0","75","Fri Feb 19 14:00:53 2021","The main experiment item","yes","Lexical_Decision_Task.osexp","/Users/annemurray","no","Andale Mono","no","18","no","white","no","yes","576","legacy","71","71","3","/Users/annemurray/subject-5206078.csv","legacy","Lentiform Loewenfeld","3.3.7","yes","yes","600bd7cfb6416f0113b04181","602110864497cf011d9c0822","0","j","NA","space","space","space","space","j","607","NA","4342","18440","11261","5763","607","2","legacy","1024","2","48000","-16","task","5206078","even","NA","43494","49841","45497","215321","3762","33473","22211","215824","165321","215319","215824","215275","49841","216432","41597","214774","3717","190127","Lexical Decision Task","66","81183","76","yes","1024"
"3.492014979","0","9","yine","non-word","87.01298701298701","87.01298701298701","1064.1818181818182","1064.1818181818182","black","no","legacy","legacy","legacy","0","uniform","1","undefined","undefined","undefined","1","f","0","0","0","0","76","0","0","0","76","0","72","76","72","0","72","3","76","0","76","Fri Feb 19 14:00:53 2021","The main experiment item","yes","Lexical_Decision_Task.osexp","/Users/annemurray","no","Andale Mono","no","18","no","white","no","yes","576","legacy","72","72","3","/Users/annemurray/subject-5206078.csv","legacy","Lentiform Loewenfeld","3.3.7","yes","yes","600bd7cfb6416f0113b04181","602110864497cf011d9c0822","0","f","NA","space","space","space","space","f","759","NA","4342","18440","11261","5763","759","2","legacy","1024","2","48000","-16","task","5206078","even","NA","43494","49841","45497","216981","3762","33473","22211","217484","165321","216979","217484","216935","49841","218244","41597","216435","3717","190127","Lexical Decision Task","67","81942","77","yes","1024"
"2.728085817","10.02","9","bike","word","87.17948717948718","87.17948717948718","1057.2948717948718","1057.2948717948718","black","no","legacy","legacy","legacy","0","uniform","1","undefined","undefined","undefined","1","j","0","0","0","0","77","0","0","0","77","0","73","77","73","0","73","3","77","0","77","Fri Feb 19 14:00:53 2021","The main experiment item","yes","Lexical_Decision_Task.osexp","/Users/annemurray","no","Andale Mono","no","18","no","white","no","yes","576","legacy","73","73","3","/Users/annemurray/subject-5206078.csv","legacy","Lentiform Loewenfeld","3.3.7","yes","yes","600bd7cfb6416f0113b04181","602110864497cf011d9c0822","0","j","NA","space","space","space","space","j","527","NA","4342","18440","11261","5763","527","2","legacy","1024","2","48000","-16","task","5206078","even","NA","43494","49841","45497","218793","3762","33473","22211","219296","165321","218791","219296","218746","49841","219824","41597","218246","3717","190127","Lexical Decision Task","68","82469","78","yes","1024"
"2.695770526","7.34","6","pawn","word","87.34177215189874","87.34177215189874","1051.8987341772151","1051.8987341772151","black","no","legacy","legacy","legacy","0","uniform","1","undefined","undefined","undefined","1","j","0","0","0","0","78","0","0","0","78","0","74","78","74","0","74","3","78","0","78","Fri Feb 19 14:00:53 2021","The main experiment item","yes","Lexical_Decision_Task.osexp","/Users/annemurray","no","Andale Mono","no","18","no","white","no","yes","576","legacy","74","74","3","/Users/annemurray/subject-5206078.csv","legacy","Lentiform Loewenfeld","3.3.7","yes","yes","600bd7cfb6416f0113b04181","602110864497cf011d9c0822","0","j","NA","space","space","space","space","j","631","NA","4342","18440","11261","5763","631","2","legacy","1024","2","48000","-16","task","5206078","even","NA","43494","49841","45497","220374","3762","33473","22211","220877","165321","220372","220877","220327","49841","221509","41597","219827","3717","190127","Lexical Decision Task","69","83100","79","yes","1024"
"3.028977705","0","7","frow","non-word","87.5","87.5","1056.525","1056.525","black","no","legacy","legacy","legacy","0","uniform","1","undefined","undefined","undefined","1","f","0","0","0","0","79","0","0","0","79","0","75","79","75","0","75","3","79","0","79","Fri Feb 19 14:00:53 2021","The main experiment item","yes","Lexical_Decision_Task.osexp","/Users/annemurray","no","Andale Mono","no","18","no","white","no","yes","576","legacy","75","75","3","/Users/annemurray/subject-5206078.csv","legacy","Lentiform Loewenfeld","3.3.7","yes","yes","600bd7cfb6416f0113b04181","602110864497cf011d9c0822","0","f","NA","space","space","space","space","f","1422","NA","4342","18440","11261","5763","1422","2","legacy","1024","2","48000","-16","task","5206078","even","NA","43494","49841","45497","222060","3762","33473","22211","222563","165321","222058","222563","222014","49841","223987","41597","221514","3717","190127","Lexical Decision Task","70","84522","80","yes","1024"
"2.713490543","0","3","feps","non-word","87.65432098765432","87.65432098765432","1054.7777777777778","1054.7777777777778","black","no","legacy","legacy","legacy","0","uniform","1","undefined","undefined","undefined","1","f","0","0","0","0","80","0","0","0","80","0","76","80","76","0","76","3","80","0","80","Fri Feb 19 14:00:53 2021","The main experiment item","yes","Lexical_Decision_Task.osexp","/Users/annemurray","no","Andale Mono","no","18","no","white","no","yes","576","legacy","76","76","3","/Users/annemurray/subject-5206078.csv","legacy","Lentiform Loewenfeld","3.3.7","yes","yes","600bd7cfb6416f0113b04181","602110864497cf011d9c0822","0","f","NA","space","space","space","space","f","915","NA","4342","18440","11261","5763","915","2","legacy","1024","2","48000","-16","task","5206078","even","NA","43494","49841","45497","224537","3762","33473","22211","225040","165321","224535","225040","224490","49841","225957","41597","223990","3717","190127","Lexical Decision Task","71","85437","81","yes","1024"
"3.174641193","0","3","ramb","non-word","86.58536585365853","86.58536585365853","1054.280487804878","1054.280487804878","black","no","legacy","legacy","legacy","0","uniform","0","undefined","undefined","undefined","0","f","0","0","0","0","81","0","0","0","81","0","77","81","77","0","77","3","81","0","81","Fri Feb 19 14:00:53 2021","The main experiment item","yes","Lexical_Decision_Task.osexp","/Users/annemurray","no","Andale Mono","no","18","no","white","no","yes","576","legacy","77","77","3","/Users/annemurray/subject-5206078.csv","legacy","Lentiform Loewenfeld","3.3.7","yes","yes","600bd7cfb6416f0113b04181","602110864497cf011d9c0822","0","j","NA","space","space","space","space","j","1014","NA","4342","18440","11261","5763","1014","2","legacy","1024","2","48000","-16","task","5206078","even","NA","43494","49841","45497","226507","3762","33473","22211","227010","165321","226505","227010","226461","49841","228026","41597","225960","3717","190127","Lexical Decision Task","71","86451","82","yes","1024"
"3.16326079","0","5","parg","non-word","86.74698795180723","86.74698795180723","1053.0481927710844","1053.0481927710844","black","no","legacy","legacy","legacy","0","uniform","1","undefined","undefined","undefined","1","f","0","0","0","0","82","0","0","0","82","0","78","82","78","0","78","3","82","0","82","Fri Feb 19 14:00:53 2021","The main experiment item","yes","Lexical_Decision_Task.osexp","/Users/annemurray","no","Andale Mono","no","18","no","white","no","yes","576","legacy","78","78","3","/Users/annemurray/subject-5206078.csv","legacy","Lentiform Loewenfeld","3.3.7","yes","yes","600bd7cfb6416f0113b04181","602110864497cf011d9c0822","0","f","NA","space","space","space","space","f","952","NA","4342","18440","11261","5763","952","2","legacy","1024","2","48000","-16","task","5206078","even","NA","43494","49841","45497","229578","3762","33473","22211","230081","165321","229576","230081","229529","49841","231036","41597","225960","3717","228029","Lexical Decision Task","72","87403","83","yes","1024"
"3.077974404","10.41","8","tool","word","86.9047619047619","86.9047619047619","1051.3690476190477","1051.3690476190477","black","no","legacy","legacy","legacy","0","uniform","1","undefined","undefined","undefined","1","j","0","0","0","0","83","0","0","0","83","0","79","83","79","0","79","3","83","0","83","Fri Feb 19 14:00:53 2021","The main experiment item","yes","Lexical_Decision_Task.osexp","/Users/annemurray","no","Andale Mono","no","18","no","white","no","yes","576","legacy","79","79","3","/Users/annemurray/subject-5206078.csv","legacy","Lentiform Loewenfeld","3.3.7","yes","yes","600bd7cfb6416f0113b04181","602110864497cf011d9c0822","0","j","NA","space","space","space","space","j","912","NA","4342","18440","11261","5763","912","2","legacy","1024","2","48000","-16","task","5206078","even","NA","43494","49841","45497","231586","3762","33473","22211","232089","165321","231584","232089","231540","49841","233003","41597","231040","3717","228029","Lexical Decision Task","73","88315","84","yes","1024"
"2.6599162","0","2","saff","non-word","87.05882352941177","87.05882352941177","1050.764705882353","1050.764705882353","black","no","legacy","legacy","legacy","0","uniform","1","undefined","undefined","undefined","1","f","0","0","0","0","84","0","0","0","84","0","80","84","80","0","80","3","84","0","84","Fri Feb 19 14:00:53 2021","The main experiment item","yes","Lexical_Decision_Task.osexp","/Users/annemurray","no","Andale Mono","no","18","no","white","no","yes","576","legacy","80","80","3","/Users/annemurray/subject-5206078.csv","legacy","Lentiform Loewenfeld","3.3.7","yes","yes","600bd7cfb6416f0113b04181","602110864497cf011d9c0822","0","f","NA","space","space","space","space","f","1000","NA","4342","18440","11261","5763","1000","2","legacy","1024","2","48000","-16","task","5206078","even","NA","43494","49841","45497","233554","3762","33473","22211","234057","165321","233552","234057","233508","49841","235058","41597","233008","3717","228029","Lexical Decision Task","74","89315","85","yes","1024"
"3.088136089","8.32","9","worm","word","87.20930232558139","87.20930232558139","1046.9767441860465","1046.9767441860465","black","no","legacy","legacy","legacy","0","uniform","1","undefined","undefined","undefined","1","j","0","0","0","0","85","0","0","0","85","0","81","85","81","0","81","3","85","0","85","Fri Feb 19 14:00:53 2021","The main experiment item","yes","Lexical_Decision_Task.osexp","/Users/annemurray","no","Andale Mono","no","18","no","white","no","yes","576","legacy","81","81","3","/Users/annemurray/subject-5206078.csv","legacy","Lentiform Loewenfeld","3.3.7","yes","yes","600bd7cfb6416f0113b04181","602110864497cf011d9c0822","0","j","NA","space","space","space","space","j","725","NA","4342","18440","11261","5763","725","2","legacy","1024","2","48000","-16","task","5206078","even","NA","43494","49841","45497","235609","3762","33473","22211","236112","165321","235607","236112","235562","49841","236839","41597","235062","3717","228029","Lexical Decision Task","75","90040","86","yes","1024"
"2.986323777","10.85","8","ship","word","87.35632183908046","87.35632183908046","1044.2758620689656","1044.2758620689656","black","no","legacy","legacy","legacy","0","uniform","1","undefined","undefined","undefined","1","j","0","0","0","0","86","0","0","0","86","0","82","86","82","0","82","3","86","0","86","Fri Feb 19 14:00:53 2021","The main experiment item","yes","Lexical_Decision_Task.osexp","/Users/annemurray","no","Andale Mono","no","18","no","white","no","yes","576","legacy","82","82","3","/Users/annemurray/subject-5206078.csv","legacy","Lentiform Loewenfeld","3.3.7","yes","yes","600bd7cfb6416f0113b04181","602110864497cf011d9c0822","0","j","NA","space","space","space","space","j","812","NA","4342","18440","11261","5763","812","2","legacy","1024","2","48000","-16","task","5206078","even","NA","43494","49841","45497","237386","3762","33473","22211","237889","165321","237384","237889","237343","49841","238703","41597","236843","3717","228029","Lexical Decision Task","76","90852","87","yes","1024"
"3.363486562","6.93","9","lush","word","87.5","87.5","1043.7386363636363","1043.7386363636363","black","no","legacy","legacy","legacy","0","uniform","1","undefined","undefined","undefined","1","j","0","0","0","0","87","0","0","0","87","0","83","87","83","0","83","3","87","0","87","Fri Feb 19 14:00:53 2021","The main experiment item","yes","Lexical_Decision_Task.osexp","/Users/annemurray","no","Andale Mono","no","18","no","white","no","yes","576","legacy","83","83","3","/Users/annemurray/subject-5206078.csv","legacy","Lentiform Loewenfeld","3.3.7","yes","yes","600bd7cfb6416f0113b04181","602110864497cf011d9c0822","0","j","NA","space","space","space","space","j","997","NA","4342","18440","11261","5763","997","2","legacy","1024","2","48000","-16","task","5206078","even","NA","43494","49841","45497","239253","3762","33473","22211","239756","165321","239251","239756","239207","49841","240754","41597","238707","3717","228029","Lexical Decision Task","77","91849","88","yes","1024"
"2.714888338","0","3","brug","non-word","87.64044943820225","87.64044943820225","1040.9101123595506","1040.9101123595506","black","no","legacy","legacy","legacy","0","uniform","1","undefined","undefined","undefined","1","f","0","0","0","0","88","0","0","0","88","0","84","88","84","0","84","3","88","0","88","Fri Feb 19 14:00:53 2021","The main experiment item","yes","Lexical_Decision_Task.osexp","/Users/annemurray","no","Andale Mono","no","18","no","white","no","yes","576","legacy","84","84","3","/Users/annemurray/subject-5206078.csv","legacy","Lentiform Loewenfeld","3.3.7","yes","yes","600bd7cfb6416f0113b04181","602110864497cf011d9c0822","0","f","NA","space","space","space","space","f","792","NA","4342","18440","11261","5763","792","2","legacy","1024","2","48000","-16","task","5206078","even","NA","43494","49841","45497","241305","3762","33473","22211","241808","165321","241303","241808","241258","49841","242602","41597","240758","3717","228029","Lexical Decision Task","78","92641","89","yes","1024"
"2.64476673","0","5","moft","non-word","87.77777777777777","87.77777777777777","1040.2333333333333","1040.2333333333333","black","no","legacy","legacy","legacy","0","uniform","1","undefined","undefined","undefined","1","f","0","0","0","0","89","0","0","0","89","0","85","89","85","0","85","3","89","0","89","Fri Feb 19 14:00:53 2021","The main experiment item","yes","Lexical_Decision_Task.osexp","/Users/annemurray","no","Andale Mono","no","18","no","white","no","yes","576","legacy","85","85","3","/Users/annemurray/subject-5206078.csv","legacy","Lentiform Loewenfeld","3.3.7","yes","yes","600bd7cfb6416f0113b04181","602110864497cf011d9c0822","0","f","NA","space","space","space","space","f","980","NA","4342","18440","11261","5763","980","2","legacy","1024","2","48000","-16","task","5206078","even","NA","43494","49841","45497","243150","3762","33473","22211","243653","165321","243148","243653","243104","49841","244635","41597","242604","3717","228029","Lexical Decision Task","79","93621","90","yes","1024"
"2.899638141","0","3","hapt","non-word","87.91208791208791","87.91208791208791","1039.021978021978","1039.021978021978","black","no","legacy","legacy","legacy","0","uniform","1","undefined","undefined","undefined","1","f","0","0","0","0","90","0","0","0","90","0","86","90","86","0","86","3","90","0","90","Fri Feb 19 14:00:53 2021","The main experiment item","yes","Lexical_Decision_Task.osexp","/Users/annemurray","no","Andale Mono","no","18","no","white","no","yes","576","legacy","86","86","3","/Users/annemurray/subject-5206078.csv","legacy","Lentiform Loewenfeld","3.3.7","yes","yes","600bd7cfb6416f0113b04181","602110864497cf011d9c0822","0","f","NA","space","space","space","space","f","930","NA","4342","18440","11261","5763","930","2","legacy","1024","2","48000","-16","task","5206078","even","NA","43494","49841","45497","245186","3762","33473","22211","245689","165321","245184","245689","245140","49841","246621","41597","244640","3717","228029","Lexical Decision Task","80","94551","91","yes","1024"
"3.105055783","0","2","norp","non-word","88.04347826086956","88.04347826086956","1036.858695652174","1036.858695652174","black","no","legacy","legacy","legacy","0","uniform","1","undefined","undefined","undefined","1","f","0","0","0","0","91","0","0","0","91","0","87","91","87","0","87","3","91","0","91","Fri Feb 19 14:00:53 2021","The main experiment item","yes","Lexical_Decision_Task.osexp","/Users/annemurray","no","Andale Mono","no","18","no","white","no","yes","576","legacy","87","87","3","/Users/annemurray/subject-5206078.csv","legacy","Lentiform Loewenfeld","3.3.7","yes","yes","600bd7cfb6416f0113b04181","602110864497cf011d9c0822","0","f","NA","space","space","space","space","f","840","NA","4342","18440","11261","5763","840","2","legacy","1024","2","48000","-16","task","5206078","even","NA","43494","49841","45497","247170","3762","33473","22211","247673","165321","247168","247673","247124","49841","248514","41597","246624","3717","228029","Lexical Decision Task","81","95391","92","yes","1024"
"2.675164031","8.57","6","glue","word","88.17204301075269","88.17204301075269","1035.5376344086021","1035.5376344086021","black","no","legacy","legacy","legacy","0","uniform","1","undefined","undefined","undefined","1","j","0","0","0","0","92","0","0","0","92","0","88","92","88","0","88","3","92","0","92","Fri Feb 19 14:00:53 2021","The main experiment item","yes","Lexical_Decision_Task.osexp","/Users/annemurray","no","Andale Mono","no","18","no","white","no","yes","576","legacy","88","88","3","/Users/annemurray/subject-5206078.csv","legacy","Lentiform Loewenfeld","3.3.7","yes","yes","600bd7cfb6416f0113b04181","602110864497cf011d9c0822","0","j","NA","space","space","space","space","j","914","NA","4342","18440","11261","5763","914","2","legacy","1024","2","48000","-16","task","5206078","even","NA","43494","49841","45497","249065","3762","33473","22211","249568","165321","249063","249568","249019","49841","250484","41597","248519","3717","228029","Lexical Decision Task","82","96305","93","yes","1024"
"3.460446784","0","5","dess","non-word","87.23404255319149","87.23404255319149","1037.659574468085","1037.659574468085","black","no","legacy","legacy","legacy","0","uniform","0","undefined","undefined","undefined","0","f","0","0","0","0","93","0","0","0","93","0","89","93","89","0","89","3","93","0","93","Fri Feb 19 14:00:53 2021","The main experiment item","yes","Lexical_Decision_Task.osexp","/Users/annemurray","no","Andale Mono","no","18","no","white","no","yes","576","legacy","89","89","3","/Users/annemurray/subject-5206078.csv","legacy","Lentiform Loewenfeld","3.3.7","yes","yes","600bd7cfb6416f0113b04181","602110864497cf011d9c0822","0","j","NA","space","space","space","space","j","1235","NA","4342","18440","11261","5763","1235","2","legacy","1024","2","48000","-16","task","5206078","even","NA","43494","49841","45497","251033","3762","33473","22211","251536","165321","251031","251536","250987","49841","252773","41597","250487","3717","228029","Lexical Decision Task","82","97540","94","yes","1024"
"3.131833513","7.66","4","limb","word","87.36842105263158","87.36842105263158","1034.5578947368422","1034.5578947368422","black","no","legacy","legacy","legacy","0","uniform","1","undefined","undefined","undefined","1","j","0","0","0","0","94","0","0","0","94","0","90","94","90","0","90","3","94","0","94","Fri Feb 19 14:00:53 2021","The main experiment item","yes","Lexical_Decision_Task.osexp","/Users/annemurray","no","Andale Mono","no","18","no","white","no","yes","576","legacy","90","90","3","/Users/annemurray/subject-5206078.csv","legacy","Lentiform Loewenfeld","3.3.7","yes","yes","600bd7cfb6416f0113b04181","602110864497cf011d9c0822","0","j","NA","space","space","space","space","j","743","NA","4342","18440","11261","5763","743","2","legacy","1024","2","48000","-16","task","5206078","even","NA","43494","49841","45497","254329","3762","33473","22211","254832","165321","254327","254832","254277","49841","255577","41597","250487","3717","252777","Lexical Decision Task","83","98283","95","yes","1024"
"2.875447132","0","9","jelt","non-word","87.5","87.5","1033.96875","1033.96875","black","no","legacy","legacy","legacy","0","uniform","1","undefined","undefined","undefined","1","f","0","0","0","0","95","0","0","0","95","0","91","95","91","0","91","3","95","0","95","Fri Feb 19 14:00:53 2021","The main experiment item","yes","Lexical_Decision_Task.osexp","/Users/annemurray","no","Andale Mono","no","18","no","white","no","yes","576","legacy","91","91","3","/Users/annemurray/subject-5206078.csv","legacy","Lentiform Loewenfeld","3.3.7","yes","yes","600bd7cfb6416f0113b04181","602110864497cf011d9c0822","0","f","NA","space","space","space","space","f","978","NA","4342","18440","11261","5763","978","2","legacy","1024","2","48000","-16","task","5206078","even","NA","43494","49841","45497","256129","3762","33473","22211","256633","165321","256127","256633","256083","49841","257612","41597","255583","3717","252777","Lexical Decision Task","84","99261","96","yes","1024"
"2.695481676","0","7","goke","non-word","87.62886597938144","87.62886597938144","1032.0515463917525","1032.0515463917525","black","no","legacy","legacy","legacy","0","uniform","1","undefined","undefined","undefined","1","f","0","0","0","0","96","0","0","0","96","0","92","96","92","0","92","3","96","0","96","Fri Feb 19 14:00:53 2021","The main experiment item","yes","Lexical_Decision_Task.osexp","/Users/annemurray","no","Andale Mono","no","18","no","white","no","yes","576","legacy","92","92","3","/Users/annemurray/subject-5206078.csv","legacy","Lentiform Loewenfeld","3.3.7","yes","yes","600bd7cfb6416f0113b04181","602110864497cf011d9c0822","0","f","NA","space","space","space","space","f","848","NA","4342","18440","11261","5763","848","2","legacy","1024","2","48000","-16","task","5206078","even","NA","43494","49841","45497","258163","3762","33473","22211","258666","165321","258161","258666","258117","49841","259516","41597","257617","3717","252777","Lexical Decision Task","85","100109","97","yes","1024"
"2.793790385","5.67","9","swab","word","86.73469387755102","86.73469387755102","1030.3163265306123","1030.3163265306123","black","no","legacy","legacy","legacy","0","uniform","0","undefined","undefined","undefined","0","j","0","0","0","0","97","0","0","0","97","0","93","97","93","0","93","3","97","0","97","Fri Feb 19 14:00:53 2021","The main experiment item","yes","Lexical_Decision_Task.osexp","/Users/annemurray","no","Andale Mono","no","18","no","white","no","yes","576","legacy","93","93","3","/Users/annemurray/subject-5206078.csv","legacy","Lentiform Loewenfeld","3.3.7","yes","yes","600bd7cfb6416f0113b04181","602110864497cf011d9c0822","0","f","NA","space","space","space","space","f","862","NA","4342","18440","11261","5763","862","2","legacy","1024","2","48000","-16","task","5206078","even","NA","43494","49841","45497","260065","3762","33473","22211","260569","165321","260063","260569","260019","49841","261432","41597","259519","3717","252777","Lexical Decision Task","85","100971","98","yes","1024"
"2.594027722","9.08","8","skip","word","86.86868686868686","86.86868686868686","1027.8989898989898","1027.8989898989898","black","no","legacy","legacy","legacy","0","uniform","1","undefined","undefined","undefined","1","j","0","0","0","0","98","0","0","0","98","0","94","98","94","0","94","3","98","0","98","Fri Feb 19 14:00:53 2021","The main experiment item","yes","Lexical_Decision_Task.osexp","/Users/annemurray","no","Andale Mono","no","18","no","white","no","yes","576","legacy","94","94","3","/Users/annemurray/subject-5206078.csv","legacy","Lentiform Loewenfeld","3.3.7","yes","yes","600bd7cfb6416f0113b04181","602110864497cf011d9c0822","0","j","NA","space","space","space","space","j","791","NA","4342","18440","11261","5763","791","2","legacy","1024","2","48000","-16","task","5206078","even","NA","43494","49841","45497","262987","3762","33473","22211","263490","165321","262985","263490","262937","49841","264282","41597","259519","3717","261437","Lexical Decision Task","86","101762","99","yes","1024"
"3.039414119","0","9","meep","non-word","87","87","1025.76","1025.76","black","no","legacy","legacy","legacy","0","uniform","1","undefined","undefined","undefined","1","f","0","0","0","0","99","0","0","0","99","0","95","99","95","0","95","3","99","0","99","Fri Feb 19 14:00:53 2021","The main experiment item","yes","Lexical_Decision_Task.osexp","/Users/annemurray","no","Andale Mono","no","18","no","white","no","yes","576","legacy","95","95","3","/Users/annemurray/subject-5206078.csv","legacy","Lentiform Loewenfeld","3.3.7","yes","yes","600bd7cfb6416f0113b04181","602110864497cf011d9c0822","0","f","NA","space","space","space","space","f","814","NA","4342","18440","11261","5763","814","2","legacy","1024","2","48000","-16","task","5206078","even","NA","43494","49841","45497","264832","3762","33473","22211","265335","165321","264830","265335","264785","49841","266150","41597","264285","3717","261437","Lexical Decision Task","87","102576","100","yes","1024"
"3.037294994","8.64","7","roof","word","87.12871287128714","87.12871287128714","1024.8217821782177","1024.8217821782177","black","no","legacy","legacy","legacy","0","uniform","1","undefined","undefined","undefined","1","j","0","0","0","0","100","0","0","0","100","0","96","100","96","0","96","3","100","0","100","Fri Feb 19 14:00:53 2021","The main experiment item","yes","Lexical_Decision_Task.osexp","/Users/annemurray","no","Andale Mono","no","18","no","white","no","yes","576","legacy","96","96","3","/Users/annemurray/subject-5206078.csv","legacy","Lentiform Loewenfeld","3.3.7","yes","yes","600bd7cfb6416f0113b04181","602110864497cf011d9c0822","0","j","NA","space","space","space","space","j","931","NA","4342","18440","11261","5763","931","2","legacy","1024","2","48000","-16","task","5206078","even","NA","43494","49841","45497","266700","3762","33473","22211","267203","165321","266698","267203","266654","49841","268136","41597","266154","3717","261437","Lexical Decision Task","88","103507","101","yes","1024"
