"Log_BG","Log_Freq_HAL","Ortho_N","Stimulus","Type","acc","accuracy","average_response_time","avg_rt","background","bidi","canvas_backend","clock_backend","color_backend","compensation","coordinates","correct","correct_Experimental_intro","correct_Introduction","correct_Practice_intro","correct_experimenter_kb","correct_response","count_End_Of_Experiment","count_End_Of_Practice","count_Experimental_Loop","count_Experimental_intro","count_Fixation","count_Introduction","count_Practice_Loop","count_Practice_intro","count_Stimulus","count_block_break_feedback","count_experimental_sequence","count_experimenter_kb","count_increment_trial_count","count_init_trial_count","count_logger","count_practice_sequence","count_right","count_task","count_wrong","datetime","description","disable_garbage_collection","experiment_file","experiment_path","font_bold","font_family","font_italic","font_size","font_underline","foreground","form_clicks","fullscreen","height","keyboard_backend","live_row","live_row_Experimental_Loop","live_row_Practice_Loop","logfile","mouse_backend","opensesame_codename","opensesame_version","osf_always_upload_data","osf_always_upload_experiment","osf_datanode_id","osf_id","repeat_cycle","response","response_End_Of_Experiment","response_Experimental_intro","response_Introduction","response_Practice_intro","response_block_break_feedback","response_experimenter_kb","response_time","response_time_End_Of_Experiment","response_time_Experimental_intro","response_time_Introduction","response_time_Practice_intro","response_time_block_break_feedback","response_time_experimenter_kb","round_decimals","sampler_backend","sound_buf_size","sound_channels","sound_freq","sound_sample_size","start","subject_nr","subject_parity","time_End_Of_Experiment","time_End_Of_Practice","time_Experimental_Loop","time_Experimental_intro","time_Fixation","time_Introduction","time_Practice_Loop","time_Practice_intro","time_Stimulus","time_block_break_feedback","time_experimental_sequence","time_experimenter_kb","time_increment_trial_count","time_init_trial_count","time_logger","time_practice_sequence","time_right","time_task","time_wrong","title","total_correct","total_response_time","total_responses","uniform_coordinates","width"
"2.986323777","10.85","8","ship","word","80","80","1695.2","1695.2","black","no","legacy","legacy","legacy","0","uniform","1","undefined","undefined","undefined","1","j","0","0","0","0","4","0","0","0","4","NA","0","4","0","0","0","3","4","0","4","Wed Feb 17 11:19:16 2021","The main experiment item","yes","Lexical_Decision_Task.osexp","C:/Users/sophh/Documents/Uni/Second Year/CaL/Assignment","no","Andale Mono","no","18","no","white","no","yes","576","legacy","0","0","3","C:/Users/sophh/Documents/Uni/Second Year/CaL/Assignment/subject-5200505.csv","legacy","Lentiform Loewenfeld","3.3.7","yes","yes","600bd7cfb6416f0113b04181","602110864497cf011d9c0822","0","j","NA","j","c","c","NA","j","687","NA","4183","39068","282","NA","687","2","legacy","1024","2","48000","-16","task","5200505","odd","NA","58802","64988","60804","65069","5954","45312","45028","65573","NA","65067","65573","NA","64988","66263","56690","58247","5930","48993","Lexical Decision Task","4","8476","5","yes","1024"
"2.809559715","8.44","4","volt","word","83.33333333333333","83.33333333333333","1607.5","1607.5","black","no","legacy","legacy","legacy","0","uniform","1","undefined","undefined","undefined","1","j","0","0","0","0","5","0","0","0","5","NA","1","5","1","0","1","3","5","0","5","Wed Feb 17 11:19:16 2021","The main experiment item","yes","Lexical_Decision_Task.osexp","C:/Users/sophh/Documents/Uni/Second Year/CaL/Assignment","no","Andale Mono","no","18","no","white","no","yes","576","legacy","1","1","3","C:/Users/sophh/Documents/Uni/Second Year/CaL/Assignment/subject-5200505.csv","legacy","Lentiform Loewenfeld","3.3.7","yes","yes","600bd7cfb6416f0113b04181","602110864497cf011d9c0822","0","j","NA","j","c","c","NA","j","1169","NA","4183","39068","282","NA","1169","2","legacy","1024","2","48000","-16","task","5200505","odd","NA","58802","64988","60804","66934","5954","45312","45028","67436","NA","66932","67437","66782","64988","68607","56690","66282","5930","48993","Lexical Decision Task","5","9645","6","yes","1024"
"2.814027728","8.2","4","foam","word","85.71428571428571","85.71428571428571","1483.142857142857","1483.142857142857","black","no","legacy","legacy","legacy","0","uniform","1","undefined","undefined","undefined","1","j","0","0","0","0","6","0","0","0","6","NA","2","6","2","0","2","3","6","0","6","Wed Feb 17 11:19:16 2021","The main experiment item","yes","Lexical_Decision_Task.osexp","C:/Users/sophh/Documents/Uni/Second Year/CaL/Assignment","no","Andale Mono","no","18","no","white","no","yes","576","legacy","2","2","3","C:/Users/sophh/Documents/Uni/Second Year/CaL/Assignment/subject-5200505.csv","legacy","Lentiform Loewenfeld","3.3.7","yes","yes","600bd7cfb6416f0113b04181","602110864497cf011d9c0822","0","j","NA","j","c","c","NA","j","737","NA","4183","39068","282","NA","737","2","legacy","1024","2","48000","-16","task","5200505","odd","NA","58802","64988","60804","69252","5954","45312","45028","69754","NA","69249","69754","69116","64988","70493","56690","68616","5930","48993","Lexical Decision Task","6","10382","7","yes","1024"
"3.003891166","8.05","2","frog","word","87.5","87.5","1383.75","1383.75","black","no","legacy","legacy","legacy","0","uniform","1","undefined","undefined","undefined","1","j","0","0","0","0","7","0","0","0","7","NA","3","7","3","0","3","3","7","0","7","Wed Feb 17 11:19:16 2021","The main experiment item","yes","Lexical_Decision_Task.osexp","C:/Users/sophh/Documents/Uni/Second Year/CaL/Assignment","no","Andale Mono","no","18","no","white","no","yes","576","legacy","3","3","3","C:/Users/sophh/Documents/Uni/Second Year/CaL/Assignment/subject-5200505.csv","legacy","Lentiform Loewenfeld","3.3.7","yes","yes","600bd7cfb6416f0113b04181","602110864497cf011d9c0822","0","j","NA","j","c","c","NA","j","688","NA","4183","39068","282","NA","688","2","legacy","1024","2","48000","-16","task","5200505","odd","NA","58802","64988","60804","71145","5954","45312","45028","71648","NA","71143","71648","71001","64988","72338","56690","70501","5930","48993","Lexical Decision Task","7","11070","8","yes","1024"
"3.303771854","0","9","dath","non-word","88.88888888888889","88.88888888888889","1362.888888888889","1362.888888888889","black","no","legacy","legacy","legacy","0","uniform","1","undefined","undefined","undefined","1","f","0","0","0","0","8","0","0","0","8","NA","4","8","4","0","4","3","8","0","8","Wed Feb 17 11:19:16 2021","The main experiment item","yes","Lexical_Decision_Task.osexp","C:/Users/sophh/Documents/Uni/Second Year/CaL/Assignment","no","Andale Mono","no","18","no","white","no","yes","576","legacy","4","4","3","C:/Users/sophh/Documents/Uni/Second Year/CaL/Assignment/subject-5200505.csv","legacy","Lentiform Loewenfeld","3.3.7","yes","yes","600bd7cfb6416f0113b04181","602110864497cf011d9c0822","0","f","NA","j","c","c","NA","f","1196","NA","4183","39068","282","NA","1196","2","legacy","1024","2","48000","-16","task","5200505","odd","NA","58802","64988","60804","72989","5954","45312","45028","73490","NA","72987","73490","72848","64988","74687","56690","72348","5930","48993","Lexical Decision Task","8","12266","9","yes","1024"
"3.307211407","6.07","7","honk","word","90","90","1327.5","1327.5","black","no","legacy","legacy","legacy","0","uniform","1","undefined","undefined","undefined","1","j","0","0","0","0","9","0","0","0","9","NA","5","9","5","0","5","3","9","0","9","Wed Feb 17 11:19:16 2021","The main experiment item","yes","Lexical_Decision_Task.osexp","C:/Users/sophh/Documents/Uni/Second Year/CaL/Assignment","no","Andale Mono","no","18","no","white","no","yes","576","legacy","5","5","3","C:/Users/sophh/Documents/Uni/Second Year/CaL/Assignment/subject-5200505.csv","legacy","Lentiform Loewenfeld","3.3.7","yes","yes","600bd7cfb6416f0113b04181","602110864497cf011d9c0822","0","j","NA","j","c","c","NA","j","1009","NA","4183","39068","282","NA","1009","2","legacy","1024","2","48000","-16","task","5200505","odd","NA","58802","64988","60804","75324","5954","45312","45028","75826","NA","75322","75827","75195","64988","76837","56690","74695","5930","48993","Lexical Decision Task","9","13275","10","yes","1024"
"3.076883066","0","8","mout","non-word","90.9090909090909","90.9090909090909","1278.6363636363637","1278.6363636363637","black","no","legacy","legacy","legacy","0","uniform","1","undefined","undefined","undefined","1","f","0","0","0","0","10","0","0","0","10","NA","6","10","6","0","6","3","10","0","10","Wed Feb 17 11:19:16 2021","The main experiment item","yes","Lexical_Decision_Task.osexp","C:/Users/sophh/Documents/Uni/Second Year/CaL/Assignment","no","Andale Mono","no","18","no","white","no","yes","576","legacy","6","6","3","C:/Users/sophh/Documents/Uni/Second Year/CaL/Assignment/subject-5200505.csv","legacy","Lentiform Loewenfeld","3.3.7","yes","yes","600bd7cfb6416f0113b04181","602110864497cf011d9c0822","0","f","NA","j","c","c","NA","f","790","NA","4183","39068","282","NA","790","2","legacy","1024","2","48000","-16","task","5200505","odd","NA","58802","64988","60804","77494","5954","45312","45028","77996","NA","77492","77996","77347","64988","78787","56690","76847","5930","48993","Lexical Decision Task","10","14065","11","yes","1024"
"3.374137706","10.21","4","tree","word","91.66666666666667","91.66666666666667","1219.8333333333333","1219.8333333333333","black","no","legacy","legacy","legacy","0","uniform","1","undefined","undefined","undefined","1","j","0","0","0","0","11","0","0","0","11","NA","7","11","7","0","7","3","11","0","11","Wed Feb 17 11:19:16 2021","The main experiment item","yes","Lexical_Decision_Task.osexp","C:/Users/sophh/Documents/Uni/Second Year/CaL/Assignment","no","Andale Mono","no","18","no","white","no","yes","576","legacy","7","7","3","C:/Users/sophh/Documents/Uni/Second Year/CaL/Assignment/subject-5200505.csv","legacy","Lentiform Loewenfeld","3.3.7","yes","yes","600bd7cfb6416f0113b04181","602110864497cf011d9c0822","0","j","NA","j","c","c","NA","j","573","NA","4183","39068","282","NA","573","2","legacy","1024","2","48000","-16","task","5200505","odd","NA","58802","64988","60804","79447","5954","45312","45028","79950","NA","79445","79951","79294","64988","80525","56690","78794","5930","48993","Lexical Decision Task","11","14638","12","yes","1024"
"3.248054965","7.86","5","glow","word","92.3076923076923","92.3076923076923","1172.6923076923076","1172.6923076923076","black","no","legacy","legacy","legacy","0","uniform","1","undefined","undefined","undefined","1","j","0","0","0","0","12","0","0","0","12","NA","8","12","8","0","8","3","12","0","12","Wed Feb 17 11:19:16 2021","The main experiment item","yes","Lexical_Decision_Task.osexp","C:/Users/sophh/Documents/Uni/Second Year/CaL/Assignment","no","Andale Mono","no","18","no","white","no","yes","576","legacy","8","8","3","C:/Users/sophh/Documents/Uni/Second Year/CaL/Assignment/subject-5200505.csv","legacy","Lentiform Loewenfeld","3.3.7","yes","yes","600bd7cfb6416f0113b04181","602110864497cf011d9c0822","0","j","NA","j","c","c","NA","j","607","NA","4183","39068","282","NA","607","2","legacy","1024","2","48000","-16","task","5200505","odd","NA","58802","64988","60804","81170","5954","45312","45028","81672","NA","81167","81672","81033","64988","82280","56690","80533","5930","48993","Lexical Decision Task","12","15245","13","yes","1024"
"3.261341392","5.08","8","reek","word","92.85714285714286","92.85714285714286","1136.9285714285713","1136.9285714285713","black","no","legacy","legacy","legacy","0","uniform","1","undefined","undefined","undefined","1","j","0","0","0","0","13","0","0","0","13","NA","9","13","9","0","9","3","13","0","13","Wed Feb 17 11:19:16 2021","The main experiment item","yes","Lexical_Decision_Task.osexp","C:/Users/sophh/Documents/Uni/Second Year/CaL/Assignment","no","Andale Mono","no","18","no","white","no","yes","576","legacy","9","9","3","C:/Users/sophh/Documents/Uni/Second Year/CaL/Assignment/subject-5200505.csv","legacy","Lentiform Loewenfeld","3.3.7","yes","yes","600bd7cfb6416f0113b04181","602110864497cf011d9c0822","0","j","NA","j","c","c","NA","j","672","NA","4183","39068","282","NA","672","2","legacy","1024","2","48000","-16","task","5200505","odd","NA","58802","64988","60804","82921","5954","45312","45028","83423","NA","82918","83423","82789","64988","84097","56690","82289","5930","48993","Lexical Decision Task","13","15917","14","yes","1024"
"2.708989954","9.28","9","bowl","word","93.33333333333333","93.33333333333333","1094.9333333333334","1094.9333333333334","black","no","legacy","legacy","legacy","0","uniform","1","undefined","undefined","undefined","1","j","0","0","0","0","14","0","0","0","14","NA","10","14","10","0","10","3","14","0","14","Wed Feb 17 11:19:16 2021","The main experiment item","yes","Lexical_Decision_Task.osexp","C:/Users/sophh/Documents/Uni/Second Year/CaL/Assignment","no","Andale Mono","no","18","no","white","no","yes","576","legacy","10","10","3","C:/Users/sophh/Documents/Uni/Second Year/CaL/Assignment/subject-5200505.csv","legacy","Lentiform Loewenfeld","3.3.7","yes","yes","600bd7cfb6416f0113b04181","602110864497cf011d9c0822","0","j","NA","j","c","c","NA","j","507","NA","4183","39068","282","NA","507","2","legacy","1024","2","48000","-16","task","5200505","odd","NA","58802","64988","60804","84737","5954","45312","45028","85240","NA","84735","85241","84605","64988","85750","56690","84105","5930","48993","Lexical Decision Task","14","16424","15","yes","1024"
"2.696644658","5.78","2","yolk","word","93.75","93.75","1064.875","1064.875","black","no","legacy","legacy","legacy","0","uniform","1","undefined","undefined","undefined","1","j","0","0","0","0","15","0","0","0","15","NA","11","15","11","0","11","3","15","0","15","Wed Feb 17 11:19:16 2021","The main experiment item","yes","Lexical_Decision_Task.osexp","C:/Users/sophh/Documents/Uni/Second Year/CaL/Assignment","no","Andale Mono","no","18","no","white","no","yes","576","legacy","11","11","3","C:/Users/sophh/Documents/Uni/Second Year/CaL/Assignment/subject-5200505.csv","legacy","Lentiform Loewenfeld","3.3.7","yes","yes","600bd7cfb6416f0113b04181","602110864497cf011d9c0822","0","j","NA","j","c","c","NA","j","614","NA","4183","39068","282","NA","614","2","legacy","1024","2","48000","-16","task","5200505","odd","NA","58802","64988","60804","86400","5954","45312","45028","86902","NA","86397","86902","86260","64988","87517","56690","85760","5930","48993","Lexical Decision Task","15","17038","16","yes","1024"
"2.819763221","0","2","durp","non-word","94.11764705882354","94.11764705882354","1051.4117647058824","1051.4117647058824","black","no","legacy","legacy","legacy","0","uniform","1","undefined","undefined","undefined","1","f","0","0","0","0","16","0","0","0","16","NA","12","16","12","0","12","3","16","0","16","Wed Feb 17 11:19:16 2021","The main experiment item","yes","Lexical_Decision_Task.osexp","C:/Users/sophh/Documents/Uni/Second Year/CaL/Assignment","no","Andale Mono","no","18","no","white","no","yes","576","legacy","12","12","3","C:/Users/sophh/Documents/Uni/Second Year/CaL/Assignment/subject-5200505.csv","legacy","Lentiform Loewenfeld","3.3.7","yes","yes","600bd7cfb6416f0113b04181","602110864497cf011d9c0822","0","f","NA","j","c","c","NA","f","836","NA","4183","39068","282","NA","836","2","legacy","1024","2","48000","-16","task","5200505","odd","NA","58802","64988","60804","88158","5954","45312","45028","88660","NA","88155","88660","88025","64988","89497","56690","87524","5930","48993","Lexical Decision Task","16","17874","17","yes","1024"
"3.091901331","0","9","nipe","non-word","94.44444444444444","94.44444444444444","1039.5","1039.5","black","no","legacy","legacy","legacy","0","uniform","1","undefined","undefined","undefined","1","f","0","0","0","0","17","0","0","0","17","NA","13","17","13","0","13","3","17","0","17","Wed Feb 17 11:19:16 2021","The main experiment item","yes","Lexical_Decision_Task.osexp","C:/Users/sophh/Documents/Uni/Second Year/CaL/Assignment","no","Andale Mono","no","18","no","white","no","yes","576","legacy","13","13","3","C:/Users/sophh/Documents/Uni/Second Year/CaL/Assignment/subject-5200505.csv","legacy","Lentiform Loewenfeld","3.3.7","yes","yes","600bd7cfb6416f0113b04181","602110864497cf011d9c0822","0","f","NA","j","c","c","NA","f","837","NA","4183","39068","282","NA","837","2","legacy","1024","2","48000","-16","task","5200505","odd","NA","58802","64988","60804","90137","5954","45312","45028","90639","NA","90134","90639","90007","64988","91477","56690","89507","5930","48993","Lexical Decision Task","17","18711","18","yes","1024"
"2.839268497","0","8","maft","non-word","94.73684210526316","94.73684210526316","1017.7894736842105","1017.7894736842105","black","no","legacy","legacy","legacy","0","uniform","1","undefined","undefined","undefined","1","f","0","0","0","0","18","0","0","0","18","NA","14","18","14","0","14","3","18","0","18","Wed Feb 17 11:19:16 2021","The main experiment item","yes","Lexical_Decision_Task.osexp","C:/Users/sophh/Documents/Uni/Second Year/CaL/Assignment","no","Andale Mono","no","18","no","white","no","yes","576","legacy","14","14","3","C:/Users/sophh/Documents/Uni/Second Year/CaL/Assignment/subject-5200505.csv","legacy","Lentiform Loewenfeld","3.3.7","yes","yes","600bd7cfb6416f0113b04181","602110864497cf011d9c0822","0","f","NA","j","c","c","NA","f","627","NA","4183","39068","282","NA","627","2","legacy","1024","2","48000","-16","task","5200505","odd","NA","58802","64988","60804","92140","5954","45312","45028","92644","NA","92137","92644","91984","64988","93273","56690","91484","5930","48993","Lexical Decision Task","18","19338","19","yes","1024"
"2.924968096","0","4","phim","non-word","95","95","998.2","998.2","black","no","legacy","legacy","legacy","0","uniform","1","undefined","undefined","undefined","1","f","0","0","0","0","19","0","0","0","19","NA","15","19","15","0","15","3","19","0","19","Wed Feb 17 11:19:16 2021","The main experiment item","yes","Lexical_Decision_Task.osexp","C:/Users/sophh/Documents/Uni/Second Year/CaL/Assignment","no","Andale Mono","no","18","no","white","no","yes","576","legacy","15","15","3","C:/Users/sophh/Documents/Uni/Second Year/CaL/Assignment/subject-5200505.csv","legacy","Lentiform Loewenfeld","3.3.7","yes","yes","600bd7cfb6416f0113b04181","602110864497cf011d9c0822","0","f","NA","j","c","c","NA","f","626","NA","4183","39068","282","NA","626","2","legacy","1024","2","48000","-16","task","5200505","odd","NA","58802","64988","60804","93916","5954","45312","45028","94418","NA","93914","94418","93780","64988","95045","56690","93280","5930","48993","Lexical Decision Task","19","19964","20","yes","1024"
"2.746890964","9.67","3","plug","word","95.23809523809524","95.23809523809524","977.7142857142857","977.7142857142857","black","no","legacy","legacy","legacy","0","uniform","1","undefined","undefined","undefined","1","j","0","0","0","0","20","0","0","0","20","NA","16","20","16","0","16","3","20","0","20","Wed Feb 17 11:19:16 2021","The main experiment item","yes","Lexical_Decision_Task.osexp","C:/Users/sophh/Documents/Uni/Second Year/CaL/Assignment","no","Andale Mono","no","18","no","white","no","yes","576","legacy","16","16","3","C:/Users/sophh/Documents/Uni/Second Year/CaL/Assignment/subject-5200505.csv","legacy","Lentiform Loewenfeld","3.3.7","yes","yes","600bd7cfb6416f0113b04181","602110864497cf011d9c0822","0","j","NA","j","c","c","NA","j","568","NA","4183","39068","282","NA","568","2","legacy","1024","2","48000","-16","task","5200505","odd","NA","58802","64988","60804","95710","5954","45312","45028","96212","NA","95706","96212","95552","64988","96782","56690","95052","5930","48993","Lexical Decision Task","20","20532","21","yes","1024"
"2.668385917","5.48","4","twig","word","95.45454545454545","95.45454545454545","973.8181818181819","973.8181818181819","black","no","legacy","legacy","legacy","0","uniform","1","undefined","undefined","undefined","1","j","0","0","0","0","21","0","0","0","21","NA","17","21","17","0","17","3","21","0","21","Wed Feb 17 11:19:16 2021","The main experiment item","yes","Lexical_Decision_Task.osexp","C:/Users/sophh/Documents/Uni/Second Year/CaL/Assignment","no","Andale Mono","no","18","no","white","no","yes","576","legacy","17","17","3","C:/Users/sophh/Documents/Uni/Second Year/CaL/Assignment/subject-5200505.csv","legacy","Lentiform Loewenfeld","3.3.7","yes","yes","600bd7cfb6416f0113b04181","602110864497cf011d9c0822","0","j","NA","j","c","c","NA","j","892","NA","4183","39068","282","NA","892","2","legacy","1024","2","48000","-16","task","5200505","odd","NA","58802","64988","60804","97432","5954","45312","45028","97934","NA","97430","97934","97291","64988","98827","56690","96791","5930","48993","Lexical Decision Task","21","21424","22","yes","1024"
"3.488597715","0","9","nain","non-word","95.65217391304348","95.65217391304348","967.7391304347826","967.7391304347826","black","no","legacy","legacy","legacy","0","uniform","1","undefined","undefined","undefined","1","f","0","0","0","0","22","0","0","0","22","NA","18","22","18","0","18","3","22","0","22","Wed Feb 17 11:19:16 2021","The main experiment item","yes","Lexical_Decision_Task.osexp","C:/Users/sophh/Documents/Uni/Second Year/CaL/Assignment","no","Andale Mono","no","18","no","white","no","yes","576","legacy","18","18","3","C:/Users/sophh/Documents/Uni/Second Year/CaL/Assignment/subject-5200505.csv","legacy","Lentiform Loewenfeld","3.3.7","yes","yes","600bd7cfb6416f0113b04181","602110864497cf011d9c0822","0","f","NA","j","c","c","NA","f","834","NA","4183","39068","282","NA","834","2","legacy","1024","2","48000","-16","task","5200505","odd","NA","58802","64988","60804","99495","5954","45312","45028","99997","NA","99492","99997","99337","64988","100832","56690","98837","5930","48993","Lexical Decision Task","22","22258","23","yes","1024"
"3.282244367","0","6","fute","non-word","95.83333333333333","95.83333333333333","970.0416666666666","970.0416666666666","black","no","legacy","legacy","legacy","0","uniform","1","undefined","undefined","undefined","1","f","0","0","0","0","23","0","0","0","23","NA","19","23","19","0","19","3","23","0","23","Wed Feb 17 11:19:16 2021","The main experiment item","yes","Lexical_Decision_Task.osexp","C:/Users/sophh/Documents/Uni/Second Year/CaL/Assignment","no","Andale Mono","no","18","no","white","no","yes","576","legacy","19","19","3","C:/Users/sophh/Documents/Uni/Second Year/CaL/Assignment/subject-5200505.csv","legacy","Lentiform Loewenfeld","3.3.7","yes","yes","600bd7cfb6416f0113b04181","602110864497cf011d9c0822","0","f","NA","j","c","c","NA","f","1023","NA","4183","39068","282","NA","1023","2","legacy","1024","2","48000","-16","task","5200505","odd","NA","58802","64988","60804","101488","5954","45312","45028","101991","NA","101486","101992","101339","64988","103016","56690","100839","5930","48993","Lexical Decision Task","23","23281","24","yes","1024"
"2.898725182","0","7","turl","non-word","96","96","956.84","956.84","black","no","legacy","legacy","legacy","0","uniform","1","undefined","undefined","undefined","1","f","0","0","0","0","24","0","0","0","24","NA","20","24","20","0","20","3","24","0","24","Wed Feb 17 11:19:16 2021","The main experiment item","yes","Lexical_Decision_Task.osexp","C:/Users/sophh/Documents/Uni/Second Year/CaL/Assignment","no","Andale Mono","no","18","no","white","no","yes","576","legacy","20","20","3","C:/Users/sophh/Documents/Uni/Second Year/CaL/Assignment/subject-5200505.csv","legacy","Lentiform Loewenfeld","3.3.7","yes","yes","600bd7cfb6416f0113b04181","602110864497cf011d9c0822","0","f","NA","j","c","c","NA","f","640","NA","4183","39068","282","NA","640","2","legacy","1024","2","48000","-16","task","5200505","odd","NA","58802","64988","60804","103694","5954","45312","45028","104196","NA","103691","104196","103524","64988","104838","56690","103023","5930","48993","Lexical Decision Task","24","23921","25","yes","1024"
"3.440331212","7.35","6","stew","word","96.15384615384616","96.15384615384616","956.3846153846154","956.3846153846154","black","no","legacy","legacy","legacy","0","uniform","1","undefined","undefined","undefined","1","j","0","0","0","0","25","0","0","0","25","NA","21","25","21","0","21","3","25","0","25","Wed Feb 17 11:19:16 2021","The main experiment item","yes","Lexical_Decision_Task.osexp","C:/Users/sophh/Documents/Uni/Second Year/CaL/Assignment","no","Andale Mono","no","18","no","white","no","yes","576","legacy","21","21","3","C:/Users/sophh/Documents/Uni/Second Year/CaL/Assignment/subject-5200505.csv","legacy","Lentiform Loewenfeld","3.3.7","yes","yes","600bd7cfb6416f0113b04181","602110864497cf011d9c0822","0","j","NA","j","c","c","NA","j","945","NA","4183","39068","282","NA","945","2","legacy","1024","2","48000","-16","task","5200505","odd","NA","58802","64988","60804","105506","5954","45312","45028","106010","NA","105504","106011","105347","64988","106958","56690","104847","5930","48993","Lexical Decision Task","25","24866","26","yes","1024"
"3.077974404","10.41","8","tool","word","96.29629629629629","96.29629629629629","944.8518518518518","944.8518518518518","black","no","legacy","legacy","legacy","0","uniform","1","undefined","undefined","undefined","1","j","0","0","0","0","26","0","0","0","26","NA","22","26","22","0","22","3","26","0","26","Wed Feb 17 11:19:16 2021","The main experiment item","yes","Lexical_Decision_Task.osexp","C:/Users/sophh/Documents/Uni/Second Year/CaL/Assignment","no","Andale Mono","no","18","no","white","no","yes","576","legacy","22","22","3","C:/Users/sophh/Documents/Uni/Second Year/CaL/Assignment/subject-5200505.csv","legacy","Lentiform Loewenfeld","3.3.7","yes","yes","600bd7cfb6416f0113b04181","602110864497cf011d9c0822","0","j","NA","j","c","c","NA","j","645","NA","4183","39068","282","NA","645","2","legacy","1024","2","48000","-16","task","5200505","odd","NA","58802","64988","60804","107601","5954","45312","45028","108103","NA","107599","108103","107467","64988","108749","56690","106967","5930","48993","Lexical Decision Task","26","25511","27","yes","1024"
"3.311895072","0","9","gung","non-word","96.42857142857143","96.42857142857143","942.8214285714286","942.8214285714286","black","no","legacy","legacy","legacy","0","uniform","1","undefined","undefined","undefined","1","f","0","0","0","0","27","0","0","0","27","NA","23","27","23","0","23","3","27","0","27","Wed Feb 17 11:19:16 2021","The main experiment item","yes","Lexical_Decision_Task.osexp","C:/Users/sophh/Documents/Uni/Second Year/CaL/Assignment","no","Andale Mono","no","18","no","white","no","yes","576","legacy","23","23","3","C:/Users/sophh/Documents/Uni/Second Year/CaL/Assignment/subject-5200505.csv","legacy","Lentiform Loewenfeld","3.3.7","yes","yes","600bd7cfb6416f0113b04181","602110864497cf011d9c0822","0","f","NA","j","c","c","NA","f","888","NA","4183","39068","282","NA","888","2","legacy","1024","2","48000","-16","task","5200505","odd","NA","58802","64988","60804","109388","5954","45312","45028","109890","NA","109386","109890","109257","64988","110780","56690","108757","5930","48993","Lexical Decision Task","27","26399","28","yes","1024"
"3.031408464","0","7","drow","non-word","96.55172413793103","96.55172413793103","943.3103448275862","943.3103448275862","black","no","legacy","legacy","legacy","0","uniform","1","undefined","undefined","undefined","1","f","0","0","0","0","28","0","0","0","28","NA","24","28","24","0","24","3","28","0","28","Wed Feb 17 11:19:16 2021","The main experiment item","yes","Lexical_Decision_Task.osexp","C:/Users/sophh/Documents/Uni/Second Year/CaL/Assignment","no","Andale Mono","no","18","no","white","no","yes","576","legacy","24","24","3","C:/Users/sophh/Documents/Uni/Second Year/CaL/Assignment/subject-5200505.csv","legacy","Lentiform Loewenfeld","3.3.7","yes","yes","600bd7cfb6416f0113b04181","602110864497cf011d9c0822","0","f","NA","j","c","c","NA","f","957","NA","4183","39068","282","NA","957","2","legacy","1024","2","48000","-16","task","5200505","odd","NA","58802","64988","60804","111428","5954","45312","45028","111930","NA","111426","111930","111289","64988","112889","56690","110789","5930","48993","Lexical Decision Task","28","27356","29","yes","1024"
"3.119255889","6.63","2","itch","word","96.66666666666667","96.66666666666667","936.2666666666667","936.2666666666667","black","no","legacy","legacy","legacy","0","uniform","1","undefined","undefined","undefined","1","j","0","0","0","0","29","0","0","0","29","NA","25","29","25","0","25","3","29","0","29","Wed Feb 17 11:19:16 2021","The main experiment item","yes","Lexical_Decision_Task.osexp","C:/Users/sophh/Documents/Uni/Second Year/CaL/Assignment","no","Andale Mono","no","18","no","white","no","yes","576","legacy","25","25","3","C:/Users/sophh/Documents/Uni/Second Year/CaL/Assignment/subject-5200505.csv","legacy","Lentiform Loewenfeld","3.3.7","yes","yes","600bd7cfb6416f0113b04181","602110864497cf011d9c0822","0","j","NA","j","c","c","NA","j","732","NA","4183","39068","282","NA","732","2","legacy","1024","2","48000","-16","task","5200505","odd","NA","58802","64988","60804","113538","5954","45312","45028","114040","NA","113535","114041","113398","64988","114775","56690","112898","5930","48993","Lexical Decision Task","29","28088","30","yes","1024"
"2.86332286","6.71","2","feud","word","96.7741935483871","96.7741935483871","946.3870967741935","946.3870967741935","black","no","legacy","legacy","legacy","0","uniform","1","undefined","undefined","undefined","1","j","0","0","0","0","30","0","0","0","30","NA","26","30","26","0","26","3","30","0","30","Wed Feb 17 11:19:16 2021","The main experiment item","yes","Lexical_Decision_Task.osexp","C:/Users/sophh/Documents/Uni/Second Year/CaL/Assignment","no","Andale Mono","no","18","no","white","no","yes","576","legacy","26","26","3","C:/Users/sophh/Documents/Uni/Second Year/CaL/Assignment/subject-5200505.csv","legacy","Lentiform Loewenfeld","3.3.7","yes","yes","600bd7cfb6416f0113b04181","602110864497cf011d9c0822","0","j","NA","j","c","c","NA","j","1250","NA","4183","39068","282","NA","1250","2","legacy","1024","2","48000","-16","task","5200505","odd","NA","58802","64988","60804","115430","5954","45312","45028","115932","NA","115428","115932","115282","64988","117183","56690","114782","5930","48993","Lexical Decision Task","30","29338","31","yes","1024"
"3.276537627","9.15","5","trap","word","96.875","96.875","939.5625","939.5625","black","no","legacy","legacy","legacy","0","uniform","1","undefined","undefined","undefined","1","j","0","0","0","0","31","0","0","0","31","NA","27","31","27","0","27","3","31","0","31","Wed Feb 17 11:19:16 2021","The main experiment item","yes","Lexical_Decision_Task.osexp","C:/Users/sophh/Documents/Uni/Second Year/CaL/Assignment","no","Andale Mono","no","18","no","white","no","yes","576","legacy","27","27","3","C:/Users/sophh/Documents/Uni/Second Year/CaL/Assignment/subject-5200505.csv","legacy","Lentiform Loewenfeld","3.3.7","yes","yes","600bd7cfb6416f0113b04181","602110864497cf011d9c0822","0","j","NA","j","c","c","NA","j","728","NA","4183","39068","282","NA","728","2","legacy","1024","2","48000","-16","task","5200505","odd","NA","58802","64988","60804","117855","5954","45312","45028","118358","NA","117853","118359","117690","64988","119090","56690","117190","5930","48993","Lexical Decision Task","31","30066","32","yes","1024"
"2.693726949","5.08","3","swig","word","93.93939393939394","93.93939393939394","933.1212121212121","933.1212121212121","black","no","legacy","legacy","legacy","0","uniform","0","undefined","undefined","undefined","0","j","0","0","0","0","32","0","0","0","32","NA","28","32","28","0","28","3","32","0","32","Wed Feb 17 11:19:16 2021","The main experiment item","yes","Lexical_Decision_Task.osexp","C:/Users/sophh/Documents/Uni/Second Year/CaL/Assignment","no","Andale Mono","no","18","no","white","no","yes","576","legacy","28","28","3","C:/Users/sophh/Documents/Uni/Second Year/CaL/Assignment/subject-5200505.csv","legacy","Lentiform Loewenfeld","3.3.7","yes","yes","600bd7cfb6416f0113b04181","602110864497cf011d9c0822","0","f","NA","j","c","c","NA","f","727","NA","4183","39068","282","NA","727","2","legacy","1024","2","48000","-16","task","5200505","odd","NA","58802","64988","60804","119745","5954","45312","45028","120247","NA","119743","120247","119600","64988","120975","56690","119100","5930","48993","Lexical Decision Task","31","30793","33","yes","1024"
"2.696356389","0","1","pizz","non-word","94.11764705882354","94.11764705882354","938.3235294117648","938.3235294117648","black","no","legacy","legacy","legacy","0","uniform","1","undefined","undefined","undefined","1","f","0","0","0","0","33","0","0","0","33","NA","29","33","29","0","29","3","33","0","33","Wed Feb 17 11:19:16 2021","The main experiment item","yes","Lexical_Decision_Task.osexp","C:/Users/sophh/Documents/Uni/Second Year/CaL/Assignment","no","Andale Mono","no","18","no","white","no","yes","576","legacy","29","29","3","C:/Users/sophh/Documents/Uni/Second Year/CaL/Assignment/subject-5200505.csv","legacy","Lentiform Loewenfeld","3.3.7","yes","yes","600bd7cfb6416f0113b04181","602110864497cf011d9c0822","0","f","NA","j","c","c","NA","f","1110","NA","4183","39068","282","NA","1110","2","legacy","1024","2","48000","-16","task","5200505","odd","NA","58802","64988","60804","122640","5954","45312","45028","123142","NA","122637","123142","122483","64988","124255","56690","119100","5930","120983","Lexical Decision Task","32","31903","34","yes","1024"
"3.2757719","0","5","slea","non-word","94.28571428571429","94.28571428571429","936.2285714285714","936.2285714285714","black","no","legacy","legacy","legacy","0","uniform","1","undefined","undefined","undefined","1","f","0","0","0","0","34","0","0","0","34","NA","30","34","30","0","30","3","34","0","34","Wed Feb 17 11:19:16 2021","The main experiment item","yes","Lexical_Decision_Task.osexp","C:/Users/sophh/Documents/Uni/Second Year/CaL/Assignment","no","Andale Mono","no","18","no","white","no","yes","576","legacy","30","30","3","C:/Users/sophh/Documents/Uni/Second Year/CaL/Assignment/subject-5200505.csv","legacy","Lentiform Loewenfeld","3.3.7","yes","yes","600bd7cfb6416f0113b04181","602110864497cf011d9c0822","0","f","NA","j","c","c","NA","f","865","NA","4183","39068","282","NA","865","2","legacy","1024","2","48000","-16","task","5200505","odd","NA","58802","64988","60804","124901","5954","45312","45028","125403","NA","124898","125404","124764","64988","126271","56690","124264","5930","120983","Lexical Decision Task","33","32768","35","yes","1024"
"2.728085817","10.02","9","bike","word","94.44444444444444","94.44444444444444","928","928","black","no","legacy","legacy","legacy","0","uniform","1","undefined","undefined","undefined","1","j","0","0","0","0","35","0","0","0","35","NA","31","35","31","0","31","3","35","0","35","Wed Feb 17 11:19:16 2021","The main experiment item","yes","Lexical_Decision_Task.osexp","C:/Users/sophh/Documents/Uni/Second Year/CaL/Assignment","no","Andale Mono","no","18","no","white","no","yes","576","legacy","31","31","3","C:/Users/sophh/Documents/Uni/Second Year/CaL/Assignment/subject-5200505.csv","legacy","Lentiform Loewenfeld","3.3.7","yes","yes","600bd7cfb6416f0113b04181","602110864497cf011d9c0822","0","j","NA","j","c","c","NA","j","640","NA","4183","39068","282","NA","640","2","legacy","1024","2","48000","-16","task","5200505","odd","NA","58802","64988","60804","126946","5954","45312","45028","127448","NA","126944","127449","126780","64988","128091","56690","126280","5930","120983","Lexical Decision Task","34","33408","36","yes","1024"
"3.374198258","0","8","vist","non-word","91.89189189189189","91.89189189189189","918.4054054054054","918.4054054054054","black","no","legacy","legacy","legacy","0","uniform","0","undefined","undefined","undefined","0","f","0","0","0","0","36","0","0","0","36","NA","32","36","32","0","32","3","36","0","36","Wed Feb 17 11:19:16 2021","The main experiment item","yes","Lexical_Decision_Task.osexp","C:/Users/sophh/Documents/Uni/Second Year/CaL/Assignment","no","Andale Mono","no","18","no","white","no","yes","576","legacy","32","32","3","C:/Users/sophh/Documents/Uni/Second Year/CaL/Assignment/subject-5200505.csv","legacy","Lentiform Loewenfeld","3.3.7","yes","yes","600bd7cfb6416f0113b04181","602110864497cf011d9c0822","0","j","NA","j","c","c","NA","j","573","NA","4183","39068","282","NA","573","2","legacy","1024","2","48000","-16","task","5200505","odd","NA","58802","64988","60804","128734","5954","45312","45028","129238","NA","128730","129238","128599","64988","129813","56690","128099","5930","120983","Lexical Decision Task","34","33981","37","yes","1024"
"2.972357144","0","5","dasp","non-word","92.10526315789474","92.10526315789474","918.1315789473684","918.1315789473684","black","no","legacy","legacy","legacy","0","uniform","1","undefined","undefined","undefined","1","f","0","0","0","0","37","0","0","0","37","NA","33","37","33","0","33","3","37","0","37","Wed Feb 17 11:19:16 2021","The main experiment item","yes","Lexical_Decision_Task.osexp","C:/Users/sophh/Documents/Uni/Second Year/CaL/Assignment","no","Andale Mono","no","18","no","white","no","yes","576","legacy","33","33","3","C:/Users/sophh/Documents/Uni/Second Year/CaL/Assignment/subject-5200505.csv","legacy","Lentiform Loewenfeld","3.3.7","yes","yes","600bd7cfb6416f0113b04181","602110864497cf011d9c0822","0","f","NA","j","c","c","NA","f","908","NA","4183","39068","282","NA","908","2","legacy","1024","2","48000","-16","task","5200505","odd","NA","58802","64988","60804","131460","5954","45312","45028","131963","NA","131457","131963","131325","64988","132873","56690","128099","5930","129824","Lexical Decision Task","35","34889","38","yes","1024"
"2.784379519","0","2","snaf","non-word","92.3076923076923","92.3076923076923","917.4615384615385","917.4615384615385","black","no","legacy","legacy","legacy","0","uniform","1","undefined","undefined","undefined","1","f","0","0","0","0","38","0","0","0","38","NA","34","38","34","0","34","3","38","0","38","Wed Feb 17 11:19:16 2021","The main experiment item","yes","Lexical_Decision_Task.osexp","C:/Users/sophh/Documents/Uni/Second Year/CaL/Assignment","no","Andale Mono","no","18","no","white","no","yes","576","legacy","34","34","3","C:/Users/sophh/Documents/Uni/Second Year/CaL/Assignment/subject-5200505.csv","legacy","Lentiform Loewenfeld","3.3.7","yes","yes","600bd7cfb6416f0113b04181","602110864497cf011d9c0822","0","f","NA","j","c","c","NA","f","892","NA","4183","39068","282","NA","892","2","legacy","1024","2","48000","-16","task","5200505","odd","NA","58802","64988","60804","133512","5954","45312","45028","134014","NA","133510","134014","133379","64988","134907","56690","132879","5930","129824","Lexical Decision Task","36","35781","39","yes","1024"
"2.664011697","8.19","4","hawk","word","92.5","92.5","915","915","black","no","legacy","legacy","legacy","0","uniform","1","undefined","undefined","undefined","1","j","0","0","0","0","39","0","0","0","39","NA","35","39","35","0","35","3","39","0","39","Wed Feb 17 11:19:16 2021","The main experiment item","yes","Lexical_Decision_Task.osexp","C:/Users/sophh/Documents/Uni/Second Year/CaL/Assignment","no","Andale Mono","no","18","no","white","no","yes","576","legacy","35","35","3","C:/Users/sophh/Documents/Uni/Second Year/CaL/Assignment/subject-5200505.csv","legacy","Lentiform Loewenfeld","3.3.7","yes","yes","600bd7cfb6416f0113b04181","602110864497cf011d9c0822","0","j","NA","j","c","c","NA","j","819","NA","4183","39068","282","NA","819","2","legacy","1024","2","48000","-16","task","5200505","odd","NA","58802","64988","60804","135554","5954","45312","45028","136056","NA","135551","136057","135414","64988","136878","56690","134914","5930","129824","Lexical Decision Task","37","36600","40","yes","1024"
"3.1430148","7.92","8","bald","word","92.6829268292683","92.6829268292683","909.829268292683","909.829268292683","black","no","legacy","legacy","legacy","0","uniform","1","undefined","undefined","undefined","1","j","0","0","0","0","40","0","0","0","40","NA","36","40","36","0","36","3","40","0","40","Wed Feb 17 11:19:16 2021","The main experiment item","yes","Lexical_Decision_Task.osexp","C:/Users/sophh/Documents/Uni/Second Year/CaL/Assignment","no","Andale Mono","no","18","no","white","no","yes","576","legacy","36","36","3","C:/Users/sophh/Documents/Uni/Second Year/CaL/Assignment/subject-5200505.csv","legacy","Lentiform Loewenfeld","3.3.7","yes","yes","600bd7cfb6416f0113b04181","602110864497cf011d9c0822","0","j","NA","j","c","c","NA","j","703","NA","4183","39068","282","NA","703","2","legacy","1024","2","48000","-16","task","5200505","odd","NA","58802","64988","60804","137546","5954","45312","45028","138049","NA","137544","138049","137385","64988","138754","56690","136885","5930","129824","Lexical Decision Task","38","37303","41","yes","1024"
"3.068433376","8.09","2","bulb","word","92.85714285714286","92.85714285714286","906.2857142857143","906.2857142857143","black","no","legacy","legacy","legacy","0","uniform","1","undefined","undefined","undefined","1","j","0","0","0","0","41","0","0","0","41","NA","37","41","37","0","37","3","41","0","41","Wed Feb 17 11:19:16 2021","The main experiment item","yes","Lexical_Decision_Task.osexp","C:/Users/sophh/Documents/Uni/Second Year/CaL/Assignment","no","Andale Mono","no","18","no","white","no","yes","576","legacy","37","37","3","C:/Users/sophh/Documents/Uni/Second Year/CaL/Assignment/subject-5200505.csv","legacy","Lentiform Loewenfeld","3.3.7","yes","yes","600bd7cfb6416f0113b04181","602110864497cf011d9c0822","0","j","NA","j","c","c","NA","j","761","NA","4183","39068","282","NA","761","2","legacy","1024","2","48000","-16","task","5200505","odd","NA","58802","64988","60804","139403","5954","45312","45028","139905","NA","139401","139906","139261","64988","140669","56690","138761","5930","129824","Lexical Decision Task","39","38064","42","yes","1024"
"3.705778213","0","6","stin","non-word","93.02325581395348","93.02325581395348","907.4651162790698","907.4651162790698","black","no","legacy","legacy","legacy","0","uniform","1","undefined","undefined","undefined","1","f","0","0","0","0","42","0","0","0","42","NA","38","42","38","0","38","3","42","0","42","Wed Feb 17 11:19:16 2021","The main experiment item","yes","Lexical_Decision_Task.osexp","C:/Users/sophh/Documents/Uni/Second Year/CaL/Assignment","no","Andale Mono","no","18","no","white","no","yes","576","legacy","38","38","3","C:/Users/sophh/Documents/Uni/Second Year/CaL/Assignment/subject-5200505.csv","legacy","Lentiform Loewenfeld","3.3.7","yes","yes","600bd7cfb6416f0113b04181","602110864497cf011d9c0822","0","f","NA","j","c","c","NA","f","957","NA","4183","39068","282","NA","957","2","legacy","1024","2","48000","-16","task","5200505","odd","NA","58802","64988","60804","141322","5954","45312","45028","141824","NA","141318","141825","141176","64988","142784","56690","140676","5930","129824","Lexical Decision Task","40","39021","43","yes","1024"
"2.895974732","6.65","5","sift","word","90.9090909090909","90.9090909090909","907.0454545454545","907.0454545454545","black","no","legacy","legacy","legacy","0","uniform","0","undefined","undefined","undefined","0","j","0","0","0","0","43","0","0","0","43","NA","39","43","39","0","39","3","43","0","43","Wed Feb 17 11:19:16 2021","The main experiment item","yes","Lexical_Decision_Task.osexp","C:/Users/sophh/Documents/Uni/Second Year/CaL/Assignment","no","Andale Mono","no","18","no","white","no","yes","576","legacy","39","39","3","C:/Users/sophh/Documents/Uni/Second Year/CaL/Assignment/subject-5200505.csv","legacy","Lentiform Loewenfeld","3.3.7","yes","yes","600bd7cfb6416f0113b04181","602110864497cf011d9c0822","0","f","NA","j","c","c","NA","f","889","NA","4183","39068","282","NA","889","2","legacy","1024","2","48000","-16","task","5200505","odd","NA","58802","64988","60804","143430","5954","45312","45028","143933","NA","143428","143933","143291","64988","144824","56690","142791","5930","129824","Lexical Decision Task","40","39910","44","yes","1024"
"3.133964479","0","8","graw","non-word","91.11111111111111","91.11111111111111","921.2444444444444","921.2444444444444","black","no","legacy","legacy","legacy","0","uniform","1","undefined","undefined","undefined","1","f","0","0","0","0","44","0","0","0","44","NA","40","44","40","0","40","3","44","0","44","Wed Feb 17 11:19:16 2021","The main experiment item","yes","Lexical_Decision_Task.osexp","C:/Users/sophh/Documents/Uni/Second Year/CaL/Assignment","no","Andale Mono","no","18","no","white","no","yes","576","legacy","40","40","3","C:/Users/sophh/Documents/Uni/Second Year/CaL/Assignment/subject-5200505.csv","legacy","Lentiform Loewenfeld","3.3.7","yes","yes","600bd7cfb6416f0113b04181","602110864497cf011d9c0822","0","f","NA","j","c","c","NA","f","1546","NA","4183","39068","282","NA","1546","2","legacy","1024","2","48000","-16","task","5200505","odd","NA","58802","64988","60804","146456","5954","45312","45028","146958","NA","146452","146959","146332","64988","148507","56690","142791","5930","144832","Lexical Decision Task","41","41456","45","yes","1024"
"3.131833513","7.66","4","limb","word","91.30434782608695","91.30434782608695","916.304347826087","916.304347826087","black","no","legacy","legacy","legacy","0","uniform","1","undefined","undefined","undefined","1","j","0","0","0","0","45","0","0","0","45","NA","41","45","41","0","41","3","45","0","45","Wed Feb 17 11:19:16 2021","The main experiment item","yes","Lexical_Decision_Task.osexp","C:/Users/sophh/Documents/Uni/Second Year/CaL/Assignment","no","Andale Mono","no","18","no","white","no","yes","576","legacy","41","41","3","C:/Users/sophh/Documents/Uni/Second Year/CaL/Assignment/subject-5200505.csv","legacy","Lentiform Loewenfeld","3.3.7","yes","yes","600bd7cfb6416f0113b04181","602110864497cf011d9c0822","0","j","NA","j","c","c","NA","j","694","NA","4183","39068","282","NA","694","2","legacy","1024","2","48000","-16","task","5200505","odd","NA","58802","64988","60804","149184","5954","45312","45028","149686","NA","149180","149686","149018","64988","150382","56690","148517","5930","144832","Lexical Decision Task","42","42150","46","yes","1024"
"2.884795364","0","6","flob","non-word","91.48936170212765","91.48936170212765","924.1914893617021","924.1914893617021","black","no","legacy","legacy","legacy","0","uniform","1","undefined","undefined","undefined","1","f","0","0","0","0","46","0","0","0","46","NA","42","46","42","0","42","3","46","0","46","Wed Feb 17 11:19:16 2021","The main experiment item","yes","Lexical_Decision_Task.osexp","C:/Users/sophh/Documents/Uni/Second Year/CaL/Assignment","no","Andale Mono","no","18","no","white","no","yes","576","legacy","42","42","3","C:/Users/sophh/Documents/Uni/Second Year/CaL/Assignment/subject-5200505.csv","legacy","Lentiform Loewenfeld","3.3.7","yes","yes","600bd7cfb6416f0113b04181","602110864497cf011d9c0822","0","f","NA","j","c","c","NA","f","1287","NA","4183","39068","282","NA","1287","2","legacy","1024","2","48000","-16","task","5200505","odd","NA","58802","64988","60804","151023","5954","45312","45028","151525","NA","151019","151526","150890","64988","152815","56690","150390","5930","144832","Lexical Decision Task","43","43437","47","yes","1024"
"2.845304797","0","6","buct","non-word","91.66666666666667","91.66666666666667","931.2708333333334","931.2708333333334","black","no","legacy","legacy","legacy","0","uniform","1","undefined","undefined","undefined","1","f","0","0","0","0","47","0","0","0","47","NA","43","47","43","0","43","3","47","0","47","Wed Feb 17 11:19:16 2021","The main experiment item","yes","Lexical_Decision_Task.osexp","C:/Users/sophh/Documents/Uni/Second Year/CaL/Assignment","no","Andale Mono","no","18","no","white","no","yes","576","legacy","43","43","3","C:/Users/sophh/Documents/Uni/Second Year/CaL/Assignment/subject-5200505.csv","legacy","Lentiform Loewenfeld","3.3.7","yes","yes","600bd7cfb6416f0113b04181","602110864497cf011d9c0822","0","f","NA","j","c","c","NA","f","1264","NA","4183","39068","282","NA","1264","2","legacy","1024","2","48000","-16","task","5200505","odd","NA","58802","64988","60804","153466","5954","45312","45028","153968","NA","153464","153968","153323","64988","155234","56690","152823","5930","144832","Lexical Decision Task","44","44701","48","yes","1024"
"3.153001286","8.7","5","palm","word","91.83673469387755","91.83673469387755","925.3265306122449","925.3265306122449","black","no","legacy","legacy","legacy","0","uniform","1","undefined","undefined","undefined","1","j","0","0","0","0","48","0","0","0","48","NA","44","48","44","0","44","3","48","0","48","Wed Feb 17 11:19:16 2021","The main experiment item","yes","Lexical_Decision_Task.osexp","C:/Users/sophh/Documents/Uni/Second Year/CaL/Assignment","no","Andale Mono","no","18","no","white","no","yes","576","legacy","44","44","3","C:/Users/sophh/Documents/Uni/Second Year/CaL/Assignment/subject-5200505.csv","legacy","Lentiform Loewenfeld","3.3.7","yes","yes","600bd7cfb6416f0113b04181","602110864497cf011d9c0822","0","j","NA","j","c","c","NA","j","640","NA","4183","39068","282","NA","640","2","legacy","1024","2","48000","-16","task","5200505","odd","NA","58802","64988","60804","155886","5954","45312","45028","156388","NA","155883","156388","155744","64988","157030","56690","155244","5930","144832","Lexical Decision Task","45","45341","49","yes","1024"
"3.368162872","0","4","ferk","non-word","92","92","937.08","937.08","black","no","legacy","legacy","legacy","0","uniform","1","undefined","undefined","undefined","1","f","0","0","0","0","49","0","0","0","49","NA","45","49","45","0","45","3","49","0","49","Wed Feb 17 11:19:16 2021","The main experiment item","yes","Lexical_Decision_Task.osexp","C:/Users/sophh/Documents/Uni/Second Year/CaL/Assignment","no","Andale Mono","no","18","no","white","no","yes","576","legacy","45","45","3","C:/Users/sophh/Documents/Uni/Second Year/CaL/Assignment/subject-5200505.csv","legacy","Lentiform Loewenfeld","3.3.7","yes","yes","600bd7cfb6416f0113b04181","602110864497cf011d9c0822","0","f","NA","j","c","c","NA","f","1513","NA","4183","39068","282","NA","1513","2","legacy","1024","2","48000","-16","task","5200505","odd","NA","58802","64988","60804","157692","5954","45312","45028","158194","NA","157687","158196","157539","64988","159711","56690","157039","5930","144832","Lexical Decision Task","46","46854","50","yes","1024"
"3.353210739","0","9","reet","non-word","92.15686274509804","92.15686274509804","946.156862745098","946.156862745098","black","no","legacy","legacy","legacy","0","uniform","1","undefined","undefined","undefined","1","f","0","0","0","0","50","0","0","0","50","NA","46","50","46","0","46","3","50","0","50","Wed Feb 17 11:19:16 2021","The main experiment item","yes","Lexical_Decision_Task.osexp","C:/Users/sophh/Documents/Uni/Second Year/CaL/Assignment","no","Andale Mono","no","18","no","white","no","yes","576","legacy","46","46","3","C:/Users/sophh/Documents/Uni/Second Year/CaL/Assignment/subject-5200505.csv","legacy","Lentiform Loewenfeld","3.3.7","yes","yes","600bd7cfb6416f0113b04181","602110864497cf011d9c0822","0","f","NA","j","c","c","NA","f","1400","NA","4183","39068","282","NA","1400","2","legacy","1024","2","48000","-16","task","5200505","odd","NA","58802","64988","60804","160360","5954","45312","45028","160862","NA","160357","160862","160218","64988","162265","56690","159718","5930","144832","Lexical Decision Task","47","48254","51","yes","1024"
"2.953276337","6.32","4","thaw","word","92.3076923076923","92.3076923076923","945.8461538461538","945.8461538461538","black","no","legacy","legacy","legacy","0","uniform","1","undefined","undefined","undefined","1","j","0","0","0","0","51","0","0","0","51","NA","47","51","47","0","47","3","51","0","51","Wed Feb 17 11:19:16 2021","The main experiment item","yes","Lexical_Decision_Task.osexp","C:/Users/sophh/Documents/Uni/Second Year/CaL/Assignment","no","Andale Mono","no","18","no","white","no","yes","576","legacy","47","47","3","C:/Users/sophh/Documents/Uni/Second Year/CaL/Assignment/subject-5200505.csv","legacy","Lentiform Loewenfeld","3.3.7","yes","yes","600bd7cfb6416f0113b04181","602110864497cf011d9c0822","0","j","NA","j","c","c","NA","j","930","NA","4183","39068","282","NA","930","2","legacy","1024","2","48000","-16","task","5200505","odd","NA","58802","64988","60804","162910","5954","45312","45028","163412","NA","162908","163413","162771","64988","164345","56690","162271","5930","144832","Lexical Decision Task","48","49184","52","yes","1024"
"2.714888338","0","3","brug","non-word","92.45283018867924","92.45283018867924","940.9433962264151","940.9433962264151","black","no","legacy","legacy","legacy","0","uniform","1","undefined","undefined","undefined","1","f","0","0","0","0","52","0","0","0","52","NA","48","52","48","0","48","3","52","0","52","Wed Feb 17 11:19:16 2021","The main experiment item","yes","Lexical_Decision_Task.osexp","C:/Users/sophh/Documents/Uni/Second Year/CaL/Assignment","no","Andale Mono","no","18","no","white","no","yes","576","legacy","48","48","3","C:/Users/sophh/Documents/Uni/Second Year/CaL/Assignment/subject-5200505.csv","legacy","Lentiform Loewenfeld","3.3.7","yes","yes","600bd7cfb6416f0113b04181","602110864497cf011d9c0822","0","f","NA","j","c","c","NA","f","686","NA","4183","39068","282","NA","686","2","legacy","1024","2","48000","-16","task","5200505","odd","NA","58802","64988","60804","164994","5954","45312","45028","165496","NA","164991","165497","164853","64988","166186","56690","164353","5930","144832","Lexical Decision Task","49","49870","53","yes","1024"
"2.979548375","8.71","4","soup","word","92.5925925925926","92.5925925925926","934.2222222222222","934.2222222222222","black","no","legacy","legacy","legacy","0","uniform","1","undefined","undefined","undefined","1","j","0","0","0","0","53","0","0","0","53","NA","49","53","49","0","49","3","53","0","53","Wed Feb 17 11:19:16 2021","The main experiment item","yes","Lexical_Decision_Task.osexp","C:/Users/sophh/Documents/Uni/Second Year/CaL/Assignment","no","Andale Mono","no","18","no","white","no","yes","576","legacy","49","49","3","C:/Users/sophh/Documents/Uni/Second Year/CaL/Assignment/subject-5200505.csv","legacy","Lentiform Loewenfeld","3.3.7","yes","yes","600bd7cfb6416f0113b04181","602110864497cf011d9c0822","0","j","NA","j","c","c","NA","j","578","NA","4183","39068","282","NA","578","2","legacy","1024","2","48000","-16","task","5200505","odd","NA","58802","64988","60804","166834","5954","45312","45028","167336","NA","166832","167336","166695","64988","167917","56690","166195","5930","144832","Lexical Decision Task","50","50448","54","yes","1024"
"3.460446784","0","5","dess","non-word","92.72727272727273","92.72727272727273","930.5636363636364","930.5636363636364","black","no","legacy","legacy","legacy","0","uniform","1","undefined","undefined","undefined","1","f","0","0","0","0","54","0","0","0","54","0","50","54","50","0","50","3","54","0","54","Wed Feb 17 11:19:16 2021","The main experiment item","yes","Lexical_Decision_Task.osexp","C:/Users/sophh/Documents/Uni/Second Year/CaL/Assignment","no","Andale Mono","no","18","no","white","no","yes","576","legacy","50","50","3","C:/Users/sophh/Documents/Uni/Second Year/CaL/Assignment/subject-5200505.csv","legacy","Lentiform Loewenfeld","3.3.7","yes","yes","600bd7cfb6416f0113b04181","602110864497cf011d9c0822","0","f","NA","j","c","c","j","f","733","NA","4183","39068","282","14517","733","2","legacy","1024","2","48000","-16","task","5200505","odd","NA","58802","64988","60804","183168","5954","45312","45028","183670","168519","183166","183670","168426","64988","184406","56690","167926","5930","144832","Lexical Decision Task","51","51181","55","yes","1024"
"2.868644438","10.52","4","town","word","92.85714285714286","92.85714285714286","926.5892857142857","926.5892857142857","black","no","legacy","legacy","legacy","0","uniform","1","undefined","undefined","undefined","1","j","0","0","0","0","55","0","0","0","55","0","51","55","51","0","51","3","55","0","55","Wed Feb 17 11:19:16 2021","The main experiment item","yes","Lexical_Decision_Task.osexp","C:/Users/sophh/Documents/Uni/Second Year/CaL/Assignment","no","Andale Mono","no","18","no","white","no","yes","576","legacy","51","51","3","C:/Users/sophh/Documents/Uni/Second Year/CaL/Assignment/subject-5200505.csv","legacy","Lentiform Loewenfeld","3.3.7","yes","yes","600bd7cfb6416f0113b04181","602110864497cf011d9c0822","0","j","NA","j","c","c","j","j","708","NA","4183","39068","282","14517","708","2","legacy","1024","2","48000","-16","task","5200505","odd","NA","58802","64988","60804","185067","5954","45312","45028","185570","168519","185065","185571","184915","64988","186280","56690","184415","5930","144832","Lexical Decision Task","52","51889","56","yes","1024"
"3.208978517","10.33","4","fish","word","92.98245614035088","92.98245614035088","919.7543859649123","919.7543859649123","black","no","legacy","legacy","legacy","0","uniform","1","undefined","undefined","undefined","1","j","0","0","0","0","56","0","0","0","56","0","52","56","52","0","52","3","56","0","56","Wed Feb 17 11:19:16 2021","The main experiment item","yes","Lexical_Decision_Task.osexp","C:/Users/sophh/Documents/Uni/Second Year/CaL/Assignment","no","Andale Mono","no","18","no","white","no","yes","576","legacy","52","52","3","C:/Users/sophh/Documents/Uni/Second Year/CaL/Assignment/subject-5200505.csv","legacy","Lentiform Loewenfeld","3.3.7","yes","yes","600bd7cfb6416f0113b04181","602110864497cf011d9c0822","0","j","NA","j","c","c","j","j","537","NA","4183","39068","282","14517","537","2","legacy","1024","2","48000","-16","task","5200505","odd","NA","58802","64988","60804","186923","5954","45312","45028","187425","168519","186921","187425","186788","64988","187963","56690","186288","5930","144832","Lexical Decision Task","53","52426","57","yes","1024"
"3.102203805","7.21","3","drip","word","93.10344827586206","93.10344827586206","915.8965517241379","915.8965517241379","black","no","legacy","legacy","legacy","0","uniform","1","undefined","undefined","undefined","1","j","0","0","0","0","57","0","0","0","57","0","53","57","53","0","53","3","57","0","57","Wed Feb 17 11:19:16 2021","The main experiment item","yes","Lexical_Decision_Task.osexp","C:/Users/sophh/Documents/Uni/Second Year/CaL/Assignment","no","Andale Mono","no","18","no","white","no","yes","576","legacy","53","53","3","C:/Users/sophh/Documents/Uni/Second Year/CaL/Assignment/subject-5200505.csv","legacy","Lentiform Loewenfeld","3.3.7","yes","yes","600bd7cfb6416f0113b04181","602110864497cf011d9c0822","0","j","NA","j","c","c","j","j","696","NA","4183","39068","282","14517","696","2","legacy","1024","2","48000","-16","task","5200505","odd","NA","58802","64988","60804","188622","5954","45312","45028","189126","168519","188619","189126","188472","64988","189824","56690","187971","5930","144832","Lexical Decision Task","54","53122","58","yes","1024"
"2.755364069","7.72","2","hoax","word","93.22033898305085","93.22033898305085","911.5254237288135","911.5254237288135","black","no","legacy","legacy","legacy","0","uniform","1","undefined","undefined","undefined","1","j","0","0","0","0","58","0","0","0","58","0","54","58","54","0","54","3","58","0","58","Wed Feb 17 11:19:16 2021","The main experiment item","yes","Lexical_Decision_Task.osexp","C:/Users/sophh/Documents/Uni/Second Year/CaL/Assignment","no","Andale Mono","no","18","no","white","no","yes","576","legacy","54","54","3","C:/Users/sophh/Documents/Uni/Second Year/CaL/Assignment/subject-5200505.csv","legacy","Lentiform Loewenfeld","3.3.7","yes","yes","600bd7cfb6416f0113b04181","602110864497cf011d9c0822","0","j","NA","j","c","c","j","j","658","NA","4183","39068","282","14517","658","2","legacy","1024","2","48000","-16","task","5200505","odd","NA","58802","64988","60804","190482","5954","45312","45028","190984","168519","190479","190984","190333","64988","191644","56690","189833","5930","144832","Lexical Decision Task","55","53780","59","yes","1024"
"2.69019608","9.01","2","myth","word","93.33333333333333","93.33333333333333","908.3833333333333","908.3833333333333","black","no","legacy","legacy","legacy","0","uniform","1","undefined","undefined","undefined","1","j","0","0","0","0","59","0","0","0","59","0","55","59","55","0","55","3","59","0","59","Wed Feb 17 11:19:16 2021","The main experiment item","yes","Lexical_Decision_Task.osexp","C:/Users/sophh/Documents/Uni/Second Year/CaL/Assignment","no","Andale Mono","no","18","no","white","no","yes","576","legacy","55","55","3","C:/Users/sophh/Documents/Uni/Second Year/CaL/Assignment/subject-5200505.csv","legacy","Lentiform Loewenfeld","3.3.7","yes","yes","600bd7cfb6416f0113b04181","602110864497cf011d9c0822","0","j","NA","j","c","c","j","j","723","NA","4183","39068","282","14517","723","2","legacy","1024","2","48000","-16","task","5200505","odd","NA","58802","64988","60804","192282","5954","45312","45028","192784","168519","192279","192785","192149","64988","193511","56690","191649","5930","144832","Lexical Decision Task","56","54503","60","yes","1024"
"3.010582609","0","2","drod","non-word","93.44262295081967","93.44262295081967","903.3770491803278","903.3770491803278","black","no","legacy","legacy","legacy","0","uniform","1","undefined","undefined","undefined","1","f","0","0","0","0","60","0","0","0","60","0","56","60","56","0","56","3","60","0","60","Wed Feb 17 11:19:16 2021","The main experiment item","yes","Lexical_Decision_Task.osexp","C:/Users/sophh/Documents/Uni/Second Year/CaL/Assignment","no","Andale Mono","no","18","no","white","no","yes","576","legacy","56","56","3","C:/Users/sophh/Documents/Uni/Second Year/CaL/Assignment/subject-5200505.csv","legacy","Lentiform Loewenfeld","3.3.7","yes","yes","600bd7cfb6416f0113b04181","602110864497cf011d9c0822","0","f","NA","j","c","c","j","f","603","NA","4183","39068","282","14517","603","2","legacy","1024","2","48000","-16","task","5200505","odd","NA","58802","64988","60804","194159","5954","45312","45028","194661","168519","194156","194662","194020","64988","195267","56690","193519","5930","144832","Lexical Decision Task","57","55106","61","yes","1024"
"2.68604012","0","4","pumb","non-word","93.54838709677419","93.54838709677419","902.7903225806451","902.7903225806451","black","no","legacy","legacy","legacy","0","uniform","1","undefined","undefined","undefined","1","f","0","0","0","0","61","0","0","0","61","0","57","61","57","0","57","3","61","0","61","Wed Feb 17 11:19:16 2021","The main experiment item","yes","Lexical_Decision_Task.osexp","C:/Users/sophh/Documents/Uni/Second Year/CaL/Assignment","no","Andale Mono","no","18","no","white","no","yes","576","legacy","57","57","3","C:/Users/sophh/Documents/Uni/Second Year/CaL/Assignment/subject-5200505.csv","legacy","Lentiform Loewenfeld","3.3.7","yes","yes","600bd7cfb6416f0113b04181","602110864497cf011d9c0822","0","f","NA","j","c","c","j","f","867","NA","4183","39068","282","14517","867","2","legacy","1024","2","48000","-16","task","5200505","odd","NA","58802","64988","60804","195930","5954","45312","45028","196432","168519","195928","196433","195775","64988","197302","56690","195275","5930","144832","Lexical Decision Task","58","55973","62","yes","1024"
"3.299579929","0","2","flis","non-word","93.65079365079364","93.65079365079364","896.7777777777778","896.7777777777778","black","no","legacy","legacy","legacy","0","uniform","1","undefined","undefined","undefined","1","f","0","0","0","0","62","0","0","0","62","0","58","62","58","0","58","3","62","0","62","Wed Feb 17 11:19:16 2021","The main experiment item","yes","Lexical_Decision_Task.osexp","C:/Users/sophh/Documents/Uni/Second Year/CaL/Assignment","no","Andale Mono","no","18","no","white","no","yes","576","legacy","58","58","3","C:/Users/sophh/Documents/Uni/Second Year/CaL/Assignment/subject-5200505.csv","legacy","Lentiform Loewenfeld","3.3.7","yes","yes","600bd7cfb6416f0113b04181","602110864497cf011d9c0822","0","f","NA","j","c","c","j","f","524","NA","4183","39068","282","14517","524","2","legacy","1024","2","48000","-16","task","5200505","odd","NA","58802","64988","60804","197961","5954","45312","45028","198463","168519","197958","198463","197809","64988","198989","56690","197309","5930","144832","Lexical Decision Task","59","56497","63","yes","1024"
"3.443783828","7.65","3","verb","word","93.75","93.75","892.875","892.875","black","no","legacy","legacy","legacy","0","uniform","1","undefined","undefined","undefined","1","j","0","0","0","0","63","0","0","0","63","0","59","63","59","0","59","3","63","0","63","Wed Feb 17 11:19:16 2021","The main experiment item","yes","Lexical_Decision_Task.osexp","C:/Users/sophh/Documents/Uni/Second Year/CaL/Assignment","no","Andale Mono","no","18","no","white","no","yes","576","legacy","59","59","3","C:/Users/sophh/Documents/Uni/Second Year/CaL/Assignment/subject-5200505.csv","legacy","Lentiform Loewenfeld","3.3.7","yes","yes","600bd7cfb6416f0113b04181","602110864497cf011d9c0822","0","j","NA","j","c","c","j","j","647","NA","4183","39068","282","14517","647","2","legacy","1024","2","48000","-16","task","5200505","odd","NA","58802","64988","60804","199654","5954","45312","45028","200156","168519","199651","200156","199499","64988","200805","56690","198998","5930","144832","Lexical Decision Task","60","57144","64","yes","1024"
"2.972819734","0","4","scew","non-word","92.3076923076923","92.3076923076923","888","888","black","no","legacy","legacy","legacy","0","uniform","0","undefined","undefined","undefined","0","f","0","0","0","0","64","0","0","0","64","0","60","64","60","0","60","3","64","0","64","Wed Feb 17 11:19:16 2021","The main experiment item","yes","Lexical_Decision_Task.osexp","C:/Users/sophh/Documents/Uni/Second Year/CaL/Assignment","no","Andale Mono","no","18","no","white","no","yes","576","legacy","60","60","3","C:/Users/sophh/Documents/Uni/Second Year/CaL/Assignment/subject-5200505.csv","legacy","Lentiform Loewenfeld","3.3.7","yes","yes","600bd7cfb6416f0113b04181","602110864497cf011d9c0822","0","j","NA","j","c","c","j","j","576","NA","4183","39068","282","14517","576","2","legacy","1024","2","48000","-16","task","5200505","odd","NA","58802","64988","60804","201441","5954","45312","45028","201943","168519","201439","201943","201311","64988","202521","56690","200811","5930","144832","Lexical Decision Task","60","57720","65","yes","1024"
"3.230789326","5.38","5","prim","word","90.9090909090909","90.9090909090909","901.0757575757576","901.0757575757576","black","no","legacy","legacy","legacy","0","uniform","0","undefined","undefined","undefined","0","j","0","0","0","0","65","0","0","0","65","0","61","65","61","0","61","3","65","0","65","Wed Feb 17 11:19:16 2021","The main experiment item","yes","Lexical_Decision_Task.osexp","C:/Users/sophh/Documents/Uni/Second Year/CaL/Assignment","no","Andale Mono","no","18","no","white","no","yes","576","legacy","61","61","3","C:/Users/sophh/Documents/Uni/Second Year/CaL/Assignment/subject-5200505.csv","legacy","Lentiform Loewenfeld","3.3.7","yes","yes","600bd7cfb6416f0113b04181","602110864497cf011d9c0822","0","f","NA","j","c","c","j","f","1751","NA","4183","39068","282","14517","1751","2","legacy","1024","2","48000","-16","task","5200505","odd","NA","58802","64988","60804","204157","5954","45312","45028","204659","168519","204154","204659","204028","64988","206413","56690","200811","5930","202528","Lexical Decision Task","60","59471","66","yes","1024"
"3.121778632","0","9","sark","non-word","89.55223880597015","89.55223880597015","905.8805970149253","905.8805970149253","black","no","legacy","legacy","legacy","0","uniform","0","undefined","undefined","undefined","0","f","0","0","0","0","66","0","0","0","66","0","62","66","62","0","62","3","66","0","66","Wed Feb 17 11:19:16 2021","The main experiment item","yes","Lexical_Decision_Task.osexp","C:/Users/sophh/Documents/Uni/Second Year/CaL/Assignment","no","Andale Mono","no","18","no","white","no","yes","576","legacy","62","62","3","C:/Users/sophh/Documents/Uni/Second Year/CaL/Assignment/subject-5200505.csv","legacy","Lentiform Loewenfeld","3.3.7","yes","yes","600bd7cfb6416f0113b04181","602110864497cf011d9c0822","0","j","NA","j","c","c","j","j","1223","NA","4183","39068","282","14517","1223","2","legacy","1024","2","48000","-16","task","5200505","odd","NA","58802","64988","60804","208077","5954","45312","45028","208580","168519","208076","208580","207933","64988","209805","56690","200811","5930","206433","Lexical Decision Task","60","60694","67","yes","1024"
"3.140404328","10.66","9","deep","word","89.70588235294117","89.70588235294117","903.5294117647059","903.5294117647059","black","no","legacy","legacy","legacy","0","uniform","1","undefined","undefined","undefined","1","j","0","0","0","0","67","0","0","0","67","0","63","67","63","0","63","3","67","0","67","Wed Feb 17 11:19:16 2021","The main experiment item","yes","Lexical_Decision_Task.osexp","C:/Users/sophh/Documents/Uni/Second Year/CaL/Assignment","no","Andale Mono","no","18","no","white","no","yes","576","legacy","63","63","3","C:/Users/sophh/Documents/Uni/Second Year/CaL/Assignment/subject-5200505.csv","legacy","Lentiform Loewenfeld","3.3.7","yes","yes","600bd7cfb6416f0113b04181","602110864497cf011d9c0822","0","j","NA","j","c","c","j","j","746","NA","4183","39068","282","14517","746","2","legacy","1024","2","48000","-16","task","5200505","odd","NA","58802","64988","60804","211460","5954","45312","45028","211962","168519","211458","211963","211312","64988","212712","56690","200811","5930","209812","Lexical Decision Task","61","61440","68","yes","1024"
"3.168890155","0","6","thet","non-word","89.85507246376811","89.85507246376811","900.8985507246376","900.8985507246376","black","no","legacy","legacy","legacy","0","uniform","1","undefined","undefined","undefined","1","f","0","0","0","0","68","0","0","0","68","0","64","68","64","0","64","3","68","0","68","Wed Feb 17 11:19:16 2021","The main experiment item","yes","Lexical_Decision_Task.osexp","C:/Users/sophh/Documents/Uni/Second Year/CaL/Assignment","no","Andale Mono","no","18","no","white","no","yes","576","legacy","64","64","3","C:/Users/sophh/Documents/Uni/Second Year/CaL/Assignment/subject-5200505.csv","legacy","Lentiform Loewenfeld","3.3.7","yes","yes","600bd7cfb6416f0113b04181","602110864497cf011d9c0822","0","f","NA","j","c","c","j","f","722","NA","4183","39068","282","14517","722","2","legacy","1024","2","48000","-16","task","5200505","odd","NA","58802","64988","60804","213371","5954","45312","45028","213873","168519","213368","213874","213221","64988","214598","56690","212721","5930","209812","Lexical Decision Task","62","62162","69","yes","1024"
"3.29439347","8.6","9","wand","word","90","90","904.8285714285714","904.8285714285714","black","no","legacy","legacy","legacy","0","uniform","1","undefined","undefined","undefined","1","j","0","0","0","0","69","0","0","0","69","0","65","69","65","0","65","3","69","0","69","Wed Feb 17 11:19:16 2021","The main experiment item","yes","Lexical_Decision_Task.osexp","C:/Users/sophh/Documents/Uni/Second Year/CaL/Assignment","no","Andale Mono","no","18","no","white","no","yes","576","legacy","65","65","3","C:/Users/sophh/Documents/Uni/Second Year/CaL/Assignment/subject-5200505.csv","legacy","Lentiform Loewenfeld","3.3.7","yes","yes","600bd7cfb6416f0113b04181","602110864497cf011d9c0822","0","j","NA","j","c","c","j","j","1176","NA","4183","39068","282","14517","1176","2","legacy","1024","2","48000","-16","task","5200505","odd","NA","58802","64988","60804","215239","5954","45312","45028","215741","168519","215237","215742","215105","64988","216922","56690","214605","5930","209812","Lexical Decision Task","63","63338","70","yes","1024"
"3.174641193","0","3","ramb","non-word","90.14084507042253","90.14084507042253","904.169014084507","904.169014084507","black","no","legacy","legacy","legacy","0","uniform","1","undefined","undefined","undefined","1","f","0","0","0","0","70","0","0","0","70","0","66","70","66","0","66","3","70","0","70","Wed Feb 17 11:19:16 2021","The main experiment item","yes","Lexical_Decision_Task.osexp","C:/Users/sophh/Documents/Uni/Second Year/CaL/Assignment","no","Andale Mono","no","18","no","white","no","yes","576","legacy","66","66","3","C:/Users/sophh/Documents/Uni/Second Year/CaL/Assignment/subject-5200505.csv","legacy","Lentiform Loewenfeld","3.3.7","yes","yes","600bd7cfb6416f0113b04181","602110864497cf011d9c0822","0","f","NA","j","c","c","j","f","858","NA","4183","39068","282","14517","858","2","legacy","1024","2","48000","-16","task","5200505","odd","NA","58802","64988","60804","217598","5954","45312","45028","218100","168519","217595","218100","217430","64988","218961","56690","216930","5930","209812","Lexical Decision Task","64","64196","71","yes","1024"
"2.695481676","0","7","goke","non-word","90.27777777777777","90.27777777777777","905.1388888888889","905.1388888888889","black","no","legacy","legacy","legacy","0","uniform","1","undefined","undefined","undefined","1","f","0","0","0","0","71","0","0","0","71","0","67","71","67","0","67","3","71","0","71","Wed Feb 17 11:19:16 2021","The main experiment item","yes","Lexical_Decision_Task.osexp","C:/Users/sophh/Documents/Uni/Second Year/CaL/Assignment","no","Andale Mono","no","18","no","white","no","yes","576","legacy","67","67","3","C:/Users/sophh/Documents/Uni/Second Year/CaL/Assignment/subject-5200505.csv","legacy","Lentiform Loewenfeld","3.3.7","yes","yes","600bd7cfb6416f0113b04181","602110864497cf011d9c0822","0","f","NA","j","c","c","j","f","974","NA","4183","39068","282","14517","974","2","legacy","1024","2","48000","-16","task","5200505","odd","NA","58802","64988","60804","219626","5954","45312","45028","220129","168519","219624","220129","219469","64988","221105","56690","218969","5930","209812","Lexical Decision Task","65","65170","72","yes","1024"
"2.719886232","7.98","2","quiz","word","90.41095890410959","90.41095890410959","902.027397260274","902.027397260274","black","no","legacy","legacy","legacy","0","uniform","1","undefined","undefined","undefined","1","j","0","0","0","0","72","0","0","0","72","0","68","72","68","0","68","3","72","0","72","Wed Feb 17 11:19:16 2021","The main experiment item","yes","Lexical_Decision_Task.osexp","C:/Users/sophh/Documents/Uni/Second Year/CaL/Assignment","no","Andale Mono","no","18","no","white","no","yes","576","legacy","68","68","3","C:/Users/sophh/Documents/Uni/Second Year/CaL/Assignment/subject-5200505.csv","legacy","Lentiform Loewenfeld","3.3.7","yes","yes","600bd7cfb6416f0113b04181","602110864497cf011d9c0822","0","j","NA","j","c","c","j","j","678","NA","4183","39068","282","14517","678","2","legacy","1024","2","48000","-16","task","5200505","odd","NA","58802","64988","60804","221784","5954","45312","45028","222286","168519","221781","222286","221612","64988","222967","56690","221112","5930","209812","Lexical Decision Task","66","65848","73","yes","1024"
"2.807758206","6.25","4","hurl","word","90.54054054054055","90.54054054054055","897.8243243243244","897.8243243243244","black","no","legacy","legacy","legacy","0","uniform","1","undefined","undefined","undefined","1","j","0","0","0","0","73","0","0","0","73","0","69","73","69","0","69","3","73","0","73","Wed Feb 17 11:19:16 2021","The main experiment item","yes","Lexical_Decision_Task.osexp","C:/Users/sophh/Documents/Uni/Second Year/CaL/Assignment","no","Andale Mono","no","18","no","white","no","yes","576","legacy","69","69","3","C:/Users/sophh/Documents/Uni/Second Year/CaL/Assignment/subject-5200505.csv","legacy","Lentiform Loewenfeld","3.3.7","yes","yes","600bd7cfb6416f0113b04181","602110864497cf011d9c0822","0","j","NA","j","c","c","j","j","591","NA","4183","39068","282","14517","591","2","legacy","1024","2","48000","-16","task","5200505","odd","NA","58802","64988","60804","223652","5954","45312","45028","224155","168519","223648","224155","223477","64988","224747","56690","222977","5930","209812","Lexical Decision Task","67","66439","74","yes","1024"
"2.813801082","5.47","7","nook","word","89.33333333333333","89.33333333333333","906.68","906.68","black","no","legacy","legacy","legacy","0","uniform","0","undefined","undefined","undefined","0","j","0","0","0","0","74","0","0","0","74","0","70","74","70","0","70","3","74","0","74","Wed Feb 17 11:19:16 2021","The main experiment item","yes","Lexical_Decision_Task.osexp","C:/Users/sophh/Documents/Uni/Second Year/CaL/Assignment","no","Andale Mono","no","18","no","white","no","yes","576","legacy","70","70","3","C:/Users/sophh/Documents/Uni/Second Year/CaL/Assignment/subject-5200505.csv","legacy","Lentiform Loewenfeld","3.3.7","yes","yes","600bd7cfb6416f0113b04181","602110864497cf011d9c0822","0","f","NA","j","c","c","j","f","1562","NA","4183","39068","282","14517","1562","2","legacy","1024","2","48000","-16","task","5200505","odd","NA","58802","64988","60804","225407","5954","45312","45028","225910","168519","225404","225910","225255","64988","227474","56690","224754","5930","209812","Lexical Decision Task","67","68001","75","yes","1024"
"2.952953801","0","8","clax","non-word","89.47368421052632","89.47368421052632","905.75","905.75","black","no","legacy","legacy","legacy","0","uniform","1","undefined","undefined","undefined","1","f","0","0","0","0","75","0","0","0","75","0","71","75","71","0","71","3","75","0","75","Wed Feb 17 11:19:16 2021","The main experiment item","yes","Lexical_Decision_Task.osexp","C:/Users/sophh/Documents/Uni/Second Year/CaL/Assignment","no","Andale Mono","no","18","no","white","no","yes","576","legacy","71","71","3","C:/Users/sophh/Documents/Uni/Second Year/CaL/Assignment/subject-5200505.csv","legacy","Lentiform Loewenfeld","3.3.7","yes","yes","600bd7cfb6416f0113b04181","602110864497cf011d9c0822","0","f","NA","j","c","c","j","f","836","NA","4183","39068","282","14517","836","2","legacy","1024","2","48000","-16","task","5200505","odd","NA","58802","64988","60804","229148","5954","45312","45028","229650","168519","229146","229650","228981","64988","230488","56690","224754","5930","227481","Lexical Decision Task","68","68837","76","yes","1024"
"3.088136089","8.32","9","worm","word","89.6103896103896","89.6103896103896","907.5584415584416","907.5584415584416","black","no","legacy","legacy","legacy","0","uniform","1","undefined","undefined","undefined","1","j","0","0","0","0","76","0","0","0","76","0","72","76","72","0","72","3","76","0","76","Wed Feb 17 11:19:16 2021","The main experiment item","yes","Lexical_Decision_Task.osexp","C:/Users/sophh/Documents/Uni/Second Year/CaL/Assignment","no","Andale Mono","no","18","no","white","no","yes","576","legacy","72","72","3","C:/Users/sophh/Documents/Uni/Second Year/CaL/Assignment/subject-5200505.csv","legacy","Lentiform Loewenfeld","3.3.7","yes","yes","600bd7cfb6416f0113b04181","602110864497cf011d9c0822","0","j","NA","j","c","c","j","j","1045","NA","4183","39068","282","14517","1045","2","legacy","1024","2","48000","-16","task","5200505","odd","NA","58802","64988","60804","231152","5954","45312","45028","231655","168519","231150","231656","230997","64988","232703","56690","230497","5930","227481","Lexical Decision Task","69","69882","77","yes","1024"
"3.347850856","10.51","2","rich","word","89.74358974358974","89.74358974358974","905.0512820512821","905.0512820512821","black","no","legacy","legacy","legacy","0","uniform","1","undefined","undefined","undefined","1","j","0","0","0","0","77","0","0","0","77","0","73","77","73","0","73","3","77","0","77","Wed Feb 17 11:19:16 2021","The main experiment item","yes","Lexical_Decision_Task.osexp","C:/Users/sophh/Documents/Uni/Second Year/CaL/Assignment","no","Andale Mono","no","18","no","white","no","yes","576","legacy","73","73","3","C:/Users/sophh/Documents/Uni/Second Year/CaL/Assignment/subject-5200505.csv","legacy","Lentiform Loewenfeld","3.3.7","yes","yes","600bd7cfb6416f0113b04181","602110864497cf011d9c0822","0","j","NA","j","c","c","j","j","712","NA","4183","39068","282","14517","712","2","legacy","1024","2","48000","-16","task","5200505","odd","NA","58802","64988","60804","233353","5954","45312","45028","233855","168519","233350","233855","233210","64988","234569","56690","232710","5930","227481","Lexical Decision Task","70","70594","78","yes","1024"
"3.039414119","0","9","meep","non-word","89.87341772151899","89.87341772151899","903.4810126582279","903.4810126582279","black","no","legacy","legacy","legacy","0","uniform","1","undefined","undefined","undefined","1","f","0","0","0","0","78","0","0","0","78","0","74","78","74","0","74","3","78","0","78","Wed Feb 17 11:19:16 2021","The main experiment item","yes","Lexical_Decision_Task.osexp","C:/Users/sophh/Documents/Uni/Second Year/CaL/Assignment","no","Andale Mono","no","18","no","white","no","yes","576","legacy","74","74","3","C:/Users/sophh/Documents/Uni/Second Year/CaL/Assignment/subject-5200505.csv","legacy","Lentiform Loewenfeld","3.3.7","yes","yes","600bd7cfb6416f0113b04181","602110864497cf011d9c0822","0","f","NA","j","c","c","j","f","781","NA","4183","39068","282","14517","781","2","legacy","1024","2","48000","-16","task","5200505","odd","NA","58802","64988","60804","235214","5954","45312","45028","235716","168519","235211","235717","235077","64988","236502","56690","234576","5930","227481","Lexical Decision Task","71","71375","79","yes","1024"
"2.966923697","5.4","2","fume","word","90","90","907.6625","907.6625","black","no","legacy","legacy","legacy","0","uniform","1","undefined","undefined","undefined","1","j","0","0","0","0","79","0","0","0","79","0","75","79","75","0","75","3","79","0","79","Wed Feb 17 11:19:16 2021","The main experiment item","yes","Lexical_Decision_Task.osexp","C:/Users/sophh/Documents/Uni/Second Year/CaL/Assignment","no","Andale Mono","no","18","no","white","no","yes","576","legacy","75","75","3","C:/Users/sophh/Documents/Uni/Second Year/CaL/Assignment/subject-5200505.csv","legacy","Lentiform Loewenfeld","3.3.7","yes","yes","600bd7cfb6416f0113b04181","602110864497cf011d9c0822","0","j","NA","j","c","c","j","j","1238","NA","4183","39068","282","14517","1238","2","legacy","1024","2","48000","-16","task","5200505","odd","NA","58802","64988","60804","237164","5954","45312","45028","237667","168519","237162","237668","237011","64988","238909","56690","236511","5930","227481","Lexical Decision Task","72","72613","80","yes","1024"
"3.302475237","0","7","leel","non-word","90.12345679012346","90.12345679012346","907.5308641975308","907.5308641975308","black","no","legacy","legacy","legacy","0","uniform","1","undefined","undefined","undefined","1","f","0","0","0","0","80","0","0","0","80","0","76","80","76","0","76","3","80","0","80","Wed Feb 17 11:19:16 2021","The main experiment item","yes","Lexical_Decision_Task.osexp","C:/Users/sophh/Documents/Uni/Second Year/CaL/Assignment","no","Andale Mono","no","18","no","white","no","yes","576","legacy","76","76","3","C:/Users/sophh/Documents/Uni/Second Year/CaL/Assignment/subject-5200505.csv","legacy","Lentiform Loewenfeld","3.3.7","yes","yes","600bd7cfb6416f0113b04181","602110864497cf011d9c0822","0","f","NA","j","c","c","j","f","897","NA","4183","39068","282","14517","897","2","legacy","1024","2","48000","-16","task","5200505","odd","NA","58802","64988","60804","239566","5954","45312","45028","240068","168519","239562","240068","239419","64988","240969","56690","238919","5930","227481","Lexical Decision Task","73","73510","81","yes","1024"
"3.100255637","0","6","brax","non-word","90.2439024390244","90.2439024390244","912.170731707317","912.170731707317","black","no","legacy","legacy","legacy","0","uniform","1","undefined","undefined","undefined","1","f","0","0","0","0","81","0","0","0","81","0","77","81","77","0","77","3","81","0","81","Wed Feb 17 11:19:16 2021","The main experiment item","yes","Lexical_Decision_Task.osexp","C:/Users/sophh/Documents/Uni/Second Year/CaL/Assignment","no","Andale Mono","no","18","no","white","no","yes","576","legacy","77","77","3","C:/Users/sophh/Documents/Uni/Second Year/CaL/Assignment/subject-5200505.csv","legacy","Lentiform Loewenfeld","3.3.7","yes","yes","600bd7cfb6416f0113b04181","602110864497cf011d9c0822","0","f","NA","j","c","c","j","f","1288","NA","4183","39068","282","14517","1288","2","legacy","1024","2","48000","-16","task","5200505","odd","NA","58802","64988","60804","241628","5954","45312","45028","242130","168519","241624","242130","241478","64988","243421","56690","240978","5930","227481","Lexical Decision Task","74","74798","82","yes","1024"
"3.028977705","0","7","frow","non-word","90.36144578313252","90.36144578313252","914.5180722891566","914.5180722891566","black","no","legacy","legacy","legacy","0","uniform","1","undefined","undefined","undefined","1","f","0","0","0","0","82","0","0","0","82","0","78","82","78","0","78","3","82","0","82","Wed Feb 17 11:19:16 2021","The main experiment item","yes","Lexical_Decision_Task.osexp","C:/Users/sophh/Documents/Uni/Second Year/CaL/Assignment","no","Andale Mono","no","18","no","white","no","yes","576","legacy","78","78","3","C:/Users/sophh/Documents/Uni/Second Year/CaL/Assignment/subject-5200505.csv","legacy","Lentiform Loewenfeld","3.3.7","yes","yes","600bd7cfb6416f0113b04181","602110864497cf011d9c0822","0","f","NA","j","c","c","j","f","1107","NA","4183","39068","282","14517","1107","2","legacy","1024","2","48000","-16","task","5200505","odd","NA","58802","64988","60804","244068","5954","45312","45028","244571","168519","244066","244571","243928","64988","245680","56690","243428","5930","227481","Lexical Decision Task","75","75905","83","yes","1024"
"2.793790385","5.67","9","swab","word","90.47619047619048","90.47619047619048","912.6428571428571","912.6428571428571","black","no","legacy","legacy","legacy","0","uniform","1","undefined","undefined","undefined","1","j","0","0","0","0","83","0","0","0","83","0","79","83","79","0","79","3","83","0","83","Wed Feb 17 11:19:16 2021","The main experiment item","yes","Lexical_Decision_Task.osexp","C:/Users/sophh/Documents/Uni/Second Year/CaL/Assignment","no","Andale Mono","no","18","no","white","no","yes","576","legacy","79","79","3","C:/Users/sophh/Documents/Uni/Second Year/CaL/Assignment/subject-5200505.csv","legacy","Lentiform Loewenfeld","3.3.7","yes","yes","600bd7cfb6416f0113b04181","602110864497cf011d9c0822","0","j","NA","j","c","c","j","j","757","NA","4183","39068","282","14517","757","2","legacy","1024","2","48000","-16","task","5200505","odd","NA","58802","64988","60804","246338","5954","45312","45028","246840","168519","246336","246841","246187","64988","247600","56690","245687","5930","227481","Lexical Decision Task","76","76662","84","yes","1024"
"2.6599162","0","2","saff","non-word","90.58823529411765","90.58823529411765","913.5176470588235","913.5176470588235","black","no","legacy","legacy","legacy","0","uniform","1","undefined","undefined","undefined","1","f","0","0","0","0","84","0","0","0","84","0","80","84","80","0","80","3","84","0","84","Wed Feb 17 11:19:16 2021","The main experiment item","yes","Lexical_Decision_Task.osexp","C:/Users/sophh/Documents/Uni/Second Year/CaL/Assignment","no","Andale Mono","no","18","no","white","no","yes","576","legacy","80","80","3","C:/Users/sophh/Documents/Uni/Second Year/CaL/Assignment/subject-5200505.csv","legacy","Lentiform Loewenfeld","3.3.7","yes","yes","600bd7cfb6416f0113b04181","602110864497cf011d9c0822","0","f","NA","j","c","c","j","f","987","NA","4183","39068","282","14517","987","2","legacy","1024","2","48000","-16","task","5200505","odd","NA","58802","64988","60804","248254","5954","45312","45028","248756","168519","248251","248756","248107","64988","249745","56690","247607","5930","227481","Lexical Decision Task","77","77649","85","yes","1024"
"3.263399331","0","8","cour","non-word","90.69767441860465","90.69767441860465","912.046511627907","912.046511627907","black","no","legacy","legacy","legacy","0","uniform","1","undefined","undefined","undefined","1","f","0","0","0","0","85","0","0","0","85","0","81","85","81","0","81","3","85","0","85","Wed Feb 17 11:19:16 2021","The main experiment item","yes","Lexical_Decision_Task.osexp","C:/Users/sophh/Documents/Uni/Second Year/CaL/Assignment","no","Andale Mono","no","18","no","white","no","yes","576","legacy","81","81","3","C:/Users/sophh/Documents/Uni/Second Year/CaL/Assignment/subject-5200505.csv","legacy","Lentiform Loewenfeld","3.3.7","yes","yes","600bd7cfb6416f0113b04181","602110864497cf011d9c0822","0","f","NA","j","c","c","j","f","787","NA","4183","39068","282","14517","787","2","legacy","1024","2","48000","-16","task","5200505","odd","NA","58802","64988","60804","250403","5954","45312","45028","250906","168519","250400","250906","250252","64988","251696","56690","249752","5930","227481","Lexical Decision Task","78","78436","86","yes","1024"
"3.225825991","0","7","talm","non-word","90.80459770114942","90.80459770114942","909.183908045977","909.183908045977","black","no","legacy","legacy","legacy","0","uniform","1","undefined","undefined","undefined","1","f","0","0","0","0","86","0","0","0","86","0","82","86","82","0","82","3","86","0","86","Wed Feb 17 11:19:16 2021","The main experiment item","yes","Lexical_Decision_Task.osexp","C:/Users/sophh/Documents/Uni/Second Year/CaL/Assignment","no","Andale Mono","no","18","no","white","no","yes","576","legacy","82","82","3","C:/Users/sophh/Documents/Uni/Second Year/CaL/Assignment/subject-5200505.csv","legacy","Lentiform Loewenfeld","3.3.7","yes","yes","600bd7cfb6416f0113b04181","602110864497cf011d9c0822","0","f","NA","j","c","c","j","f","663","NA","4183","39068","282","14517","663","2","legacy","1024","2","48000","-16","task","5200505","odd","NA","58802","64988","60804","252347","5954","45312","45028","252849","168519","252345","252850","252204","64988","253515","56690","251704","5930","227481","Lexical Decision Task","79","79099","87","yes","1024"
"3.195807436","0","6","stup","non-word","90.9090909090909","90.9090909090909","906.1136363636364","906.1136363636364","black","no","legacy","legacy","legacy","0","uniform","1","undefined","undefined","undefined","1","f","0","0","0","0","87","0","0","0","87","0","83","87","83","0","83","3","87","0","87","Wed Feb 17 11:19:16 2021","The main experiment item","yes","Lexical_Decision_Task.osexp","C:/Users/sophh/Documents/Uni/Second Year/CaL/Assignment","no","Andale Mono","no","18","no","white","no","yes","576","legacy","83","83","3","C:/Users/sophh/Documents/Uni/Second Year/CaL/Assignment/subject-5200505.csv","legacy","Lentiform Loewenfeld","3.3.7","yes","yes","600bd7cfb6416f0113b04181","602110864497cf011d9c0822","0","f","NA","j","c","c","j","f","639","NA","4183","39068","282","14517","639","2","legacy","1024","2","48000","-16","task","5200505","odd","NA","58802","64988","60804","254167","5954","45312","45028","254669","168519","254165","254670","254025","64988","255312","56690","253525","5930","227481","Lexical Decision Task","80","79738","88","yes","1024"
"2.95456409","0","4","taud","non-word","91.01123595505618","91.01123595505618","904.3258426966293","904.3258426966293","black","no","legacy","legacy","legacy","0","uniform","1","undefined","undefined","undefined","1","f","0","0","0","0","88","0","0","0","88","0","84","88","84","0","84","3","88","0","88","Wed Feb 17 11:19:16 2021","The main experiment item","yes","Lexical_Decision_Task.osexp","C:/Users/sophh/Documents/Uni/Second Year/CaL/Assignment","no","Andale Mono","no","18","no","white","no","yes","576","legacy","84","84","3","C:/Users/sophh/Documents/Uni/Second Year/CaL/Assignment/subject-5200505.csv","legacy","Lentiform Loewenfeld","3.3.7","yes","yes","600bd7cfb6416f0113b04181","602110864497cf011d9c0822","0","f","NA","j","c","c","j","f","747","NA","4183","39068","282","14517","747","2","legacy","1024","2","48000","-16","task","5200505","odd","NA","58802","64988","60804","255991","5954","45312","45028","256493","168519","255987","256494","255822","64988","257244","56690","255322","5930","227481","Lexical Decision Task","81","80485","89","yes","1024"
"3.316948329","0","1","besc","non-word","91.11111111111111","91.11111111111111","900.5555555555555","900.5555555555555","black","no","legacy","legacy","legacy","0","uniform","1","undefined","undefined","undefined","1","f","0","0","0","0","89","0","0","0","89","0","85","89","85","0","85","3","89","0","89","Wed Feb 17 11:19:16 2021","The main experiment item","yes","Lexical_Decision_Task.osexp","C:/Users/sophh/Documents/Uni/Second Year/CaL/Assignment","no","Andale Mono","no","18","no","white","no","yes","576","legacy","85","85","3","C:/Users/sophh/Documents/Uni/Second Year/CaL/Assignment/subject-5200505.csv","legacy","Lentiform Loewenfeld","3.3.7","yes","yes","600bd7cfb6416f0113b04181","602110864497cf011d9c0822","0","f","NA","j","c","c","j","f","565","NA","4183","39068","282","14517","565","2","legacy","1024","2","48000","-16","task","5200505","odd","NA","58802","64988","60804","257907","5954","45312","45028","258411","168519","257905","258411","257753","64988","258980","56690","257253","5930","227481","Lexical Decision Task","82","81050","90","yes","1024"
"2.897810299","0","5","glur","non-word","91.20879120879121","91.20879120879121","898.5714285714286","898.5714285714286","black","no","legacy","legacy","legacy","0","uniform","1","undefined","undefined","undefined","1","f","0","0","0","0","90","0","0","0","90","0","86","90","86","0","86","3","90","0","90","Wed Feb 17 11:19:16 2021","The main experiment item","yes","Lexical_Decision_Task.osexp","C:/Users/sophh/Documents/Uni/Second Year/CaL/Assignment","no","Andale Mono","no","18","no","white","no","yes","576","legacy","86","86","3","C:/Users/sophh/Documents/Uni/Second Year/CaL/Assignment/subject-5200505.csv","legacy","Lentiform Loewenfeld","3.3.7","yes","yes","600bd7cfb6416f0113b04181","602110864497cf011d9c0822","0","f","NA","j","c","c","j","f","720","NA","4183","39068","282","14517","720","2","legacy","1024","2","48000","-16","task","5200505","odd","NA","58802","64988","60804","259618","5954","45312","45028","260120","168519","259616","260121","259488","64988","260843","56690","258988","5930","227481","Lexical Decision Task","83","81770","91","yes","1024"
"3.165936429","0","7","leps","non-word","91.30434782608695","91.30434782608695","895.445652173913","895.445652173913","black","no","legacy","legacy","legacy","0","uniform","1","undefined","undefined","undefined","1","f","0","0","0","0","91","0","0","0","91","0","87","91","87","0","87","3","91","0","91","Wed Feb 17 11:19:16 2021","The main experiment item","yes","Lexical_Decision_Task.osexp","C:/Users/sophh/Documents/Uni/Second Year/CaL/Assignment","no","Andale Mono","no","18","no","white","no","yes","576","legacy","87","87","3","C:/Users/sophh/Documents/Uni/Second Year/CaL/Assignment/subject-5200505.csv","legacy","Lentiform Loewenfeld","3.3.7","yes","yes","600bd7cfb6416f0113b04181","602110864497cf011d9c0822","0","f","NA","j","c","c","j","f","611","NA","4183","39068","282","14517","611","2","legacy","1024","2","48000","-16","task","5200505","odd","NA","58802","64988","60804","261484","5954","45312","45028","261987","168519","261482","261988","261352","64988","262603","56690","260852","5930","227481","Lexical Decision Task","84","82381","92","yes","1024"
"3.366547468","0","6","plat","non-word","91.39784946236558","91.39784946236558","890.8709677419355","890.8709677419355","black","no","legacy","legacy","legacy","0","uniform","1","undefined","undefined","undefined","1","f","0","0","0","0","92","0","0","0","92","0","88","92","88","0","88","3","92","0","92","Wed Feb 17 11:19:16 2021","The main experiment item","yes","Lexical_Decision_Task.osexp","C:/Users/sophh/Documents/Uni/Second Year/CaL/Assignment","no","Andale Mono","no","18","no","white","no","yes","576","legacy","88","88","3","C:/Users/sophh/Documents/Uni/Second Year/CaL/Assignment/subject-5200505.csv","legacy","Lentiform Loewenfeld","3.3.7","yes","yes","600bd7cfb6416f0113b04181","602110864497cf011d9c0822","0","f","NA","j","c","c","j","f","470","NA","4183","39068","282","14517","470","2","legacy","1024","2","48000","-16","task","5200505","odd","NA","58802","64988","60804","263253","5954","45312","45028","263755","168519","263251","263755","263111","64988","264229","56690","262611","5930","227481","Lexical Decision Task","85","82851","93","yes","1024"
"2.8162413","0","5","nusk","non-word","91.48936170212765","91.48936170212765","888.2340425531914","888.2340425531914","black","no","legacy","legacy","legacy","0","uniform","1","undefined","undefined","undefined","1","f","0","0","0","0","93","0","0","0","93","0","89","93","89","0","89","3","93","0","93","Wed Feb 17 11:19:16 2021","The main experiment item","yes","Lexical_Decision_Task.osexp","C:/Users/sophh/Documents/Uni/Second Year/CaL/Assignment","no","Andale Mono","no","18","no","white","no","yes","576","legacy","89","89","3","C:/Users/sophh/Documents/Uni/Second Year/CaL/Assignment/subject-5200505.csv","legacy","Lentiform Loewenfeld","3.3.7","yes","yes","600bd7cfb6416f0113b04181","602110864497cf011d9c0822","0","f","NA","j","c","c","j","f","643","NA","4183","39068","282","14517","643","2","legacy","1024","2","48000","-16","task","5200505","odd","NA","58802","64988","60804","264899","5954","45312","45028","265401","168519","264897","265403","264739","64988","266049","56690","264238","5930","227481","Lexical Decision Task","86","83494","94","yes","1024"
"3.120135028","0","3","vals","non-word","91.57894736842105","91.57894736842105","883.5157894736842","883.5157894736842","black","no","legacy","legacy","legacy","0","uniform","1","undefined","undefined","undefined","1","f","0","0","0","0","94","0","0","0","94","0","90","94","90","0","90","3","94","0","94","Wed Feb 17 11:19:16 2021","The main experiment item","yes","Lexical_Decision_Task.osexp","C:/Users/sophh/Documents/Uni/Second Year/CaL/Assignment","no","Andale Mono","no","18","no","white","no","yes","576","legacy","90","90","3","C:/Users/sophh/Documents/Uni/Second Year/CaL/Assignment/subject-5200505.csv","legacy","Lentiform Loewenfeld","3.3.7","yes","yes","600bd7cfb6416f0113b04181","602110864497cf011d9c0822","0","f","NA","j","c","c","j","f","440","NA","4183","39068","282","14517","440","2","legacy","1024","2","48000","-16","task","5200505","odd","NA","58802","64988","60804","266692","5954","45312","45028","267194","168519","266689","267194","266559","64988","267637","56690","266059","5930","227481","Lexical Decision Task","87","83934","95","yes","1024"
"3.120025233","0","2","nyst","non-word","91.66666666666667","91.66666666666667","878.5833333333334","878.5833333333334","black","no","legacy","legacy","legacy","0","uniform","1","undefined","undefined","undefined","1","f","0","0","0","0","95","0","0","0","95","0","91","95","91","0","91","3","95","0","95","Wed Feb 17 11:19:16 2021","The main experiment item","yes","Lexical_Decision_Task.osexp","C:/Users/sophh/Documents/Uni/Second Year/CaL/Assignment","no","Andale Mono","no","18","no","white","no","yes","576","legacy","91","91","3","C:/Users/sophh/Documents/Uni/Second Year/CaL/Assignment/subject-5200505.csv","legacy","Lentiform Loewenfeld","3.3.7","yes","yes","600bd7cfb6416f0113b04181","602110864497cf011d9c0822","0","f","NA","j","c","c","j","f","410","NA","4183","39068","282","14517","410","2","legacy","1024","2","48000","-16","task","5200505","odd","NA","58802","64988","60804","268281","5954","45312","45028","268784","168519","268277","268785","268146","64988","269197","56690","267646","5930","227481","Lexical Decision Task","88","84344","96","yes","1024"
