"Log_BG","Log_Freq_HAL","Ortho_N","Stimulus","Type","acc","accuracy","average_response_time","avg_rt","background","bidi","canvas_backend","clock_backend","color_backend","compensation","coordinates","correct","correct_Experimental_intro","correct_Introduction","correct_Practice_intro","correct_experimenter_kb","correct_response","count_End_Of_Experiment","count_End_Of_Practice","count_Experimental_Loop","count_Experimental_intro","count_Fixation","count_Introduction","count_Practice_Loop","count_Practice_intro","count_Stimulus","count_block_break_feedback","count_experimental_sequence","count_experimenter_kb","count_increment_trial_count","count_init_trial_count","count_logger","count_practice_sequence","count_right","count_task","count_wrong","datetime","description","disable_garbage_collection","experiment_file","experiment_path","font_bold","font_family","font_italic","font_size","font_underline","foreground","form_clicks","fullscreen","height","keyboard_backend","live_row","live_row_Experimental_Loop","live_row_Practice_Loop","logfile","mouse_backend","opensesame_codename","opensesame_version","osf_always_upload_data","osf_always_upload_experiment","osf_datanode_id","osf_id","repeat_cycle","response","response_End_Of_Experiment","response_Experimental_intro","response_Introduction","response_Practice_intro","response_block_break_feedback","response_experimenter_kb","response_time","response_time_End_Of_Experiment","response_time_Experimental_intro","response_time_Introduction","response_time_Practice_intro","response_time_block_break_feedback","response_time_experimenter_kb","round_decimals","sampler_backend","sound_buf_size","sound_channels","sound_freq","sound_sample_size","start","subject_nr","subject_parity","time_End_Of_Experiment","time_End_Of_Practice","time_Experimental_Loop","time_Experimental_intro","time_Fixation","time_Introduction","time_Practice_Loop","time_Practice_intro","time_Stimulus","time_block_break_feedback","time_experimental_sequence","time_experimenter_kb","time_increment_trial_count","time_init_trial_count","time_logger","time_practice_sequence","time_right","time_task","time_wrong","title","total_correct","total_response_time","total_responses","uniform_coordinates","width"
"3.529815197","0","3","lerm","non-word","100","100","968.2","968.2","black","no","legacy","legacy","legacy","0","uniform","1","undefined","undefined","undefined","1","f","0","0","0","0","4","0","0","0","4","NA","0","4","0","0","0","3","4","0","4","Wed Feb 17 12:00:31 2021","The main experiment item","yes","Lexical_Decision_Task.osexp","/Users/skyestreeter/Documents/UNI/YR2TRM2/CaL","no","Andale Mono","no","18","no","white","no","yes","576","legacy","0","0","3","/Users/skyestreeter/Documents/UNI/YR2TRM2/CaL/subject-5211137.csv","legacy","Lentiform Loewenfeld","3.3.7","yes","yes","600bd7cfb6416f0113b04181","602110864497cf011d9c0822","0","f","NA","space","space","space","NA","f","1201","NA","3156","10568","4456","NA","1201","2","legacy","1024","2","48000","-16","task","5211137","odd","NA","27613","32771","29615","32795","4722","19760","15301","33298","NA","32792","33298","NA","32771","34500","26050","27091","4679","NA","Lexical Decision Task","5","4841","5","yes","1024"
"3.282244367","0","6","fute","non-word","100","100","910.5","910.5","black","no","legacy","legacy","legacy","0","uniform","1","undefined","undefined","undefined","1","f","0","0","0","0","5","0","0","0","5","NA","1","5","1","0","1","3","5","0","5","Wed Feb 17 12:00:31 2021","The main experiment item","yes","Lexical_Decision_Task.osexp","/Users/skyestreeter/Documents/UNI/YR2TRM2/CaL","no","Andale Mono","no","18","no","white","no","yes","576","legacy","1","1","3","/Users/skyestreeter/Documents/UNI/YR2TRM2/CaL/subject-5211137.csv","legacy","Lentiform Loewenfeld","3.3.7","yes","yes","600bd7cfb6416f0113b04181","602110864497cf011d9c0822","0","f","NA","space","space","space","NA","f","622","NA","3156","10568","4456","NA","622","2","legacy","1024","2","48000","-16","task","5211137","odd","NA","27613","32771","29615","35053","4722","19760","15301","35556","NA","35050","35556","35007","32771","36179","26050","34507","4679","NA","Lexical Decision Task","6","5463","6","yes","1024"
"2.69019608","9.01","2","myth","word","100","100","846.1428571428571","846.1428571428571","black","no","legacy","legacy","legacy","0","uniform","1","undefined","undefined","undefined","1","j","0","0","0","0","6","0","0","0","6","NA","2","6","2","0","2","3","6","0","6","Wed Feb 17 12:00:31 2021","The main experiment item","yes","Lexical_Decision_Task.osexp","/Users/skyestreeter/Documents/UNI/YR2TRM2/CaL","no","Andale Mono","no","18","no","white","no","yes","576","legacy","2","2","3","/Users/skyestreeter/Documents/UNI/YR2TRM2/CaL/subject-5211137.csv","legacy","Lentiform Loewenfeld","3.3.7","yes","yes","600bd7cfb6416f0113b04181","602110864497cf011d9c0822","0","j","NA","space","space","space","NA","j","460","NA","3156","10568","4456","NA","460","2","legacy","1024","2","48000","-16","task","5211137","odd","NA","27613","32771","29615","36725","4722","19760","15301","37229","NA","36723","37229","36683","32771","37690","26050","36183","4679","NA","Lexical Decision Task","7","5923","7","yes","1024"
"3.120135028","0","3","vals","non-word","100","100","820.25","820.25","black","no","legacy","legacy","legacy","0","uniform","1","undefined","undefined","undefined","1","f","0","0","0","0","7","0","0","0","7","NA","3","7","3","0","3","3","7","0","7","Wed Feb 17 12:00:31 2021","The main experiment item","yes","Lexical_Decision_Task.osexp","/Users/skyestreeter/Documents/UNI/YR2TRM2/CaL","no","Andale Mono","no","18","no","white","no","yes","576","legacy","3","3","3","/Users/skyestreeter/Documents/UNI/YR2TRM2/CaL/subject-5211137.csv","legacy","Lentiform Loewenfeld","3.3.7","yes","yes","600bd7cfb6416f0113b04181","602110864497cf011d9c0822","0","f","NA","space","space","space","NA","f","639","NA","3156","10568","4456","NA","639","2","legacy","1024","2","48000","-16","task","5211137","odd","NA","27613","32771","29615","38236","4722","19760","15301","38740","NA","38233","38740","38194","32771","39380","26050","37694","4679","NA","Lexical Decision Task","8","6562","8","yes","1024"
"3.366547468","0","6","plat","non-word","100","100","796.8888888888889","796.8888888888889","black","no","legacy","legacy","legacy","0","uniform","1","undefined","undefined","undefined","1","f","0","0","0","0","8","0","0","0","8","NA","4","8","4","0","4","3","8","0","8","Wed Feb 17 12:00:31 2021","The main experiment item","yes","Lexical_Decision_Task.osexp","/Users/skyestreeter/Documents/UNI/YR2TRM2/CaL","no","Andale Mono","no","18","no","white","no","yes","576","legacy","4","4","3","/Users/skyestreeter/Documents/UNI/YR2TRM2/CaL/subject-5211137.csv","legacy","Lentiform Loewenfeld","3.3.7","yes","yes","600bd7cfb6416f0113b04181","602110864497cf011d9c0822","0","f","NA","space","space","space","NA","f","610","NA","3156","10568","4456","NA","610","2","legacy","1024","2","48000","-16","task","5211137","odd","NA","27613","32771","29615","39927","4722","19760","15301","40432","NA","39924","40432","39884","32771","41043","26050","39384","4679","NA","Lexical Decision Task","9","7172","9","yes","1024"
"3.257359335","8","6","brew","word","100","100","771","771","black","no","legacy","legacy","legacy","0","uniform","1","undefined","undefined","undefined","1","j","0","0","0","0","9","0","0","0","9","NA","5","9","5","0","5","3","9","0","9","Wed Feb 17 12:00:31 2021","The main experiment item","yes","Lexical_Decision_Task.osexp","/Users/skyestreeter/Documents/UNI/YR2TRM2/CaL","no","Andale Mono","no","18","no","white","no","yes","576","legacy","5","5","3","/Users/skyestreeter/Documents/UNI/YR2TRM2/CaL/subject-5211137.csv","legacy","Lentiform Loewenfeld","3.3.7","yes","yes","600bd7cfb6416f0113b04181","602110864497cf011d9c0822","0","j","NA","space","space","space","NA","j","538","NA","3156","10568","4456","NA","538","2","legacy","1024","2","48000","-16","task","5211137","odd","NA","27613","32771","29615","41588","4722","19760","15301","42090","NA","41586","42090","41546","32771","42629","26050","41046","4679","NA","Lexical Decision Task","10","7710","10","yes","1024"
"2.705007959","6.01","4","wept","word","100","100","762.0909090909091","762.0909090909091","black","no","legacy","legacy","legacy","0","uniform","1","undefined","undefined","undefined","1","j","0","0","0","0","10","0","0","0","10","NA","6","10","6","0","6","3","10","0","10","Wed Feb 17 12:00:31 2021","The main experiment item","yes","Lexical_Decision_Task.osexp","/Users/skyestreeter/Documents/UNI/YR2TRM2/CaL","no","Andale Mono","no","18","no","white","no","yes","576","legacy","6","6","3","/Users/skyestreeter/Documents/UNI/YR2TRM2/CaL/subject-5211137.csv","legacy","Lentiform Loewenfeld","3.3.7","yes","yes","600bd7cfb6416f0113b04181","602110864497cf011d9c0822","0","j","NA","space","space","space","NA","j","673","NA","3156","10568","4456","NA","673","2","legacy","1024","2","48000","-16","task","5211137","odd","NA","27613","32771","29615","43174","4722","19760","15301","43676","NA","43172","43676","43133","32771","44350","26050","42633","4679","NA","Lexical Decision Task","11","8383","11","yes","1024"
"2.880623071","0","9","curp","non-word","100","100","748.4166666666666","748.4166666666666","black","no","legacy","legacy","legacy","0","uniform","1","undefined","undefined","undefined","1","f","0","0","0","0","11","0","0","0","11","NA","7","11","7","0","7","3","11","0","11","Wed Feb 17 12:00:31 2021","The main experiment item","yes","Lexical_Decision_Task.osexp","/Users/skyestreeter/Documents/UNI/YR2TRM2/CaL","no","Andale Mono","no","18","no","white","no","yes","576","legacy","7","7","3","/Users/skyestreeter/Documents/UNI/YR2TRM2/CaL/subject-5211137.csv","legacy","Lentiform Loewenfeld","3.3.7","yes","yes","600bd7cfb6416f0113b04181","602110864497cf011d9c0822","0","f","NA","space","space","space","NA","f","598","NA","3156","10568","4456","NA","598","2","legacy","1024","2","48000","-16","task","5211137","odd","NA","27613","32771","29615","44896","4722","19760","15301","45398","NA","44893","45398","44854","32771","45996","26050","44354","4679","NA","Lexical Decision Task","12","8981","12","yes","1024"
"3.209246849","0","7","slem","non-word","100","100","736.0769230769231","736.0769230769231","black","no","legacy","legacy","legacy","0","uniform","1","undefined","undefined","undefined","1","f","0","0","0","0","12","0","0","0","12","NA","8","12","8","0","8","3","12","0","12","Wed Feb 17 12:00:31 2021","The main experiment item","yes","Lexical_Decision_Task.osexp","/Users/skyestreeter/Documents/UNI/YR2TRM2/CaL","no","Andale Mono","no","18","no","white","no","yes","576","legacy","8","8","3","/Users/skyestreeter/Documents/UNI/YR2TRM2/CaL/subject-5211137.csv","legacy","Lentiform Loewenfeld","3.3.7","yes","yes","600bd7cfb6416f0113b04181","602110864497cf011d9c0822","0","f","NA","space","space","space","NA","f","588","NA","3156","10568","4456","NA","588","2","legacy","1024","2","48000","-16","task","5211137","odd","NA","27613","32771","29615","46545","4722","19760","15301","47047","NA","46541","47047","46501","32771","47635","26050","46001","4679","NA","Lexical Decision Task","13","9569","13","yes","1024"
"2.845304797","0","6","buct","non-word","100","100","720.7142857142857","720.7142857142857","black","no","legacy","legacy","legacy","0","uniform","1","undefined","undefined","undefined","1","f","0","0","0","0","13","0","0","0","13","NA","9","13","9","0","9","3","13","0","13","Wed Feb 17 12:00:31 2021","The main experiment item","yes","Lexical_Decision_Task.osexp","/Users/skyestreeter/Documents/UNI/YR2TRM2/CaL","no","Andale Mono","no","18","no","white","no","yes","576","legacy","9","9","3","/Users/skyestreeter/Documents/UNI/YR2TRM2/CaL/subject-5211137.csv","legacy","Lentiform Loewenfeld","3.3.7","yes","yes","600bd7cfb6416f0113b04181","602110864497cf011d9c0822","0","f","NA","space","space","space","NA","f","521","NA","3156","10568","4456","NA","521","2","legacy","1024","2","48000","-16","task","5211137","odd","NA","27613","32771","29615","48182","4722","19760","15301","48685","NA","48179","48685","48140","32771","49206","26050","47640","4679","NA","Lexical Decision Task","14","10090","14","yes","1024"
"2.778633532","0","3","jurp","non-word","100","100","710.2","710.2","black","no","legacy","legacy","legacy","0","uniform","1","undefined","undefined","undefined","1","f","0","0","0","0","14","0","0","0","14","NA","10","14","10","0","10","3","14","0","14","Wed Feb 17 12:00:31 2021","The main experiment item","yes","Lexical_Decision_Task.osexp","/Users/skyestreeter/Documents/UNI/YR2TRM2/CaL","no","Andale Mono","no","18","no","white","no","yes","576","legacy","10","10","3","/Users/skyestreeter/Documents/UNI/YR2TRM2/CaL/subject-5211137.csv","legacy","Lentiform Loewenfeld","3.3.7","yes","yes","600bd7cfb6416f0113b04181","602110864497cf011d9c0822","0","f","NA","space","space","space","NA","f","563","NA","3156","10568","4456","NA","563","2","legacy","1024","2","48000","-16","task","5211137","odd","NA","27613","32771","29615","49755","4722","19760","15301","50257","NA","49751","50257","49711","32771","50821","26050","49211","4679","NA","Lexical Decision Task","15","10653","15","yes","1024"
"2.713490543","0","3","feps","non-word","100","100","694.375","694.375","black","no","legacy","legacy","legacy","0","uniform","1","undefined","undefined","undefined","1","f","0","0","0","0","15","0","0","0","15","NA","11","15","11","0","11","3","15","0","15","Wed Feb 17 12:00:31 2021","The main experiment item","yes","Lexical_Decision_Task.osexp","/Users/skyestreeter/Documents/UNI/YR2TRM2/CaL","no","Andale Mono","no","18","no","white","no","yes","576","legacy","11","11","3","/Users/skyestreeter/Documents/UNI/YR2TRM2/CaL/subject-5211137.csv","legacy","Lentiform Loewenfeld","3.3.7","yes","yes","600bd7cfb6416f0113b04181","602110864497cf011d9c0822","0","f","NA","space","space","space","NA","f","457","NA","3156","10568","4456","NA","457","2","legacy","1024","2","48000","-16","task","5211137","odd","NA","27613","32771","29615","51368","4722","19760","15301","51870","NA","51364","51870","51325","32771","52327","26050","50825","4679","NA","Lexical Decision Task","16","11110","16","yes","1024"
"2.664328519","0","4","plux","non-word","100","100","688","688","black","no","legacy","legacy","legacy","0","uniform","1","undefined","undefined","undefined","1","f","0","0","0","0","16","0","0","0","16","NA","12","16","12","0","12","3","16","0","16","Wed Feb 17 12:00:31 2021","The main experiment item","yes","Lexical_Decision_Task.osexp","/Users/skyestreeter/Documents/UNI/YR2TRM2/CaL","no","Andale Mono","no","18","no","white","no","yes","576","legacy","12","12","3","/Users/skyestreeter/Documents/UNI/YR2TRM2/CaL/subject-5211137.csv","legacy","Lentiform Loewenfeld","3.3.7","yes","yes","600bd7cfb6416f0113b04181","602110864497cf011d9c0822","0","f","NA","space","space","space","NA","f","586","NA","3156","10568","4456","NA","586","2","legacy","1024","2","48000","-16","task","5211137","odd","NA","27613","32771","29615","52874","4722","19760","15301","53377","NA","52871","53377","52832","32771","53963","26050","52332","4679","NA","Lexical Decision Task","17","11696","17","yes","1024"
"2.980306438","0","7","slun","non-word","100","100","679.2222222222222","679.2222222222222","black","no","legacy","legacy","legacy","0","uniform","1","undefined","undefined","undefined","1","f","0","0","0","0","17","0","0","0","17","NA","13","17","13","0","13","3","17","0","17","Wed Feb 17 12:00:31 2021","The main experiment item","yes","Lexical_Decision_Task.osexp","/Users/skyestreeter/Documents/UNI/YR2TRM2/CaL","no","Andale Mono","no","18","no","white","no","yes","576","legacy","13","13","3","/Users/skyestreeter/Documents/UNI/YR2TRM2/CaL/subject-5211137.csv","legacy","Lentiform Loewenfeld","3.3.7","yes","yes","600bd7cfb6416f0113b04181","602110864497cf011d9c0822","0","f","NA","space","space","space","NA","f","530","NA","3156","10568","4456","NA","530","2","legacy","1024","2","48000","-16","task","5211137","odd","NA","27613","32771","29615","54511","4722","19760","15301","55013","NA","54508","55014","54468","32771","55544","26050","53968","4679","NA","Lexical Decision Task","18","12226","18","yes","1024"
"3.269668578","0","7","trag","non-word","100","100","672.8421052631579","672.8421052631579","black","no","legacy","legacy","legacy","0","uniform","1","undefined","undefined","undefined","1","f","0","0","0","0","18","0","0","0","18","NA","14","18","14","0","14","3","18","0","18","Wed Feb 17 12:00:31 2021","The main experiment item","yes","Lexical_Decision_Task.osexp","/Users/skyestreeter/Documents/UNI/YR2TRM2/CaL","no","Andale Mono","no","18","no","white","no","yes","576","legacy","14","14","3","/Users/skyestreeter/Documents/UNI/YR2TRM2/CaL/subject-5211137.csv","legacy","Lentiform Loewenfeld","3.3.7","yes","yes","600bd7cfb6416f0113b04181","602110864497cf011d9c0822","0","f","NA","space","space","space","NA","f","558","NA","3156","10568","4456","NA","558","2","legacy","1024","2","48000","-16","task","5211137","odd","NA","27613","32771","29615","56093","4722","19760","15301","56596","NA","56089","56596","56050","32771","57154","26050","55549","4679","NA","Lexical Decision Task","19","12784","19","yes","1024"
"2.803231716","5.26","3","kiln","word","100","100","673.9","673.9","black","no","legacy","legacy","legacy","0","uniform","1","undefined","undefined","undefined","1","j","0","0","0","0","19","0","0","0","19","NA","15","19","15","0","15","3","19","0","19","Wed Feb 17 12:00:31 2021","The main experiment item","yes","Lexical_Decision_Task.osexp","/Users/skyestreeter/Documents/UNI/YR2TRM2/CaL","no","Andale Mono","no","18","no","white","no","yes","576","legacy","15","15","3","/Users/skyestreeter/Documents/UNI/YR2TRM2/CaL/subject-5211137.csv","legacy","Lentiform Loewenfeld","3.3.7","yes","yes","600bd7cfb6416f0113b04181","602110864497cf011d9c0822","0","j","NA","space","space","space","NA","j","694","NA","3156","10568","4456","NA","694","2","legacy","1024","2","48000","-16","task","5211137","odd","NA","27613","32771","29615","57705","4722","19760","15301","58208","NA","57700","58209","57660","32771","58903","26050","57159","4679","NA","Lexical Decision Task","20","13478","20","yes","1024"
"2.80048796","0","8","pife","non-word","100","100","669.8571428571429","669.8571428571429","black","no","legacy","legacy","legacy","0","uniform","1","undefined","undefined","undefined","1","f","0","0","0","0","20","0","0","0","20","NA","16","20","16","0","16","3","20","0","20","Wed Feb 17 12:00:31 2021","The main experiment item","yes","Lexical_Decision_Task.osexp","/Users/skyestreeter/Documents/UNI/YR2TRM2/CaL","no","Andale Mono","no","18","no","white","no","yes","576","legacy","16","16","3","/Users/skyestreeter/Documents/UNI/YR2TRM2/CaL/subject-5211137.csv","legacy","Lentiform Loewenfeld","3.3.7","yes","yes","600bd7cfb6416f0113b04181","602110864497cf011d9c0822","0","f","NA","space","space","space","NA","f","589","NA","3156","10568","4456","NA","589","2","legacy","1024","2","48000","-16","task","5211137","odd","NA","27613","32771","29615","59449","4722","19760","15301","59951","NA","59447","59951","59408","32771","60541","26050","58908","4679","NA","Lexical Decision Task","21","14067","21","yes","1024"
"2.668385917","5.48","4","twig","word","100","100","667.4545454545455","667.4545454545455","black","no","legacy","legacy","legacy","0","uniform","1","undefined","undefined","undefined","1","j","0","0","0","0","21","0","0","0","21","NA","17","21","17","0","17","3","21","0","21","Wed Feb 17 12:00:31 2021","The main experiment item","yes","Lexical_Decision_Task.osexp","/Users/skyestreeter/Documents/UNI/YR2TRM2/CaL","no","Andale Mono","no","18","no","white","no","yes","576","legacy","17","17","3","/Users/skyestreeter/Documents/UNI/YR2TRM2/CaL/subject-5211137.csv","legacy","Lentiform Loewenfeld","3.3.7","yes","yes","600bd7cfb6416f0113b04181","602110864497cf011d9c0822","0","j","NA","space","space","space","NA","j","617","NA","3156","10568","4456","NA","617","2","legacy","1024","2","48000","-16","task","5211137","odd","NA","27613","32771","29615","61088","4722","19760","15301","61590","NA","61085","61591","61045","32771","62209","26050","60545","4679","NA","Lexical Decision Task","22","14684","22","yes","1024"
"3.374198258","0","8","vist","non-word","100","100","683.7391304347826","683.7391304347826","black","no","legacy","legacy","legacy","0","uniform","1","undefined","undefined","undefined","1","f","0","0","0","0","22","0","0","0","22","NA","18","22","18","0","18","3","22","0","22","Wed Feb 17 12:00:31 2021","The main experiment item","yes","Lexical_Decision_Task.osexp","/Users/skyestreeter/Documents/UNI/YR2TRM2/CaL","no","Andale Mono","no","18","no","white","no","yes","576","legacy","18","18","3","/Users/skyestreeter/Documents/UNI/YR2TRM2/CaL/subject-5211137.csv","legacy","Lentiform Loewenfeld","3.3.7","yes","yes","600bd7cfb6416f0113b04181","602110864497cf011d9c0822","0","f","NA","space","space","space","NA","f","1042","NA","3156","10568","4456","NA","1042","2","legacy","1024","2","48000","-16","task","5211137","odd","NA","27613","32771","29615","62754","4722","19760","15301","63256","NA","62752","63256","62713","32771","64299","26050","62213","4679","NA","Lexical Decision Task","23","15726","23","yes","1024"
"2.972357144","0","5","dasp","non-word","100","100","677.9583333333334","677.9583333333334","black","no","legacy","legacy","legacy","0","uniform","1","undefined","undefined","undefined","1","f","0","0","0","0","23","0","0","0","23","NA","19","23","19","0","19","3","23","0","23","Wed Feb 17 12:00:31 2021","The main experiment item","yes","Lexical_Decision_Task.osexp","/Users/skyestreeter/Documents/UNI/YR2TRM2/CaL","no","Andale Mono","no","18","no","white","no","yes","576","legacy","19","19","3","/Users/skyestreeter/Documents/UNI/YR2TRM2/CaL/subject-5211137.csv","legacy","Lentiform Loewenfeld","3.3.7","yes","yes","600bd7cfb6416f0113b04181","602110864497cf011d9c0822","0","f","NA","space","space","space","NA","f","545","NA","3156","10568","4456","NA","545","2","legacy","1024","2","48000","-16","task","5211137","odd","NA","27613","32771","29615","64847","4722","19760","15301","65350","NA","64844","65350","64804","32771","65896","26050","64304","4679","NA","Lexical Decision Task","24","16271","24","yes","1024"
"3.495914186","0","4","peng","non-word","96","96","690.16","690.16","black","no","legacy","legacy","legacy","0","uniform","0","undefined","undefined","undefined","0","f","0","0","0","0","24","0","0","0","24","NA","20","24","20","0","20","3","24","0","24","Wed Feb 17 12:00:31 2021","The main experiment item","yes","Lexical_Decision_Task.osexp","/Users/skyestreeter/Documents/UNI/YR2TRM2/CaL","no","Andale Mono","no","18","no","white","no","yes","576","legacy","20","20","3","/Users/skyestreeter/Documents/UNI/YR2TRM2/CaL/subject-5211137.csv","legacy","Lentiform Loewenfeld","3.3.7","yes","yes","600bd7cfb6416f0113b04181","602110864497cf011d9c0822","0","j","NA","space","space","space","NA","j","983","NA","3156","10568","4456","NA","983","2","legacy","1024","2","48000","-16","task","5211137","odd","NA","27613","32771","29615","66443","4722","19760","15301","66946","NA","66440","66946","66400","32771","67930","26050","65900","4679","NA","Lexical Decision Task","24","17254","25","yes","1024"
"3.028977705","0","7","frow","non-word","96.15384615384616","96.15384615384616","688.7307692307693","688.7307692307693","black","no","legacy","legacy","legacy","0","uniform","1","undefined","undefined","undefined","1","f","0","0","0","0","25","0","0","0","25","NA","21","25","21","0","21","3","25","0","25","Wed Feb 17 12:00:31 2021","The main experiment item","yes","Lexical_Decision_Task.osexp","/Users/skyestreeter/Documents/UNI/YR2TRM2/CaL","no","Andale Mono","no","18","no","white","no","yes","576","legacy","21","21","3","/Users/skyestreeter/Documents/UNI/YR2TRM2/CaL/subject-5211137.csv","legacy","Lentiform Loewenfeld","3.3.7","yes","yes","600bd7cfb6416f0113b04181","602110864497cf011d9c0822","0","f","NA","space","space","space","NA","f","653","NA","3156","10568","4456","NA","653","2","legacy","1024","2","48000","-16","task","5211137","odd","NA","27613","32771","29615","69478","4722","19760","15301","69980","NA","69475","69980","69434","32771","70634","26050","65900","4679","67934","Lexical Decision Task","25","17907","26","yes","1024"
"2.693726949","5.08","3","swig","word","96.29629629629629","96.29629629629629","690.5555555555555","690.5555555555555","black","no","legacy","legacy","legacy","0","uniform","1","undefined","undefined","undefined","1","j","0","0","0","0","26","0","0","0","26","NA","22","26","22","0","22","3","26","0","26","Wed Feb 17 12:00:31 2021","The main experiment item","yes","Lexical_Decision_Task.osexp","/Users/skyestreeter/Documents/UNI/YR2TRM2/CaL","no","Andale Mono","no","18","no","white","no","yes","576","legacy","22","22","3","/Users/skyestreeter/Documents/UNI/YR2TRM2/CaL/subject-5211137.csv","legacy","Lentiform Loewenfeld","3.3.7","yes","yes","600bd7cfb6416f0113b04181","602110864497cf011d9c0822","0","j","NA","space","space","space","NA","j","738","NA","3156","10568","4456","NA","738","2","legacy","1024","2","48000","-16","task","5211137","odd","NA","27613","32771","29615","71180","4722","19760","15301","71683","NA","71177","71683","71138","32771","72422","26050","70638","4679","67934","Lexical Decision Task","26","18645","27","yes","1024"
"3.131833513","7.66","4","limb","word","96.42857142857143","96.42857142857143","686.3214285714286","686.3214285714286","black","no","legacy","legacy","legacy","0","uniform","1","undefined","undefined","undefined","1","j","0","0","0","0","27","0","0","0","27","NA","23","27","23","0","23","3","27","0","27","Wed Feb 17 12:00:31 2021","The main experiment item","yes","Lexical_Decision_Task.osexp","/Users/skyestreeter/Documents/UNI/YR2TRM2/CaL","no","Andale Mono","no","18","no","white","no","yes","576","legacy","23","23","3","/Users/skyestreeter/Documents/UNI/YR2TRM2/CaL/subject-5211137.csv","legacy","Lentiform Loewenfeld","3.3.7","yes","yes","600bd7cfb6416f0113b04181","602110864497cf011d9c0822","0","j","NA","space","space","space","NA","j","572","NA","3156","10568","4456","NA","572","2","legacy","1024","2","48000","-16","task","5211137","odd","NA","27613","32771","29615","72971","4722","19760","15301","73473","NA","72969","73473","72930","32771","74046","26050","72429","4679","67934","Lexical Decision Task","27","19217","28","yes","1024"
"3.090140555","5.81","8","pout","word","96.55172413793103","96.55172413793103","688.3448275862069","688.3448275862069","black","no","legacy","legacy","legacy","0","uniform","1","undefined","undefined","undefined","1","j","0","0","0","0","28","0","0","0","28","NA","24","28","24","0","24","3","28","0","28","Wed Feb 17 12:00:31 2021","The main experiment item","yes","Lexical_Decision_Task.osexp","/Users/skyestreeter/Documents/UNI/YR2TRM2/CaL","no","Andale Mono","no","18","no","white","no","yes","576","legacy","24","24","3","/Users/skyestreeter/Documents/UNI/YR2TRM2/CaL/subject-5211137.csv","legacy","Lentiform Loewenfeld","3.3.7","yes","yes","600bd7cfb6416f0113b04181","602110864497cf011d9c0822","0","j","NA","space","space","space","NA","j","745","NA","3156","10568","4456","NA","745","2","legacy","1024","2","48000","-16","task","5211137","odd","NA","27613","32771","29615","74592","4722","19760","15301","75094","NA","74590","75094","74550","32771","75839","26050","74050","4679","67934","Lexical Decision Task","28","19962","29","yes","1024"
"2.990042563","6.64","9","plow","word","96.66666666666667","96.66666666666667","687.9333333333333","687.9333333333333","black","no","legacy","legacy","legacy","0","uniform","1","undefined","undefined","undefined","1","j","0","0","0","0","29","0","0","0","29","NA","25","29","25","0","25","3","29","0","29","Wed Feb 17 12:00:31 2021","The main experiment item","yes","Lexical_Decision_Task.osexp","/Users/skyestreeter/Documents/UNI/YR2TRM2/CaL","no","Andale Mono","no","18","no","white","no","yes","576","legacy","25","25","3","/Users/skyestreeter/Documents/UNI/YR2TRM2/CaL/subject-5211137.csv","legacy","Lentiform Loewenfeld","3.3.7","yes","yes","600bd7cfb6416f0113b04181","602110864497cf011d9c0822","0","j","NA","space","space","space","NA","j","676","NA","3156","10568","4456","NA","676","2","legacy","1024","2","48000","-16","task","5211137","odd","NA","27613","32771","29615","76385","4722","19760","15301","76887","NA","76383","76888","76344","32771","77564","26050","75844","4679","67934","Lexical Decision Task","29","20638","30","yes","1024"
"3.174641193","0","3","ramb","non-word","96.7741935483871","96.7741935483871","689.0967741935484","689.0967741935484","black","no","legacy","legacy","legacy","0","uniform","1","undefined","undefined","undefined","1","f","0","0","0","0","30","0","0","0","30","NA","26","30","26","0","26","3","30","0","30","Wed Feb 17 12:00:31 2021","The main experiment item","yes","Lexical_Decision_Task.osexp","/Users/skyestreeter/Documents/UNI/YR2TRM2/CaL","no","Andale Mono","no","18","no","white","no","yes","576","legacy","26","26","3","/Users/skyestreeter/Documents/UNI/YR2TRM2/CaL/subject-5211137.csv","legacy","Lentiform Loewenfeld","3.3.7","yes","yes","600bd7cfb6416f0113b04181","602110864497cf011d9c0822","0","f","NA","space","space","space","NA","f","724","NA","3156","10568","4456","NA","724","2","legacy","1024","2","48000","-16","task","5211137","odd","NA","27613","32771","29615","78110","4722","19760","15301","78612","NA","78108","78612","78069","32771","79336","26050","77569","4679","67934","Lexical Decision Task","30","21362","31","yes","1024"
"3.397302518","7.01","2","knit","word","96.875","96.875","683.625","683.625","black","no","legacy","legacy","legacy","0","uniform","1","undefined","undefined","undefined","1","j","0","0","0","0","31","0","0","0","31","NA","27","31","27","0","27","3","31","0","31","Wed Feb 17 12:00:31 2021","The main experiment item","yes","Lexical_Decision_Task.osexp","/Users/skyestreeter/Documents/UNI/YR2TRM2/CaL","no","Andale Mono","no","18","no","white","no","yes","576","legacy","27","27","3","/Users/skyestreeter/Documents/UNI/YR2TRM2/CaL/subject-5211137.csv","legacy","Lentiform Loewenfeld","3.3.7","yes","yes","600bd7cfb6416f0113b04181","602110864497cf011d9c0822","0","j","NA","space","space","space","NA","j","514","NA","3156","10568","4456","NA","514","2","legacy","1024","2","48000","-16","task","5211137","odd","NA","27613","32771","29615","79884","4722","19760","15301","80386","NA","79880","80386","79841","32771","80900","26050","79341","4679","67934","Lexical Decision Task","31","21876","32","yes","1024"
"2.809559715","8.44","4","volt","word","93.93939393939394","93.93939393939394","679.8484848484849","679.8484848484849","black","no","legacy","legacy","legacy","0","uniform","0","undefined","undefined","undefined","0","j","0","0","0","0","32","0","0","0","32","NA","28","32","28","0","28","3","32","0","32","Wed Feb 17 12:00:31 2021","The main experiment item","yes","Lexical_Decision_Task.osexp","/Users/skyestreeter/Documents/UNI/YR2TRM2/CaL","no","Andale Mono","no","18","no","white","no","yes","576","legacy","28","28","3","/Users/skyestreeter/Documents/UNI/YR2TRM2/CaL/subject-5211137.csv","legacy","Lentiform Loewenfeld","3.3.7","yes","yes","600bd7cfb6416f0113b04181","602110864497cf011d9c0822","0","f","NA","space","space","space","NA","f","559","NA","3156","10568","4456","NA","559","2","legacy","1024","2","48000","-16","task","5211137","odd","NA","27613","32771","29615","81449","4722","19760","15301","81951","NA","81447","81951","81405","32771","82510","26050","80905","4679","67934","Lexical Decision Task","31","22435","33","yes","1024"
"3.208172527","10.27","7","deck","word","94.11764705882354","94.11764705882354","678.2058823529412","678.2058823529412","black","no","legacy","legacy","legacy","0","uniform","1","undefined","undefined","undefined","1","j","0","0","0","0","33","0","0","0","33","NA","29","33","29","0","29","3","33","0","33","Wed Feb 17 12:00:31 2021","The main experiment item","yes","Lexical_Decision_Task.osexp","/Users/skyestreeter/Documents/UNI/YR2TRM2/CaL","no","Andale Mono","no","18","no","white","no","yes","576","legacy","29","29","3","/Users/skyestreeter/Documents/UNI/YR2TRM2/CaL/subject-5211137.csv","legacy","Lentiform Loewenfeld","3.3.7","yes","yes","600bd7cfb6416f0113b04181","602110864497cf011d9c0822","0","j","NA","space","space","space","NA","j","624","NA","3156","10568","4456","NA","624","2","legacy","1024","2","48000","-16","task","5211137","odd","NA","27613","32771","29615","84060","4722","19760","15301","84562","NA","84057","84562","84015","32771","85187","26050","80905","4679","82515","Lexical Decision Task","32","23059","34","yes","1024"
"3.382617311","0","4","pret","non-word","91.42857142857143","91.42857142857143","690.6285714285714","690.6285714285714","black","no","legacy","legacy","legacy","0","uniform","0","undefined","undefined","undefined","0","f","0","0","0","0","34","0","0","0","34","NA","30","34","30","0","30","3","34","0","34","Wed Feb 17 12:00:31 2021","The main experiment item","yes","Lexical_Decision_Task.osexp","/Users/skyestreeter/Documents/UNI/YR2TRM2/CaL","no","Andale Mono","no","18","no","white","no","yes","576","legacy","30","30","3","/Users/skyestreeter/Documents/UNI/YR2TRM2/CaL/subject-5211137.csv","legacy","Lentiform Loewenfeld","3.3.7","yes","yes","600bd7cfb6416f0113b04181","602110864497cf011d9c0822","0","j","NA","space","space","space","NA","j","1113","NA","3156","10568","4456","NA","1113","2","legacy","1024","2","48000","-16","task","5211137","odd","NA","27613","32771","29615","85732","4722","19760","15301","86234","NA","85730","86234","85691","32771","87347","26050","85191","4679","82515","Lexical Decision Task","32","24172","35","yes","1024"
"3.121778632","0","9","sark","non-word","91.66666666666667","91.66666666666667","684.6666666666666","684.6666666666666","black","no","legacy","legacy","legacy","0","uniform","1","undefined","undefined","undefined","1","f","0","0","0","0","35","0","0","0","35","NA","31","35","31","0","31","3","35","0","35","Wed Feb 17 12:00:31 2021","The main experiment item","yes","Lexical_Decision_Task.osexp","/Users/skyestreeter/Documents/UNI/YR2TRM2/CaL","no","Andale Mono","no","18","no","white","no","yes","576","legacy","31","31","3","/Users/skyestreeter/Documents/UNI/YR2TRM2/CaL/subject-5211137.csv","legacy","Lentiform Loewenfeld","3.3.7","yes","yes","600bd7cfb6416f0113b04181","602110864497cf011d9c0822","0","f","NA","space","space","space","NA","f","476","NA","3156","10568","4456","NA","476","2","legacy","1024","2","48000","-16","task","5211137","odd","NA","27613","32771","29615","88895","4722","19760","15301","89397","NA","88893","89397","88852","32771","89874","26050","85191","4679","87352","Lexical Decision Task","33","24648","36","yes","1024"
"2.698100546","0","9","mulk","non-word","91.89189189189189","91.89189189189189","680.4864864864865","680.4864864864865","black","no","legacy","legacy","legacy","0","uniform","1","undefined","undefined","undefined","1","f","0","0","0","0","36","0","0","0","36","NA","32","36","32","0","32","3","36","0","36","Wed Feb 17 12:00:31 2021","The main experiment item","yes","Lexical_Decision_Task.osexp","/Users/skyestreeter/Documents/UNI/YR2TRM2/CaL","no","Andale Mono","no","18","no","white","no","yes","576","legacy","32","32","3","/Users/skyestreeter/Documents/UNI/YR2TRM2/CaL/subject-5211137.csv","legacy","Lentiform Loewenfeld","3.3.7","yes","yes","600bd7cfb6416f0113b04181","602110864497cf011d9c0822","0","f","NA","space","space","space","NA","f","530","NA","3156","10568","4456","NA","530","2","legacy","1024","2","48000","-16","task","5211137","odd","NA","27613","32771","29615","90421","4722","19760","15301","90923","NA","90418","90924","90378","32771","91455","26050","89878","4679","87352","Lexical Decision Task","34","25178","37","yes","1024"
"2.897810299","0","5","glur","non-word","92.10526315789474","92.10526315789474","677","677","black","no","legacy","legacy","legacy","0","uniform","1","undefined","undefined","undefined","1","f","0","0","0","0","37","0","0","0","37","NA","33","37","33","0","33","3","37","0","37","Wed Feb 17 12:00:31 2021","The main experiment item","yes","Lexical_Decision_Task.osexp","/Users/skyestreeter/Documents/UNI/YR2TRM2/CaL","no","Andale Mono","no","18","no","white","no","yes","576","legacy","33","33","3","/Users/skyestreeter/Documents/UNI/YR2TRM2/CaL/subject-5211137.csv","legacy","Lentiform Loewenfeld","3.3.7","yes","yes","600bd7cfb6416f0113b04181","602110864497cf011d9c0822","0","f","NA","space","space","space","NA","f","548","NA","3156","10568","4456","NA","548","2","legacy","1024","2","48000","-16","task","5211137","odd","NA","27613","32771","29615","92002","4722","19760","15301","92504","NA","91998","92504","91959","32771","93053","26050","91459","4679","87352","Lexical Decision Task","35","25726","38","yes","1024"
"2.67699827","0","6","hulf","non-word","92.3076923076923","92.3076923076923","677.2307692307693","677.2307692307693","black","no","legacy","legacy","legacy","0","uniform","1","undefined","undefined","undefined","1","f","0","0","0","0","38","0","0","0","38","NA","34","38","34","0","34","3","38","0","38","Wed Feb 17 12:00:31 2021","The main experiment item","yes","Lexical_Decision_Task.osexp","/Users/skyestreeter/Documents/UNI/YR2TRM2/CaL","no","Andale Mono","no","18","no","white","no","yes","576","legacy","34","34","3","/Users/skyestreeter/Documents/UNI/YR2TRM2/CaL/subject-5211137.csv","legacy","Lentiform Loewenfeld","3.3.7","yes","yes","600bd7cfb6416f0113b04181","602110864497cf011d9c0822","0","f","NA","space","space","space","NA","f","686","NA","3156","10568","4456","NA","686","2","legacy","1024","2","48000","-16","task","5211137","odd","NA","27613","32771","29615","93602","4722","19760","15301","94104","NA","93597","94104","93558","32771","94791","26050","93058","4679","87352","Lexical Decision Task","36","26412","39","yes","1024"
"2.920123326","7.43","4","duel","word","92.5","92.5","678.675","678.675","black","no","legacy","legacy","legacy","0","uniform","1","undefined","undefined","undefined","1","j","0","0","0","0","39","0","0","0","39","NA","35","39","35","0","35","3","39","0","39","Wed Feb 17 12:00:31 2021","The main experiment item","yes","Lexical_Decision_Task.osexp","/Users/skyestreeter/Documents/UNI/YR2TRM2/CaL","no","Andale Mono","no","18","no","white","no","yes","576","legacy","35","35","3","/Users/skyestreeter/Documents/UNI/YR2TRM2/CaL/subject-5211137.csv","legacy","Lentiform Loewenfeld","3.3.7","yes","yes","600bd7cfb6416f0113b04181","602110864497cf011d9c0822","0","j","NA","space","space","space","NA","j","735","NA","3156","10568","4456","NA","735","2","legacy","1024","2","48000","-16","task","5211137","odd","NA","27613","32771","29615","95340","4722","19760","15301","95842","NA","95336","95842","95296","32771","96578","26050","94796","4679","87352","Lexical Decision Task","37","27147","40","yes","1024"
"3.043885998","0","9","gome","non-word","92.6829268292683","92.6829268292683","680.219512195122","680.219512195122","black","no","legacy","legacy","legacy","0","uniform","1","undefined","undefined","undefined","1","f","0","0","0","0","40","0","0","0","40","NA","36","40","36","0","36","3","40","0","40","Wed Feb 17 12:00:31 2021","The main experiment item","yes","Lexical_Decision_Task.osexp","/Users/skyestreeter/Documents/UNI/YR2TRM2/CaL","no","Andale Mono","no","18","no","white","no","yes","576","legacy","36","36","3","/Users/skyestreeter/Documents/UNI/YR2TRM2/CaL/subject-5211137.csv","legacy","Lentiform Loewenfeld","3.3.7","yes","yes","600bd7cfb6416f0113b04181","602110864497cf011d9c0822","0","f","NA","space","space","space","NA","f","742","NA","3156","10568","4456","NA","742","2","legacy","1024","2","48000","-16","task","5211137","odd","NA","27613","32771","29615","97123","4722","19760","15301","97625","NA","97121","97625","97082","32771","98368","26050","96582","4679","87352","Lexical Decision Task","38","27889","41","yes","1024"
"2.6599162","0","6","flug","non-word","92.85714285714286","92.85714285714286","675.8095238095239","675.8095238095239","black","no","legacy","legacy","legacy","0","uniform","1","undefined","undefined","undefined","1","f","0","0","0","0","41","0","0","0","41","NA","37","41","37","0","37","3","41","0","41","Wed Feb 17 12:00:31 2021","The main experiment item","yes","Lexical_Decision_Task.osexp","/Users/skyestreeter/Documents/UNI/YR2TRM2/CaL","no","Andale Mono","no","18","no","white","no","yes","576","legacy","37","37","3","/Users/skyestreeter/Documents/UNI/YR2TRM2/CaL/subject-5211137.csv","legacy","Lentiform Loewenfeld","3.3.7","yes","yes","600bd7cfb6416f0113b04181","602110864497cf011d9c0822","0","f","NA","space","space","space","NA","f","495","NA","3156","10568","4456","NA","495","2","legacy","1024","2","48000","-16","task","5211137","odd","NA","27613","32771","29615","98914","4722","19760","15301","99416","NA","98912","99417","98872","32771","99913","26050","98372","4679","87352","Lexical Decision Task","39","28384","42","yes","1024"
"2.893578687","8.69","3","surf","word","93.02325581395348","93.02325581395348","673.3255813953489","673.3255813953489","black","no","legacy","legacy","legacy","0","uniform","1","undefined","undefined","undefined","1","j","0","0","0","0","42","0","0","0","42","NA","38","42","38","0","38","3","42","0","42","Wed Feb 17 12:00:31 2021","The main experiment item","yes","Lexical_Decision_Task.osexp","/Users/skyestreeter/Documents/UNI/YR2TRM2/CaL","no","Andale Mono","no","18","no","white","no","yes","576","legacy","38","38","3","/Users/skyestreeter/Documents/UNI/YR2TRM2/CaL/subject-5211137.csv","legacy","Lentiform Loewenfeld","3.3.7","yes","yes","600bd7cfb6416f0113b04181","602110864497cf011d9c0822","0","j","NA","space","space","space","NA","j","569","NA","3156","10568","4456","NA","569","2","legacy","1024","2","48000","-16","task","5211137","odd","NA","27613","32771","29615","100460","4722","19760","15301","100963","NA","100457","100963","100417","32771","101532","26050","99917","4679","87352","Lexical Decision Task","40","28953","43","yes","1024"
"3.372543801","9.24","8","coat","word","93.18181818181819","93.18181818181819","669.6818181818181","669.6818181818181","black","no","legacy","legacy","legacy","0","uniform","1","undefined","undefined","undefined","1","j","0","0","0","0","43","0","0","0","43","NA","39","43","39","0","39","3","43","0","43","Wed Feb 17 12:00:31 2021","The main experiment item","yes","Lexical_Decision_Task.osexp","/Users/skyestreeter/Documents/UNI/YR2TRM2/CaL","no","Andale Mono","no","18","no","white","no","yes","576","legacy","39","39","3","/Users/skyestreeter/Documents/UNI/YR2TRM2/CaL/subject-5211137.csv","legacy","Lentiform Loewenfeld","3.3.7","yes","yes","600bd7cfb6416f0113b04181","602110864497cf011d9c0822","0","j","NA","space","space","space","NA","j","513","NA","3156","10568","4456","NA","513","2","legacy","1024","2","48000","-16","task","5211137","odd","NA","27613","32771","29615","102081","4722","19760","15301","102583","NA","102079","102583","102039","32771","103097","26050","101539","4679","87352","Lexical Decision Task","41","29466","44","yes","1024"
"2.812467698","0","7","hafe","non-word","93.33333333333333","93.33333333333333","667.3111111111111","667.3111111111111","black","no","legacy","legacy","legacy","0","uniform","1","undefined","undefined","undefined","1","f","0","0","0","0","44","0","0","0","44","NA","40","44","40","0","40","3","44","0","44","Wed Feb 17 12:00:31 2021","The main experiment item","yes","Lexical_Decision_Task.osexp","/Users/skyestreeter/Documents/UNI/YR2TRM2/CaL","no","Andale Mono","no","18","no","white","no","yes","576","legacy","40","40","3","/Users/skyestreeter/Documents/UNI/YR2TRM2/CaL/subject-5211137.csv","legacy","Lentiform Loewenfeld","3.3.7","yes","yes","600bd7cfb6416f0113b04181","602110864497cf011d9c0822","0","f","NA","space","space","space","NA","f","563","NA","3156","10568","4456","NA","563","2","legacy","1024","2","48000","-16","task","5211137","odd","NA","27613","32771","29615","103643","4722","19760","15301","104145","NA","103641","104145","103601","32771","104708","26050","103101","4679","87352","Lexical Decision Task","42","30029","45","yes","1024"
"2.616654026","9.37","5","gift","word","93.47826086956522","93.47826086956522","662.3478260869565","662.3478260869565","black","no","legacy","legacy","legacy","0","uniform","1","undefined","undefined","undefined","1","j","0","0","0","0","45","0","0","0","45","NA","41","45","41","0","41","3","45","0","45","Wed Feb 17 12:00:31 2021","The main experiment item","yes","Lexical_Decision_Task.osexp","/Users/skyestreeter/Documents/UNI/YR2TRM2/CaL","no","Andale Mono","no","18","no","white","no","yes","576","legacy","41","41","3","/Users/skyestreeter/Documents/UNI/YR2TRM2/CaL/subject-5211137.csv","legacy","Lentiform Loewenfeld","3.3.7","yes","yes","600bd7cfb6416f0113b04181","602110864497cf011d9c0822","0","j","NA","space","space","space","NA","j","439","NA","3156","10568","4456","NA","439","2","legacy","1024","2","48000","-16","task","5211137","odd","NA","27613","32771","29615","105255","4722","19760","15301","105758","NA","105252","105758","105212","32771","106197","26050","104712","4679","87352","Lexical Decision Task","43","30468","46","yes","1024"
"3.440331212","7.35","6","stew","word","93.61702127659575","93.61702127659575","658.4255319148937","658.4255319148937","black","no","legacy","legacy","legacy","0","uniform","1","undefined","undefined","undefined","1","j","0","0","0","0","46","0","0","0","46","NA","42","46","42","0","42","3","46","0","46","Wed Feb 17 12:00:31 2021","The main experiment item","yes","Lexical_Decision_Task.osexp","/Users/skyestreeter/Documents/UNI/YR2TRM2/CaL","no","Andale Mono","no","18","no","white","no","yes","576","legacy","42","42","3","/Users/skyestreeter/Documents/UNI/YR2TRM2/CaL/subject-5211137.csv","legacy","Lentiform Loewenfeld","3.3.7","yes","yes","600bd7cfb6416f0113b04181","602110864497cf011d9c0822","0","j","NA","space","space","space","NA","j","478","NA","3156","10568","4456","NA","478","2","legacy","1024","2","48000","-16","task","5211137","odd","NA","27613","32771","29615","106743","4722","19760","15301","107245","NA","106741","107246","106702","32771","107724","26050","106202","4679","87352","Lexical Decision Task","44","30946","47","yes","1024"
"3.14849993","10.75","7","hour","word","93.75","93.75","653.3333333333334","653.3333333333334","black","no","legacy","legacy","legacy","0","uniform","1","undefined","undefined","undefined","1","j","0","0","0","0","47","0","0","0","47","NA","43","47","43","0","43","3","47","0","47","Wed Feb 17 12:00:31 2021","The main experiment item","yes","Lexical_Decision_Task.osexp","/Users/skyestreeter/Documents/UNI/YR2TRM2/CaL","no","Andale Mono","no","18","no","white","no","yes","576","legacy","43","43","3","/Users/skyestreeter/Documents/UNI/YR2TRM2/CaL/subject-5211137.csv","legacy","Lentiform Loewenfeld","3.3.7","yes","yes","600bd7cfb6416f0113b04181","602110864497cf011d9c0822","0","j","NA","space","space","space","NA","j","414","NA","3156","10568","4456","NA","414","2","legacy","1024","2","48000","-16","task","5211137","odd","NA","27613","32771","29615","108270","4722","19760","15301","108772","NA","108268","108772","108228","32771","109186","26050","107728","4679","87352","Lexical Decision Task","45","31360","48","yes","1024"
"3.218535505","7.85","7","goat","word","93.87755102040816","93.87755102040816","649.6326530612245","649.6326530612245","black","no","legacy","legacy","legacy","0","uniform","1","undefined","undefined","undefined","1","j","0","0","0","0","48","0","0","0","48","NA","44","48","44","0","44","3","48","0","48","Wed Feb 17 12:00:31 2021","The main experiment item","yes","Lexical_Decision_Task.osexp","/Users/skyestreeter/Documents/UNI/YR2TRM2/CaL","no","Andale Mono","no","18","no","white","no","yes","576","legacy","44","44","3","/Users/skyestreeter/Documents/UNI/YR2TRM2/CaL/subject-5211137.csv","legacy","Lentiform Loewenfeld","3.3.7","yes","yes","600bd7cfb6416f0113b04181","602110864497cf011d9c0822","0","j","NA","space","space","space","NA","j","472","NA","3156","10568","4456","NA","472","2","legacy","1024","2","48000","-16","task","5211137","odd","NA","27613","32771","29615","109733","4722","19760","15301","110235","NA","109731","110235","109691","32771","110708","26050","109191","4679","87352","Lexical Decision Task","46","31832","49","yes","1024"
"2.979548375","8.71","4","soup","word","94","94","645.72","645.72","black","no","legacy","legacy","legacy","0","uniform","1","undefined","undefined","undefined","1","j","0","0","0","0","49","0","0","0","49","NA","45","49","45","0","45","3","49","0","49","Wed Feb 17 12:00:31 2021","The main experiment item","yes","Lexical_Decision_Task.osexp","/Users/skyestreeter/Documents/UNI/YR2TRM2/CaL","no","Andale Mono","no","18","no","white","no","yes","576","legacy","45","45","3","/Users/skyestreeter/Documents/UNI/YR2TRM2/CaL/subject-5211137.csv","legacy","Lentiform Loewenfeld","3.3.7","yes","yes","600bd7cfb6416f0113b04181","602110864497cf011d9c0822","0","j","NA","space","space","space","NA","j","454","NA","3156","10568","4456","NA","454","2","legacy","1024","2","48000","-16","task","5211137","odd","NA","27613","32771","29615","111254","4722","19760","15301","111756","NA","111252","111756","111213","32771","112211","26050","110713","4679","87352","Lexical Decision Task","47","32286","50","yes","1024"
"3.066077331","0","7","vorn","non-word","94.11764705882354","94.11764705882354","647.5882352941177","647.5882352941177","black","no","legacy","legacy","legacy","0","uniform","1","undefined","undefined","undefined","1","f","0","0","0","0","50","0","0","0","50","NA","46","50","46","0","46","3","50","0","50","Wed Feb 17 12:00:31 2021","The main experiment item","yes","Lexical_Decision_Task.osexp","/Users/skyestreeter/Documents/UNI/YR2TRM2/CaL","no","Andale Mono","no","18","no","white","no","yes","576","legacy","46","46","3","/Users/skyestreeter/Documents/UNI/YR2TRM2/CaL/subject-5211137.csv","legacy","Lentiform Loewenfeld","3.3.7","yes","yes","600bd7cfb6416f0113b04181","602110864497cf011d9c0822","0","f","NA","space","space","space","NA","f","741","NA","3156","10568","4456","NA","741","2","legacy","1024","2","48000","-16","task","5211137","odd","NA","27613","32771","29615","112756","4722","19760","15301","113258","NA","112754","113258","112715","32771","114000","26050","112215","4679","87352","Lexical Decision Task","48","33027","51","yes","1024"
"3.276537627","9.15","5","trap","word","94.23076923076923","94.23076923076923","645.8269230769231","645.8269230769231","black","no","legacy","legacy","legacy","0","uniform","1","undefined","undefined","undefined","1","j","0","0","0","0","51","0","0","0","51","NA","47","51","47","0","47","3","51","0","51","Wed Feb 17 12:00:31 2021","The main experiment item","yes","Lexical_Decision_Task.osexp","/Users/skyestreeter/Documents/UNI/YR2TRM2/CaL","no","Andale Mono","no","18","no","white","no","yes","576","legacy","47","47","3","/Users/skyestreeter/Documents/UNI/YR2TRM2/CaL/subject-5211137.csv","legacy","Lentiform Loewenfeld","3.3.7","yes","yes","600bd7cfb6416f0113b04181","602110864497cf011d9c0822","0","j","NA","space","space","space","NA","j","556","NA","3156","10568","4456","NA","556","2","legacy","1024","2","48000","-16","task","5211137","odd","NA","27613","32771","29615","114546","4722","19760","15301","115048","NA","114544","115049","114504","32771","115606","26050","114004","4679","87352","Lexical Decision Task","49","33583","52","yes","1024"
"3.22685757","9.99","7","roll","word","94.33962264150944","94.33962264150944","642.3396226415094","642.3396226415094","black","no","legacy","legacy","legacy","0","uniform","1","undefined","undefined","undefined","1","j","0","0","0","0","52","0","0","0","52","NA","48","52","48","0","48","3","52","0","52","Wed Feb 17 12:00:31 2021","The main experiment item","yes","Lexical_Decision_Task.osexp","/Users/skyestreeter/Documents/UNI/YR2TRM2/CaL","no","Andale Mono","no","18","no","white","no","yes","576","legacy","48","48","3","/Users/skyestreeter/Documents/UNI/YR2TRM2/CaL/subject-5211137.csv","legacy","Lentiform Loewenfeld","3.3.7","yes","yes","600bd7cfb6416f0113b04181","602110864497cf011d9c0822","0","j","NA","space","space","space","NA","j","461","NA","3156","10568","4456","NA","461","2","legacy","1024","2","48000","-16","task","5211137","odd","NA","27613","32771","29615","116150","4722","19760","15301","116653","NA","116149","116653","116110","32771","117115","26050","115610","4679","87352","Lexical Decision Task","50","34044","53","yes","1024"
"3.067193647","6.73","6","raft","word","94.44444444444444","94.44444444444444","639.7407407407408","639.7407407407408","black","no","legacy","legacy","legacy","0","uniform","1","undefined","undefined","undefined","1","j","0","0","0","0","53","0","0","0","53","NA","49","53","49","0","49","3","53","0","53","Wed Feb 17 12:00:31 2021","The main experiment item","yes","Lexical_Decision_Task.osexp","/Users/skyestreeter/Documents/UNI/YR2TRM2/CaL","no","Andale Mono","no","18","no","white","no","yes","576","legacy","49","49","3","/Users/skyestreeter/Documents/UNI/YR2TRM2/CaL/subject-5211137.csv","legacy","Lentiform Loewenfeld","3.3.7","yes","yes","600bd7cfb6416f0113b04181","602110864497cf011d9c0822","0","j","NA","space","space","space","NA","j","502","NA","3156","10568","4456","NA","502","2","legacy","1024","2","48000","-16","task","5211137","odd","NA","27613","32771","29615","117660","4722","19760","15301","118162","NA","117658","118162","117619","32771","118665","26050","117119","4679","87352","Lexical Decision Task","51","34546","54","yes","1024"
"2.68604012","0","4","pumb","non-word","94.54545454545455","94.54545454545455","643.2545454545455","643.2545454545455","black","no","legacy","legacy","legacy","0","uniform","1","undefined","undefined","undefined","1","f","0","0","0","0","54","0","0","0","54","0","50","54","50","0","50","3","54","0","54","Wed Feb 17 12:00:31 2021","The main experiment item","yes","Lexical_Decision_Task.osexp","/Users/skyestreeter/Documents/UNI/YR2TRM2/CaL","no","Andale Mono","no","18","no","white","no","yes","576","legacy","50","50","3","/Users/skyestreeter/Documents/UNI/YR2TRM2/CaL/subject-5211137.csv","legacy","Lentiform Loewenfeld","3.3.7","yes","yes","600bd7cfb6416f0113b04181","602110864497cf011d9c0822","0","f","NA","space","space","space","space","f","833","NA","3156","10568","4456","27532","833","2","legacy","1024","2","48000","-16","task","5211137","odd","NA","27613","32771","29615","146766","4722","19760","15301","147268","119190","146764","147269","119169","32771","148102","26050","118669","4679","87352","Lexical Decision Task","52","35379","55","yes","1024"
"3.259832699","0","9","flar","non-word","94.64285714285714","94.64285714285714","642.0535714285714","642.0535714285714","black","no","legacy","legacy","legacy","0","uniform","1","undefined","undefined","undefined","1","f","0","0","0","0","55","0","0","0","55","0","51","55","51","0","51","3","55","0","55","Wed Feb 17 12:00:31 2021","The main experiment item","yes","Lexical_Decision_Task.osexp","/Users/skyestreeter/Documents/UNI/YR2TRM2/CaL","no","Andale Mono","no","18","no","white","no","yes","576","legacy","51","51","3","/Users/skyestreeter/Documents/UNI/YR2TRM2/CaL/subject-5211137.csv","legacy","Lentiform Loewenfeld","3.3.7","yes","yes","600bd7cfb6416f0113b04181","602110864497cf011d9c0822","0","f","NA","space","space","space","space","f","576","NA","3156","10568","4456","27532","576","2","legacy","1024","2","48000","-16","task","5211137","odd","NA","27613","32771","29615","148649","4722","19760","15301","149152","119190","148647","149152","148607","32771","149728","26050","148107","4679","87352","Lexical Decision Task","53","35955","56","yes","1024"
"2.7084209","0","8","vump","non-word","94.73684210526316","94.73684210526316","642.1929824561404","642.1929824561404","black","no","legacy","legacy","legacy","0","uniform","1","undefined","undefined","undefined","1","f","0","0","0","0","56","0","0","0","56","0","52","56","52","0","52","3","56","0","56","Wed Feb 17 12:00:31 2021","The main experiment item","yes","Lexical_Decision_Task.osexp","/Users/skyestreeter/Documents/UNI/YR2TRM2/CaL","no","Andale Mono","no","18","no","white","no","yes","576","legacy","52","52","3","/Users/skyestreeter/Documents/UNI/YR2TRM2/CaL/subject-5211137.csv","legacy","Lentiform Loewenfeld","3.3.7","yes","yes","600bd7cfb6416f0113b04181","602110864497cf011d9c0822","0","f","NA","space","space","space","space","f","650","NA","3156","10568","4456","27532","650","2","legacy","1024","2","48000","-16","task","5211137","odd","NA","27613","32771","29615","150273","4722","19760","15301","150775","119190","150271","150775","150232","32771","151426","26050","149732","4679","87352","Lexical Decision Task","54","36605","57","yes","1024"
"2.755364069","7.72","2","hoax","word","93.10344827586206","93.10344827586206","639.6551724137931","639.6551724137931","black","no","legacy","legacy","legacy","0","uniform","0","undefined","undefined","undefined","0","j","0","0","0","0","57","0","0","0","57","0","53","57","53","0","53","3","57","0","57","Wed Feb 17 12:00:31 2021","The main experiment item","yes","Lexical_Decision_Task.osexp","/Users/skyestreeter/Documents/UNI/YR2TRM2/CaL","no","Andale Mono","no","18","no","white","no","yes","576","legacy","53","53","3","/Users/skyestreeter/Documents/UNI/YR2TRM2/CaL/subject-5211137.csv","legacy","Lentiform Loewenfeld","3.3.7","yes","yes","600bd7cfb6416f0113b04181","602110864497cf011d9c0822","0","f","NA","space","space","space","space","f","495","NA","3156","10568","4456","27532","495","2","legacy","1024","2","48000","-16","task","5211137","odd","NA","27613","32771","29615","151974","4722","19760","15301","152476","119190","151971","152476","151931","32771","152972","26050","151431","4679","87352","Lexical Decision Task","54","37100","58","yes","1024"
"3.384413096","10.15","3","glad","word","93.22033898305085","93.22033898305085","637.9661016949152","637.9661016949152","black","no","legacy","legacy","legacy","0","uniform","1","undefined","undefined","undefined","1","j","0","0","0","0","58","0","0","0","58","0","54","58","54","0","54","3","58","0","58","Wed Feb 17 12:00:31 2021","The main experiment item","yes","Lexical_Decision_Task.osexp","/Users/skyestreeter/Documents/UNI/YR2TRM2/CaL","no","Andale Mono","no","18","no","white","no","yes","576","legacy","54","54","3","/Users/skyestreeter/Documents/UNI/YR2TRM2/CaL/subject-5211137.csv","legacy","Lentiform Loewenfeld","3.3.7","yes","yes","600bd7cfb6416f0113b04181","602110864497cf011d9c0822","0","j","NA","space","space","space","space","j","540","NA","3156","10568","4456","27532","540","2","legacy","1024","2","48000","-16","task","5211137","odd","NA","27613","32771","29615","154520","4722","19760","15301","155022","119190","154517","155022","154476","32771","155563","26050","151431","4679","152976","Lexical Decision Task","55","37640","59","yes","1024"
"2.899092422","7.27","6","snag","word","93.33333333333333","93.33333333333333","637.15","637.15","black","no","legacy","legacy","legacy","0","uniform","1","undefined","undefined","undefined","1","j","0","0","0","0","59","0","0","0","59","0","55","59","55","0","55","3","59","0","59","Wed Feb 17 12:00:31 2021","The main experiment item","yes","Lexical_Decision_Task.osexp","/Users/skyestreeter/Documents/UNI/YR2TRM2/CaL","no","Andale Mono","no","18","no","white","no","yes","576","legacy","55","55","3","/Users/skyestreeter/Documents/UNI/YR2TRM2/CaL/subject-5211137.csv","legacy","Lentiform Loewenfeld","3.3.7","yes","yes","600bd7cfb6416f0113b04181","602110864497cf011d9c0822","0","j","NA","space","space","space","space","j","589","NA","3156","10568","4456","27532","589","2","legacy","1024","2","48000","-16","task","5211137","odd","NA","27613","32771","29615","156110","4722","19760","15301","156612","119190","156108","156612","156068","32771","157202","26050","155568","4679","152976","Lexical Decision Task","56","38229","60","yes","1024"
"3.374137706","10.21","4","tree","word","93.44262295081967","93.44262295081967","635.7377049180328","635.7377049180328","black","no","legacy","legacy","legacy","0","uniform","1","undefined","undefined","undefined","1","j","0","0","0","0","60","0","0","0","60","0","56","60","56","0","56","3","60","0","60","Wed Feb 17 12:00:31 2021","The main experiment item","yes","Lexical_Decision_Task.osexp","/Users/skyestreeter/Documents/UNI/YR2TRM2/CaL","no","Andale Mono","no","18","no","white","no","yes","576","legacy","56","56","3","/Users/skyestreeter/Documents/UNI/YR2TRM2/CaL/subject-5211137.csv","legacy","Lentiform Loewenfeld","3.3.7","yes","yes","600bd7cfb6416f0113b04181","602110864497cf011d9c0822","0","j","NA","space","space","space","space","j","551","NA","3156","10568","4456","27532","551","2","legacy","1024","2","48000","-16","task","5211137","odd","NA","27613","32771","29615","157747","4722","19760","15301","158249","119190","157745","158249","157706","32771","158801","26050","157206","4679","152976","Lexical Decision Task","57","38780","61","yes","1024"
"2.782472624","10.55","2","huge","word","93.54838709677419","93.54838709677419","633.9032258064516","633.9032258064516","black","no","legacy","legacy","legacy","0","uniform","1","undefined","undefined","undefined","1","j","0","0","0","0","61","0","0","0","61","0","57","61","57","0","57","3","61","0","61","Wed Feb 17 12:00:31 2021","The main experiment item","yes","Lexical_Decision_Task.osexp","/Users/skyestreeter/Documents/UNI/YR2TRM2/CaL","no","Andale Mono","no","18","no","white","no","yes","576","legacy","57","57","3","/Users/skyestreeter/Documents/UNI/YR2TRM2/CaL/subject-5211137.csv","legacy","Lentiform Loewenfeld","3.3.7","yes","yes","600bd7cfb6416f0113b04181","602110864497cf011d9c0822","0","j","NA","space","space","space","space","j","522","NA","3156","10568","4456","27532","522","2","legacy","1024","2","48000","-16","task","5211137","odd","NA","27613","32771","29615","159346","4722","19760","15301","159848","119190","159344","159848","159305","32771","160371","26050","158805","4679","152976","Lexical Decision Task","58","39302","62","yes","1024"
"3.159867847","5.98","5","brim","word","93.65079365079364","93.65079365079364","634.4285714285714","634.4285714285714","black","no","legacy","legacy","legacy","0","uniform","1","undefined","undefined","undefined","1","j","0","0","0","0","62","0","0","0","62","0","58","62","58","0","58","3","62","0","62","Wed Feb 17 12:00:31 2021","The main experiment item","yes","Lexical_Decision_Task.osexp","/Users/skyestreeter/Documents/UNI/YR2TRM2/CaL","no","Andale Mono","no","18","no","white","no","yes","576","legacy","58","58","3","/Users/skyestreeter/Documents/UNI/YR2TRM2/CaL/subject-5211137.csv","legacy","Lentiform Loewenfeld","3.3.7","yes","yes","600bd7cfb6416f0113b04181","602110864497cf011d9c0822","0","j","NA","space","space","space","space","j","667","NA","3156","10568","4456","27532","667","2","legacy","1024","2","48000","-16","task","5211137","odd","NA","27613","32771","29615","160917","4722","19760","15301","161419","119190","160915","161419","160875","32771","162087","26050","160375","4679","152976","Lexical Decision Task","59","39969","63","yes","1024"
"3.15462682","0","6","noal","non-word","93.75","93.75","634.796875","634.796875","black","no","legacy","legacy","legacy","0","uniform","1","undefined","undefined","undefined","1","f","0","0","0","0","63","0","0","0","63","0","59","63","59","0","59","3","63","0","63","Wed Feb 17 12:00:31 2021","The main experiment item","yes","Lexical_Decision_Task.osexp","/Users/skyestreeter/Documents/UNI/YR2TRM2/CaL","no","Andale Mono","no","18","no","white","no","yes","576","legacy","59","59","3","/Users/skyestreeter/Documents/UNI/YR2TRM2/CaL/subject-5211137.csv","legacy","Lentiform Loewenfeld","3.3.7","yes","yes","600bd7cfb6416f0113b04181","602110864497cf011d9c0822","0","f","NA","space","space","space","space","f","658","NA","3156","10568","4456","27532","658","2","legacy","1024","2","48000","-16","task","5211137","odd","NA","27613","32771","29615","162634","4722","19760","15301","163136","119190","162632","163136","162593","32771","163795","26050","162093","4679","152976","Lexical Decision Task","60","40627","64","yes","1024"
"3.094121596","0","8","fode","non-word","93.84615384615384","93.84615384615384","633.0153846153846","633.0153846153846","black","no","legacy","legacy","legacy","0","uniform","1","undefined","undefined","undefined","1","f","0","0","0","0","64","0","0","0","64","0","60","64","60","0","60","3","64","0","64","Wed Feb 17 12:00:31 2021","The main experiment item","yes","Lexical_Decision_Task.osexp","/Users/skyestreeter/Documents/UNI/YR2TRM2/CaL","no","Andale Mono","no","18","no","white","no","yes","576","legacy","60","60","3","/Users/skyestreeter/Documents/UNI/YR2TRM2/CaL/subject-5211137.csv","legacy","Lentiform Loewenfeld","3.3.7","yes","yes","600bd7cfb6416f0113b04181","602110864497cf011d9c0822","0","f","NA","space","space","space","space","f","519","NA","3156","10568","4456","27532","519","2","legacy","1024","2","48000","-16","task","5211137","odd","NA","27613","32771","29615","164341","4722","19760","15301","164843","119190","164339","164843","164299","32771","165363","26050","163799","4679","152976","Lexical Decision Task","61","41146","65","yes","1024"
"2.972819734","0","4","scew","non-word","93.93939393939394","93.93939393939394","631.4090909090909","631.4090909090909","black","no","legacy","legacy","legacy","0","uniform","1","undefined","undefined","undefined","1","f","0","0","0","0","65","0","0","0","65","0","61","65","61","0","61","3","65","0","65","Wed Feb 17 12:00:31 2021","The main experiment item","yes","Lexical_Decision_Task.osexp","/Users/skyestreeter/Documents/UNI/YR2TRM2/CaL","no","Andale Mono","no","18","no","white","no","yes","576","legacy","61","61","3","/Users/skyestreeter/Documents/UNI/YR2TRM2/CaL/subject-5211137.csv","legacy","Lentiform Loewenfeld","3.3.7","yes","yes","600bd7cfb6416f0113b04181","602110864497cf011d9c0822","0","f","NA","space","space","space","space","f","527","NA","3156","10568","4456","27532","527","2","legacy","1024","2","48000","-16","task","5211137","odd","NA","27613","32771","29615","165910","4722","19760","15301","166412","119190","165908","166412","165868","32771","166940","26050","165367","4679","152976","Lexical Decision Task","62","41673","66","yes","1024"
"3.311895072","0","9","gung","non-word","94.02985074626865","94.02985074626865","635.7910447761194","635.7910447761194","black","no","legacy","legacy","legacy","0","uniform","1","undefined","undefined","undefined","1","f","0","0","0","0","66","0","0","0","66","0","62","66","62","0","62","3","66","0","66","Wed Feb 17 12:00:31 2021","The main experiment item","yes","Lexical_Decision_Task.osexp","/Users/skyestreeter/Documents/UNI/YR2TRM2/CaL","no","Andale Mono","no","18","no","white","no","yes","576","legacy","62","62","3","/Users/skyestreeter/Documents/UNI/YR2TRM2/CaL/subject-5211137.csv","legacy","Lentiform Loewenfeld","3.3.7","yes","yes","600bd7cfb6416f0113b04181","602110864497cf011d9c0822","0","f","NA","space","space","space","space","f","925","NA","3156","10568","4456","27532","925","2","legacy","1024","2","48000","-16","task","5211137","odd","NA","27613","32771","29615","167485","4722","19760","15301","167987","119190","167483","167988","167444","32771","168914","26050","166944","4679","152976","Lexical Decision Task","63","42598","67","yes","1024"
"2.6599162","0","2","saff","non-word","94.11764705882354","94.11764705882354","634.4705882352941","634.4705882352941","black","no","legacy","legacy","legacy","0","uniform","1","undefined","undefined","undefined","1","f","0","0","0","0","67","0","0","0","67","0","63","67","63","0","63","3","67","0","67","Wed Feb 17 12:00:31 2021","The main experiment item","yes","Lexical_Decision_Task.osexp","/Users/skyestreeter/Documents/UNI/YR2TRM2/CaL","no","Andale Mono","no","18","no","white","no","yes","576","legacy","63","63","3","/Users/skyestreeter/Documents/UNI/YR2TRM2/CaL/subject-5211137.csv","legacy","Lentiform Loewenfeld","3.3.7","yes","yes","600bd7cfb6416f0113b04181","602110864497cf011d9c0822","0","f","NA","space","space","space","space","f","546","NA","3156","10568","4456","27532","546","2","legacy","1024","2","48000","-16","task","5211137","odd","NA","27613","32771","29615","169461","4722","19760","15301","169966","119190","169457","169966","169418","32771","170513","26050","168918","4679","152976","Lexical Decision Task","64","43144","68","yes","1024"
"2.986323777","10.85","8","ship","word","94.20289855072464","94.20289855072464","633.8695652173913","633.8695652173913","black","no","legacy","legacy","legacy","0","uniform","1","undefined","undefined","undefined","1","j","0","0","0","0","68","0","0","0","68","0","64","68","64","0","64","3","68","0","68","Wed Feb 17 12:00:31 2021","The main experiment item","yes","Lexical_Decision_Task.osexp","/Users/skyestreeter/Documents/UNI/YR2TRM2/CaL","no","Andale Mono","no","18","no","white","no","yes","576","legacy","64","64","3","/Users/skyestreeter/Documents/UNI/YR2TRM2/CaL/subject-5211137.csv","legacy","Lentiform Loewenfeld","3.3.7","yes","yes","600bd7cfb6416f0113b04181","602110864497cf011d9c0822","0","j","NA","space","space","space","space","j","593","NA","3156","10568","4456","27532","593","2","legacy","1024","2","48000","-16","task","5211137","odd","NA","27613","32771","29615","171061","4722","19760","15301","171567","119190","171057","171567","171017","32771","172160","26050","170517","4679","152976","Lexical Decision Task","65","43737","69","yes","1024"
"2.746890964","9.67","3","plug","word","94.28571428571429","94.28571428571429","632.4428571428572","632.4428571428572","black","no","legacy","legacy","legacy","0","uniform","1","undefined","undefined","undefined","1","j","0","0","0","0","69","0","0","0","69","0","65","69","65","0","65","3","69","0","69","Wed Feb 17 12:00:31 2021","The main experiment item","yes","Lexical_Decision_Task.osexp","/Users/skyestreeter/Documents/UNI/YR2TRM2/CaL","no","Andale Mono","no","18","no","white","no","yes","576","legacy","65","65","3","/Users/skyestreeter/Documents/UNI/YR2TRM2/CaL/subject-5211137.csv","legacy","Lentiform Loewenfeld","3.3.7","yes","yes","600bd7cfb6416f0113b04181","602110864497cf011d9c0822","0","j","NA","space","space","space","space","j","534","NA","3156","10568","4456","27532","534","2","legacy","1024","2","48000","-16","task","5211137","odd","NA","27613","32771","29615","172710","4722","19760","15301","173216","119190","172705","173216","172665","32771","173750","26050","172165","4679","152976","Lexical Decision Task","66","44271","70","yes","1024"
"3.037294994","8.64","7","roof","word","94.36619718309859","94.36619718309859","630.7605633802817","630.7605633802817","black","no","legacy","legacy","legacy","0","uniform","1","undefined","undefined","undefined","1","j","0","0","0","0","70","0","0","0","70","0","66","70","66","0","66","3","70","0","70","Wed Feb 17 12:00:31 2021","The main experiment item","yes","Lexical_Decision_Task.osexp","/Users/skyestreeter/Documents/UNI/YR2TRM2/CaL","no","Andale Mono","no","18","no","white","no","yes","576","legacy","66","66","3","/Users/skyestreeter/Documents/UNI/YR2TRM2/CaL/subject-5211137.csv","legacy","Lentiform Loewenfeld","3.3.7","yes","yes","600bd7cfb6416f0113b04181","602110864497cf011d9c0822","0","j","NA","space","space","space","space","j","513","NA","3156","10568","4456","27532","513","2","legacy","1024","2","48000","-16","task","5211137","odd","NA","27613","32771","29615","174297","4722","19760","15301","174801","119190","174294","174801","174255","32771","175315","26050","173755","4679","152976","Lexical Decision Task","67","44784","71","yes","1024"
"3.088136089","8.32","9","worm","word","94.44444444444444","94.44444444444444","628.6388888888889","628.6388888888889","black","no","legacy","legacy","legacy","0","uniform","1","undefined","undefined","undefined","1","j","0","0","0","0","71","0","0","0","71","0","67","71","67","0","67","3","71","0","71","Wed Feb 17 12:00:31 2021","The main experiment item","yes","Lexical_Decision_Task.osexp","/Users/skyestreeter/Documents/UNI/YR2TRM2/CaL","no","Andale Mono","no","18","no","white","no","yes","576","legacy","67","67","3","/Users/skyestreeter/Documents/UNI/YR2TRM2/CaL/subject-5211137.csv","legacy","Lentiform Loewenfeld","3.3.7","yes","yes","600bd7cfb6416f0113b04181","602110864497cf011d9c0822","0","j","NA","space","space","space","space","j","478","NA","3156","10568","4456","27532","478","2","legacy","1024","2","48000","-16","task","5211137","odd","NA","27613","32771","29615","175860","4722","19760","15301","176362","119190","175858","176363","175819","32771","176842","26050","175319","4679","152976","Lexical Decision Task","68","45262","72","yes","1024"
"2.695770526","7.34","6","pawn","word","94.52054794520548","94.52054794520548","628.3013698630137","628.3013698630137","black","no","legacy","legacy","legacy","0","uniform","1","undefined","undefined","undefined","1","j","0","0","0","0","72","0","0","0","72","0","68","72","68","0","68","3","72","0","72","Wed Feb 17 12:00:31 2021","The main experiment item","yes","Lexical_Decision_Task.osexp","/Users/skyestreeter/Documents/UNI/YR2TRM2/CaL","no","Andale Mono","no","18","no","white","no","yes","576","legacy","68","68","3","/Users/skyestreeter/Documents/UNI/YR2TRM2/CaL/subject-5211137.csv","legacy","Lentiform Loewenfeld","3.3.7","yes","yes","600bd7cfb6416f0113b04181","602110864497cf011d9c0822","0","j","NA","space","space","space","space","j","604","NA","3156","10568","4456","27532","604","2","legacy","1024","2","48000","-16","task","5211137","odd","NA","27613","32771","29615","177388","4722","19760","15301","177891","119190","177386","177891","177347","32771","178496","26050","176847","4679","152976","Lexical Decision Task","69","45866","73","yes","1024"
"2.8162413","0","5","nusk","non-word","94.5945945945946","94.5945945945946","625.9459459459459","625.9459459459459","black","no","legacy","legacy","legacy","0","uniform","1","undefined","undefined","undefined","1","f","0","0","0","0","73","0","0","0","73","0","69","73","69","0","69","3","73","0","73","Wed Feb 17 12:00:31 2021","The main experiment item","yes","Lexical_Decision_Task.osexp","/Users/skyestreeter/Documents/UNI/YR2TRM2/CaL","no","Andale Mono","no","18","no","white","no","yes","576","legacy","69","69","3","/Users/skyestreeter/Documents/UNI/YR2TRM2/CaL/subject-5211137.csv","legacy","Lentiform Loewenfeld","3.3.7","yes","yes","600bd7cfb6416f0113b04181","602110864497cf011d9c0822","0","f","NA","space","space","space","space","f","454","NA","3156","10568","4456","27532","454","2","legacy","1024","2","48000","-16","task","5211137","odd","NA","27613","32771","29615","179044","4722","19760","15301","179548","119190","179041","179548","179001","32771","180003","26050","178500","4679","152976","Lexical Decision Task","70","46320","74","yes","1024"
"3.29439347","8.6","9","wand","word","94.66666666666667","94.66666666666667","625.7333333333333","625.7333333333333","black","no","legacy","legacy","legacy","0","uniform","1","undefined","undefined","undefined","1","j","0","0","0","0","74","0","0","0","74","0","70","74","70","0","70","3","74","0","74","Wed Feb 17 12:00:31 2021","The main experiment item","yes","Lexical_Decision_Task.osexp","/Users/skyestreeter/Documents/UNI/YR2TRM2/CaL","no","Andale Mono","no","18","no","white","no","yes","576","legacy","70","70","3","/Users/skyestreeter/Documents/UNI/YR2TRM2/CaL/subject-5211137.csv","legacy","Lentiform Loewenfeld","3.3.7","yes","yes","600bd7cfb6416f0113b04181","602110864497cf011d9c0822","0","j","NA","space","space","space","space","j","610","NA","3156","10568","4456","27532","610","2","legacy","1024","2","48000","-16","task","5211137","odd","NA","27613","32771","29615","180549","4722","19760","15301","181052","119190","180547","181052","180508","32771","181663","26050","180008","4679","152976","Lexical Decision Task","71","46930","75","yes","1024"
"2.953276337","6.32","4","thaw","word","93.42105263157895","93.42105263157895","624.1184210526316","624.1184210526316","black","no","legacy","legacy","legacy","0","uniform","0","undefined","undefined","undefined","0","j","0","0","0","0","75","0","0","0","75","0","71","75","71","0","71","3","75","0","75","Wed Feb 17 12:00:31 2021","The main experiment item","yes","Lexical_Decision_Task.osexp","/Users/skyestreeter/Documents/UNI/YR2TRM2/CaL","no","Andale Mono","no","18","no","white","no","yes","576","legacy","71","71","3","/Users/skyestreeter/Documents/UNI/YR2TRM2/CaL/subject-5211137.csv","legacy","Lentiform Loewenfeld","3.3.7","yes","yes","600bd7cfb6416f0113b04181","602110864497cf011d9c0822","0","f","NA","space","space","space","space","f","503","NA","3156","10568","4456","27532","503","2","legacy","1024","2","48000","-16","task","5211137","odd","NA","27613","32771","29615","182209","4722","19760","15301","182713","119190","182208","182713","182168","32771","183217","26050","181668","4679","152976","Lexical Decision Task","71","47433","76","yes","1024"
"2.842815106","7.86","8","lump","word","93.50649350649351","93.50649350649351","627.025974025974","627.025974025974","black","no","legacy","legacy","legacy","0","uniform","1","undefined","undefined","undefined","1","j","0","0","0","0","76","0","0","0","76","0","72","76","72","0","72","3","76","0","76","Wed Feb 17 12:00:31 2021","The main experiment item","yes","Lexical_Decision_Task.osexp","/Users/skyestreeter/Documents/UNI/YR2TRM2/CaL","no","Andale Mono","no","18","no","white","no","yes","576","legacy","72","72","3","/Users/skyestreeter/Documents/UNI/YR2TRM2/CaL/subject-5211137.csv","legacy","Lentiform Loewenfeld","3.3.7","yes","yes","600bd7cfb6416f0113b04181","602110864497cf011d9c0822","0","j","NA","space","space","space","space","j","848","NA","3156","10568","4456","27532","848","2","legacy","1024","2","48000","-16","task","5211137","odd","NA","27613","32771","29615","184765","4722","19760","15301","185267","119190","184763","185267","184722","32771","186116","26050","181668","4679","183222","Lexical Decision Task","72","48281","77","yes","1024"
"2.839268497","0","8","maft","non-word","93.58974358974359","93.58974358974359","626.8846153846154","626.8846153846154","black","no","legacy","legacy","legacy","0","uniform","1","undefined","undefined","undefined","1","f","0","0","0","0","77","0","0","0","77","0","73","77","73","0","73","3","77","0","77","Wed Feb 17 12:00:31 2021","The main experiment item","yes","Lexical_Decision_Task.osexp","/Users/skyestreeter/Documents/UNI/YR2TRM2/CaL","no","Andale Mono","no","18","no","white","no","yes","576","legacy","73","73","3","/Users/skyestreeter/Documents/UNI/YR2TRM2/CaL/subject-5211137.csv","legacy","Lentiform Loewenfeld","3.3.7","yes","yes","600bd7cfb6416f0113b04181","602110864497cf011d9c0822","0","f","NA","space","space","space","space","f","616","NA","3156","10568","4456","27532","616","2","legacy","1024","2","48000","-16","task","5211137","odd","NA","27613","32771","29615","186661","4722","19760","15301","187163","119190","186659","187163","186620","32771","187780","26050","186120","4679","183222","Lexical Decision Task","73","48897","78","yes","1024"
"2.82129731","6.72","5","plum","word","93.67088607594937","93.67088607594937","625.9113924050633","625.9113924050633","black","no","legacy","legacy","legacy","0","uniform","1","undefined","undefined","undefined","1","j","0","0","0","0","78","0","0","0","78","0","74","78","74","0","74","3","78","0","78","Wed Feb 17 12:00:31 2021","The main experiment item","yes","Lexical_Decision_Task.osexp","/Users/skyestreeter/Documents/UNI/YR2TRM2/CaL","no","Andale Mono","no","18","no","white","no","yes","576","legacy","74","74","3","/Users/skyestreeter/Documents/UNI/YR2TRM2/CaL/subject-5211137.csv","legacy","Lentiform Loewenfeld","3.3.7","yes","yes","600bd7cfb6416f0113b04181","602110864497cf011d9c0822","0","j","NA","space","space","space","space","j","550","NA","3156","10568","4456","27532","550","2","legacy","1024","2","48000","-16","task","5211137","odd","NA","27613","32771","29615","188326","4722","19760","15301","188828","119190","188324","188828","188285","32771","189379","26050","187784","4679","183222","Lexical Decision Task","74","49447","79","yes","1024"
"3.16326079","0","5","parg","non-word","93.75","93.75","625.2","625.2","black","no","legacy","legacy","legacy","0","uniform","1","undefined","undefined","undefined","1","f","0","0","0","0","79","0","0","0","79","0","75","79","75","0","75","3","79","0","79","Wed Feb 17 12:00:31 2021","The main experiment item","yes","Lexical_Decision_Task.osexp","/Users/skyestreeter/Documents/UNI/YR2TRM2/CaL","no","Andale Mono","no","18","no","white","no","yes","576","legacy","75","75","3","/Users/skyestreeter/Documents/UNI/YR2TRM2/CaL/subject-5211137.csv","legacy","Lentiform Loewenfeld","3.3.7","yes","yes","600bd7cfb6416f0113b04181","602110864497cf011d9c0822","0","f","NA","space","space","space","space","f","569","NA","3156","10568","4456","27532","569","2","legacy","1024","2","48000","-16","task","5211137","odd","NA","27613","32771","29615","189926","4722","19760","15301","190428","119190","189924","190428","189884","32771","190998","26050","189384","4679","183222","Lexical Decision Task","75","50016","80","yes","1024"
"3.197740804","6.74","3","ache","word","93.82716049382717","93.82716049382717","630.1481481481482","630.1481481481482","black","no","legacy","legacy","legacy","0","uniform","1","undefined","undefined","undefined","1","j","0","0","0","0","80","0","0","0","80","0","76","80","76","0","76","3","80","0","80","Wed Feb 17 12:00:31 2021","The main experiment item","yes","Lexical_Decision_Task.osexp","/Users/skyestreeter/Documents/UNI/YR2TRM2/CaL","no","Andale Mono","no","18","no","white","no","yes","576","legacy","76","76","3","/Users/skyestreeter/Documents/UNI/YR2TRM2/CaL/subject-5211137.csv","legacy","Lentiform Loewenfeld","3.3.7","yes","yes","600bd7cfb6416f0113b04181","602110864497cf011d9c0822","0","j","NA","space","space","space","space","j","1026","NA","3156","10568","4456","27532","1026","2","legacy","1024","2","48000","-16","task","5211137","odd","NA","27613","32771","29615","191545","4722","19760","15301","192047","119190","191542","192048","191502","32771","193075","26050","191002","4679","183222","Lexical Decision Task","76","51042","81","yes","1024"
"3.068433376","8.09","2","bulb","word","93.90243902439025","93.90243902439025","630.0853658536586","630.0853658536586","black","no","legacy","legacy","legacy","0","uniform","1","undefined","undefined","undefined","1","j","0","0","0","0","81","0","0","0","81","0","77","81","77","0","77","3","81","0","81","Wed Feb 17 12:00:31 2021","The main experiment item","yes","Lexical_Decision_Task.osexp","/Users/skyestreeter/Documents/UNI/YR2TRM2/CaL","no","Andale Mono","no","18","no","white","no","yes","576","legacy","77","77","3","/Users/skyestreeter/Documents/UNI/YR2TRM2/CaL/subject-5211137.csv","legacy","Lentiform Loewenfeld","3.3.7","yes","yes","600bd7cfb6416f0113b04181","602110864497cf011d9c0822","0","j","NA","space","space","space","space","j","625","NA","3156","10568","4456","27532","625","2","legacy","1024","2","48000","-16","task","5211137","odd","NA","27613","32771","29615","193620","4722","19760","15301","194122","119190","193619","194122","193579","32771","194748","26050","193079","4679","183222","Lexical Decision Task","77","51667","82","yes","1024"
"3.307211407","6.07","7","honk","word","93.97590361445783","93.97590361445783","629.6987951807229","629.6987951807229","black","no","legacy","legacy","legacy","0","uniform","1","undefined","undefined","undefined","1","j","0","0","0","0","82","0","0","0","82","0","78","82","78","0","78","3","82","0","82","Wed Feb 17 12:00:31 2021","The main experiment item","yes","Lexical_Decision_Task.osexp","/Users/skyestreeter/Documents/UNI/YR2TRM2/CaL","no","Andale Mono","no","18","no","white","no","yes","576","legacy","78","78","3","/Users/skyestreeter/Documents/UNI/YR2TRM2/CaL/subject-5211137.csv","legacy","Lentiform Loewenfeld","3.3.7","yes","yes","600bd7cfb6416f0113b04181","602110864497cf011d9c0822","0","j","NA","space","space","space","space","j","598","NA","3156","10568","4456","27532","598","2","legacy","1024","2","48000","-16","task","5211137","odd","NA","27613","32771","29615","195293","4722","19760","15301","195795","119190","195291","195795","195252","32771","196394","26050","194752","4679","183222","Lexical Decision Task","78","52265","83","yes","1024"
"3.031408464","0","7","drow","non-word","94.04761904761905","94.04761904761905","629.6785714285714","629.6785714285714","black","no","legacy","legacy","legacy","0","uniform","1","undefined","undefined","undefined","1","f","0","0","0","0","83","0","0","0","83","0","79","83","79","0","79","3","83","0","83","Wed Feb 17 12:00:31 2021","The main experiment item","yes","Lexical_Decision_Task.osexp","/Users/skyestreeter/Documents/UNI/YR2TRM2/CaL","no","Andale Mono","no","18","no","white","no","yes","576","legacy","79","79","3","/Users/skyestreeter/Documents/UNI/YR2TRM2/CaL/subject-5211137.csv","legacy","Lentiform Loewenfeld","3.3.7","yes","yes","600bd7cfb6416f0113b04181","602110864497cf011d9c0822","0","f","NA","space","space","space","space","f","628","NA","3156","10568","4456","27532","628","2","legacy","1024","2","48000","-16","task","5211137","odd","NA","27613","32771","29615","196940","4722","19760","15301","197443","119190","196938","197443","196898","32771","198071","26050","196398","4679","183222","Lexical Decision Task","79","52893","84","yes","1024"
"3.460446784","0","5","dess","non-word","94.11764705882354","94.11764705882354","630.1411764705882","630.1411764705882","black","no","legacy","legacy","legacy","0","uniform","1","undefined","undefined","undefined","1","f","0","0","0","0","84","0","0","0","84","0","80","84","80","0","80","3","84","0","84","Wed Feb 17 12:00:31 2021","The main experiment item","yes","Lexical_Decision_Task.osexp","/Users/skyestreeter/Documents/UNI/YR2TRM2/CaL","no","Andale Mono","no","18","no","white","no","yes","576","legacy","80","80","3","/Users/skyestreeter/Documents/UNI/YR2TRM2/CaL/subject-5211137.csv","legacy","Lentiform Loewenfeld","3.3.7","yes","yes","600bd7cfb6416f0113b04181","602110864497cf011d9c0822","0","f","NA","space","space","space","space","f","669","NA","3156","10568","4456","27532","669","2","legacy","1024","2","48000","-16","task","5211137","odd","NA","27613","32771","29615","198618","4722","19760","15301","199120","119190","198615","199121","198576","32771","199790","26050","198076","4679","183222","Lexical Decision Task","80","53562","85","yes","1024"
"3.153001286","8.7","5","palm","word","94.18604651162791","94.18604651162791","629.8255813953489","629.8255813953489","black","no","legacy","legacy","legacy","0","uniform","1","undefined","undefined","undefined","1","j","0","0","0","0","85","0","0","0","85","0","81","85","81","0","81","3","85","0","85","Wed Feb 17 12:00:31 2021","The main experiment item","yes","Lexical_Decision_Task.osexp","/Users/skyestreeter/Documents/UNI/YR2TRM2/CaL","no","Andale Mono","no","18","no","white","no","yes","576","legacy","81","81","3","/Users/skyestreeter/Documents/UNI/YR2TRM2/CaL/subject-5211137.csv","legacy","Lentiform Loewenfeld","3.3.7","yes","yes","600bd7cfb6416f0113b04181","602110864497cf011d9c0822","0","j","NA","space","space","space","space","j","603","NA","3156","10568","4456","27532","603","2","legacy","1024","2","48000","-16","task","5211137","odd","NA","27613","32771","29615","200337","4722","19760","15301","200840","119190","200334","200840","200295","32771","201443","26050","199795","4679","183222","Lexical Decision Task","81","54165","86","yes","1024"
"3.481012421","8.34","5","teen","word","94.25287356321839","94.25287356321839","629.3103448275862","629.3103448275862","black","no","legacy","legacy","legacy","0","uniform","1","undefined","undefined","undefined","1","j","0","0","0","0","86","0","0","0","86","0","82","86","82","0","82","3","86","0","86","Wed Feb 17 12:00:31 2021","The main experiment item","yes","Lexical_Decision_Task.osexp","/Users/skyestreeter/Documents/UNI/YR2TRM2/CaL","no","Andale Mono","no","18","no","white","no","yes","576","legacy","82","82","3","/Users/skyestreeter/Documents/UNI/YR2TRM2/CaL/subject-5211137.csv","legacy","Lentiform Loewenfeld","3.3.7","yes","yes","600bd7cfb6416f0113b04181","602110864497cf011d9c0822","0","j","NA","space","space","space","space","j","585","NA","3156","10568","4456","27532","585","2","legacy","1024","2","48000","-16","task","5211137","odd","NA","27613","32771","29615","201989","4722","19760","15301","202491","119190","201987","202491","201948","32771","203077","26050","201447","4679","183222","Lexical Decision Task","82","54750","87","yes","1024"
"2.899638141","0","3","hapt","non-word","94.31818181818181","94.31818181818181","628.2727272727273","628.2727272727273","black","no","legacy","legacy","legacy","0","uniform","1","undefined","undefined","undefined","1","f","0","0","0","0","87","0","0","0","87","0","83","87","83","0","83","3","87","0","87","Wed Feb 17 12:00:31 2021","The main experiment item","yes","Lexical_Decision_Task.osexp","/Users/skyestreeter/Documents/UNI/YR2TRM2/CaL","no","Andale Mono","no","18","no","white","no","yes","576","legacy","83","83","3","/Users/skyestreeter/Documents/UNI/YR2TRM2/CaL/subject-5211137.csv","legacy","Lentiform Loewenfeld","3.3.7","yes","yes","600bd7cfb6416f0113b04181","602110864497cf011d9c0822","0","f","NA","space","space","space","space","f","538","NA","3156","10568","4456","27532","538","2","legacy","1024","2","48000","-16","task","5211137","odd","NA","27613","32771","29615","203622","4722","19760","15301","204124","119190","203620","204124","203581","32771","204663","26050","203081","4679","183222","Lexical Decision Task","83","55288","88","yes","1024"
"2.594027722","9.08","8","skip","word","94.38202247191012","94.38202247191012","627.8426966292135","627.8426966292135","black","no","legacy","legacy","legacy","0","uniform","1","undefined","undefined","undefined","1","j","0","0","0","0","88","0","0","0","88","0","84","88","84","0","84","3","88","0","88","Wed Feb 17 12:00:31 2021","The main experiment item","yes","Lexical_Decision_Task.osexp","/Users/skyestreeter/Documents/UNI/YR2TRM2/CaL","no","Andale Mono","no","18","no","white","no","yes","576","legacy","84","84","3","/Users/skyestreeter/Documents/UNI/YR2TRM2/CaL/subject-5211137.csv","legacy","Lentiform Loewenfeld","3.3.7","yes","yes","600bd7cfb6416f0113b04181","602110864497cf011d9c0822","0","j","NA","space","space","space","space","j","590","NA","3156","10568","4456","27532","590","2","legacy","1024","2","48000","-16","task","5211137","odd","NA","27613","32771","29615","205209","4722","19760","15301","205711","119190","205207","205711","205168","32771","206302","26050","204668","4679","183222","Lexical Decision Task","84","55878","89","yes","1024"
"2.971428938","9.86","7","spot","word","94.44444444444444","94.44444444444444","627.3555555555556","627.3555555555556","black","no","legacy","legacy","legacy","0","uniform","1","undefined","undefined","undefined","1","j","0","0","0","0","89","0","0","0","89","0","85","89","85","0","85","3","89","0","89","Wed Feb 17 12:00:31 2021","The main experiment item","yes","Lexical_Decision_Task.osexp","/Users/skyestreeter/Documents/UNI/YR2TRM2/CaL","no","Andale Mono","no","18","no","white","no","yes","576","legacy","85","85","3","/Users/skyestreeter/Documents/UNI/YR2TRM2/CaL/subject-5211137.csv","legacy","Lentiform Loewenfeld","3.3.7","yes","yes","600bd7cfb6416f0113b04181","602110864497cf011d9c0822","0","j","NA","space","space","space","space","j","584","NA","3156","10568","4456","27532","584","2","legacy","1024","2","48000","-16","task","5211137","odd","NA","27613","32771","29615","206848","4722","19760","15301","207350","119190","206846","207350","206807","32771","207935","26050","206307","4679","183222","Lexical Decision Task","85","56462","90","yes","1024"
"2.996511672","0","7","hoil","non-word","94.50549450549451","94.50549450549451","631.065934065934","631.065934065934","black","no","legacy","legacy","legacy","0","uniform","1","undefined","undefined","undefined","1","f","0","0","0","0","90","0","0","0","90","0","86","90","86","0","86","3","90","0","90","Wed Feb 17 12:00:31 2021","The main experiment item","yes","Lexical_Decision_Task.osexp","/Users/skyestreeter/Documents/UNI/YR2TRM2/CaL","no","Andale Mono","no","18","no","white","no","yes","576","legacy","86","86","3","/Users/skyestreeter/Documents/UNI/YR2TRM2/CaL/subject-5211137.csv","legacy","Lentiform Loewenfeld","3.3.7","yes","yes","600bd7cfb6416f0113b04181","602110864497cf011d9c0822","0","f","NA","space","space","space","space","f","965","NA","3156","10568","4456","27532","965","2","legacy","1024","2","48000","-16","task","5211137","odd","NA","27613","32771","29615","208481","4722","19760","15301","208984","119190","208480","208984","208440","32771","209950","26050","207940","4679","183222","Lexical Decision Task","86","57427","91","yes","1024"
"3.100255637","0","6","brax","non-word","94.56521739130434","94.56521739130434","636.1630434782609","636.1630434782609","black","no","legacy","legacy","legacy","0","uniform","1","undefined","undefined","undefined","1","f","0","0","0","0","91","0","0","0","91","0","87","91","87","0","87","3","91","0","91","Wed Feb 17 12:00:31 2021","The main experiment item","yes","Lexical_Decision_Task.osexp","/Users/skyestreeter/Documents/UNI/YR2TRM2/CaL","no","Andale Mono","no","18","no","white","no","yes","576","legacy","87","87","3","/Users/skyestreeter/Documents/UNI/YR2TRM2/CaL/subject-5211137.csv","legacy","Lentiform Loewenfeld","3.3.7","yes","yes","600bd7cfb6416f0113b04181","602110864497cf011d9c0822","0","f","NA","space","space","space","space","f","1100","NA","3156","10568","4456","27532","1100","2","legacy","1024","2","48000","-16","task","5211137","odd","NA","27613","32771","29615","210496","4722","19760","15301","211001","119190","210493","211001","210454","32771","212102","26050","209954","4679","183222","Lexical Decision Task","87","58527","92","yes","1024"
"2.895974732","6.65","5","sift","word","93.54838709677419","93.54838709677419","639.8494623655914","639.8494623655914","black","no","legacy","legacy","legacy","0","uniform","0","undefined","undefined","undefined","0","j","0","0","0","0","92","0","0","0","92","0","88","92","88","0","88","3","92","0","92","Wed Feb 17 12:00:31 2021","The main experiment item","yes","Lexical_Decision_Task.osexp","/Users/skyestreeter/Documents/UNI/YR2TRM2/CaL","no","Andale Mono","no","18","no","white","no","yes","576","legacy","88","88","3","/Users/skyestreeter/Documents/UNI/YR2TRM2/CaL/subject-5211137.csv","legacy","Lentiform Loewenfeld","3.3.7","yes","yes","600bd7cfb6416f0113b04181","602110864497cf011d9c0822","0","f","NA","space","space","space","space","f","979","NA","3156","10568","4456","27532","979","2","legacy","1024","2","48000","-16","task","5211137","odd","NA","27613","32771","29615","212649","4722","19760","15301","213151","119190","212646","213151","212607","32771","214131","26050","212107","4679","183222","Lexical Decision Task","87","59506","93","yes","1024"
"2.698387659","6.66","7","skid","word","93.61702127659575","93.61702127659575","638.5851063829788","638.5851063829788","black","no","legacy","legacy","legacy","0","uniform","1","undefined","undefined","undefined","1","j","0","0","0","0","93","0","0","0","93","0","89","93","89","0","89","3","93","0","93","Wed Feb 17 12:00:31 2021","The main experiment item","yes","Lexical_Decision_Task.osexp","/Users/skyestreeter/Documents/UNI/YR2TRM2/CaL","no","Andale Mono","no","18","no","white","no","yes","576","legacy","89","89","3","/Users/skyestreeter/Documents/UNI/YR2TRM2/CaL/subject-5211137.csv","legacy","Lentiform Loewenfeld","3.3.7","yes","yes","600bd7cfb6416f0113b04181","602110864497cf011d9c0822","0","j","NA","space","space","space","space","j","521","NA","3156","10568","4456","27532","521","2","legacy","1024","2","48000","-16","task","5211137","odd","NA","27613","32771","29615","215680","4722","19760","15301","216182","119190","215676","216182","215635","32771","216704","26050","212107","4679","214135","Lexical Decision Task","88","60027","94","yes","1024"
"3.316948329","0","1","besc","non-word","93.6842105263158","93.6842105263158","637.3894736842105","637.3894736842105","black","no","legacy","legacy","legacy","0","uniform","1","undefined","undefined","undefined","1","f","0","0","0","0","94","0","0","0","94","0","90","94","90","0","90","3","94","0","94","Wed Feb 17 12:00:31 2021","The main experiment item","yes","Lexical_Decision_Task.osexp","/Users/skyestreeter/Documents/UNI/YR2TRM2/CaL","no","Andale Mono","no","18","no","white","no","yes","576","legacy","90","90","3","/Users/skyestreeter/Documents/UNI/YR2TRM2/CaL/subject-5211137.csv","legacy","Lentiform Loewenfeld","3.3.7","yes","yes","600bd7cfb6416f0113b04181","602110864497cf011d9c0822","0","f","NA","space","space","space","space","f","525","NA","3156","10568","4456","27532","525","2","legacy","1024","2","48000","-16","task","5211137","odd","NA","27613","32771","29615","217250","4722","19760","15301","217755","119190","217248","217755","217209","32771","218281","26050","216709","4679","214135","Lexical Decision Task","89","60552","95","yes","1024"
"2.696356389","0","1","pizz","non-word","93.75","93.75","637.2083333333334","637.2083333333334","black","no","legacy","legacy","legacy","0","uniform","1","undefined","undefined","undefined","1","f","0","0","0","0","95","0","0","0","95","0","91","95","91","0","91","3","95","0","95","Wed Feb 17 12:00:31 2021","The main experiment item","yes","Lexical_Decision_Task.osexp","/Users/skyestreeter/Documents/UNI/YR2TRM2/CaL","no","Andale Mono","no","18","no","white","no","yes","576","legacy","91","91","3","/Users/skyestreeter/Documents/UNI/YR2TRM2/CaL/subject-5211137.csv","legacy","Lentiform Loewenfeld","3.3.7","yes","yes","600bd7cfb6416f0113b04181","602110864497cf011d9c0822","0","f","NA","space","space","space","space","f","620","NA","3156","10568","4456","27532","620","2","legacy","1024","2","48000","-16","task","5211137","odd","NA","27613","32771","29615","218829","4722","19760","15301","219333","119190","218825","219334","218785","32771","219955","26050","218285","4679","214135","Lexical Decision Task","90","61172","96","yes","1024"
"3.010582609","0","2","drod","non-word","93.81443298969072","93.81443298969072","636.7113402061856","636.7113402061856","black","no","legacy","legacy","legacy","0","uniform","1","undefined","undefined","undefined","1","f","0","0","0","0","96","0","0","0","96","0","92","96","92","0","92","3","96","0","96","Wed Feb 17 12:00:31 2021","The main experiment item","yes","Lexical_Decision_Task.osexp","/Users/skyestreeter/Documents/UNI/YR2TRM2/CaL","no","Andale Mono","no","18","no","white","no","yes","576","legacy","92","92","3","/Users/skyestreeter/Documents/UNI/YR2TRM2/CaL/subject-5211137.csv","legacy","Lentiform Loewenfeld","3.3.7","yes","yes","600bd7cfb6416f0113b04181","602110864497cf011d9c0822","0","f","NA","space","space","space","space","f","589","NA","3156","10568","4456","27532","589","2","legacy","1024","2","48000","-16","task","5211137","odd","NA","27613","32771","29615","220502","4722","19760","15301","221005","119190","220498","221005","220459","32771","221595","26050","219959","4679","214135","Lexical Decision Task","91","61761","97","yes","1024"
