"Log_BG","Log_Freq_HAL","Ortho_N","Stimulus","Type","acc","accuracy","average_response_time","avg_rt","background","bidi","canvas_backend","clock_backend","color_backend","compensation","coordinates","correct","correct_Experimental_intro","correct_Introduction","correct_Practice_intro","correct_experimenter_kb","correct_response","count_End_Of_Experiment","count_End_Of_Practice","count_Experimental_Loop","count_Experimental_intro","count_Fixation","count_Introduction","count_Practice_Loop","count_Practice_intro","count_Stimulus","count_block_break_feedback","count_experimental_sequence","count_experimenter_kb","count_increment_trial_count","count_init_trial_count","count_logger","count_practice_sequence","count_right","count_task","count_wrong","datetime","description","disable_garbage_collection","experiment_file","experiment_path","font_bold","font_family","font_italic","font_size","font_underline","foreground","form_clicks","fullscreen","height","keyboard_backend","live_row","live_row_Experimental_Loop","live_row_Practice_Loop","logfile","mouse_backend","opensesame_codename","opensesame_version","osf_always_upload_data","osf_always_upload_experiment","osf_datanode_id","osf_id","repeat_cycle","response","response_End_Of_Experiment","response_Experimental_intro","response_Introduction","response_Practice_intro","response_block_break_feedback","response_experimenter_kb","response_time","response_time_End_Of_Experiment","response_time_Experimental_intro","response_time_Introduction","response_time_Practice_intro","response_time_block_break_feedback","response_time_experimenter_kb","round_decimals","sampler_backend","sound_buf_size","sound_channels","sound_freq","sound_sample_size","start","subject_nr","subject_parity","time_End_Of_Experiment","time_End_Of_Practice","time_Experimental_Loop","time_Experimental_intro","time_Fixation","time_Introduction","time_Practice_Loop","time_Practice_intro","time_Stimulus","time_block_break_feedback","time_experimental_sequence","time_experimenter_kb","time_increment_trial_count","time_init_trial_count","time_logger","time_practice_sequence","time_right","time_task","time_wrong","title","total_correct","total_response_time","total_responses","uniform_coordinates","width"
"3.274543461","7.46","7","scar","word","100","100","997.4","997.4","black","no","legacy","legacy","legacy","0","uniform","1","undefined","undefined","undefined","1","j","0","0","0","0","4","0","0","0","4","NA","0","4","0","0","0","3","4","0","4","Fri Feb 19 14:19:26 2021","The main experiment item","yes","Lexical_Decision_Task.osexp","C:/Users/laure/Desktop","no","Andale Mono","no","18","no","white","no","yes","576","legacy","0","0","3","C:/Users/laure/Desktop/subject-52069671.csv","legacy","Lentiform Loewenfeld","3.3.7","yes","yes","600bd7cfb6416f0113b04181","602110864497cf011d9c0822","0","j","NA","space","space","space","NA","j","638","NA","2357","14711","4257","NA","638","2","legacy","1024","2","48000","-16","task","5206967","odd","NA","31470","35828","33471","35863","3869","22841","18583","36364","NA","35862","36364","NA","35828","37002","29449","30943","3864","NA","Lexical Decision Task","5","4987","5","yes","1024"
"3.039414119","0","9","meep","non-word","100","100","937.5","937.5","black","no","legacy","legacy","legacy","0","uniform","1","undefined","undefined","undefined","1","f","0","0","0","0","5","0","0","0","5","NA","1","5","1","0","1","3","5","0","5","Fri Feb 19 14:19:26 2021","The main experiment item","yes","Lexical_Decision_Task.osexp","C:/Users/laure/Desktop","no","Andale Mono","no","18","no","white","no","yes","576","legacy","1","1","3","C:/Users/laure/Desktop/subject-52069671.csv","legacy","Lentiform Loewenfeld","3.3.7","yes","yes","600bd7cfb6416f0113b04181","602110864497cf011d9c0822","0","f","NA","space","space","space","NA","f","638","NA","2357","14711","4257","NA","638","2","legacy","1024","2","48000","-16","task","5206967","odd","NA","31470","35828","33471","37566","3869","22841","18583","38067","NA","37565","38067","37508","35828","38705","29449","37008","3864","NA","Lexical Decision Task","6","5625","6","yes","1024"
"3.443783828","7.65","3","verb","word","100","100","880.7142857142857","880.7142857142857","black","no","legacy","legacy","legacy","0","uniform","1","undefined","undefined","undefined","1","j","0","0","0","0","6","0","0","0","6","NA","2","6","2","0","2","3","6","0","6","Fri Feb 19 14:19:26 2021","The main experiment item","yes","Lexical_Decision_Task.osexp","C:/Users/laure/Desktop","no","Andale Mono","no","18","no","white","no","yes","576","legacy","2","2","3","C:/Users/laure/Desktop/subject-52069671.csv","legacy","Lentiform Loewenfeld","3.3.7","yes","yes","600bd7cfb6416f0113b04181","602110864497cf011d9c0822","0","j","NA","space","space","space","NA","j","540","NA","2357","14711","4257","NA","540","2","legacy","1024","2","48000","-16","task","5206967","odd","NA","31470","35828","33471","39267","3869","22841","18583","39768","NA","39266","39768","39208","35828","40308","29449","38708","3864","NA","Lexical Decision Task","7","6165","7","yes","1024"
"3.531734309","0","6","lerd","non-word","100","100","872.5","872.5","black","no","legacy","legacy","legacy","0","uniform","1","undefined","undefined","undefined","1","f","0","0","0","0","7","0","0","0","7","NA","3","7","3","0","3","3","7","0","7","Fri Feb 19 14:19:26 2021","The main experiment item","yes","Lexical_Decision_Task.osexp","C:/Users/laure/Desktop","no","Andale Mono","no","18","no","white","no","yes","576","legacy","3","3","3","C:/Users/laure/Desktop/subject-52069671.csv","legacy","Lentiform Loewenfeld","3.3.7","yes","yes","600bd7cfb6416f0113b04181","602110864497cf011d9c0822","0","f","NA","space","space","space","NA","f","815","NA","2357","14711","4257","NA","815","2","legacy","1024","2","48000","-16","task","5206967","odd","NA","31470","35828","33471","40876","3869","22841","18583","41377","NA","40875","41377","40819","35828","42193","29449","40319","3864","NA","Lexical Decision Task","8","6980","8","yes","1024"
"3.067193647","6.73","6","raft","word","100","100","871.2222222222222","871.2222222222222","black","no","legacy","legacy","legacy","0","uniform","1","undefined","undefined","undefined","1","j","0","0","0","0","8","0","0","0","8","NA","4","8","4","0","4","3","8","0","8","Fri Feb 19 14:19:26 2021","The main experiment item","yes","Lexical_Decision_Task.osexp","C:/Users/laure/Desktop","no","Andale Mono","no","18","no","white","no","yes","576","legacy","4","4","3","C:/Users/laure/Desktop/subject-52069671.csv","legacy","Lentiform Loewenfeld","3.3.7","yes","yes","600bd7cfb6416f0113b04181","602110864497cf011d9c0822","0","j","NA","space","space","space","NA","j","861","NA","2357","14711","4257","NA","861","2","legacy","1024","2","48000","-16","task","5206967","odd","NA","31470","35828","33471","42761","3869","22841","18583","43262","NA","42760","43262","42703","35828","44124","29449","42203","3864","NA","Lexical Decision Task","9","7841","9","yes","1024"
"2.980306438","0","7","slun","non-word","100","100","842","842","black","no","legacy","legacy","legacy","0","uniform","1","undefined","undefined","undefined","1","f","0","0","0","0","9","0","0","0","9","NA","5","9","5","0","5","3","9","0","9","Fri Feb 19 14:19:26 2021","The main experiment item","yes","Lexical_Decision_Task.osexp","C:/Users/laure/Desktop","no","Andale Mono","no","18","no","white","no","yes","576","legacy","5","5","3","C:/Users/laure/Desktop/subject-52069671.csv","legacy","Lentiform Loewenfeld","3.3.7","yes","yes","600bd7cfb6416f0113b04181","602110864497cf011d9c0822","0","f","NA","space","space","space","NA","f","579","NA","2357","14711","4257","NA","579","2","legacy","1024","2","48000","-16","task","5206967","odd","NA","31470","35828","33471","44691","3869","22841","18583","45192","NA","44689","45192","44634","35828","45771","29449","44134","3864","NA","Lexical Decision Task","10","8420","10","yes","1024"
"3.031812271","6.52","3","gulp","word","100","100","844.7272727272727","844.7272727272727","black","no","legacy","legacy","legacy","0","uniform","1","undefined","undefined","undefined","1","j","0","0","0","0","10","0","0","0","10","NA","6","10","6","0","6","3","10","0","10","Fri Feb 19 14:19:26 2021","The main experiment item","yes","Lexical_Decision_Task.osexp","C:/Users/laure/Desktop","no","Andale Mono","no","18","no","white","no","yes","576","legacy","6","6","3","C:/Users/laure/Desktop/subject-52069671.csv","legacy","Lentiform Loewenfeld","3.3.7","yes","yes","600bd7cfb6416f0113b04181","602110864497cf011d9c0822","0","j","NA","space","space","space","NA","j","872","NA","2357","14711","4257","NA","872","2","legacy","1024","2","48000","-16","task","5206967","odd","NA","31470","35828","33471","46340","3869","22841","18583","46841","NA","46338","46841","46283","35828","47714","29449","45783","3864","NA","Lexical Decision Task","11","9292","11","yes","1024"
"3.120135028","0","3","vals","non-word","91.66666666666667","91.66666666666667","855.3333333333334","855.3333333333334","black","no","legacy","legacy","legacy","0","uniform","0","undefined","undefined","undefined","0","f","0","0","0","0","11","0","0","0","11","NA","7","11","7","0","7","3","11","0","11","Fri Feb 19 14:19:26 2021","The main experiment item","yes","Lexical_Decision_Task.osexp","C:/Users/laure/Desktop","no","Andale Mono","no","18","no","white","no","yes","576","legacy","7","7","3","C:/Users/laure/Desktop/subject-52069671.csv","legacy","Lentiform Loewenfeld","3.3.7","yes","yes","600bd7cfb6416f0113b04181","602110864497cf011d9c0822","0","j","NA","space","space","space","NA","j","972","NA","2357","14711","4257","NA","972","2","legacy","1024","2","48000","-16","task","5206967","odd","NA","31470","35828","33471","48279","3869","22841","18583","48780","NA","48278","48780","48223","35828","49753","29449","47723","3864","NA","Lexical Decision Task","11","10264","12","yes","1024"
"3.2757719","0","5","slea","non-word","92.3076923076923","92.3076923076923","866.8461538461538","866.8461538461538","black","no","legacy","legacy","legacy","0","uniform","1","undefined","undefined","undefined","1","f","0","0","0","0","12","0","0","0","12","NA","8","12","8","0","8","3","12","0","12","Fri Feb 19 14:19:26 2021","The main experiment item","yes","Lexical_Decision_Task.osexp","C:/Users/laure/Desktop","no","Andale Mono","no","18","no","white","no","yes","576","legacy","8","8","3","C:/Users/laure/Desktop/subject-52069671.csv","legacy","Lentiform Loewenfeld","3.3.7","yes","yes","600bd7cfb6416f0113b04181","602110864497cf011d9c0822","0","f","NA","space","space","space","NA","f","1005","NA","2357","14711","4257","NA","1005","2","legacy","1024","2","48000","-16","task","5206967","odd","NA","31470","35828","33471","51320","3869","22841","18583","51821","NA","51319","51821","51264","35828","52826","29449","47723","3864","49764","Lexical Decision Task","12","11269","13","yes","1024"
"3.132473155","0","4","glim","non-word","85.71428571428571","85.71428571428571","879.0714285714286","879.0714285714286","black","no","legacy","legacy","legacy","0","uniform","0","undefined","undefined","undefined","0","f","0","0","0","0","13","0","0","0","13","NA","9","13","9","0","9","3","13","0","13","Fri Feb 19 14:19:26 2021","The main experiment item","yes","Lexical_Decision_Task.osexp","C:/Users/laure/Desktop","no","Andale Mono","no","18","no","white","no","yes","576","legacy","9","9","3","C:/Users/laure/Desktop/subject-52069671.csv","legacy","Lentiform Loewenfeld","3.3.7","yes","yes","600bd7cfb6416f0113b04181","602110864497cf011d9c0822","0","j","NA","space","space","space","NA","j","1038","NA","2357","14711","4257","NA","1038","2","legacy","1024","2","48000","-16","task","5206967","odd","NA","31470","35828","33471","53388","3869","22841","18583","53889","NA","53387","53890","53329","35828","54928","29449","52829","3864","49764","Lexical Decision Task","12","12307","14","yes","1024"
"2.703007489","8.37","3","pulp","word","86.66666666666667","86.66666666666667","873","873","black","no","legacy","legacy","legacy","0","uniform","1","undefined","undefined","undefined","1","j","0","0","0","0","14","0","0","0","14","NA","10","14","10","0","10","3","14","0","14","Fri Feb 19 14:19:26 2021","The main experiment item","yes","Lexical_Decision_Task.osexp","C:/Users/laure/Desktop","no","Andale Mono","no","18","no","white","no","yes","576","legacy","10","10","3","C:/Users/laure/Desktop/subject-52069671.csv","legacy","Lentiform Loewenfeld","3.3.7","yes","yes","600bd7cfb6416f0113b04181","602110864497cf011d9c0822","0","j","NA","space","space","space","NA","j","788","NA","2357","14711","4257","NA","788","2","legacy","1024","2","48000","-16","task","5206967","odd","NA","31470","35828","33471","56496","3869","22841","18583","56997","NA","56495","56997","56439","35828","57785","29449","52829","3864","54939","Lexical Decision Task","13","13095","15","yes","1024"
"2.594027722","9.08","8","skip","word","87.5","87.5","865.375","865.375","black","no","legacy","legacy","legacy","0","uniform","1","undefined","undefined","undefined","1","j","0","0","0","0","15","0","0","0","15","NA","11","15","11","0","11","3","15","0","15","Fri Feb 19 14:19:26 2021","The main experiment item","yes","Lexical_Decision_Task.osexp","C:/Users/laure/Desktop","no","Andale Mono","no","18","no","white","no","yes","576","legacy","11","11","3","C:/Users/laure/Desktop/subject-52069671.csv","legacy","Lentiform Loewenfeld","3.3.7","yes","yes","600bd7cfb6416f0113b04181","602110864497cf011d9c0822","0","j","NA","space","space","space","NA","j","751","NA","2357","14711","4257","NA","751","2","legacy","1024","2","48000","-16","task","5206967","odd","NA","31470","35828","33471","58353","3869","22841","18583","58854","NA","58351","58854","58296","35828","59605","29449","57796","3864","54939","Lexical Decision Task","14","13846","16","yes","1024"
"2.728085817","10.02","9","bike","word","88.23529411764706","88.23529411764706","848.2352941176471","848.2352941176471","black","no","legacy","legacy","legacy","0","uniform","1","undefined","undefined","undefined","1","j","0","0","0","0","16","0","0","0","16","NA","12","16","12","0","12","3","16","0","16","Fri Feb 19 14:19:26 2021","The main experiment item","yes","Lexical_Decision_Task.osexp","C:/Users/laure/Desktop","no","Andale Mono","no","18","no","white","no","yes","576","legacy","12","12","3","C:/Users/laure/Desktop/subject-52069671.csv","legacy","Lentiform Loewenfeld","3.3.7","yes","yes","600bd7cfb6416f0113b04181","602110864497cf011d9c0822","0","j","NA","space","space","space","NA","j","574","NA","2357","14711","4257","NA","574","2","legacy","1024","2","48000","-16","task","5206967","odd","NA","31470","35828","33471","60167","3869","22841","18583","60668","NA","60166","60668","60112","35828","61243","29449","59612","3864","54939","Lexical Decision Task","15","14420","17","yes","1024"
"3.064581521","5.51","6","cask","word","88.88888888888889","88.88888888888889","841.8888888888889","841.8888888888889","black","no","legacy","legacy","legacy","0","uniform","1","undefined","undefined","undefined","1","j","0","0","0","0","17","0","0","0","17","NA","13","17","13","0","13","3","17","0","17","Fri Feb 19 14:19:26 2021","The main experiment item","yes","Lexical_Decision_Task.osexp","C:/Users/laure/Desktop","no","Andale Mono","no","18","no","white","no","yes","576","legacy","13","13","3","C:/Users/laure/Desktop/subject-52069671.csv","legacy","Lentiform Loewenfeld","3.3.7","yes","yes","600bd7cfb6416f0113b04181","602110864497cf011d9c0822","0","j","NA","space","space","space","NA","j","734","NA","2357","14711","4257","NA","734","2","legacy","1024","2","48000","-16","task","5206967","odd","NA","31470","35828","33471","61813","3869","22841","18583","62314","NA","61811","62314","61754","35828","63049","29449","61254","3864","54939","Lexical Decision Task","16","15154","18","yes","1024"
"3.140404328","10.66","9","deep","word","89.47368421052632","89.47368421052632","825.2105263157895","825.2105263157895","black","no","legacy","legacy","legacy","0","uniform","1","undefined","undefined","undefined","1","j","0","0","0","0","18","0","0","0","18","NA","14","18","14","0","14","3","18","0","18","Fri Feb 19 14:19:26 2021","The main experiment item","yes","Lexical_Decision_Task.osexp","C:/Users/laure/Desktop","no","Andale Mono","no","18","no","white","no","yes","576","legacy","14","14","3","C:/Users/laure/Desktop/subject-52069671.csv","legacy","Lentiform Loewenfeld","3.3.7","yes","yes","600bd7cfb6416f0113b04181","602110864497cf011d9c0822","0","j","NA","space","space","space","NA","j","525","NA","2357","14711","4257","NA","525","2","legacy","1024","2","48000","-16","task","5206967","odd","NA","31470","35828","33471","63608","3869","22841","18583","64109","NA","63607","64109","63552","35828","64634","29449","63051","3864","54939","Lexical Decision Task","17","15679","19","yes","1024"
"2.714888338","0","3","brug","non-word","90","90","822.6","822.6","black","no","legacy","legacy","legacy","0","uniform","1","undefined","undefined","undefined","1","f","0","0","0","0","19","0","0","0","19","NA","15","19","15","0","15","3","19","0","19","Fri Feb 19 14:19:26 2021","The main experiment item","yes","Lexical_Decision_Task.osexp","C:/Users/laure/Desktop","no","Andale Mono","no","18","no","white","no","yes","576","legacy","15","15","3","C:/Users/laure/Desktop/subject-52069671.csv","legacy","Lentiform Loewenfeld","3.3.7","yes","yes","600bd7cfb6416f0113b04181","602110864497cf011d9c0822","0","f","NA","space","space","space","NA","f","773","NA","2357","14711","4257","NA","773","2","legacy","1024","2","48000","-16","task","5206967","odd","NA","31470","35828","33471","65204","3869","22841","18583","65705","NA","65202","65705","65146","35828","66479","29449","64646","3864","54939","Lexical Decision Task","18","16452","20","yes","1024"
"3.307211407","6.07","7","honk","word","90.47619047619048","90.47619047619048","816.7619047619048","816.7619047619048","black","no","legacy","legacy","legacy","0","uniform","1","undefined","undefined","undefined","1","j","0","0","0","0","20","0","0","0","20","NA","16","20","16","0","16","3","20","0","20","Fri Feb 19 14:19:26 2021","The main experiment item","yes","Lexical_Decision_Task.osexp","C:/Users/laure/Desktop","no","Andale Mono","no","18","no","white","no","yes","576","legacy","16","16","3","C:/Users/laure/Desktop/subject-52069671.csv","legacy","Lentiform Loewenfeld","3.3.7","yes","yes","600bd7cfb6416f0113b04181","602110864497cf011d9c0822","0","j","NA","space","space","space","NA","j","700","NA","2357","14711","4257","NA","700","2","legacy","1024","2","48000","-16","task","5206967","odd","NA","31470","35828","33471","67048","3869","22841","18583","67549","NA","67046","67549","66989","35828","68250","29449","66489","3864","54939","Lexical Decision Task","19","17152","21","yes","1024"
"3.252447662","9.67","9","boat","word","90.9090909090909","90.9090909090909","806.2272727272727","806.2272727272727","black","no","legacy","legacy","legacy","0","uniform","1","undefined","undefined","undefined","1","j","0","0","0","0","21","0","0","0","21","NA","17","21","17","0","17","3","21","0","21","Fri Feb 19 14:19:26 2021","The main experiment item","yes","Lexical_Decision_Task.osexp","C:/Users/laure/Desktop","no","Andale Mono","no","18","no","white","no","yes","576","legacy","17","17","3","C:/Users/laure/Desktop/subject-52069671.csv","legacy","Lentiform Loewenfeld","3.3.7","yes","yes","600bd7cfb6416f0113b04181","602110864497cf011d9c0822","0","j","NA","space","space","space","NA","j","585","NA","2357","14711","4257","NA","585","2","legacy","1024","2","48000","-16","task","5206967","odd","NA","31470","35828","33471","68809","3869","22841","18583","69310","NA","68808","69310","68752","35828","69896","29449","68252","3864","54939","Lexical Decision Task","20","17737","22","yes","1024"
"3.276537627","9.15","5","trap","word","91.30434782608695","91.30434782608695","800.7391304347826","800.7391304347826","black","no","legacy","legacy","legacy","0","uniform","1","undefined","undefined","undefined","1","j","0","0","0","0","22","0","0","0","22","NA","18","22","18","0","18","3","22","0","22","Fri Feb 19 14:19:26 2021","The main experiment item","yes","Lexical_Decision_Task.osexp","C:/Users/laure/Desktop","no","Andale Mono","no","18","no","white","no","yes","576","legacy","18","18","3","C:/Users/laure/Desktop/subject-52069671.csv","legacy","Lentiform Loewenfeld","3.3.7","yes","yes","600bd7cfb6416f0113b04181","602110864497cf011d9c0822","0","j","NA","space","space","space","NA","j","680","NA","2357","14711","4257","NA","680","2","legacy","1024","2","48000","-16","task","5206967","odd","NA","31470","35828","33471","70464","3869","22841","18583","70965","NA","70463","70965","70408","35828","71646","29449","69908","3864","54939","Lexical Decision Task","21","18417","23","yes","1024"
"2.771097306","0","9","jold","non-word","91.66666666666667","91.66666666666667","798.8333333333334","798.8333333333334","black","no","legacy","legacy","legacy","0","uniform","1","undefined","undefined","undefined","1","f","0","0","0","0","23","0","0","0","23","NA","19","23","19","0","19","3","23","0","23","Fri Feb 19 14:19:26 2021","The main experiment item","yes","Lexical_Decision_Task.osexp","C:/Users/laure/Desktop","no","Andale Mono","no","18","no","white","no","yes","576","legacy","19","19","3","C:/Users/laure/Desktop/subject-52069671.csv","legacy","Lentiform Loewenfeld","3.3.7","yes","yes","600bd7cfb6416f0113b04181","602110864497cf011d9c0822","0","f","NA","space","space","space","NA","f","755","NA","2357","14711","4257","NA","755","2","legacy","1024","2","48000","-16","task","5206967","odd","NA","31470","35828","33471","72207","3869","22841","18583","72708","NA","72205","72708","72148","35828","73463","29449","71648","3864","54939","Lexical Decision Task","22","19172","24","yes","1024"
"2.842815106","7.86","8","lump","word","92","92","795.04","795.04","black","no","legacy","legacy","legacy","0","uniform","1","undefined","undefined","undefined","1","j","0","0","0","0","24","0","0","0","24","NA","20","24","20","0","20","3","24","0","24","Fri Feb 19 14:19:26 2021","The main experiment item","yes","Lexical_Decision_Task.osexp","C:/Users/laure/Desktop","no","Andale Mono","no","18","no","white","no","yes","576","legacy","20","20","3","C:/Users/laure/Desktop/subject-52069671.csv","legacy","Lentiform Loewenfeld","3.3.7","yes","yes","600bd7cfb6416f0113b04181","602110864497cf011d9c0822","0","j","NA","space","space","space","NA","j","704","NA","2357","14711","4257","NA","704","2","legacy","1024","2","48000","-16","task","5206967","odd","NA","31470","35828","33471","74029","3869","22841","18583","74530","NA","74027","74530","73973","35828","75235","29449","73473","3864","54939","Lexical Decision Task","23","19876","25","yes","1024"
"2.95456409","0","4","taud","non-word","92.3076923076923","92.3076923076923","791.8461538461538","791.8461538461538","black","no","legacy","legacy","legacy","0","uniform","1","undefined","undefined","undefined","1","f","0","0","0","0","25","0","0","0","25","NA","21","25","21","0","21","3","25","0","25","Fri Feb 19 14:19:26 2021","The main experiment item","yes","Lexical_Decision_Task.osexp","C:/Users/laure/Desktop","no","Andale Mono","no","18","no","white","no","yes","576","legacy","21","21","3","C:/Users/laure/Desktop/subject-52069671.csv","legacy","Lentiform Loewenfeld","3.3.7","yes","yes","600bd7cfb6416f0113b04181","602110864497cf011d9c0822","0","f","NA","space","space","space","NA","f","712","NA","2357","14711","4257","NA","712","2","legacy","1024","2","48000","-16","task","5206967","odd","NA","31470","35828","33471","75803","3869","22841","18583","76304","NA","75802","76304","75746","35828","77017","29449","75246","3864","54939","Lexical Decision Task","24","20588","26","yes","1024"
"2.696356389","0","1","pizz","non-word","92.5925925925926","92.5925925925926","807.3333333333334","807.3333333333334","black","no","legacy","legacy","legacy","0","uniform","1","undefined","undefined","undefined","1","f","0","0","0","0","26","0","0","0","26","NA","22","26","22","0","22","3","26","0","26","Fri Feb 19 14:19:26 2021","The main experiment item","yes","Lexical_Decision_Task.osexp","C:/Users/laure/Desktop","no","Andale Mono","no","18","no","white","no","yes","576","legacy","22","22","3","C:/Users/laure/Desktop/subject-52069671.csv","legacy","Lentiform Loewenfeld","3.3.7","yes","yes","600bd7cfb6416f0113b04181","602110864497cf011d9c0822","0","f","NA","space","space","space","NA","f","1210","NA","2357","14711","4257","NA","1210","2","legacy","1024","2","48000","-16","task","5206967","odd","NA","31470","35828","33471","77585","3869","22841","18583","78086","NA","77584","78086","77528","35828","79297","29449","77028","3864","54939","Lexical Decision Task","25","21798","27","yes","1024"
"2.899638141","0","3","hapt","non-word","92.85714285714286","92.85714285714286","800.1785714285714","800.1785714285714","black","no","legacy","legacy","legacy","0","uniform","1","undefined","undefined","undefined","1","f","0","0","0","0","27","0","0","0","27","NA","23","27","23","0","23","3","27","0","27","Fri Feb 19 14:19:26 2021","The main experiment item","yes","Lexical_Decision_Task.osexp","C:/Users/laure/Desktop","no","Andale Mono","no","18","no","white","no","yes","576","legacy","23","23","3","C:/Users/laure/Desktop/subject-52069671.csv","legacy","Lentiform Loewenfeld","3.3.7","yes","yes","600bd7cfb6416f0113b04181","602110864497cf011d9c0822","0","f","NA","space","space","space","NA","f","607","NA","2357","14711","4257","NA","607","2","legacy","1024","2","48000","-16","task","5206967","odd","NA","31470","35828","33471","79859","3869","22841","18583","80360","NA","79857","80360","79802","35828","80968","29449","79302","3864","54939","Lexical Decision Task","26","22405","28","yes","1024"
"3.1430148","7.92","8","bald","word","93.10344827586206","93.10344827586206","791","791","black","no","legacy","legacy","legacy","0","uniform","1","undefined","undefined","undefined","1","j","0","0","0","0","28","0","0","0","28","NA","24","28","24","0","24","3","28","0","28","Fri Feb 19 14:19:26 2021","The main experiment item","yes","Lexical_Decision_Task.osexp","C:/Users/laure/Desktop","no","Andale Mono","no","18","no","white","no","yes","576","legacy","24","24","3","C:/Users/laure/Desktop/subject-52069671.csv","legacy","Lentiform Loewenfeld","3.3.7","yes","yes","600bd7cfb6416f0113b04181","602110864497cf011d9c0822","0","j","NA","space","space","space","NA","j","534","NA","2357","14711","4257","NA","534","2","legacy","1024","2","48000","-16","task","5206967","odd","NA","31470","35828","33471","81536","3869","22841","18583","82037","NA","81535","82037","81479","35828","82571","29449","80979","3864","54939","Lexical Decision Task","27","22939","29","yes","1024"
"2.899092422","7.27","6","snag","word","93.33333333333333","93.33333333333333","820.1","820.1","black","no","legacy","legacy","legacy","0","uniform","1","undefined","undefined","undefined","1","j","0","0","0","0","29","0","0","0","29","NA","25","29","25","0","25","3","29","0","29","Fri Feb 19 14:19:26 2021","The main experiment item","yes","Lexical_Decision_Task.osexp","C:/Users/laure/Desktop","no","Andale Mono","no","18","no","white","no","yes","576","legacy","25","25","3","C:/Users/laure/Desktop/subject-52069671.csv","legacy","Lentiform Loewenfeld","3.3.7","yes","yes","600bd7cfb6416f0113b04181","602110864497cf011d9c0822","0","j","NA","space","space","space","NA","j","1664","NA","2357","14711","4257","NA","1664","2","legacy","1024","2","48000","-16","task","5206967","odd","NA","31470","35828","33471","83138","3869","22841","18583","83639","NA","83137","83639","83082","35828","85304","29449","82582","3864","54939","Lexical Decision Task","28","24603","30","yes","1024"
"3.705778213","0","6","stin","non-word","93.54838709677419","93.54838709677419","820.483870967742","820.483870967742","black","no","legacy","legacy","legacy","0","uniform","1","undefined","undefined","undefined","1","f","0","0","0","0","30","0","0","0","30","NA","26","30","26","0","26","3","30","0","30","Fri Feb 19 14:19:26 2021","The main experiment item","yes","Lexical_Decision_Task.osexp","C:/Users/laure/Desktop","no","Andale Mono","no","18","no","white","no","yes","576","legacy","26","26","3","C:/Users/laure/Desktop/subject-52069671.csv","legacy","Lentiform Loewenfeld","3.3.7","yes","yes","600bd7cfb6416f0113b04181","602110864497cf011d9c0822","0","f","NA","space","space","space","NA","f","832","NA","2357","14711","4257","NA","832","2","legacy","1024","2","48000","-16","task","5206967","odd","NA","31470","35828","33471","85863","3869","22841","18583","86364","NA","85862","86364","85807","35828","87197","29449","85307","3864","54939","Lexical Decision Task","29","25435","31","yes","1024"
"2.807758206","6.25","4","hurl","word","93.75","93.75","821.53125","821.53125","black","no","legacy","legacy","legacy","0","uniform","1","undefined","undefined","undefined","1","j","0","0","0","0","31","0","0","0","31","NA","27","31","27","0","27","3","31","0","31","Fri Feb 19 14:19:26 2021","The main experiment item","yes","Lexical_Decision_Task.osexp","C:/Users/laure/Desktop","no","Andale Mono","no","18","no","white","no","yes","576","legacy","27","27","3","C:/Users/laure/Desktop/subject-52069671.csv","legacy","Lentiform Loewenfeld","3.3.7","yes","yes","600bd7cfb6416f0113b04181","602110864497cf011d9c0822","0","j","NA","space","space","space","NA","j","854","NA","2357","14711","4257","NA","854","2","legacy","1024","2","48000","-16","task","5206967","odd","NA","31470","35828","33471","87763","3869","22841","18583","88264","NA","87762","88264","87707","35828","89119","29449","87207","3864","54939","Lexical Decision Task","30","26289","32","yes","1024"
"2.814027728","8.2","4","foam","word","93.93939393939394","93.93939393939394","811.6363636363636","811.6363636363636","black","no","legacy","legacy","legacy","0","uniform","1","undefined","undefined","undefined","1","j","0","0","0","0","32","0","0","0","32","NA","28","32","28","0","28","3","32","0","32","Fri Feb 19 14:19:26 2021","The main experiment item","yes","Lexical_Decision_Task.osexp","C:/Users/laure/Desktop","no","Andale Mono","no","18","no","white","no","yes","576","legacy","28","28","3","C:/Users/laure/Desktop/subject-52069671.csv","legacy","Lentiform Loewenfeld","3.3.7","yes","yes","600bd7cfb6416f0113b04181","602110864497cf011d9c0822","0","j","NA","space","space","space","NA","j","495","NA","2357","14711","4257","NA","495","2","legacy","1024","2","48000","-16","task","5206967","odd","NA","31470","35828","33471","89688","3869","22841","18583","90189","NA","89686","90189","89631","35828","90684","29449","89131","3864","54939","Lexical Decision Task","31","26784","33","yes","1024"
"2.706148589","0","4","hube","non-word","91.17647058823529","91.17647058823529","807.2058823529412","807.2058823529412","black","no","legacy","legacy","legacy","0","uniform","0","undefined","undefined","undefined","0","f","0","0","0","0","33","0","0","0","33","NA","29","33","29","0","29","3","33","0","33","Fri Feb 19 14:19:26 2021","The main experiment item","yes","Lexical_Decision_Task.osexp","C:/Users/laure/Desktop","no","Andale Mono","no","18","no","white","no","yes","576","legacy","29","29","3","C:/Users/laure/Desktop/subject-52069671.csv","legacy","Lentiform Loewenfeld","3.3.7","yes","yes","600bd7cfb6416f0113b04181","602110864497cf011d9c0822","0","j","NA","space","space","space","NA","j","661","NA","2357","14711","4257","NA","661","2","legacy","1024","2","48000","-16","task","5206967","odd","NA","31470","35828","33471","91252","3869","22841","18583","91753","NA","91250","91753","91196","35828","92415","29449","90695","3864","54939","Lexical Decision Task","31","27445","34","yes","1024"
"3.218535505","7.85","7","goat","word","91.42857142857143","91.42857142857143","803.1428571428571","803.1428571428571","black","no","legacy","legacy","legacy","0","uniform","1","undefined","undefined","undefined","1","j","0","0","0","0","34","0","0","0","34","NA","30","34","30","0","30","3","34","0","34","Fri Feb 19 14:19:26 2021","The main experiment item","yes","Lexical_Decision_Task.osexp","C:/Users/laure/Desktop","no","Andale Mono","no","18","no","white","no","yes","576","legacy","30","30","3","C:/Users/laure/Desktop/subject-52069671.csv","legacy","Lentiform Loewenfeld","3.3.7","yes","yes","600bd7cfb6416f0113b04181","602110864497cf011d9c0822","0","j","NA","space","space","space","NA","j","665","NA","2357","14711","4257","NA","665","2","legacy","1024","2","48000","-16","task","5206967","odd","NA","31470","35828","33471","93975","3869","22841","18583","94476","NA","93974","94476","93917","35828","95142","29449","90695","3864","92417","Lexical Decision Task","32","28110","35","yes","1024"
"3.121778632","0","9","sark","non-word","91.66666666666667","91.66666666666667","803.2777777777778","803.2777777777778","black","no","legacy","legacy","legacy","0","uniform","1","undefined","undefined","undefined","1","f","0","0","0","0","35","0","0","0","35","NA","31","35","31","0","31","3","35","0","35","Fri Feb 19 14:19:26 2021","The main experiment item","yes","Lexical_Decision_Task.osexp","C:/Users/laure/Desktop","no","Andale Mono","no","18","no","white","no","yes","576","legacy","31","31","3","C:/Users/laure/Desktop/subject-52069671.csv","legacy","Lentiform Loewenfeld","3.3.7","yes","yes","600bd7cfb6416f0113b04181","602110864497cf011d9c0822","0","f","NA","space","space","space","NA","f","808","NA","2357","14711","4257","NA","808","2","legacy","1024","2","48000","-16","task","5206967","odd","NA","31470","35828","33471","95700","3869","22841","18583","96201","NA","95699","96201","95644","35828","97009","29449","95144","3864","92417","Lexical Decision Task","33","28918","36","yes","1024"
"2.880623071","0","9","curp","non-word","89.1891891891892","89.1891891891892","801.2432432432432","801.2432432432432","black","no","legacy","legacy","legacy","0","uniform","0","undefined","undefined","undefined","0","f","0","0","0","0","36","0","0","0","36","NA","32","36","32","0","32","3","36","0","36","Fri Feb 19 14:19:26 2021","The main experiment item","yes","Lexical_Decision_Task.osexp","C:/Users/laure/Desktop","no","Andale Mono","no","18","no","white","no","yes","576","legacy","32","32","3","C:/Users/laure/Desktop/subject-52069671.csv","legacy","Lentiform Loewenfeld","3.3.7","yes","yes","600bd7cfb6416f0113b04181","602110864497cf011d9c0822","0","j","NA","space","space","space","NA","j","728","NA","2357","14711","4257","NA","728","2","legacy","1024","2","48000","-16","task","5206967","odd","NA","31470","35828","33471","97578","3869","22841","18583","98079","NA","97577","98079","97522","35828","98808","29449","97022","3864","92417","Lexical Decision Task","33","29646","37","yes","1024"
"2.664328519","0","4","plux","non-word","86.84210526315789","86.84210526315789","799.6842105263158","799.6842105263158","black","no","legacy","legacy","legacy","0","uniform","0","undefined","undefined","undefined","0","f","0","0","0","0","37","0","0","0","37","NA","33","37","33","0","33","3","37","0","37","Fri Feb 19 14:19:26 2021","The main experiment item","yes","Lexical_Decision_Task.osexp","C:/Users/laure/Desktop","no","Andale Mono","no","18","no","white","no","yes","576","legacy","33","33","3","C:/Users/laure/Desktop/subject-52069671.csv","legacy","Lentiform Loewenfeld","3.3.7","yes","yes","600bd7cfb6416f0113b04181","602110864497cf011d9c0822","0","j","NA","space","space","space","NA","j","742","NA","2357","14711","4257","NA","742","2","legacy","1024","2","48000","-16","task","5206967","odd","NA","31470","35828","33471","100376","3869","22841","18583","100877","NA","100374","100877","100319","35828","101620","29449","97022","3864","98819","Lexical Decision Task","33","30388","38","yes","1024"
"2.8162413","0","5","nusk","non-word","87.17948717948718","87.17948717948718","796.8974358974359","796.8974358974359","black","no","legacy","legacy","legacy","0","uniform","1","undefined","undefined","undefined","1","f","0","0","0","0","38","0","0","0","38","NA","34","38","34","0","34","3","38","0","38","Fri Feb 19 14:19:26 2021","The main experiment item","yes","Lexical_Decision_Task.osexp","C:/Users/laure/Desktop","no","Andale Mono","no","18","no","white","no","yes","576","legacy","34","34","3","C:/Users/laure/Desktop/subject-52069671.csv","legacy","Lentiform Loewenfeld","3.3.7","yes","yes","600bd7cfb6416f0113b04181","602110864497cf011d9c0822","0","f","NA","space","space","space","NA","f","691","NA","2357","14711","4257","NA","691","2","legacy","1024","2","48000","-16","task","5206967","odd","NA","31470","35828","33471","103179","3869","22841","18583","103680","NA","103178","103680","103123","35828","104371","29449","97022","3864","101623","Lexical Decision Task","34","31079","39","yes","1024"
"3.168890155","0","6","thet","non-word","85","85","797.025","797.025","black","no","legacy","legacy","legacy","0","uniform","0","undefined","undefined","undefined","0","f","0","0","0","0","39","0","0","0","39","NA","35","39","35","0","35","3","39","0","39","Fri Feb 19 14:19:26 2021","The main experiment item","yes","Lexical_Decision_Task.osexp","C:/Users/laure/Desktop","no","Andale Mono","no","18","no","white","no","yes","576","legacy","35","35","3","C:/Users/laure/Desktop/subject-52069671.csv","legacy","Lentiform Loewenfeld","3.3.7","yes","yes","600bd7cfb6416f0113b04181","602110864497cf011d9c0822","0","j","NA","space","space","space","NA","j","802","NA","2357","14711","4257","NA","802","2","legacy","1024","2","48000","-16","task","5206967","odd","NA","31470","35828","33471","104939","3869","22841","18583","105440","NA","104938","105440","104883","35828","106243","29449","104383","3864","101623","Lexical Decision Task","34","31881","40","yes","1024"
"3.492014979","0","9","yine","non-word","85.36585365853658","85.36585365853658","795.8048780487804","795.8048780487804","black","no","legacy","legacy","legacy","0","uniform","1","undefined","undefined","undefined","1","f","0","0","0","0","40","0","0","0","40","NA","36","40","36","0","36","3","40","0","40","Fri Feb 19 14:19:26 2021","The main experiment item","yes","Lexical_Decision_Task.osexp","C:/Users/laure/Desktop","no","Andale Mono","no","18","no","white","no","yes","576","legacy","36","36","3","C:/Users/laure/Desktop/subject-52069671.csv","legacy","Lentiform Loewenfeld","3.3.7","yes","yes","600bd7cfb6416f0113b04181","602110864497cf011d9c0822","0","f","NA","space","space","space","NA","f","747","NA","2357","14711","4257","NA","747","2","legacy","1024","2","48000","-16","task","5206967","odd","NA","31470","35828","33471","107810","3869","22841","18583","108311","NA","107809","108311","107753","35828","109059","29449","104383","3864","106253","Lexical Decision Task","35","32628","41","yes","1024"
"2.813801082","5.47","7","nook","word","83.33333333333333","83.33333333333333","794.1666666666666","794.1666666666666","black","no","legacy","legacy","legacy","0","uniform","0","undefined","undefined","undefined","0","j","0","0","0","0","41","0","0","0","41","NA","37","41","37","0","37","3","41","0","41","Fri Feb 19 14:19:26 2021","The main experiment item","yes","Lexical_Decision_Task.osexp","C:/Users/laure/Desktop","no","Andale Mono","no","18","no","white","no","yes","576","legacy","37","37","3","C:/Users/laure/Desktop/subject-52069671.csv","legacy","Lentiform Loewenfeld","3.3.7","yes","yes","600bd7cfb6416f0113b04181","602110864497cf011d9c0822","0","f","NA","space","space","space","NA","f","727","NA","2357","14711","4257","NA","727","2","legacy","1024","2","48000","-16","task","5206967","odd","NA","31470","35828","33471","109669","3869","22841","18583","110170","NA","109668","110170","109614","35828","110898","29449","109114","3864","106253","Lexical Decision Task","35","33355","42","yes","1024"
"3.168400243","9.12","6","horn","word","83.72093023255815","83.72093023255815","804.046511627907","804.046511627907","black","no","legacy","legacy","legacy","0","uniform","1","undefined","undefined","undefined","1","j","0","0","0","0","42","0","0","0","42","NA","38","42","38","0","38","3","42","0","42","Fri Feb 19 14:19:26 2021","The main experiment item","yes","Lexical_Decision_Task.osexp","C:/Users/laure/Desktop","no","Andale Mono","no","18","no","white","no","yes","576","legacy","38","38","3","C:/Users/laure/Desktop/subject-52069671.csv","legacy","Lentiform Loewenfeld","3.3.7","yes","yes","600bd7cfb6416f0113b04181","602110864497cf011d9c0822","0","j","NA","space","space","space","NA","j","1219","NA","2357","14711","4257","NA","1219","2","legacy","1024","2","48000","-16","task","5206967","odd","NA","31470","35828","33471","112467","3869","22841","18583","112968","NA","112466","112968","112409","35828","114188","29449","109114","3864","110909","Lexical Decision Task","36","34574","43","yes","1024"
"2.794720352","0","9","koot","non-word","84.0909090909091","84.0909090909091","800.3863636363636","800.3863636363636","black","no","legacy","legacy","legacy","0","uniform","1","undefined","undefined","undefined","1","f","0","0","0","0","43","0","0","0","43","NA","39","43","39","0","39","3","43","0","43","Fri Feb 19 14:19:26 2021","The main experiment item","yes","Lexical_Decision_Task.osexp","C:/Users/laure/Desktop","no","Andale Mono","no","18","no","white","no","yes","576","legacy","39","39","3","C:/Users/laure/Desktop/subject-52069671.csv","legacy","Lentiform Loewenfeld","3.3.7","yes","yes","600bd7cfb6416f0113b04181","602110864497cf011d9c0822","0","f","NA","space","space","space","NA","f","643","NA","2357","14711","4257","NA","643","2","legacy","1024","2","48000","-16","task","5206967","odd","NA","31470","35828","33471","114758","3869","22841","18583","115259","NA","114757","115259","114701","35828","115902","29449","114201","3864","110909","Lexical Decision Task","37","35217","44","yes","1024"
"3.120025233","0","2","nyst","non-word","84.44444444444444","84.44444444444444","797.7333333333333","797.7333333333333","black","no","legacy","legacy","legacy","0","uniform","1","undefined","undefined","undefined","1","f","0","0","0","0","44","0","0","0","44","NA","40","44","40","0","40","3","44","0","44","Fri Feb 19 14:19:26 2021","The main experiment item","yes","Lexical_Decision_Task.osexp","C:/Users/laure/Desktop","no","Andale Mono","no","18","no","white","no","yes","576","legacy","40","40","3","C:/Users/laure/Desktop/subject-52069671.csv","legacy","Lentiform Loewenfeld","3.3.7","yes","yes","600bd7cfb6416f0113b04181","602110864497cf011d9c0822","0","f","NA","space","space","space","NA","f","681","NA","2357","14711","4257","NA","681","2","legacy","1024","2","48000","-16","task","5206967","odd","NA","31470","35828","33471","116473","3869","22841","18583","116974","NA","116471","116974","116413","35828","117656","29449","115913","3864","110909","Lexical Decision Task","38","35898","45","yes","1024"
"2.839268497","0","8","maft","non-word","84.78260869565217","84.78260869565217","796.0652173913044","796.0652173913044","black","no","legacy","legacy","legacy","0","uniform","1","undefined","undefined","undefined","1","f","0","0","0","0","45","0","0","0","45","NA","41","45","41","0","41","3","45","0","45","Fri Feb 19 14:19:26 2021","The main experiment item","yes","Lexical_Decision_Task.osexp","C:/Users/laure/Desktop","no","Andale Mono","no","18","no","white","no","yes","576","legacy","41","41","3","C:/Users/laure/Desktop/subject-52069671.csv","legacy","Lentiform Loewenfeld","3.3.7","yes","yes","600bd7cfb6416f0113b04181","602110864497cf011d9c0822","0","f","NA","space","space","space","NA","f","721","NA","2357","14711","4257","NA","721","2","legacy","1024","2","48000","-16","task","5206967","odd","NA","31470","35828","33471","118224","3869","22841","18583","118725","NA","118223","118725","118167","35828","119447","29449","117667","3864","110909","Lexical Decision Task","39","36619","46","yes","1024"
"2.693726949","5.08","3","swig","word","85.1063829787234","85.1063829787234","799.9148936170212","799.9148936170212","black","no","legacy","legacy","legacy","0","uniform","1","undefined","undefined","undefined","1","j","0","0","0","0","46","0","0","0","46","NA","42","46","42","0","42","3","46","0","46","Fri Feb 19 14:19:26 2021","The main experiment item","yes","Lexical_Decision_Task.osexp","C:/Users/laure/Desktop","no","Andale Mono","no","18","no","white","no","yes","576","legacy","42","42","3","C:/Users/laure/Desktop/subject-52069671.csv","legacy","Lentiform Loewenfeld","3.3.7","yes","yes","600bd7cfb6416f0113b04181","602110864497cf011d9c0822","0","j","NA","space","space","space","NA","j","977","NA","2357","14711","4257","NA","977","2","legacy","1024","2","48000","-16","task","5206967","odd","NA","31470","35828","33471","120014","3869","22841","18583","120515","NA","120013","120515","119958","35828","121493","29449","119458","3864","110909","Lexical Decision Task","40","37596","47","yes","1024"
"3.088136089","8.32","9","worm","word","85.41666666666667","85.41666666666667","801.1458333333334","801.1458333333334","black","no","legacy","legacy","legacy","0","uniform","1","undefined","undefined","undefined","1","j","0","0","0","0","47","0","0","0","47","NA","43","47","43","0","43","3","47","0","47","Fri Feb 19 14:19:26 2021","The main experiment item","yes","Lexical_Decision_Task.osexp","C:/Users/laure/Desktop","no","Andale Mono","no","18","no","white","no","yes","576","legacy","43","43","3","C:/Users/laure/Desktop/subject-52069671.csv","legacy","Lentiform Loewenfeld","3.3.7","yes","yes","600bd7cfb6416f0113b04181","602110864497cf011d9c0822","0","j","NA","space","space","space","NA","j","859","NA","2357","14711","4257","NA","859","2","legacy","1024","2","48000","-16","task","5206967","odd","NA","31470","35828","33471","122051","3869","22841","18583","122552","NA","122050","122552","121995","35828","123412","29449","121495","3864","110909","Lexical Decision Task","41","38455","48","yes","1024"
"3.20871002","7.15","8","cram","word","85.71428571428571","85.71428571428571","813.4897959183673","813.4897959183673","black","no","legacy","legacy","legacy","0","uniform","1","undefined","undefined","undefined","1","j","0","0","0","0","48","0","0","0","48","NA","44","48","44","0","44","3","48","0","48","Fri Feb 19 14:19:26 2021","The main experiment item","yes","Lexical_Decision_Task.osexp","C:/Users/laure/Desktop","no","Andale Mono","no","18","no","white","no","yes","576","legacy","44","44","3","C:/Users/laure/Desktop/subject-52069671.csv","legacy","Lentiform Loewenfeld","3.3.7","yes","yes","600bd7cfb6416f0113b04181","602110864497cf011d9c0822","0","j","NA","space","space","space","NA","j","1406","NA","2357","14711","4257","NA","1406","2","legacy","1024","2","48000","-16","task","5206967","odd","NA","31470","35828","33471","123972","3869","22841","18583","124474","NA","123971","124474","123914","35828","125881","29449","123414","3864","110909","Lexical Decision Task","42","39861","49","yes","1024"
"2.838639236","0","4","furg","non-word","86","86","815.52","815.52","black","no","legacy","legacy","legacy","0","uniform","1","undefined","undefined","undefined","1","f","0","0","0","0","49","0","0","0","49","NA","45","49","45","0","45","3","49","0","49","Fri Feb 19 14:19:26 2021","The main experiment item","yes","Lexical_Decision_Task.osexp","C:/Users/laure/Desktop","no","Andale Mono","no","18","no","white","no","yes","576","legacy","45","45","3","C:/Users/laure/Desktop/subject-52069671.csv","legacy","Lentiform Loewenfeld","3.3.7","yes","yes","600bd7cfb6416f0113b04181","602110864497cf011d9c0822","0","f","NA","space","space","space","NA","f","915","NA","2357","14711","4257","NA","915","2","legacy","1024","2","48000","-16","task","5206967","odd","NA","31470","35828","33471","126450","3869","22841","18583","126951","NA","126449","126951","126392","35828","127867","29449","125892","3864","110909","Lexical Decision Task","43","40776","50","yes","1024"
"2.937852093","0","7","bamp","non-word","86.27450980392157","86.27450980392157","816.2156862745098","816.2156862745098","black","no","legacy","legacy","legacy","0","uniform","1","undefined","undefined","undefined","1","f","0","0","0","0","50","0","0","0","50","NA","46","50","46","0","46","3","50","0","50","Fri Feb 19 14:19:26 2021","The main experiment item","yes","Lexical_Decision_Task.osexp","C:/Users/laure/Desktop","no","Andale Mono","no","18","no","white","no","yes","576","legacy","46","46","3","C:/Users/laure/Desktop/subject-52069671.csv","legacy","Lentiform Loewenfeld","3.3.7","yes","yes","600bd7cfb6416f0113b04181","602110864497cf011d9c0822","0","f","NA","space","space","space","NA","f","851","NA","2357","14711","4257","NA","851","2","legacy","1024","2","48000","-16","task","5206967","odd","NA","31470","35828","33471","128428","3869","22841","18583","128929","NA","128426","128929","128369","35828","129781","29449","127869","3864","110909","Lexical Decision Task","44","41627","51","yes","1024"
"2.892836167","10.01","5","soft","word","86.53846153846153","86.53846153846153","814.2307692307693","814.2307692307693","black","no","legacy","legacy","legacy","0","uniform","1","undefined","undefined","undefined","1","j","0","0","0","0","51","0","0","0","51","NA","47","51","47","0","47","3","51","0","51","Fri Feb 19 14:19:26 2021","The main experiment item","yes","Lexical_Decision_Task.osexp","C:/Users/laure/Desktop","no","Andale Mono","no","18","no","white","no","yes","576","legacy","47","47","3","C:/Users/laure/Desktop/subject-52069671.csv","legacy","Lentiform Loewenfeld","3.3.7","yes","yes","600bd7cfb6416f0113b04181","602110864497cf011d9c0822","0","j","NA","space","space","space","NA","j","713","NA","2357","14711","4257","NA","713","2","legacy","1024","2","48000","-16","task","5206967","odd","NA","31470","35828","33471","130341","3869","22841","18583","130842","NA","130340","130842","130284","35828","131556","29449","129784","3864","110909","Lexical Decision Task","45","42340","52","yes","1024"
"3.037294994","8.64","7","roof","word","86.79245283018868","86.79245283018868","811.7547169811321","811.7547169811321","black","no","legacy","legacy","legacy","0","uniform","1","undefined","undefined","undefined","1","j","0","0","0","0","52","0","0","0","52","NA","48","52","48","0","48","3","52","0","52","Fri Feb 19 14:19:26 2021","The main experiment item","yes","Lexical_Decision_Task.osexp","C:/Users/laure/Desktop","no","Andale Mono","no","18","no","white","no","yes","576","legacy","48","48","3","C:/Users/laure/Desktop/subject-52069671.csv","legacy","Lentiform Loewenfeld","3.3.7","yes","yes","600bd7cfb6416f0113b04181","602110864497cf011d9c0822","0","j","NA","space","space","space","NA","j","683","NA","2357","14711","4257","NA","683","2","legacy","1024","2","48000","-16","task","5206967","odd","NA","31470","35828","33471","132124","3869","22841","18583","132625","NA","132123","132625","132067","35828","133308","29449","131567","3864","110909","Lexical Decision Task","46","43023","53","yes","1024"
"2.767650507","0","6","yolt","non-word","87.03703703703704","87.03703703703704","809.2222222222222","809.2222222222222","black","no","legacy","legacy","legacy","0","uniform","1","undefined","undefined","undefined","1","f","0","0","0","0","53","0","0","0","53","NA","49","53","49","0","49","3","53","0","53","Fri Feb 19 14:19:26 2021","The main experiment item","yes","Lexical_Decision_Task.osexp","C:/Users/laure/Desktop","no","Andale Mono","no","18","no","white","no","yes","576","legacy","49","49","3","C:/Users/laure/Desktop/subject-52069671.csv","legacy","Lentiform Loewenfeld","3.3.7","yes","yes","600bd7cfb6416f0113b04181","602110864497cf011d9c0822","0","f","NA","space","space","space","NA","f","675","NA","2357","14711","4257","NA","675","2","legacy","1024","2","48000","-16","task","5206967","odd","NA","31470","35828","33471","133875","3869","22841","18583","134376","NA","133874","134376","133819","35828","135052","29449","133319","3864","110909","Lexical Decision Task","47","43698","54","yes","1024"
"3.488597715","0","9","nain","non-word","87.27272727272727","87.27272727272727","809.1454545454545","809.1454545454545","black","no","legacy","legacy","legacy","0","uniform","1","undefined","undefined","undefined","1","f","0","0","0","0","54","0","0","0","54","0","50","54","50","0","50","3","54","0","54","Fri Feb 19 14:19:26 2021","The main experiment item","yes","Lexical_Decision_Task.osexp","C:/Users/laure/Desktop","no","Andale Mono","no","18","no","white","no","yes","576","legacy","50","50","3","C:/Users/laure/Desktop/subject-52069671.csv","legacy","Lentiform Loewenfeld","3.3.7","yes","yes","600bd7cfb6416f0113b04181","602110864497cf011d9c0822","0","f","NA","space","space","space","space","f","805","NA","2357","14711","4257","29469","805","2","legacy","1024","2","48000","-16","task","5206967","odd","NA","31470","35828","33471","165120","3869","22841","18583","165621","135591","165119","165621","135563","35828","166427","29449","135063","3864","110909","Lexical Decision Task","48","44503","55","yes","1024"
"2.746890964","9.67","3","plug","word","87.5","87.5","805.3035714285714","805.3035714285714","black","no","legacy","legacy","legacy","0","uniform","1","undefined","undefined","undefined","1","j","0","0","0","0","55","0","0","0","55","0","51","55","51","0","51","3","55","0","55","Fri Feb 19 14:19:26 2021","The main experiment item","yes","Lexical_Decision_Task.osexp","C:/Users/laure/Desktop","no","Andale Mono","no","18","no","white","no","yes","576","legacy","51","51","3","C:/Users/laure/Desktop/subject-52069671.csv","legacy","Lentiform Loewenfeld","3.3.7","yes","yes","600bd7cfb6416f0113b04181","602110864497cf011d9c0822","0","j","NA","space","space","space","space","j","594","NA","2357","14711","4257","29469","594","2","legacy","1024","2","48000","-16","task","5206967","odd","NA","31470","35828","33471","166988","3869","22841","18583","167489","135591","166987","167489","166929","35828","168084","29449","166429","3864","110909","Lexical Decision Task","49","45097","56","yes","1024"
"2.858136002","0","4","phip","non-word","87.71929824561404","87.71929824561404","801.9298245614035","801.9298245614035","black","no","legacy","legacy","legacy","0","uniform","1","undefined","undefined","undefined","1","f","0","0","0","0","56","0","0","0","56","0","52","56","52","0","52","3","56","0","56","Fri Feb 19 14:19:26 2021","The main experiment item","yes","Lexical_Decision_Task.osexp","C:/Users/laure/Desktop","no","Andale Mono","no","18","no","white","no","yes","576","legacy","52","52","3","C:/Users/laure/Desktop/subject-52069671.csv","legacy","Lentiform Loewenfeld","3.3.7","yes","yes","600bd7cfb6416f0113b04181","602110864497cf011d9c0822","0","f","NA","space","space","space","space","f","613","NA","2357","14711","4257","29469","613","2","legacy","1024","2","48000","-16","task","5206967","odd","NA","31470","35828","33471","168652","3869","22841","18583","169153","135591","168650","169153","168594","35828","169767","29449","168094","3864","110909","Lexical Decision Task","50","45710","57","yes","1024"
"2.778633532","0","3","jurp","non-word","87.93103448275862","87.93103448275862","801.1896551724138","801.1896551724138","black","no","legacy","legacy","legacy","0","uniform","1","undefined","undefined","undefined","1","f","0","0","0","0","57","0","0","0","57","0","53","57","53","0","53","3","57","0","57","Fri Feb 19 14:19:26 2021","The main experiment item","yes","Lexical_Decision_Task.osexp","C:/Users/laure/Desktop","no","Andale Mono","no","18","no","white","no","yes","576","legacy","53","53","3","C:/Users/laure/Desktop/subject-52069671.csv","legacy","Lentiform Loewenfeld","3.3.7","yes","yes","600bd7cfb6416f0113b04181","602110864497cf011d9c0822","0","f","NA","space","space","space","space","f","759","NA","2357","14711","4257","29469","759","2","legacy","1024","2","48000","-16","task","5206967","odd","NA","31470","35828","33471","170338","3869","22841","18583","170839","135591","170336","170839","170279","35828","171599","29449","169779","3864","110909","Lexical Decision Task","51","46469","58","yes","1024"
"3.374137706","10.21","4","tree","word","88.13559322033899","88.13559322033899","799.8813559322034","799.8813559322034","black","no","legacy","legacy","legacy","0","uniform","1","undefined","undefined","undefined","1","j","0","0","0","0","58","0","0","0","58","0","54","58","54","0","54","3","58","0","58","Fri Feb 19 14:19:26 2021","The main experiment item","yes","Lexical_Decision_Task.osexp","C:/Users/laure/Desktop","no","Andale Mono","no","18","no","white","no","yes","576","legacy","54","54","3","C:/Users/laure/Desktop/subject-52069671.csv","legacy","Lentiform Loewenfeld","3.3.7","yes","yes","600bd7cfb6416f0113b04181","602110864497cf011d9c0822","0","j","NA","space","space","space","space","j","724","NA","2357","14711","4257","29469","724","2","legacy","1024","2","48000","-16","task","5206967","odd","NA","31470","35828","33471","172160","3869","22841","18583","172660","135591","172158","172660","172103","35828","173385","29449","171603","3864","110909","Lexical Decision Task","52","47193","59","yes","1024"
"2.793790385","5.67","9","swab","word","88.33333333333333","88.33333333333333","796.8666666666667","796.8666666666667","black","no","legacy","legacy","legacy","0","uniform","1","undefined","undefined","undefined","1","j","0","0","0","0","59","0","0","0","59","0","55","59","55","0","55","3","59","0","59","Fri Feb 19 14:19:26 2021","The main experiment item","yes","Lexical_Decision_Task.osexp","C:/Users/laure/Desktop","no","Andale Mono","no","18","no","white","no","yes","576","legacy","55","55","3","C:/Users/laure/Desktop/subject-52069671.csv","legacy","Lentiform Loewenfeld","3.3.7","yes","yes","600bd7cfb6416f0113b04181","602110864497cf011d9c0822","0","j","NA","space","space","space","space","j","619","NA","2357","14711","4257","29469","619","2","legacy","1024","2","48000","-16","task","5206967","odd","NA","31470","35828","33471","173947","3869","22841","18583","174448","135591","173946","174448","173887","35828","175069","29449","173387","3864","110909","Lexical Decision Task","53","47812","60","yes","1024"
"2.812467698","0","7","hafe","non-word","88.52459016393442","88.52459016393442","793.3934426229508","793.3934426229508","black","no","legacy","legacy","legacy","0","uniform","1","undefined","undefined","undefined","1","f","0","0","0","0","60","0","0","0","60","0","56","60","56","0","56","3","60","0","60","Fri Feb 19 14:19:26 2021","The main experiment item","yes","Lexical_Decision_Task.osexp","C:/Users/laure/Desktop","no","Andale Mono","no","18","no","white","no","yes","576","legacy","56","56","3","C:/Users/laure/Desktop/subject-52069671.csv","legacy","Lentiform Loewenfeld","3.3.7","yes","yes","600bd7cfb6416f0113b04181","602110864497cf011d9c0822","0","f","NA","space","space","space","space","f","585","NA","2357","14711","4257","29469","585","2","legacy","1024","2","48000","-16","task","5206967","odd","NA","31470","35828","33471","175639","3869","22841","18583","176140","135591","175638","176140","175581","35828","176726","29449","175081","3864","110909","Lexical Decision Task","54","48397","61","yes","1024"
"3.16326079","0","5","parg","non-word","88.70967741935483","88.70967741935483","791.5483870967741","791.5483870967741","black","no","legacy","legacy","legacy","0","uniform","1","undefined","undefined","undefined","1","f","0","0","0","0","61","0","0","0","61","0","57","61","57","0","57","3","61","0","61","Fri Feb 19 14:19:26 2021","The main experiment item","yes","Lexical_Decision_Task.osexp","C:/Users/laure/Desktop","no","Andale Mono","no","18","no","white","no","yes","576","legacy","57","57","3","C:/Users/laure/Desktop/subject-52069671.csv","legacy","Lentiform Loewenfeld","3.3.7","yes","yes","600bd7cfb6416f0113b04181","602110864497cf011d9c0822","0","f","NA","space","space","space","space","f","679","NA","2357","14711","4257","29469","679","2","legacy","1024","2","48000","-16","task","5206967","odd","NA","31470","35828","33471","177284","3869","22841","18583","177785","135591","177282","177785","177228","35828","178465","29449","176728","3864","110909","Lexical Decision Task","55","49076","62","yes","1024"
"2.675164031","8.57","6","glue","word","88.88888888888889","88.88888888888889","789.1428571428571","789.1428571428571","black","no","legacy","legacy","legacy","0","uniform","1","undefined","undefined","undefined","1","j","0","0","0","0","62","0","0","0","62","0","58","62","58","0","58","3","62","0","62","Fri Feb 19 14:19:26 2021","The main experiment item","yes","Lexical_Decision_Task.osexp","C:/Users/laure/Desktop","no","Andale Mono","no","18","no","white","no","yes","576","legacy","58","58","3","C:/Users/laure/Desktop/subject-52069671.csv","legacy","Lentiform Loewenfeld","3.3.7","yes","yes","600bd7cfb6416f0113b04181","602110864497cf011d9c0822","0","j","NA","space","space","space","space","j","640","NA","2357","14711","4257","29469","640","2","legacy","1024","2","48000","-16","task","5206967","odd","NA","31470","35828","33471","179036","3869","22841","18583","179537","135591","179035","179537","178977","35828","180179","29449","178477","3864","110909","Lexical Decision Task","56","49716","63","yes","1024"
"2.821076612","0","4","lult","non-word","89.0625","89.0625","785.609375","785.609375","black","no","legacy","legacy","legacy","0","uniform","1","undefined","undefined","undefined","1","f","0","0","0","0","63","0","0","0","63","0","59","63","59","0","59","3","63","0","63","Fri Feb 19 14:19:26 2021","The main experiment item","yes","Lexical_Decision_Task.osexp","C:/Users/laure/Desktop","no","Andale Mono","no","18","no","white","no","yes","576","legacy","59","59","3","C:/Users/laure/Desktop/subject-52069671.csv","legacy","Lentiform Loewenfeld","3.3.7","yes","yes","600bd7cfb6416f0113b04181","602110864497cf011d9c0822","0","f","NA","space","space","space","space","f","563","NA","2357","14711","4257","29469","563","2","legacy","1024","2","48000","-16","task","5206967","odd","NA","31470","35828","33471","180747","3869","22841","18583","181248","135591","180746","181248","180690","35828","181812","29449","180190","3864","110909","Lexical Decision Task","57","50279","64","yes","1024"
"3.22685757","9.99","7","roll","word","89.23076923076923","89.23076923076923","783.9538461538461","783.9538461538461","black","no","legacy","legacy","legacy","0","uniform","1","undefined","undefined","undefined","1","j","0","0","0","0","64","0","0","0","64","0","60","64","60","0","60","3","64","0","64","Fri Feb 19 14:19:26 2021","The main experiment item","yes","Lexical_Decision_Task.osexp","C:/Users/laure/Desktop","no","Andale Mono","no","18","no","white","no","yes","576","legacy","60","60","3","C:/Users/laure/Desktop/subject-52069671.csv","legacy","Lentiform Loewenfeld","3.3.7","yes","yes","600bd7cfb6416f0113b04181","602110864497cf011d9c0822","0","j","NA","space","space","space","space","j","678","NA","2357","14711","4257","29469","678","2","legacy","1024","2","48000","-16","task","5206967","odd","NA","31470","35828","33471","182379","3869","22841","18583","182881","135591","182378","182881","182323","35828","183560","29449","181823","3864","110909","Lexical Decision Task","58","50957","65","yes","1024"
"3.29439347","8.6","9","wand","word","89.39393939393939","89.39393939393939","781.3939393939394","781.3939393939394","black","no","legacy","legacy","legacy","0","uniform","1","undefined","undefined","undefined","1","j","0","0","0","0","65","0","0","0","65","0","61","65","61","0","61","3","65","0","65","Fri Feb 19 14:19:26 2021","The main experiment item","yes","Lexical_Decision_Task.osexp","C:/Users/laure/Desktop","no","Andale Mono","no","18","no","white","no","yes","576","legacy","61","61","3","C:/Users/laure/Desktop/subject-52069671.csv","legacy","Lentiform Loewenfeld","3.3.7","yes","yes","600bd7cfb6416f0113b04181","602110864497cf011d9c0822","0","j","NA","space","space","space","space","j","615","NA","2357","14711","4257","29469","615","2","legacy","1024","2","48000","-16","task","5206967","odd","NA","31470","35828","33471","184131","3869","22841","18583","184632","135591","184129","184632","184071","35828","185248","29449","183571","3864","110909","Lexical Decision Task","59","51572","66","yes","1024"
"2.843025032","0","9","pusk","non-word","89.55223880597015","89.55223880597015","778.4029850746268","778.4029850746268","black","no","legacy","legacy","legacy","0","uniform","1","undefined","undefined","undefined","1","f","0","0","0","0","66","0","0","0","66","0","62","66","62","0","62","3","66","0","66","Fri Feb 19 14:19:26 2021","The main experiment item","yes","Lexical_Decision_Task.osexp","C:/Users/laure/Desktop","no","Andale Mono","no","18","no","white","no","yes","576","legacy","62","62","3","C:/Users/laure/Desktop/subject-52069671.csv","legacy","Lentiform Loewenfeld","3.3.7","yes","yes","600bd7cfb6416f0113b04181","602110864497cf011d9c0822","0","f","NA","space","space","space","space","f","581","NA","2357","14711","4257","29469","581","2","legacy","1024","2","48000","-16","task","5206967","odd","NA","31470","35828","33471","185819","3869","22841","18583","186320","135591","185817","186320","185760","35828","186902","29449","185260","3864","110909","Lexical Decision Task","60","52153","67","yes","1024"
"2.893578687","8.69","3","surf","word","89.70588235294117","89.70588235294117","778.3382352941177","778.3382352941177","black","no","legacy","legacy","legacy","0","uniform","1","undefined","undefined","undefined","1","j","0","0","0","0","67","0","0","0","67","0","63","67","63","0","63","3","67","0","67","Fri Feb 19 14:19:26 2021","The main experiment item","yes","Lexical_Decision_Task.osexp","C:/Users/laure/Desktop","no","Andale Mono","no","18","no","white","no","yes","576","legacy","63","63","3","C:/Users/laure/Desktop/subject-52069671.csv","legacy","Lentiform Loewenfeld","3.3.7","yes","yes","600bd7cfb6416f0113b04181","602110864497cf011d9c0822","0","j","NA","space","space","space","space","j","774","NA","2357","14711","4257","29469","774","2","legacy","1024","2","48000","-16","task","5206967","odd","NA","31470","35828","33471","187469","3869","22841","18583","187970","135591","187468","187970","187413","35828","188745","29449","186913","3864","110909","Lexical Decision Task","61","52927","68","yes","1024"
"3.195807436","0","6","stup","non-word","89.85507246376811","89.85507246376811","777.3478260869565","777.3478260869565","black","no","legacy","legacy","legacy","0","uniform","1","undefined","undefined","undefined","1","f","0","0","0","0","68","0","0","0","68","0","64","68","64","0","64","3","68","0","68","Fri Feb 19 14:19:26 2021","The main experiment item","yes","Lexical_Decision_Task.osexp","C:/Users/laure/Desktop","no","Andale Mono","no","18","no","white","no","yes","576","legacy","64","64","3","C:/Users/laure/Desktop/subject-52069671.csv","legacy","Lentiform Loewenfeld","3.3.7","yes","yes","600bd7cfb6416f0113b04181","602110864497cf011d9c0822","0","f","NA","space","space","space","space","f","710","NA","2357","14711","4257","29469","710","2","legacy","1024","2","48000","-16","task","5206967","odd","NA","31470","35828","33471","189304","3869","22841","18583","189805","135591","189303","189805","189248","35828","190516","29449","188748","3864","110909","Lexical Decision Task","62","53637","69","yes","1024"
"3.077974404","10.41","8","tool","word","90","90","778.5285714285715","778.5285714285715","black","no","legacy","legacy","legacy","0","uniform","1","undefined","undefined","undefined","1","j","0","0","0","0","69","0","0","0","69","0","65","69","65","0","65","3","69","0","69","Fri Feb 19 14:19:26 2021","The main experiment item","yes","Lexical_Decision_Task.osexp","C:/Users/laure/Desktop","no","Andale Mono","no","18","no","white","no","yes","576","legacy","65","65","3","C:/Users/laure/Desktop/subject-52069671.csv","legacy","Lentiform Loewenfeld","3.3.7","yes","yes","600bd7cfb6416f0113b04181","602110864497cf011d9c0822","0","j","NA","space","space","space","space","j","860","NA","2357","14711","4257","29469","860","2","legacy","1024","2","48000","-16","task","5206967","odd","NA","31470","35828","33471","191088","3869","22841","18583","191589","135591","191086","191589","191029","35828","192450","29449","190529","3864","110909","Lexical Decision Task","63","54497","70","yes","1024"
"3.091901331","0","9","nipe","non-word","90.14084507042253","90.14084507042253","775.4084507042254","775.4084507042254","black","no","legacy","legacy","legacy","0","uniform","1","undefined","undefined","undefined","1","f","0","0","0","0","70","0","0","0","70","0","66","70","66","0","66","3","70","0","70","Fri Feb 19 14:19:26 2021","The main experiment item","yes","Lexical_Decision_Task.osexp","C:/Users/laure/Desktop","no","Andale Mono","no","18","no","white","no","yes","576","legacy","66","66","3","C:/Users/laure/Desktop/subject-52069671.csv","legacy","Lentiform Loewenfeld","3.3.7","yes","yes","600bd7cfb6416f0113b04181","602110864497cf011d9c0822","0","f","NA","space","space","space","space","f","557","NA","2357","14711","4257","29469","557","2","legacy","1024","2","48000","-16","task","5206967","odd","NA","31470","35828","33471","193009","3869","22841","18583","193510","135591","193007","193510","192953","35828","194068","29449","192453","3864","110909","Lexical Decision Task","64","55054","71","yes","1024"
"3.067070856","9.39","3","loud","word","90.27777777777777","90.27777777777777","772.9444444444445","772.9444444444445","black","no","legacy","legacy","legacy","0","uniform","1","undefined","undefined","undefined","1","j","0","0","0","0","71","0","0","0","71","0","67","71","67","0","67","3","71","0","71","Fri Feb 19 14:19:26 2021","The main experiment item","yes","Lexical_Decision_Task.osexp","C:/Users/laure/Desktop","no","Andale Mono","no","18","no","white","no","yes","576","legacy","67","67","3","C:/Users/laure/Desktop/subject-52069671.csv","legacy","Lentiform Loewenfeld","3.3.7","yes","yes","600bd7cfb6416f0113b04181","602110864497cf011d9c0822","0","j","NA","space","space","space","space","j","598","NA","2357","14711","4257","29469","598","2","legacy","1024","2","48000","-16","task","5206967","odd","NA","31470","35828","33471","194637","3869","22841","18583","195138","135591","194636","195138","194580","35828","195738","29449","194080","3864","110909","Lexical Decision Task","65","55652","72","yes","1024"
"2.972819734","0","4","scew","non-word","89.04109589041096","89.04109589041096","772.3424657534247","772.3424657534247","black","no","legacy","legacy","legacy","0","uniform","0","undefined","undefined","undefined","0","f","0","0","0","0","72","0","0","0","72","0","68","72","68","0","68","3","72","0","72","Fri Feb 19 14:19:26 2021","The main experiment item","yes","Lexical_Decision_Task.osexp","C:/Users/laure/Desktop","no","Andale Mono","no","18","no","white","no","yes","576","legacy","68","68","3","C:/Users/laure/Desktop/subject-52069671.csv","legacy","Lentiform Loewenfeld","3.3.7","yes","yes","600bd7cfb6416f0113b04181","602110864497cf011d9c0822","0","j","NA","space","space","space","space","j","729","NA","2357","14711","4257","29469","729","2","legacy","1024","2","48000","-16","task","5206967","odd","NA","31470","35828","33471","196308","3869","22841","18583","196809","135591","196307","196809","196250","35828","197539","29449","195750","3864","110909","Lexical Decision Task","65","56381","73","yes","1024"
"3.028977705","0","7","frow","non-word","89.1891891891892","89.1891891891892","777.1081081081081","777.1081081081081","black","no","legacy","legacy","legacy","0","uniform","1","undefined","undefined","undefined","1","f","0","0","0","0","73","0","0","0","73","0","69","73","69","0","69","3","73","0","73","Fri Feb 19 14:19:26 2021","The main experiment item","yes","Lexical_Decision_Task.osexp","C:/Users/laure/Desktop","no","Andale Mono","no","18","no","white","no","yes","576","legacy","69","69","3","C:/Users/laure/Desktop/subject-52069671.csv","legacy","Lentiform Loewenfeld","3.3.7","yes","yes","600bd7cfb6416f0113b04181","602110864497cf011d9c0822","0","f","NA","space","space","space","space","f","1125","NA","2357","14711","4257","29469","1125","2","legacy","1024","2","48000","-16","task","5206967","odd","NA","31470","35828","33471","199108","3869","22841","18583","199609","135591","199107","199609","199051","35828","200735","29449","195750","3864","197551","Lexical Decision Task","66","57506","74","yes","1024"
"3.15462682","0","6","noal","non-word","89.33333333333333","89.33333333333333","776.72","776.72","black","no","legacy","legacy","legacy","0","uniform","1","undefined","undefined","undefined","1","f","0","0","0","0","74","0","0","0","74","0","70","74","70","0","70","3","74","0","74","Fri Feb 19 14:19:26 2021","The main experiment item","yes","Lexical_Decision_Task.osexp","C:/Users/laure/Desktop","no","Andale Mono","no","18","no","white","no","yes","576","legacy","70","70","3","C:/Users/laure/Desktop/subject-52069671.csv","legacy","Lentiform Loewenfeld","3.3.7","yes","yes","600bd7cfb6416f0113b04181","602110864497cf011d9c0822","0","f","NA","space","space","space","space","f","748","NA","2357","14711","4257","29469","748","2","legacy","1024","2","48000","-16","task","5206967","odd","NA","31470","35828","33471","201303","3869","22841","18583","201804","135591","201301","201804","201246","35828","202554","29449","200746","3864","197551","Lexical Decision Task","67","58254","75","yes","1024"
"2.86332286","6.71","2","feud","word","88.15789473684211","88.15789473684211","777.6447368421053","777.6447368421053","black","no","legacy","legacy","legacy","0","uniform","0","undefined","undefined","undefined","0","j","0","0","0","0","75","0","0","0","75","0","71","75","71","0","71","3","75","0","75","Fri Feb 19 14:19:26 2021","The main experiment item","yes","Lexical_Decision_Task.osexp","C:/Users/laure/Desktop","no","Andale Mono","no","18","no","white","no","yes","576","legacy","71","71","3","C:/Users/laure/Desktop/subject-52069671.csv","legacy","Lentiform Loewenfeld","3.3.7","yes","yes","600bd7cfb6416f0113b04181","602110864497cf011d9c0822","0","f","NA","space","space","space","space","f","847","NA","2357","14711","4257","29469","847","2","legacy","1024","2","48000","-16","task","5206967","odd","NA","31470","35828","33471","203122","3869","22841","18583","203623","135591","203120","203623","203065","35828","204471","29449","202565","3864","197551","Lexical Decision Task","67","59101","76","yes","1024"
"3.174641193","0","3","ramb","non-word","88.31168831168831","88.31168831168831","789.4545454545455","789.4545454545455","black","no","legacy","legacy","legacy","0","uniform","1","undefined","undefined","undefined","1","f","0","0","0","0","76","0","0","0","76","0","72","76","72","0","72","3","76","0","76","Fri Feb 19 14:19:26 2021","The main experiment item","yes","Lexical_Decision_Task.osexp","C:/Users/laure/Desktop","no","Andale Mono","no","18","no","white","no","yes","576","legacy","72","72","3","C:/Users/laure/Desktop/subject-52069671.csv","legacy","Lentiform Loewenfeld","3.3.7","yes","yes","600bd7cfb6416f0113b04181","602110864497cf011d9c0822","0","f","NA","space","space","space","space","f","1687","NA","2357","14711","4257","29469","1687","2","legacy","1024","2","48000","-16","task","5206967","odd","NA","31470","35828","33471","206039","3869","22841","18583","206540","135591","206038","206540","205982","35828","208228","29449","202565","3864","204482","Lexical Decision Task","68","60788","77","yes","1024"
"3.263399331","0","8","cour","non-word","88.46153846153847","88.46153846153847","789.5641025641025","789.5641025641025","black","no","legacy","legacy","legacy","0","uniform","1","undefined","undefined","undefined","1","f","0","0","0","0","77","0","0","0","77","0","73","77","73","0","73","3","77","0","77","Fri Feb 19 14:19:26 2021","The main experiment item","yes","Lexical_Decision_Task.osexp","C:/Users/laure/Desktop","no","Andale Mono","no","18","no","white","no","yes","576","legacy","73","73","3","C:/Users/laure/Desktop/subject-52069671.csv","legacy","Lentiform Loewenfeld","3.3.7","yes","yes","600bd7cfb6416f0113b04181","602110864497cf011d9c0822","0","f","NA","space","space","space","space","f","798","NA","2357","14711","4257","29469","798","2","legacy","1024","2","48000","-16","task","5206967","odd","NA","31470","35828","33471","208789","3869","22841","18583","209290","135591","208788","209290","208731","35828","210088","29449","208231","3864","204482","Lexical Decision Task","69","61586","78","yes","1024"
"2.708989954","9.28","9","bowl","word","88.60759493670886","88.60759493670886","789.2658227848101","789.2658227848101","black","no","legacy","legacy","legacy","0","uniform","1","undefined","undefined","undefined","1","j","0","0","0","0","78","0","0","0","78","0","74","78","74","0","74","3","78","0","78","Fri Feb 19 14:19:26 2021","The main experiment item","yes","Lexical_Decision_Task.osexp","C:/Users/laure/Desktop","no","Andale Mono","no","18","no","white","no","yes","576","legacy","74","74","3","C:/Users/laure/Desktop/subject-52069671.csv","legacy","Lentiform Loewenfeld","3.3.7","yes","yes","600bd7cfb6416f0113b04181","602110864497cf011d9c0822","0","j","NA","space","space","space","space","j","766","NA","2357","14711","4257","29469","766","2","legacy","1024","2","48000","-16","task","5206967","odd","NA","31470","35828","33471","210650","3869","22841","18583","211151","135591","210649","211151","210591","35828","211919","29449","210091","3864","204482","Lexical Decision Task","70","62352","79","yes","1024"
"3.259832699","0","9","flar","non-word","88.75","88.75","789.3","789.3","black","no","legacy","legacy","legacy","0","uniform","1","undefined","undefined","undefined","1","f","0","0","0","0","79","0","0","0","79","0","75","79","75","0","75","3","79","0","79","Fri Feb 19 14:19:26 2021","The main experiment item","yes","Lexical_Decision_Task.osexp","C:/Users/laure/Desktop","no","Andale Mono","no","18","no","white","no","yes","576","legacy","75","75","3","C:/Users/laure/Desktop/subject-52069671.csv","legacy","Lentiform Loewenfeld","3.3.7","yes","yes","600bd7cfb6416f0113b04181","602110864497cf011d9c0822","0","f","NA","space","space","space","space","f","792","NA","2357","14711","4257","29469","792","2","legacy","1024","2","48000","-16","task","5206967","odd","NA","31470","35828","33471","212478","3869","22841","18583","212979","135591","212477","212979","212421","35828","213772","29449","211921","3864","204482","Lexical Decision Task","71","63144","80","yes","1024"
"3.208172527","10.27","7","deck","word","88.88888888888889","88.88888888888889","791.604938271605","791.604938271605","black","no","legacy","legacy","legacy","0","uniform","1","undefined","undefined","undefined","1","j","0","0","0","0","80","0","0","0","80","0","76","80","76","0","76","3","80","0","80","Fri Feb 19 14:19:26 2021","The main experiment item","yes","Lexical_Decision_Task.osexp","C:/Users/laure/Desktop","no","Andale Mono","no","18","no","white","no","yes","576","legacy","76","76","3","C:/Users/laure/Desktop/subject-52069671.csv","legacy","Lentiform Loewenfeld","3.3.7","yes","yes","600bd7cfb6416f0113b04181","602110864497cf011d9c0822","0","j","NA","space","space","space","space","j","976","NA","2357","14711","4257","29469","976","2","legacy","1024","2","48000","-16","task","5206967","odd","NA","31470","35828","33471","214340","3869","22841","18583","214841","135591","214338","214841","214284","35828","215818","29449","213784","3864","204482","Lexical Decision Task","72","64120","81","yes","1024"
"2.898725182","0","7","turl","non-word","89.02439024390245","89.02439024390245","791","791","black","no","legacy","legacy","legacy","0","uniform","1","undefined","undefined","undefined","1","f","0","0","0","0","81","0","0","0","81","0","77","81","77","0","77","3","81","0","81","Fri Feb 19 14:19:26 2021","The main experiment item","yes","Lexical_Decision_Task.osexp","C:/Users/laure/Desktop","no","Andale Mono","no","18","no","white","no","yes","576","legacy","77","77","3","C:/Users/laure/Desktop/subject-52069671.csv","legacy","Lentiform Loewenfeld","3.3.7","yes","yes","600bd7cfb6416f0113b04181","602110864497cf011d9c0822","0","f","NA","space","space","space","space","f","742","NA","2357","14711","4257","29469","742","2","legacy","1024","2","48000","-16","task","5206967","odd","NA","31470","35828","33471","216388","3869","22841","18583","216889","135591","216386","216889","216330","35828","217632","29449","215829","3864","204482","Lexical Decision Task","73","64862","82","yes","1024"
"3.131833513","7.66","4","limb","word","89.1566265060241","89.1566265060241","789.9156626506024","789.9156626506024","black","no","legacy","legacy","legacy","0","uniform","1","undefined","undefined","undefined","1","j","0","0","0","0","82","0","0","0","82","0","78","82","78","0","78","3","82","0","82","Fri Feb 19 14:19:26 2021","The main experiment item","yes","Lexical_Decision_Task.osexp","C:/Users/laure/Desktop","no","Andale Mono","no","18","no","white","no","yes","576","legacy","78","78","3","C:/Users/laure/Desktop/subject-52069671.csv","legacy","Lentiform Loewenfeld","3.3.7","yes","yes","600bd7cfb6416f0113b04181","602110864497cf011d9c0822","0","j","NA","space","space","space","space","j","701","NA","2357","14711","4257","29469","701","2","legacy","1024","2","48000","-16","task","5206967","odd","NA","31470","35828","33471","218191","3869","22841","18583","218692","135591","218190","218692","218135","35828","219394","29449","217635","3864","204482","Lexical Decision Task","74","65563","83","yes","1024"
"3.225825991","0","7","talm","non-word","89.28571428571429","89.28571428571429","790.047619047619","790.047619047619","black","no","legacy","legacy","legacy","0","uniform","1","undefined","undefined","undefined","1","f","0","0","0","0","83","0","0","0","83","0","79","83","79","0","79","3","83","0","83","Fri Feb 19 14:19:26 2021","The main experiment item","yes","Lexical_Decision_Task.osexp","C:/Users/laure/Desktop","no","Andale Mono","no","18","no","white","no","yes","576","legacy","79","79","3","C:/Users/laure/Desktop/subject-52069671.csv","legacy","Lentiform Loewenfeld","3.3.7","yes","yes","600bd7cfb6416f0113b04181","602110864497cf011d9c0822","0","f","NA","space","space","space","space","f","801","NA","2357","14711","4257","29469","801","2","legacy","1024","2","48000","-16","task","5206967","odd","NA","31470","35828","33471","219962","3869","22841","18583","220463","135591","219960","220463","219905","35828","221265","29449","219405","3864","204482","Lexical Decision Task","75","66364","84","yes","1024"
"3.049218023","7.4","9","robe","word","89.41176470588235","89.41176470588235","790.5176470588235","790.5176470588235","black","no","legacy","legacy","legacy","0","uniform","1","undefined","undefined","undefined","1","j","0","0","0","0","84","0","0","0","84","0","80","84","80","0","80","3","84","0","84","Fri Feb 19 14:19:26 2021","The main experiment item","yes","Lexical_Decision_Task.osexp","C:/Users/laure/Desktop","no","Andale Mono","no","18","no","white","no","yes","576","legacy","80","80","3","C:/Users/laure/Desktop/subject-52069671.csv","legacy","Lentiform Loewenfeld","3.3.7","yes","yes","600bd7cfb6416f0113b04181","602110864497cf011d9c0822","0","j","NA","space","space","space","space","j","830","NA","2357","14711","4257","29469","830","2","legacy","1024","2","48000","-16","task","5206967","odd","NA","31470","35828","33471","221823","3869","22841","18583","222324","135591","221822","222324","221767","35828","223155","29449","221267","3864","204482","Lexical Decision Task","76","67194","85","yes","1024"
"2.873320602","0","4","lurg","non-word","89.53488372093024","89.53488372093024","791.1860465116279","791.1860465116279","black","no","legacy","legacy","legacy","0","uniform","1","undefined","undefined","undefined","1","f","0","0","0","0","85","0","0","0","85","0","81","85","81","0","81","3","85","0","85","Fri Feb 19 14:19:26 2021","The main experiment item","yes","Lexical_Decision_Task.osexp","C:/Users/laure/Desktop","no","Andale Mono","no","18","no","white","no","yes","576","legacy","81","81","3","C:/Users/laure/Desktop/subject-52069671.csv","legacy","Lentiform Loewenfeld","3.3.7","yes","yes","600bd7cfb6416f0113b04181","602110864497cf011d9c0822","0","f","NA","space","space","space","space","f","848","NA","2357","14711","4257","29469","848","2","legacy","1024","2","48000","-16","task","5206967","odd","NA","31470","35828","33471","223725","3869","22841","18583","224226","135591","223723","224226","223666","35828","225075","29449","223166","3864","204482","Lexical Decision Task","77","68042","86","yes","1024"
"2.698387659","6.66","7","skid","word","89.65517241379311","89.65517241379311","791.4137931034483","791.4137931034483","black","no","legacy","legacy","legacy","0","uniform","1","undefined","undefined","undefined","1","j","0","0","0","0","86","0","0","0","86","0","82","86","82","0","82","3","86","0","86","Fri Feb 19 14:19:26 2021","The main experiment item","yes","Lexical_Decision_Task.osexp","C:/Users/laure/Desktop","no","Andale Mono","no","18","no","white","no","yes","576","legacy","82","82","3","C:/Users/laure/Desktop/subject-52069671.csv","legacy","Lentiform Loewenfeld","3.3.7","yes","yes","600bd7cfb6416f0113b04181","602110864497cf011d9c0822","0","j","NA","space","space","space","space","j","811","NA","2357","14711","4257","29469","811","2","legacy","1024","2","48000","-16","task","5206967","odd","NA","31470","35828","33471","225644","3869","22841","18583","226145","135591","225643","226145","225586","35828","226957","29449","225086","3864","204482","Lexical Decision Task","78","68853","87","yes","1024"
"2.68604012","0","4","pumb","non-word","89.77272727272727","89.77272727272727","798.0909090909091","798.0909090909091","black","no","legacy","legacy","legacy","0","uniform","1","undefined","undefined","undefined","1","f","0","0","0","0","87","0","0","0","87","0","83","87","83","0","83","3","87","0","87","Fri Feb 19 14:19:26 2021","The main experiment item","yes","Lexical_Decision_Task.osexp","C:/Users/laure/Desktop","no","Andale Mono","no","18","no","white","no","yes","576","legacy","83","83","3","C:/Users/laure/Desktop/subject-52069671.csv","legacy","Lentiform Loewenfeld","3.3.7","yes","yes","600bd7cfb6416f0113b04181","602110864497cf011d9c0822","0","f","NA","space","space","space","space","f","1379","NA","2357","14711","4257","29469","1379","2","legacy","1024","2","48000","-16","task","5206967","odd","NA","31470","35828","33471","227518","3869","22841","18583","228019","135591","227516","228019","227460","35828","229399","29449","226960","3864","204482","Lexical Decision Task","79","70232","88","yes","1024"
"3.374198258","0","8","vist","non-word","89.88764044943821","89.88764044943821","800.7303370786517","800.7303370786517","black","no","legacy","legacy","legacy","0","uniform","1","undefined","undefined","undefined","1","f","0","0","0","0","88","0","0","0","88","0","84","88","84","0","84","3","88","0","88","Fri Feb 19 14:19:26 2021","The main experiment item","yes","Lexical_Decision_Task.osexp","C:/Users/laure/Desktop","no","Andale Mono","no","18","no","white","no","yes","576","legacy","84","84","3","C:/Users/laure/Desktop/subject-52069671.csv","legacy","Lentiform Loewenfeld","3.3.7","yes","yes","600bd7cfb6416f0113b04181","602110864497cf011d9c0822","0","f","NA","space","space","space","space","f","1033","NA","2357","14711","4257","29469","1033","2","legacy","1024","2","48000","-16","task","5206967","odd","NA","31470","35828","33471","230011","3869","22841","18583","230512","135591","230010","230512","229953","35828","231547","29449","229453","3864","204482","Lexical Decision Task","80","71265","89","yes","1024"
"3.105055783","0","2","norp","non-word","90","90","799.3444444444444","799.3444444444444","black","no","legacy","legacy","legacy","0","uniform","1","undefined","undefined","undefined","1","f","0","0","0","0","89","0","0","0","89","0","85","89","85","0","85","3","89","0","89","Fri Feb 19 14:19:26 2021","The main experiment item","yes","Lexical_Decision_Task.osexp","C:/Users/laure/Desktop","no","Andale Mono","no","18","no","white","no","yes","576","legacy","85","85","3","C:/Users/laure/Desktop/subject-52069671.csv","legacy","Lentiform Loewenfeld","3.3.7","yes","yes","600bd7cfb6416f0113b04181","602110864497cf011d9c0822","0","f","NA","space","space","space","space","f","676","NA","2357","14711","4257","29469","676","2","legacy","1024","2","48000","-16","task","5206967","odd","NA","31470","35828","33471","232112","3869","22841","18583","232613","135591","232110","232613","232050","35828","233290","29449","231550","3864","204482","Lexical Decision Task","81","71941","90","yes","1024"
"3.529815197","0","3","lerm","non-word","90.10989010989012","90.10989010989012","798.0879120879121","798.0879120879121","black","no","legacy","legacy","legacy","0","uniform","1","undefined","undefined","undefined","1","f","0","0","0","0","90","0","0","0","90","0","86","90","86","0","86","3","90","0","90","Fri Feb 19 14:19:26 2021","The main experiment item","yes","Lexical_Decision_Task.osexp","C:/Users/laure/Desktop","no","Andale Mono","no","18","no","white","no","yes","576","legacy","86","86","3","C:/Users/laure/Desktop/subject-52069671.csv","legacy","Lentiform Loewenfeld","3.3.7","yes","yes","600bd7cfb6416f0113b04181","602110864497cf011d9c0822","0","f","NA","space","space","space","space","f","685","NA","2357","14711","4257","29469","685","2","legacy","1024","2","48000","-16","task","5206967","odd","NA","31470","35828","33471","233858","3869","22841","18583","234359","135591","233857","234359","233802","35828","235045","29449","233302","3864","204482","Lexical Decision Task","82","72626","91","yes","1024"
"3.010582609","0","2","drod","non-word","90.21739130434783","90.21739130434783","797.445652173913","797.445652173913","black","no","legacy","legacy","legacy","0","uniform","1","undefined","undefined","undefined","1","f","0","0","0","0","91","0","0","0","91","0","87","91","87","0","87","3","91","0","91","Fri Feb 19 14:19:26 2021","The main experiment item","yes","Lexical_Decision_Task.osexp","C:/Users/laure/Desktop","no","Andale Mono","no","18","no","white","no","yes","576","legacy","87","87","3","C:/Users/laure/Desktop/subject-52069671.csv","legacy","Lentiform Loewenfeld","3.3.7","yes","yes","600bd7cfb6416f0113b04181","602110864497cf011d9c0822","0","f","NA","space","space","space","space","f","739","NA","2357","14711","4257","29469","739","2","legacy","1024","2","48000","-16","task","5206967","odd","NA","31470","35828","33471","235607","3869","22841","18583","236108","135591","235606","236108","235549","35828","236849","29449","235049","3864","204482","Lexical Decision Task","83","73365","92","yes","1024"
"2.996511672","0","7","hoil","non-word","90.3225806451613","90.3225806451613","797.5376344086021","797.5376344086021","black","no","legacy","legacy","legacy","0","uniform","1","undefined","undefined","undefined","1","f","0","0","0","0","92","0","0","0","92","0","88","92","88","0","88","3","92","0","92","Fri Feb 19 14:19:26 2021","The main experiment item","yes","Lexical_Decision_Task.osexp","C:/Users/laure/Desktop","no","Andale Mono","no","18","no","white","no","yes","576","legacy","88","88","3","C:/Users/laure/Desktop/subject-52069671.csv","legacy","Lentiform Loewenfeld","3.3.7","yes","yes","600bd7cfb6416f0113b04181","602110864497cf011d9c0822","0","f","NA","space","space","space","space","f","806","NA","2357","14711","4257","29469","806","2","legacy","1024","2","48000","-16","task","5206967","odd","NA","31470","35828","33471","237410","3869","22841","18583","237911","135591","237408","237911","237352","35828","238718","29449","236852","3864","204482","Lexical Decision Task","84","74171","93","yes","1024"
"2.664011697","8.19","4","hawk","word","90.42553191489361","90.42553191489361","797.4255319148937","797.4255319148937","black","no","legacy","legacy","legacy","0","uniform","1","undefined","undefined","undefined","1","j","0","0","0","0","93","0","0","0","93","0","89","93","89","0","89","3","93","0","93","Fri Feb 19 14:19:26 2021","The main experiment item","yes","Lexical_Decision_Task.osexp","C:/Users/laure/Desktop","no","Andale Mono","no","18","no","white","no","yes","576","legacy","89","89","3","C:/Users/laure/Desktop/subject-52069671.csv","legacy","Lentiform Loewenfeld","3.3.7","yes","yes","600bd7cfb6416f0113b04181","602110864497cf011d9c0822","0","j","NA","space","space","space","space","j","787","NA","2357","14711","4257","29469","787","2","legacy","1024","2","48000","-16","task","5206967","odd","NA","31470","35828","33471","239289","3869","22841","18583","239790","135591","239287","239790","239231","35828","240578","29449","238731","3864","204482","Lexical Decision Task","85","74958","94","yes","1024"
"3.257359335","8","6","brew","word","90.52631578947368","90.52631578947368","798.8631578947368","798.8631578947368","black","no","legacy","legacy","legacy","0","uniform","1","undefined","undefined","undefined","1","j","0","0","0","0","94","0","0","0","94","0","90","94","90","0","90","3","94","0","94","Fri Feb 19 14:19:26 2021","The main experiment item","yes","Lexical_Decision_Task.osexp","C:/Users/laure/Desktop","no","Andale Mono","no","18","no","white","no","yes","576","legacy","90","90","3","C:/Users/laure/Desktop/subject-52069671.csv","legacy","Lentiform Loewenfeld","3.3.7","yes","yes","600bd7cfb6416f0113b04181","602110864497cf011d9c0822","0","j","NA","space","space","space","space","j","934","NA","2357","14711","4257","29469","934","2","legacy","1024","2","48000","-16","task","5206967","odd","NA","31470","35828","33471","241146","3869","22841","18583","241647","135591","241145","241647","241089","35828","242582","29449","240589","3864","204482","Lexical Decision Task","86","75892","95","yes","1024"
"2.980911938","7.15","7","hoop","word","90.625","90.625","798.1979166666666","798.1979166666666","black","no","legacy","legacy","legacy","0","uniform","1","undefined","undefined","undefined","1","j","0","0","0","0","95","0","0","0","95","0","91","95","91","0","91","3","95","0","95","Fri Feb 19 14:19:26 2021","The main experiment item","yes","Lexical_Decision_Task.osexp","C:/Users/laure/Desktop","no","Andale Mono","no","18","no","white","no","yes","576","legacy","91","91","3","C:/Users/laure/Desktop/subject-52069671.csv","legacy","Lentiform Loewenfeld","3.3.7","yes","yes","600bd7cfb6416f0113b04181","602110864497cf011d9c0822","0","j","NA","space","space","space","space","j","735","NA","2357","14711","4257","29469","735","2","legacy","1024","2","48000","-16","task","5206967","odd","NA","31470","35828","33471","243150","3869","22841","18583","243651","135591","243149","243651","243094","35828","244387","29449","242594","3864","204482","Lexical Decision Task","87","76627","96","yes","1024"
"2.576725172","0","8","gowl","non-word","90.72164948453609","90.72164948453609","799.4020618556701","799.4020618556701","black","no","legacy","legacy","legacy","0","uniform","1","undefined","undefined","undefined","1","f","0","0","0","0","96","0","0","0","96","0","92","96","92","0","92","3","96","0","96","Fri Feb 19 14:19:26 2021","The main experiment item","yes","Lexical_Decision_Task.osexp","C:/Users/laure/Desktop","no","Andale Mono","no","18","no","white","no","yes","576","legacy","92","92","3","C:/Users/laure/Desktop/subject-52069671.csv","legacy","Lentiform Loewenfeld","3.3.7","yes","yes","600bd7cfb6416f0113b04181","602110864497cf011d9c0822","0","f","NA","space","space","space","space","f","915","NA","2357","14711","4257","29469","915","2","legacy","1024","2","48000","-16","task","5206967","odd","NA","31470","35828","33471","244955","3869","22841","18583","245456","135591","244953","245456","244898","35828","246373","29449","244398","3864","204482","Lexical Decision Task","88","77542","97","yes","1024"
"3.165936429","0","7","leps","non-word","90.81632653061224","90.81632653061224","798.1734693877551","798.1734693877551","black","no","legacy","legacy","legacy","0","uniform","1","undefined","undefined","undefined","1","f","0","0","0","0","97","0","0","0","97","0","93","97","93","0","93","3","97","0","97","Fri Feb 19 14:19:26 2021","The main experiment item","yes","Lexical_Decision_Task.osexp","C:/Users/laure/Desktop","no","Andale Mono","no","18","no","white","no","yes","576","legacy","93","93","3","C:/Users/laure/Desktop/subject-52069671.csv","legacy","Lentiform Loewenfeld","3.3.7","yes","yes","600bd7cfb6416f0113b04181","602110864497cf011d9c0822","0","f","NA","space","space","space","space","f","679","NA","2357","14711","4257","29469","679","2","legacy","1024","2","48000","-16","task","5206967","odd","NA","31470","35828","33471","246940","3869","22841","18583","247442","135591","246939","247442","246883","35828","248123","29449","246383","3864","204482","Lexical Decision Task","89","78221","98","yes","1024"
"2.698100546","0","9","mulk","non-word","90.9090909090909","90.9090909090909","797.8787878787879","797.8787878787879","black","no","legacy","legacy","legacy","0","uniform","1","undefined","undefined","undefined","1","f","0","0","0","0","98","0","0","0","98","0","94","98","94","0","94","3","98","0","98","Fri Feb 19 14:19:26 2021","The main experiment item","yes","Lexical_Decision_Task.osexp","C:/Users/laure/Desktop","no","Andale Mono","no","18","no","white","no","yes","576","legacy","94","94","3","C:/Users/laure/Desktop/subject-52069671.csv","legacy","Lentiform Loewenfeld","3.3.7","yes","yes","600bd7cfb6416f0113b04181","602110864497cf011d9c0822","0","f","NA","space","space","space","space","f","769","NA","2357","14711","4257","29469","769","2","legacy","1024","2","48000","-16","task","5206967","odd","NA","31470","35828","33471","248690","3869","22841","18583","249191","135591","248689","249191","248634","35828","249962","29449","248134","3864","204482","Lexical Decision Task","90","78990","99","yes","1024"
"2.884795364","0","6","flob","non-word","91","91","795.99","795.99","black","no","legacy","legacy","legacy","0","uniform","1","undefined","undefined","undefined","1","f","0","0","0","0","99","0","0","0","99","0","95","99","95","0","95","3","99","0","99","Fri Feb 19 14:19:26 2021","The main experiment item","yes","Lexical_Decision_Task.osexp","C:/Users/laure/Desktop","no","Andale Mono","no","18","no","white","no","yes","576","legacy","95","95","3","C:/Users/laure/Desktop/subject-52069671.csv","legacy","Lentiform Loewenfeld","3.3.7","yes","yes","600bd7cfb6416f0113b04181","602110864497cf011d9c0822","0","f","NA","space","space","space","space","f","609","NA","2357","14711","4257","29469","609","2","legacy","1024","2","48000","-16","task","5206967","odd","NA","31470","35828","33471","250530","3869","22841","18583","251031","135591","250529","251031","250473","35828","251641","29449","249973","3864","204482","Lexical Decision Task","91","79599","100","yes","1024"
"3.303771854","0","9","dath","non-word","91.08910891089108","91.08910891089108","795.1485148514852","795.1485148514852","black","no","legacy","legacy","legacy","0","uniform","1","undefined","undefined","undefined","1","f","0","0","0","0","100","0","0","0","100","0","96","100","96","0","96","3","100","0","100","Fri Feb 19 14:19:26 2021","The main experiment item","yes","Lexical_Decision_Task.osexp","C:/Users/laure/Desktop","no","Andale Mono","no","18","no","white","no","yes","576","legacy","96","96","3","C:/Users/laure/Desktop/subject-52069671.csv","legacy","Lentiform Loewenfeld","3.3.7","yes","yes","600bd7cfb6416f0113b04181","602110864497cf011d9c0822","0","f","NA","space","space","space","space","f","711","NA","2357","14711","4257","29469","711","2","legacy","1024","2","48000","-16","task","5206967","odd","NA","31470","35828","33471","252209","3869","22841","18583","252710","135591","252207","252710","252152","35828","253422","29449","251652","3864","204482","Lexical Decision Task","92","80310","101","yes","1024"
