"Log_BG","Log_Freq_HAL","Ortho_N","Stimulus","Type","acc","accuracy","average_response_time","avg_rt","background","bidi","canvas_backend","clock_backend","color_backend","compensation","coordinates","correct","correct_Experimental_intro","correct_Introduction","correct_Practice_intro","correct_experimenter_kb","correct_response","count_End_Of_Experiment","count_End_Of_Practice","count_Experimental_Loop","count_Experimental_intro","count_Fixation","count_Introduction","count_Practice_Loop","count_Practice_intro","count_Stimulus","count_block_break_feedback","count_experimental_sequence","count_experimenter_kb","count_increment_trial_count","count_init_trial_count","count_logger","count_practice_sequence","count_right","count_task","count_wrong","datetime","description","disable_garbage_collection","experiment_file","experiment_path","font_bold","font_family","font_italic","font_size","font_underline","foreground","form_clicks","fullscreen","height","keyboard_backend","live_row","live_row_Experimental_Loop","live_row_Practice_Loop","logfile","mouse_backend","opensesame_codename","opensesame_version","osf_always_upload_data","osf_always_upload_experiment","osf_datanode_id","osf_id","repeat_cycle","response","response_End_Of_Experiment","response_Experimental_intro","response_Introduction","response_Practice_intro","response_block_break_feedback","response_experimenter_kb","response_time","response_time_End_Of_Experiment","response_time_Experimental_intro","response_time_Introduction","response_time_Practice_intro","response_time_block_break_feedback","response_time_experimenter_kb","round_decimals","sampler_backend","sound_buf_size","sound_channels","sound_freq","sound_sample_size","start","subject_nr","subject_parity","time_End_Of_Experiment","time_End_Of_Practice","time_Experimental_Loop","time_Experimental_intro","time_Fixation","time_Introduction","time_Practice_Loop","time_Practice_intro","time_Stimulus","time_block_break_feedback","time_experimental_sequence","time_experimenter_kb","time_increment_trial_count","time_init_trial_count","time_logger","time_practice_sequence","time_right","time_task","time_wrong","title","total_correct","total_response_time","total_responses","uniform_coordinates","width"
"2.698100546","0","9","mulk","non-word","100","100","960.2","960.2","black","no","legacy","legacy","legacy","0","uniform","1","undefined","undefined","undefined","1","f","0","0","0","0","4","0","0","0","4","NA","0","4","0","0","0","3","4","0","4","Thu Feb 18 14:25:49 2021","The main experiment item","yes","Lexical_Decision_Task.osexp","/Users/tatianapereira/Dropbox","no","Andale Mono","no","18","no","white","no","yes","576","legacy","0","0","3","/Users/tatianapereira/Dropbox/subject-5208902.csv","legacy","Lentiform Loewenfeld","3.3.7","yes","yes","600bd7cfb6416f0113b04181","602110864497cf011d9c0822","0","f","NA","space","space","space","NA","f","857","NA","6405","13378","7376","NA","857","2","legacy","1024","2","48000","-16","task","5208902","even","NA","34827","43234","36829","43263","5781","26549","19169","43767","NA","43261","43767","NA","43234","44625","33013","34297","5732","NA","Lexical Decision Task","5","4801","5","yes","1024"
"2.82129731","6.72","5","plum","word","100","100","914.8333333333334","914.8333333333334","black","no","legacy","legacy","legacy","0","uniform","1","undefined","undefined","undefined","1","j","0","0","0","0","5","0","0","0","5","NA","1","5","1","0","1","3","5","0","5","Thu Feb 18 14:25:49 2021","The main experiment item","yes","Lexical_Decision_Task.osexp","/Users/tatianapereira/Dropbox","no","Andale Mono","no","18","no","white","no","yes","576","legacy","1","1","3","/Users/tatianapereira/Dropbox/subject-5208902.csv","legacy","Lentiform Loewenfeld","3.3.7","yes","yes","600bd7cfb6416f0113b04181","602110864497cf011d9c0822","0","j","NA","space","space","space","NA","j","688","NA","6405","13378","7376","NA","688","2","legacy","1024","2","48000","-16","task","5208902","even","NA","34827","43234","36829","45196","5781","26549","19169","45699","NA","45193","45699","45132","43234","46388","33013","44632","5732","NA","Lexical Decision Task","6","5489","6","yes","1024"
"3.443783828","7.65","3","verb","word","100","100","894.8571428571429","894.8571428571429","black","no","legacy","legacy","legacy","0","uniform","1","undefined","undefined","undefined","1","j","0","0","0","0","6","0","0","0","6","NA","2","6","2","0","2","3","6","0","6","Thu Feb 18 14:25:49 2021","The main experiment item","yes","Lexical_Decision_Task.osexp","/Users/tatianapereira/Dropbox","no","Andale Mono","no","18","no","white","no","yes","576","legacy","2","2","3","/Users/tatianapereira/Dropbox/subject-5208902.csv","legacy","Lentiform Loewenfeld","3.3.7","yes","yes","600bd7cfb6416f0113b04181","602110864497cf011d9c0822","0","j","NA","space","space","space","NA","j","775","NA","6405","13378","7376","NA","775","2","legacy","1024","2","48000","-16","task","5208902","even","NA","34827","43234","36829","46953","5781","26549","19169","47456","NA","46950","47456","46892","43234","48232","33013","46391","5732","NA","Lexical Decision Task","7","6264","7","yes","1024"
"2.668385917","5.48","4","twig","word","100","100","886.5","886.5","black","no","legacy","legacy","legacy","0","uniform","1","undefined","undefined","undefined","1","j","0","0","0","0","7","0","0","0","7","NA","3","7","3","0","3","3","7","0","7","Thu Feb 18 14:25:49 2021","The main experiment item","yes","Lexical_Decision_Task.osexp","/Users/tatianapereira/Dropbox","no","Andale Mono","no","18","no","white","no","yes","576","legacy","3","3","3","/Users/tatianapereira/Dropbox/subject-5208902.csv","legacy","Lentiform Loewenfeld","3.3.7","yes","yes","600bd7cfb6416f0113b04181","602110864497cf011d9c0822","0","j","NA","space","space","space","NA","j","828","NA","6405","13378","7376","NA","828","2","legacy","1024","2","48000","-16","task","5208902","even","NA","34827","43234","36829","48800","5781","26549","19169","49303","NA","48797","49303","48736","43234","50131","33013","48236","5732","NA","Lexical Decision Task","8","7092","8","yes","1024"
"3.082307743","9.68","8","camp","word","100","100","854","854","black","no","legacy","legacy","legacy","0","uniform","1","undefined","undefined","undefined","1","j","0","0","0","0","8","0","0","0","8","NA","4","8","4","0","4","3","8","0","8","Thu Feb 18 14:25:49 2021","The main experiment item","yes","Lexical_Decision_Task.osexp","/Users/tatianapereira/Dropbox","no","Andale Mono","no","18","no","white","no","yes","576","legacy","4","4","3","/Users/tatianapereira/Dropbox/subject-5208902.csv","legacy","Lentiform Loewenfeld","3.3.7","yes","yes","600bd7cfb6416f0113b04181","602110864497cf011d9c0822","0","j","NA","space","space","space","NA","j","594","NA","6405","13378","7376","NA","594","2","legacy","1024","2","48000","-16","task","5208902","even","NA","34827","43234","36829","50699","5781","26549","19169","51202","NA","50696","51202","50635","43234","51796","33013","50135","5732","NA","Lexical Decision Task","9","7686","9","yes","1024"
"3.209246849","0","7","slem","non-word","100","100","827.3","827.3","black","no","legacy","legacy","legacy","0","uniform","1","undefined","undefined","undefined","1","f","0","0","0","0","9","0","0","0","9","NA","5","9","5","0","5","3","9","0","9","Thu Feb 18 14:25:49 2021","The main experiment item","yes","Lexical_Decision_Task.osexp","/Users/tatianapereira/Dropbox","no","Andale Mono","no","18","no","white","no","yes","576","legacy","5","5","3","/Users/tatianapereira/Dropbox/subject-5208902.csv","legacy","Lentiform Loewenfeld","3.3.7","yes","yes","600bd7cfb6416f0113b04181","602110864497cf011d9c0822","0","f","NA","space","space","space","NA","f","587","NA","6405","13378","7376","NA","587","2","legacy","1024","2","48000","-16","task","5208902","even","NA","34827","43234","36829","52363","5781","26549","19169","52866","NA","52361","52866","52300","43234","53454","33013","51800","5732","NA","Lexical Decision Task","10","8273","10","yes","1024"
"3.299579929","0","2","flis","non-word","100","100","814.6363636363636","814.6363636363636","black","no","legacy","legacy","legacy","0","uniform","1","undefined","undefined","undefined","1","f","0","0","0","0","10","0","0","0","10","NA","6","10","6","0","6","3","10","0","10","Thu Feb 18 14:25:49 2021","The main experiment item","yes","Lexical_Decision_Task.osexp","/Users/tatianapereira/Dropbox","no","Andale Mono","no","18","no","white","no","yes","576","legacy","6","6","3","/Users/tatianapereira/Dropbox/subject-5208902.csv","legacy","Lentiform Loewenfeld","3.3.7","yes","yes","600bd7cfb6416f0113b04181","602110864497cf011d9c0822","0","f","NA","space","space","space","NA","f","688","NA","6405","13378","7376","NA","688","2","legacy","1024","2","48000","-16","task","5208902","even","NA","34827","43234","36829","54025","5781","26549","19169","54527","NA","54022","54527","53957","43234","55215","33013","53457","5732","NA","Lexical Decision Task","11","8961","11","yes","1024"
"3.208172527","10.27","7","deck","word","100","100","798.4166666666666","798.4166666666666","black","no","legacy","legacy","legacy","0","uniform","1","undefined","undefined","undefined","1","j","0","0","0","0","11","0","0","0","11","NA","7","11","7","0","7","3","11","0","11","Thu Feb 18 14:25:49 2021","The main experiment item","yes","Lexical_Decision_Task.osexp","/Users/tatianapereira/Dropbox","no","Andale Mono","no","18","no","white","no","yes","576","legacy","7","7","3","/Users/tatianapereira/Dropbox/subject-5208902.csv","legacy","Lentiform Loewenfeld","3.3.7","yes","yes","600bd7cfb6416f0113b04181","602110864497cf011d9c0822","0","j","NA","space","space","space","NA","j","620","NA","6405","13378","7376","NA","620","2","legacy","1024","2","48000","-16","task","5208902","even","NA","34827","43234","36829","55782","5781","26549","19169","56284","NA","55779","56285","55719","43234","56905","33013","55219","5732","NA","Lexical Decision Task","12","9581","12","yes","1024"
"3.134602053","0","8","jart","non-word","100","100","785.6153846153846","785.6153846153846","black","no","legacy","legacy","legacy","0","uniform","1","undefined","undefined","undefined","1","f","0","0","0","0","12","0","0","0","12","NA","8","12","8","0","8","3","12","0","12","Thu Feb 18 14:25:49 2021","The main experiment item","yes","Lexical_Decision_Task.osexp","/Users/tatianapereira/Dropbox","no","Andale Mono","no","18","no","white","no","yes","576","legacy","8","8","3","/Users/tatianapereira/Dropbox/subject-5208902.csv","legacy","Lentiform Loewenfeld","3.3.7","yes","yes","600bd7cfb6416f0113b04181","602110864497cf011d9c0822","0","f","NA","space","space","space","NA","f","632","NA","6405","13378","7376","NA","632","2","legacy","1024","2","48000","-16","task","5208902","even","NA","34827","43234","36829","57470","5781","26549","19169","57972","NA","57467","57973","57409","43234","58605","33013","56909","5732","NA","Lexical Decision Task","13","10213","13","yes","1024"
"2.728085817","10.02","9","bike","word","100","100","768.6428571428571","768.6428571428571","black","no","legacy","legacy","legacy","0","uniform","1","undefined","undefined","undefined","1","j","0","0","0","0","13","0","0","0","13","NA","9","13","9","0","9","3","13","0","13","Thu Feb 18 14:25:49 2021","The main experiment item","yes","Lexical_Decision_Task.osexp","/Users/tatianapereira/Dropbox","no","Andale Mono","no","18","no","white","no","yes","576","legacy","9","9","3","/Users/tatianapereira/Dropbox/subject-5208902.csv","legacy","Lentiform Loewenfeld","3.3.7","yes","yes","600bd7cfb6416f0113b04181","602110864497cf011d9c0822","0","j","NA","space","space","space","NA","j","548","NA","6405","13378","7376","NA","548","2","legacy","1024","2","48000","-16","task","5208902","even","NA","34827","43234","36829","59172","5781","26549","19169","59675","NA","59169","59675","59109","43234","60224","33013","58609","5732","NA","Lexical Decision Task","14","10761","14","yes","1024"
"2.897810299","0","5","glur","non-word","100","100","753.9333333333333","753.9333333333333","black","no","legacy","legacy","legacy","0","uniform","1","undefined","undefined","undefined","1","f","0","0","0","0","14","0","0","0","14","NA","10","14","10","0","10","3","14","0","14","Thu Feb 18 14:25:49 2021","The main experiment item","yes","Lexical_Decision_Task.osexp","/Users/tatianapereira/Dropbox","no","Andale Mono","no","18","no","white","no","yes","576","legacy","10","10","3","/Users/tatianapereira/Dropbox/subject-5208902.csv","legacy","Lentiform Loewenfeld","3.3.7","yes","yes","600bd7cfb6416f0113b04181","602110864497cf011d9c0822","0","f","NA","space","space","space","NA","f","548","NA","6405","13378","7376","NA","548","2","legacy","1024","2","48000","-16","task","5208902","even","NA","34827","43234","36829","60790","5781","26549","19169","61293","NA","60787","61293","60728","43234","61841","33013","60228","5732","NA","Lexical Decision Task","15","11309","15","yes","1024"
"2.972357144","0","5","dasp","non-word","93.75","93.75","756.25","756.25","black","no","legacy","legacy","legacy","0","uniform","0","undefined","undefined","undefined","0","f","0","0","0","0","15","0","0","0","15","NA","11","15","11","0","11","3","15","0","15","Thu Feb 18 14:25:49 2021","The main experiment item","yes","Lexical_Decision_Task.osexp","/Users/tatianapereira/Dropbox","no","Andale Mono","no","18","no","white","no","yes","576","legacy","11","11","3","/Users/tatianapereira/Dropbox/subject-5208902.csv","legacy","Lentiform Loewenfeld","3.3.7","yes","yes","600bd7cfb6416f0113b04181","602110864497cf011d9c0822","0","j","NA","space","space","space","NA","j","791","NA","6405","13378","7376","NA","791","2","legacy","1024","2","48000","-16","task","5208902","even","NA","34827","43234","36829","62411","5781","26549","19169","62914","NA","62408","62914","62345","43234","63706","33013","61845","5732","NA","Lexical Decision Task","15","12100","16","yes","1024"
"3.307211407","6.07","7","honk","word","94.11764705882354","94.11764705882354","747.5882352941177","747.5882352941177","black","no","legacy","legacy","legacy","0","uniform","1","undefined","undefined","undefined","1","j","0","0","0","0","16","0","0","0","16","NA","12","16","12","0","12","3","16","0","16","Thu Feb 18 14:25:49 2021","The main experiment item","yes","Lexical_Decision_Task.osexp","/Users/tatianapereira/Dropbox","no","Andale Mono","no","18","no","white","no","yes","576","legacy","12","12","3","/Users/tatianapereira/Dropbox/subject-5208902.csv","legacy","Lentiform Loewenfeld","3.3.7","yes","yes","600bd7cfb6416f0113b04181","602110864497cf011d9c0822","0","j","NA","space","space","space","NA","j","609","NA","6405","13378","7376","NA","609","2","legacy","1024","2","48000","-16","task","5208902","even","NA","34827","43234","36829","65272","5781","26549","19169","65775","NA","65269","65775","65209","43234","66385","33013","61845","5732","63709","Lexical Decision Task","16","12709","17","yes","1024"
"3.145920145","8.51","8","flew","word","94.44444444444444","94.44444444444444","739.9444444444445","739.9444444444445","black","no","legacy","legacy","legacy","0","uniform","1","undefined","undefined","undefined","1","j","0","0","0","0","17","0","0","0","17","NA","13","17","13","0","13","3","17","0","17","Thu Feb 18 14:25:49 2021","The main experiment item","yes","Lexical_Decision_Task.osexp","/Users/tatianapereira/Dropbox","no","Andale Mono","no","18","no","white","no","yes","576","legacy","13","13","3","/Users/tatianapereira/Dropbox/subject-5208902.csv","legacy","Lentiform Loewenfeld","3.3.7","yes","yes","600bd7cfb6416f0113b04181","602110864497cf011d9c0822","0","j","NA","space","space","space","NA","j","610","NA","6405","13378","7376","NA","610","2","legacy","1024","2","48000","-16","task","5208902","even","NA","34827","43234","36829","66951","5781","26549","19169","67454","NA","66948","67454","66889","43234","68065","33013","66388","5732","63709","Lexical Decision Task","17","13319","18","yes","1024"
"3.252447662","9.67","9","boat","word","94.73684210526316","94.73684210526316","727.8947368421053","727.8947368421053","black","no","legacy","legacy","legacy","0","uniform","1","undefined","undefined","undefined","1","j","0","0","0","0","18","0","0","0","18","NA","14","18","14","0","14","3","18","0","18","Thu Feb 18 14:25:49 2021","The main experiment item","yes","Lexical_Decision_Task.osexp","/Users/tatianapereira/Dropbox","no","Andale Mono","no","18","no","white","no","yes","576","legacy","14","14","3","/Users/tatianapereira/Dropbox/subject-5208902.csv","legacy","Lentiform Loewenfeld","3.3.7","yes","yes","600bd7cfb6416f0113b04181","602110864497cf011d9c0822","0","j","NA","space","space","space","NA","j","511","NA","6405","13378","7376","NA","511","2","legacy","1024","2","48000","-16","task","5208902","even","NA","34827","43234","36829","68630","5781","26549","19169","69133","NA","68627","69133","68569","43234","69645","33013","68069","5732","63709","Lexical Decision Task","18","13830","19","yes","1024"
"2.953276337","6.32","4","thaw","word","90","90","725.75","725.75","black","no","legacy","legacy","legacy","0","uniform","0","undefined","undefined","undefined","0","j","0","0","0","0","19","0","0","0","19","NA","15","19","15","0","15","3","19","0","19","Thu Feb 18 14:25:49 2021","The main experiment item","yes","Lexical_Decision_Task.osexp","/Users/tatianapereira/Dropbox","no","Andale Mono","no","18","no","white","no","yes","576","legacy","15","15","3","/Users/tatianapereira/Dropbox/subject-5208902.csv","legacy","Lentiform Loewenfeld","3.3.7","yes","yes","600bd7cfb6416f0113b04181","602110864497cf011d9c0822","0","f","NA","space","space","space","NA","f","685","NA","6405","13378","7376","NA","685","2","legacy","1024","2","48000","-16","task","5208902","even","NA","34827","43234","36829","70210","5781","26549","19169","70713","NA","70207","70713","70149","43234","71398","33013","69649","5732","63709","Lexical Decision Task","18","14515","20","yes","1024"
"2.799799878","0","4","ciff","non-word","85.71428571428571","85.71428571428571","720.5238095238095","720.5238095238095","black","no","legacy","legacy","legacy","0","uniform","0","undefined","undefined","undefined","0","f","0","0","0","0","20","0","0","0","20","NA","16","20","16","0","16","3","20","0","20","Thu Feb 18 14:25:49 2021","The main experiment item","yes","Lexical_Decision_Task.osexp","/Users/tatianapereira/Dropbox","no","Andale Mono","no","18","no","white","no","yes","576","legacy","16","16","3","/Users/tatianapereira/Dropbox/subject-5208902.csv","legacy","Lentiform Loewenfeld","3.3.7","yes","yes","600bd7cfb6416f0113b04181","602110864497cf011d9c0822","0","j","NA","space","space","space","NA","j","616","NA","6405","13378","7376","NA","616","2","legacy","1024","2","48000","-16","task","5208902","even","NA","34827","43234","36829","72967","5781","26549","19169","73469","NA","72964","73469","72902","43234","74086","33013","69649","5732","71402","Lexical Decision Task","18","15131","21","yes","1024"
"2.8162413","0","5","nusk","non-word","86.36363636363636","86.36363636363636","728.6363636363636","728.6363636363636","black","no","legacy","legacy","legacy","0","uniform","1","undefined","undefined","undefined","1","f","0","0","0","0","21","0","0","0","21","NA","17","21","17","0","17","3","21","0","21","Thu Feb 18 14:25:49 2021","The main experiment item","yes","Lexical_Decision_Task.osexp","/Users/tatianapereira/Dropbox","no","Andale Mono","no","18","no","white","no","yes","576","legacy","17","17","3","/Users/tatianapereira/Dropbox/subject-5208902.csv","legacy","Lentiform Loewenfeld","3.3.7","yes","yes","600bd7cfb6416f0113b04181","602110864497cf011d9c0822","0","f","NA","space","space","space","NA","f","899","NA","6405","13378","7376","NA","899","2","legacy","1024","2","48000","-16","task","5208902","even","NA","34827","43234","36829","75654","5781","26549","19169","76157","NA","75651","76157","75590","43234","77057","33013","69649","5732","74090","Lexical Decision Task","19","16030","22","yes","1024"
"2.794720352","0","9","koot","non-word","86.95652173913044","86.95652173913044","731.3478260869565","731.3478260869565","black","no","legacy","legacy","legacy","0","uniform","1","undefined","undefined","undefined","1","f","0","0","0","0","22","0","0","0","22","NA","18","22","18","0","18","3","22","0","22","Thu Feb 18 14:25:49 2021","The main experiment item","yes","Lexical_Decision_Task.osexp","/Users/tatianapereira/Dropbox","no","Andale Mono","no","18","no","white","no","yes","576","legacy","18","18","3","/Users/tatianapereira/Dropbox/subject-5208902.csv","legacy","Lentiform Loewenfeld","3.3.7","yes","yes","600bd7cfb6416f0113b04181","602110864497cf011d9c0822","0","f","NA","space","space","space","NA","f","791","NA","6405","13378","7376","NA","791","2","legacy","1024","2","48000","-16","task","5208902","even","NA","34827","43234","36829","77623","5781","26549","19169","78125","NA","77620","78126","77561","43234","78918","33013","77061","5732","74090","Lexical Decision Task","20","16821","23","yes","1024"
"2.839268497","0","8","maft","non-word","87.5","87.5","734.9166666666666","734.9166666666666","black","no","legacy","legacy","legacy","0","uniform","1","undefined","undefined","undefined","1","f","0","0","0","0","23","0","0","0","23","NA","19","23","19","0","19","3","23","0","23","Thu Feb 18 14:25:49 2021","The main experiment item","yes","Lexical_Decision_Task.osexp","/Users/tatianapereira/Dropbox","no","Andale Mono","no","18","no","white","no","yes","576","legacy","19","19","3","/Users/tatianapereira/Dropbox/subject-5208902.csv","legacy","Lentiform Loewenfeld","3.3.7","yes","yes","600bd7cfb6416f0113b04181","602110864497cf011d9c0822","0","f","NA","space","space","space","NA","f","817","NA","6405","13378","7376","NA","817","2","legacy","1024","2","48000","-16","task","5208902","even","NA","34827","43234","36829","79484","5781","26549","19169","79986","NA","79480","79986","79421","43234","80804","33013","78921","5732","74090","Lexical Decision Task","21","17638","24","yes","1024"
"3.378276681","6.39","8","bran","word","88","88","747","747","black","no","legacy","legacy","legacy","0","uniform","1","undefined","undefined","undefined","1","j","0","0","0","0","24","0","0","0","24","NA","20","24","20","0","20","3","24","0","24","Thu Feb 18 14:25:49 2021","The main experiment item","yes","Lexical_Decision_Task.osexp","/Users/tatianapereira/Dropbox","no","Andale Mono","no","18","no","white","no","yes","576","legacy","20","20","3","/Users/tatianapereira/Dropbox/subject-5208902.csv","legacy","Lentiform Loewenfeld","3.3.7","yes","yes","600bd7cfb6416f0113b04181","602110864497cf011d9c0822","0","j","NA","space","space","space","NA","j","1037","NA","6405","13378","7376","NA","1037","2","legacy","1024","2","48000","-16","task","5208902","even","NA","34827","43234","36829","81372","5781","26549","19169","81875","NA","81368","81875","81308","43234","82913","33013","80808","5732","74090","Lexical Decision Task","22","18675","25","yes","1024"
"2.813801082","5.47","7","nook","word","84.61538461538461","84.61538461538461","781.6538461538462","781.6538461538462","black","no","legacy","legacy","legacy","0","uniform","0","undefined","undefined","undefined","0","j","0","0","0","0","25","0","0","0","25","NA","21","25","21","0","21","3","25","0","25","Thu Feb 18 14:25:49 2021","The main experiment item","yes","Lexical_Decision_Task.osexp","/Users/tatianapereira/Dropbox","no","Andale Mono","no","18","no","white","no","yes","576","legacy","21","21","3","/Users/tatianapereira/Dropbox/subject-5208902.csv","legacy","Lentiform Loewenfeld","3.3.7","yes","yes","600bd7cfb6416f0113b04181","602110864497cf011d9c0822","0","f","NA","space","space","space","NA","f","1648","NA","6405","13378","7376","NA","1648","2","legacy","1024","2","48000","-16","task","5208902","even","NA","34827","43234","36829","83480","5781","26549","19169","83983","NA","83477","83983","83418","43234","85632","33013","82918","5732","74090","Lexical Decision Task","22","20323","26","yes","1024"
"3.705778213","0","6","stin","non-word","85.18518518518519","85.18518518518519","785.9629629629629","785.9629629629629","black","no","legacy","legacy","legacy","0","uniform","1","undefined","undefined","undefined","1","f","0","0","0","0","26","0","0","0","26","NA","22","26","22","0","22","3","26","0","26","Thu Feb 18 14:25:49 2021","The main experiment item","yes","Lexical_Decision_Task.osexp","/Users/tatianapereira/Dropbox","no","Andale Mono","no","18","no","white","no","yes","576","legacy","22","22","3","/Users/tatianapereira/Dropbox/subject-5208902.csv","legacy","Lentiform Loewenfeld","3.3.7","yes","yes","600bd7cfb6416f0113b04181","602110864497cf011d9c0822","0","f","NA","space","space","space","NA","f","898","NA","6405","13378","7376","NA","898","2","legacy","1024","2","48000","-16","task","5208902","even","NA","34827","43234","36829","87201","5781","26549","19169","87704","NA","87199","87704","87136","43234","88603","33013","82918","5732","85636","Lexical Decision Task","23","21221","27","yes","1024"
"3.165936429","0","7","leps","non-word","85.71428571428571","85.71428571428571","785.9642857142857","785.9642857142857","black","no","legacy","legacy","legacy","0","uniform","1","undefined","undefined","undefined","1","f","0","0","0","0","27","0","0","0","27","NA","23","27","23","0","23","3","27","0","27","Thu Feb 18 14:25:49 2021","The main experiment item","yes","Lexical_Decision_Task.osexp","/Users/tatianapereira/Dropbox","no","Andale Mono","no","18","no","white","no","yes","576","legacy","23","23","3","/Users/tatianapereira/Dropbox/subject-5208902.csv","legacy","Lentiform Loewenfeld","3.3.7","yes","yes","600bd7cfb6416f0113b04181","602110864497cf011d9c0822","0","f","NA","space","space","space","NA","f","786","NA","6405","13378","7376","NA","786","2","legacy","1024","2","48000","-16","task","5208902","even","NA","34827","43234","36829","89170","5781","26549","19169","89673","NA","89168","89673","89107","43234","90460","33013","88607","5732","85636","Lexical Decision Task","24","22007","28","yes","1024"
"2.895974732","6.65","5","sift","word","86.20689655172414","86.20689655172414","793.3793103448276","793.3793103448276","black","no","legacy","legacy","legacy","0","uniform","1","undefined","undefined","undefined","1","j","0","0","0","0","28","0","0","0","28","NA","24","28","24","0","24","3","28","0","28","Thu Feb 18 14:25:49 2021","The main experiment item","yes","Lexical_Decision_Task.osexp","/Users/tatianapereira/Dropbox","no","Andale Mono","no","18","no","white","no","yes","576","legacy","24","24","3","/Users/tatianapereira/Dropbox/subject-5208902.csv","legacy","Lentiform Loewenfeld","3.3.7","yes","yes","600bd7cfb6416f0113b04181","602110864497cf011d9c0822","0","j","NA","space","space","space","NA","j","1001","NA","6405","13378","7376","NA","1001","2","legacy","1024","2","48000","-16","task","5208902","even","NA","34827","43234","36829","91031","5781","26549","19169","91534","NA","91028","91534","90964","43234","92536","33013","90464","5732","85636","Lexical Decision Task","25","23008","29","yes","1024"
"3.208978517","10.33","4","fish","word","86.66666666666667","86.66666666666667","784.4666666666667","784.4666666666667","black","no","legacy","legacy","legacy","0","uniform","1","undefined","undefined","undefined","1","j","0","0","0","0","29","0","0","0","29","NA","25","29","25","0","25","3","29","0","29","Thu Feb 18 14:25:49 2021","The main experiment item","yes","Lexical_Decision_Task.osexp","/Users/tatianapereira/Dropbox","no","Andale Mono","no","18","no","white","no","yes","576","legacy","25","25","3","/Users/tatianapereira/Dropbox/subject-5208902.csv","legacy","Lentiform Loewenfeld","3.3.7","yes","yes","600bd7cfb6416f0113b04181","602110864497cf011d9c0822","0","j","NA","space","space","space","NA","j","526","NA","6405","13378","7376","NA","526","2","legacy","1024","2","48000","-16","task","5208902","even","NA","34827","43234","36829","93096","5781","26549","19169","93598","NA","93094","93599","93039","43234","94125","33013","92539","5732","85636","Lexical Decision Task","26","23534","30","yes","1024"
"2.793790385","5.67","9","swab","word","87.09677419354838","87.09677419354838","779.9677419354839","779.9677419354839","black","no","legacy","legacy","legacy","0","uniform","1","undefined","undefined","undefined","1","j","0","0","0","0","30","0","0","0","30","NA","26","30","26","0","26","3","30","0","30","Thu Feb 18 14:25:49 2021","The main experiment item","yes","Lexical_Decision_Task.osexp","/Users/tatianapereira/Dropbox","no","Andale Mono","no","18","no","white","no","yes","576","legacy","26","26","3","/Users/tatianapereira/Dropbox/subject-5208902.csv","legacy","Lentiform Loewenfeld","3.3.7","yes","yes","600bd7cfb6416f0113b04181","602110864497cf011d9c0822","0","j","NA","space","space","space","NA","j","645","NA","6405","13378","7376","NA","645","2","legacy","1024","2","48000","-16","task","5208902","even","NA","34827","43234","36829","94688","5781","26549","19169","95190","NA","94685","95190","94629","43234","95836","33013","94129","5732","85636","Lexical Decision Task","27","24179","31","yes","1024"
"2.675164031","8.57","6","glue","word","87.5","87.5","774.0625","774.0625","black","no","legacy","legacy","legacy","0","uniform","1","undefined","undefined","undefined","1","j","0","0","0","0","31","0","0","0","31","NA","27","31","27","0","27","3","31","0","31","Thu Feb 18 14:25:49 2021","The main experiment item","yes","Lexical_Decision_Task.osexp","/Users/tatianapereira/Dropbox","no","Andale Mono","no","18","no","white","no","yes","576","legacy","27","27","3","/Users/tatianapereira/Dropbox/subject-5208902.csv","legacy","Lentiform Loewenfeld","3.3.7","yes","yes","600bd7cfb6416f0113b04181","602110864497cf011d9c0822","0","j","NA","space","space","space","NA","j","591","NA","6405","13378","7376","NA","591","2","legacy","1024","2","48000","-16","task","5208902","even","NA","34827","43234","36829","96407","5781","26549","19169","96909","NA","96404","96909","96341","43234","97501","33013","95841","5732","85636","Lexical Decision Task","28","24770","32","yes","1024"
"3.168890155","0","6","thet","non-word","87.87878787878788","87.87878787878788","774.4848484848485","774.4848484848485","black","no","legacy","legacy","legacy","0","uniform","1","undefined","undefined","undefined","1","f","0","0","0","0","32","0","0","0","32","NA","28","32","28","0","28","3","32","0","32","Thu Feb 18 14:25:49 2021","The main experiment item","yes","Lexical_Decision_Task.osexp","/Users/tatianapereira/Dropbox","no","Andale Mono","no","18","no","white","no","yes","576","legacy","28","28","3","/Users/tatianapereira/Dropbox/subject-5208902.csv","legacy","Lentiform Loewenfeld","3.3.7","yes","yes","600bd7cfb6416f0113b04181","602110864497cf011d9c0822","0","f","NA","space","space","space","NA","f","788","NA","6405","13378","7376","NA","788","2","legacy","1024","2","48000","-16","task","5208902","even","NA","34827","43234","36829","98067","5781","26549","19169","98569","NA","98064","98570","98004","43234","99358","33013","97504","5732","85636","Lexical Decision Task","29","25558","33","yes","1024"
"2.664011697","8.19","4","hawk","word","88.23529411764706","88.23529411764706","771.7058823529412","771.7058823529412","black","no","legacy","legacy","legacy","0","uniform","1","undefined","undefined","undefined","1","j","0","0","0","0","33","0","0","0","33","NA","29","33","29","0","29","3","33","0","33","Thu Feb 18 14:25:49 2021","The main experiment item","yes","Lexical_Decision_Task.osexp","/Users/tatianapereira/Dropbox","no","Andale Mono","no","18","no","white","no","yes","576","legacy","29","29","3","/Users/tatianapereira/Dropbox/subject-5208902.csv","legacy","Lentiform Loewenfeld","3.3.7","yes","yes","600bd7cfb6416f0113b04181","602110864497cf011d9c0822","0","j","NA","space","space","space","NA","j","680","NA","6405","13378","7376","NA","680","2","legacy","1024","2","48000","-16","task","5208902","even","NA","34827","43234","36829","99928","5781","26549","19169","100430","NA","99925","100430","99863","43234","101111","33013","99363","5732","85636","Lexical Decision Task","30","26238","34","yes","1024"
"3.216517684","10.87","3","film","word","88.57142857142857","88.57142857142857","766.2571428571429","766.2571428571429","black","no","legacy","legacy","legacy","0","uniform","1","undefined","undefined","undefined","1","j","0","0","0","0","34","0","0","0","34","NA","30","34","30","0","30","3","34","0","34","Thu Feb 18 14:25:49 2021","The main experiment item","yes","Lexical_Decision_Task.osexp","/Users/tatianapereira/Dropbox","no","Andale Mono","no","18","no","white","no","yes","576","legacy","30","30","3","/Users/tatianapereira/Dropbox/subject-5208902.csv","legacy","Lentiform Loewenfeld","3.3.7","yes","yes","600bd7cfb6416f0113b04181","602110864497cf011d9c0822","0","j","NA","space","space","space","NA","j","581","NA","6405","13378","7376","NA","581","2","legacy","1024","2","48000","-16","task","5208902","even","NA","34827","43234","36829","101681","5781","26549","19169","102183","NA","101678","102184","101615","43234","102767","33013","101115","5732","85636","Lexical Decision Task","31","26819","35","yes","1024"
"2.980306438","0","7","slun","non-word","88.88888888888889","88.88888888888889","771.7777777777778","771.7777777777778","black","no","legacy","legacy","legacy","0","uniform","1","undefined","undefined","undefined","1","f","0","0","0","0","35","0","0","0","35","NA","31","35","31","0","31","3","35","0","35","Thu Feb 18 14:25:49 2021","The main experiment item","yes","Lexical_Decision_Task.osexp","/Users/tatianapereira/Dropbox","no","Andale Mono","no","18","no","white","no","yes","576","legacy","31","31","3","/Users/tatianapereira/Dropbox/subject-5208902.csv","legacy","Lentiform Loewenfeld","3.3.7","yes","yes","600bd7cfb6416f0113b04181","602110864497cf011d9c0822","0","f","NA","space","space","space","NA","f","965","NA","6405","13378","7376","NA","965","2","legacy","1024","2","48000","-16","task","5208902","even","NA","34827","43234","36829","103335","5781","26549","19169","103838","NA","103333","103838","103271","43234","104804","33013","102771","5732","85636","Lexical Decision Task","32","27784","36","yes","1024"
"3.010582609","0","2","drod","non-word","89.1891891891892","89.1891891891892","770.8648648648649","770.8648648648649","black","no","legacy","legacy","legacy","0","uniform","1","undefined","undefined","undefined","1","f","0","0","0","0","36","0","0","0","36","NA","32","36","32","0","32","3","36","0","36","Thu Feb 18 14:25:49 2021","The main experiment item","yes","Lexical_Decision_Task.osexp","/Users/tatianapereira/Dropbox","no","Andale Mono","no","18","no","white","no","yes","576","legacy","32","32","3","/Users/tatianapereira/Dropbox/subject-5208902.csv","legacy","Lentiform Loewenfeld","3.3.7","yes","yes","600bd7cfb6416f0113b04181","602110864497cf011d9c0822","0","f","NA","space","space","space","NA","f","738","NA","6405","13378","7376","NA","738","2","legacy","1024","2","48000","-16","task","5208902","even","NA","34827","43234","36829","105368","5781","26549","19169","105871","NA","105366","105872","105309","43234","106611","33013","104809","5732","85636","Lexical Decision Task","33","28522","37","yes","1024"
"3.076883066","0","8","mout","non-word","86.84210526315789","86.84210526315789","772.8684210526316","772.8684210526316","black","no","legacy","legacy","legacy","0","uniform","0","undefined","undefined","undefined","0","f","0","0","0","0","37","0","0","0","37","NA","33","37","33","0","33","3","37","0","37","Thu Feb 18 14:25:49 2021","The main experiment item","yes","Lexical_Decision_Task.osexp","/Users/tatianapereira/Dropbox","no","Andale Mono","no","18","no","white","no","yes","576","legacy","33","33","3","/Users/tatianapereira/Dropbox/subject-5208902.csv","legacy","Lentiform Loewenfeld","3.3.7","yes","yes","600bd7cfb6416f0113b04181","602110864497cf011d9c0822","0","j","NA","space","space","space","NA","j","847","NA","6405","13378","7376","NA","847","2","legacy","1024","2","48000","-16","task","5208902","even","NA","34827","43234","36829","107178","5781","26549","19169","107680","NA","107175","107680","107116","43234","108528","33013","106616","5732","85636","Lexical Decision Task","33","29369","38","yes","1024"
"3.174641193","0","3","ramb","non-word","84.61538461538461","84.61538461538461","775.6923076923077","775.6923076923077","black","no","legacy","legacy","legacy","0","uniform","0","undefined","undefined","undefined","0","f","0","0","0","0","38","0","0","0","38","NA","34","38","34","0","34","3","38","0","38","Thu Feb 18 14:25:49 2021","The main experiment item","yes","Lexical_Decision_Task.osexp","/Users/tatianapereira/Dropbox","no","Andale Mono","no","18","no","white","no","yes","576","legacy","34","34","3","/Users/tatianapereira/Dropbox/subject-5208902.csv","legacy","Lentiform Loewenfeld","3.3.7","yes","yes","600bd7cfb6416f0113b04181","602110864497cf011d9c0822","0","j","NA","space","space","space","NA","j","883","NA","6405","13378","7376","NA","883","2","legacy","1024","2","48000","-16","task","5208902","even","NA","34827","43234","36829","110097","5781","26549","19169","110599","NA","110094","110599","110032","43234","111483","33013","106616","5732","108532","Lexical Decision Task","33","30252","39","yes","1024"
"3.20996159","0","4","clee","non-word","85","85","777.325","777.325","black","no","legacy","legacy","legacy","0","uniform","1","undefined","undefined","undefined","1","f","0","0","0","0","39","0","0","0","39","NA","35","39","35","0","35","3","39","0","39","Thu Feb 18 14:25:49 2021","The main experiment item","yes","Lexical_Decision_Task.osexp","/Users/tatianapereira/Dropbox","no","Andale Mono","no","18","no","white","no","yes","576","legacy","35","35","3","/Users/tatianapereira/Dropbox/subject-5208902.csv","legacy","Lentiform Loewenfeld","3.3.7","yes","yes","600bd7cfb6416f0113b04181","602110864497cf011d9c0822","0","f","NA","space","space","space","NA","f","841","NA","6405","13378","7376","NA","841","2","legacy","1024","2","48000","-16","task","5208902","even","NA","34827","43234","36829","113052","5781","26549","19169","113555","NA","113049","113555","112987","43234","114397","33013","106616","5732","111487","Lexical Decision Task","34","31093","40","yes","1024"
"2.803231716","5.26","3","kiln","word","85.36585365853658","85.36585365853658","786.7560975609756","786.7560975609756","black","no","legacy","legacy","legacy","0","uniform","1","undefined","undefined","undefined","1","j","0","0","0","0","40","0","0","0","40","NA","36","40","36","0","36","3","40","0","40","Thu Feb 18 14:25:49 2021","The main experiment item","yes","Lexical_Decision_Task.osexp","/Users/tatianapereira/Dropbox","no","Andale Mono","no","18","no","white","no","yes","576","legacy","36","36","3","/Users/tatianapereira/Dropbox/subject-5208902.csv","legacy","Lentiform Loewenfeld","3.3.7","yes","yes","600bd7cfb6416f0113b04181","602110864497cf011d9c0822","0","j","NA","space","space","space","NA","j","1164","NA","6405","13378","7376","NA","1164","2","legacy","1024","2","48000","-16","task","5208902","even","NA","34827","43234","36829","114964","5781","26549","19169","115466","NA","114961","115467","114901","43234","116632","33013","114401","5732","111487","Lexical Decision Task","35","32257","41","yes","1024"
"3.149629599","0","2","cleb","non-word","85.71428571428571","85.71428571428571","786.2857142857143","786.2857142857143","black","no","legacy","legacy","legacy","0","uniform","1","undefined","undefined","undefined","1","f","0","0","0","0","41","0","0","0","41","NA","37","41","37","0","37","3","41","0","41","Thu Feb 18 14:25:49 2021","The main experiment item","yes","Lexical_Decision_Task.osexp","/Users/tatianapereira/Dropbox","no","Andale Mono","no","18","no","white","no","yes","576","legacy","37","37","3","/Users/tatianapereira/Dropbox/subject-5208902.csv","legacy","Lentiform Loewenfeld","3.3.7","yes","yes","600bd7cfb6416f0113b04181","602110864497cf011d9c0822","0","f","NA","space","space","space","NA","f","767","NA","6405","13378","7376","NA","767","2","legacy","1024","2","48000","-16","task","5208902","even","NA","34827","43234","36829","117198","5781","26549","19169","117701","NA","117195","117701","117136","43234","118469","33013","116636","5732","111487","Lexical Decision Task","36","33024","42","yes","1024"
"3.100255637","0","6","brax","non-word","86.04651162790698","86.04651162790698","785.5581395348837","785.5581395348837","black","no","legacy","legacy","legacy","0","uniform","1","undefined","undefined","undefined","1","f","0","0","0","0","42","0","0","0","42","NA","38","42","38","0","38","3","42","0","42","Thu Feb 18 14:25:49 2021","The main experiment item","yes","Lexical_Decision_Task.osexp","/Users/tatianapereira/Dropbox","no","Andale Mono","no","18","no","white","no","yes","576","legacy","38","38","3","/Users/tatianapereira/Dropbox/subject-5208902.csv","legacy","Lentiform Loewenfeld","3.3.7","yes","yes","600bd7cfb6416f0113b04181","602110864497cf011d9c0822","0","f","NA","space","space","space","NA","f","755","NA","6405","13378","7376","NA","755","2","legacy","1024","2","48000","-16","task","5208902","even","NA","34827","43234","36829","119035","5781","26549","19169","119538","NA","119031","119538","118973","43234","120294","33013","118473","5732","111487","Lexical Decision Task","37","33779","43","yes","1024"
"2.714888338","0","3","brug","non-word","86.36363636363636","86.36363636363636","782.8181818181819","782.8181818181819","black","no","legacy","legacy","legacy","0","uniform","1","undefined","undefined","undefined","1","f","0","0","0","0","43","0","0","0","43","NA","39","43","39","0","39","3","43","0","43","Thu Feb 18 14:25:49 2021","The main experiment item","yes","Lexical_Decision_Task.osexp","/Users/tatianapereira/Dropbox","no","Andale Mono","no","18","no","white","no","yes","576","legacy","39","39","3","/Users/tatianapereira/Dropbox/subject-5208902.csv","legacy","Lentiform Loewenfeld","3.3.7","yes","yes","600bd7cfb6416f0113b04181","602110864497cf011d9c0822","0","f","NA","space","space","space","NA","f","665","NA","6405","13378","7376","NA","665","2","legacy","1024","2","48000","-16","task","5208902","even","NA","34827","43234","36829","120860","5781","26549","19169","121363","NA","120858","121363","120798","43234","122029","33013","120298","5732","111487","Lexical Decision Task","38","34444","44","yes","1024"
"2.979548375","8.71","4","soup","word","86.66666666666667","86.66666666666667","779.8666666666667","779.8666666666667","black","no","legacy","legacy","legacy","0","uniform","1","undefined","undefined","undefined","1","j","0","0","0","0","44","0","0","0","44","NA","40","44","40","0","40","3","44","0","44","Thu Feb 18 14:25:49 2021","The main experiment item","yes","Lexical_Decision_Task.osexp","/Users/tatianapereira/Dropbox","no","Andale Mono","no","18","no","white","no","yes","576","legacy","40","40","3","/Users/tatianapereira/Dropbox/subject-5208902.csv","legacy","Lentiform Loewenfeld","3.3.7","yes","yes","600bd7cfb6416f0113b04181","602110864497cf011d9c0822","0","j","NA","space","space","space","NA","j","650","NA","6405","13378","7376","NA","650","2","legacy","1024","2","48000","-16","task","5208902","even","NA","34827","43234","36829","122596","5781","26549","19169","123100","NA","122594","123100","122533","43234","123751","33013","122033","5732","111487","Lexical Decision Task","39","35094","45","yes","1024"
"3.102203805","7.21","3","drip","word","86.95652173913044","86.95652173913044","780.6304347826087","780.6304347826087","black","no","legacy","legacy","legacy","0","uniform","1","undefined","undefined","undefined","1","j","0","0","0","0","45","0","0","0","45","NA","41","45","41","0","41","3","45","0","45","Thu Feb 18 14:25:49 2021","The main experiment item","yes","Lexical_Decision_Task.osexp","/Users/tatianapereira/Dropbox","no","Andale Mono","no","18","no","white","no","yes","576","legacy","41","41","3","/Users/tatianapereira/Dropbox/subject-5208902.csv","legacy","Lentiform Loewenfeld","3.3.7","yes","yes","600bd7cfb6416f0113b04181","602110864497cf011d9c0822","0","j","NA","space","space","space","NA","j","815","NA","6405","13378","7376","NA","815","2","legacy","1024","2","48000","-16","task","5208902","even","NA","34827","43234","36829","124318","5781","26549","19169","124821","NA","124315","124821","124255","43234","125637","33013","123755","5732","111487","Lexical Decision Task","40","35909","46","yes","1024"
"2.64476673","0","5","moft","non-word","87.23404255319149","87.23404255319149","778.8723404255319","778.8723404255319","black","no","legacy","legacy","legacy","0","uniform","1","undefined","undefined","undefined","1","f","0","0","0","0","46","0","0","0","46","NA","42","46","42","0","42","3","46","0","46","Thu Feb 18 14:25:49 2021","The main experiment item","yes","Lexical_Decision_Task.osexp","/Users/tatianapereira/Dropbox","no","Andale Mono","no","18","no","white","no","yes","576","legacy","42","42","3","/Users/tatianapereira/Dropbox/subject-5208902.csv","legacy","Lentiform Loewenfeld","3.3.7","yes","yes","600bd7cfb6416f0113b04181","602110864497cf011d9c0822","0","f","NA","space","space","space","NA","f","698","NA","6405","13378","7376","NA","698","2","legacy","1024","2","48000","-16","task","5208902","even","NA","34827","43234","36829","126204","5781","26549","19169","126706","NA","126201","126707","126141","43234","127406","33013","125640","5732","111487","Lexical Decision Task","41","36607","47","yes","1024"
"2.75025376","10.2","6","jump","word","87.5","87.5","773.3125","773.3125","black","no","legacy","legacy","legacy","0","uniform","1","undefined","undefined","undefined","1","j","0","0","0","0","47","0","0","0","47","NA","43","47","43","0","43","3","47","0","47","Thu Feb 18 14:25:49 2021","The main experiment item","yes","Lexical_Decision_Task.osexp","/Users/tatianapereira/Dropbox","no","Andale Mono","no","18","no","white","no","yes","576","legacy","43","43","3","/Users/tatianapereira/Dropbox/subject-5208902.csv","legacy","Lentiform Loewenfeld","3.3.7","yes","yes","600bd7cfb6416f0113b04181","602110864497cf011d9c0822","0","j","NA","space","space","space","NA","j","512","NA","6405","13378","7376","NA","512","2","legacy","1024","2","48000","-16","task","5208902","even","NA","34827","43234","36829","127970","5781","26549","19169","128473","NA","127968","128473","127909","43234","128986","33013","127409","5732","111487","Lexical Decision Task","42","37119","48","yes","1024"
"3.068433376","8.09","2","bulb","word","87.75510204081633","87.75510204081633","773.795918367347","773.795918367347","black","no","legacy","legacy","legacy","0","uniform","1","undefined","undefined","undefined","1","j","0","0","0","0","48","0","0","0","48","NA","44","48","44","0","44","3","48","0","48","Thu Feb 18 14:25:49 2021","The main experiment item","yes","Lexical_Decision_Task.osexp","/Users/tatianapereira/Dropbox","no","Andale Mono","no","18","no","white","no","yes","576","legacy","44","44","3","/Users/tatianapereira/Dropbox/subject-5208902.csv","legacy","Lentiform Loewenfeld","3.3.7","yes","yes","600bd7cfb6416f0113b04181","602110864497cf011d9c0822","0","j","NA","space","space","space","NA","j","797","NA","6405","13378","7376","NA","797","2","legacy","1024","2","48000","-16","task","5208902","even","NA","34827","43234","36829","129551","5781","26549","19169","130054","NA","129548","130054","129490","43234","130852","33013","128989","5732","111487","Lexical Decision Task","43","37916","49","yes","1024"
"2.695770526","7.34","6","pawn","word","88","88","769.34","769.34","black","no","legacy","legacy","legacy","0","uniform","1","undefined","undefined","undefined","1","j","0","0","0","0","49","0","0","0","49","NA","45","49","45","0","45","3","49","0","49","Thu Feb 18 14:25:49 2021","The main experiment item","yes","Lexical_Decision_Task.osexp","/Users/tatianapereira/Dropbox","no","Andale Mono","no","18","no","white","no","yes","576","legacy","45","45","3","/Users/tatianapereira/Dropbox/subject-5208902.csv","legacy","Lentiform Loewenfeld","3.3.7","yes","yes","600bd7cfb6416f0113b04181","602110864497cf011d9c0822","0","j","NA","space","space","space","NA","j","551","NA","6405","13378","7376","NA","551","2","legacy","1024","2","48000","-16","task","5208902","even","NA","34827","43234","36829","131419","5781","26549","19169","131922","NA","131416","131922","131356","43234","132474","33013","130856","5732","111487","Lexical Decision Task","44","38467","50","yes","1024"
"3.384413096","10.15","3","glad","word","88.23529411764706","88.23529411764706","767.0784313725491","767.0784313725491","black","no","legacy","legacy","legacy","0","uniform","1","undefined","undefined","undefined","1","j","0","0","0","0","50","0","0","0","50","NA","46","50","46","0","46","3","50","0","50","Thu Feb 18 14:25:49 2021","The main experiment item","yes","Lexical_Decision_Task.osexp","/Users/tatianapereira/Dropbox","no","Andale Mono","no","18","no","white","no","yes","576","legacy","46","46","3","/Users/tatianapereira/Dropbox/subject-5208902.csv","legacy","Lentiform Loewenfeld","3.3.7","yes","yes","600bd7cfb6416f0113b04181","602110864497cf011d9c0822","0","j","NA","space","space","space","NA","j","654","NA","6405","13378","7376","NA","654","2","legacy","1024","2","48000","-16","task","5208902","even","NA","34827","43234","36829","133040","5781","26549","19169","133544","NA","133038","133544","132978","43234","134199","33013","132478","5732","111487","Lexical Decision Task","45","39121","51","yes","1024"
"2.873320602","0","4","lurg","non-word","88.46153846153847","88.46153846153847","764.1346153846154","764.1346153846154","black","no","legacy","legacy","legacy","0","uniform","1","undefined","undefined","undefined","1","f","0","0","0","0","51","0","0","0","51","NA","47","51","47","0","47","3","51","0","51","Thu Feb 18 14:25:49 2021","The main experiment item","yes","Lexical_Decision_Task.osexp","/Users/tatianapereira/Dropbox","no","Andale Mono","no","18","no","white","no","yes","576","legacy","47","47","3","/Users/tatianapereira/Dropbox/subject-5208902.csv","legacy","Lentiform Loewenfeld","3.3.7","yes","yes","600bd7cfb6416f0113b04181","602110864497cf011d9c0822","0","f","NA","space","space","space","NA","f","614","NA","6405","13378","7376","NA","614","2","legacy","1024","2","48000","-16","task","5208902","even","NA","34827","43234","36829","134767","5781","26549","19169","135270","NA","134764","135270","134704","43234","135885","33013","134204","5732","111487","Lexical Decision Task","46","39735","52","yes","1024"
"2.744553742","0","2","nawk","non-word","88.67924528301887","88.67924528301887","763.4150943396227","763.4150943396227","black","no","legacy","legacy","legacy","0","uniform","1","undefined","undefined","undefined","1","f","0","0","0","0","52","0","0","0","52","NA","48","52","48","0","48","3","52","0","52","Thu Feb 18 14:25:49 2021","The main experiment item","yes","Lexical_Decision_Task.osexp","/Users/tatianapereira/Dropbox","no","Andale Mono","no","18","no","white","no","yes","576","legacy","48","48","3","/Users/tatianapereira/Dropbox/subject-5208902.csv","legacy","Lentiform Loewenfeld","3.3.7","yes","yes","600bd7cfb6416f0113b04181","602110864497cf011d9c0822","0","f","NA","space","space","space","NA","f","726","NA","6405","13378","7376","NA","726","2","legacy","1024","2","48000","-16","task","5208902","even","NA","34827","43234","36829","136451","5781","26549","19169","136954","NA","136448","136954","136388","43234","137681","33013","135888","5732","111487","Lexical Decision Task","47","40461","53","yes","1024"
"2.981215883","10.66","5","hair","word","88.88888888888889","88.88888888888889","761.2222222222222","761.2222222222222","black","no","legacy","legacy","legacy","0","uniform","1","undefined","undefined","undefined","1","j","0","0","0","0","53","0","0","0","53","NA","49","53","49","0","49","3","53","0","53","Thu Feb 18 14:25:49 2021","The main experiment item","yes","Lexical_Decision_Task.osexp","/Users/tatianapereira/Dropbox","no","Andale Mono","no","18","no","white","no","yes","576","legacy","49","49","3","/Users/tatianapereira/Dropbox/subject-5208902.csv","legacy","Lentiform Loewenfeld","3.3.7","yes","yes","600bd7cfb6416f0113b04181","602110864497cf011d9c0822","0","j","NA","space","space","space","NA","j","645","NA","6405","13378","7376","NA","645","2","legacy","1024","2","48000","-16","task","5208902","even","NA","34827","43234","36829","138247","5781","26549","19169","138750","NA","138244","138750","138185","43234","139396","33013","137684","5732","111487","Lexical Decision Task","48","41106","54","yes","1024"
"3.091901331","0","9","nipe","non-word","89.0909090909091","89.0909090909091","759.1090909090909","759.1090909090909","black","no","legacy","legacy","legacy","0","uniform","1","undefined","undefined","undefined","1","f","0","0","0","0","54","0","0","0","54","0","50","54","50","0","50","3","54","0","54","Thu Feb 18 14:25:49 2021","The main experiment item","yes","Lexical_Decision_Task.osexp","/Users/tatianapereira/Dropbox","no","Andale Mono","no","18","no","white","no","yes","576","legacy","50","50","3","/Users/tatianapereira/Dropbox/subject-5208902.csv","legacy","Lentiform Loewenfeld","3.3.7","yes","yes","600bd7cfb6416f0113b04181","602110864497cf011d9c0822","0","f","NA","space","space","space","j","f","645","NA","6405","13378","7376","42321","645","2","legacy","1024","2","48000","-16","task","5208902","even","NA","34827","43234","36829","182308","5781","26549","19169","182811","139928","182305","182811","139899","43234","183457","33013","139399","5732","111487","Lexical Decision Task","49","41751","55","yes","1024"
"3.529815197","0","3","lerm","non-word","89.28571428571429","89.28571428571429","756.125","756.125","black","no","legacy","legacy","legacy","0","uniform","1","undefined","undefined","undefined","1","f","0","0","0","0","55","0","0","0","55","0","51","55","51","0","51","3","55","0","55","Thu Feb 18 14:25:49 2021","The main experiment item","yes","Lexical_Decision_Task.osexp","/Users/tatianapereira/Dropbox","no","Andale Mono","no","18","no","white","no","yes","576","legacy","51","51","3","/Users/tatianapereira/Dropbox/subject-5208902.csv","legacy","Lentiform Loewenfeld","3.3.7","yes","yes","600bd7cfb6416f0113b04181","602110864497cf011d9c0822","0","f","NA","space","space","space","j","f","592","NA","6405","13378","7376","42321","592","2","legacy","1024","2","48000","-16","task","5208902","even","NA","34827","43234","36829","184023","5781","26549","19169","184525","139928","184020","184525","183960","43234","185118","33013","183460","5732","111487","Lexical Decision Task","50","42343","56","yes","1024"
"2.746890964","9.67","3","plug","word","89.47368421052632","89.47368421052632","751.6842105263158","751.6842105263158","black","no","legacy","legacy","legacy","0","uniform","1","undefined","undefined","undefined","1","j","0","0","0","0","56","0","0","0","56","0","52","56","52","0","52","3","56","0","56","Thu Feb 18 14:25:49 2021","The main experiment item","yes","Lexical_Decision_Task.osexp","/Users/tatianapereira/Dropbox","no","Andale Mono","no","18","no","white","no","yes","576","legacy","52","52","3","/Users/tatianapereira/Dropbox/subject-5208902.csv","legacy","Lentiform Loewenfeld","3.3.7","yes","yes","600bd7cfb6416f0113b04181","602110864497cf011d9c0822","0","j","NA","space","space","space","j","j","503","NA","6405","13378","7376","42321","503","2","legacy","1024","2","48000","-16","task","5208902","even","NA","34827","43234","36829","185682","5781","26549","19169","186184","139928","185680","186185","185621","43234","186689","33013","185121","5732","111487","Lexical Decision Task","51","42846","57","yes","1024"
"3.119255889","6.63","2","itch","word","89.65517241379311","89.65517241379311","749.7413793103449","749.7413793103449","black","no","legacy","legacy","legacy","0","uniform","1","undefined","undefined","undefined","1","j","0","0","0","0","57","0","0","0","57","0","53","57","53","0","53","3","57","0","57","Thu Feb 18 14:25:49 2021","The main experiment item","yes","Lexical_Decision_Task.osexp","/Users/tatianapereira/Dropbox","no","Andale Mono","no","18","no","white","no","yes","576","legacy","53","53","3","/Users/tatianapereira/Dropbox/subject-5208902.csv","legacy","Lentiform Loewenfeld","3.3.7","yes","yes","600bd7cfb6416f0113b04181","602110864497cf011d9c0822","0","j","NA","space","space","space","j","j","639","NA","6405","13378","7376","42321","639","2","legacy","1024","2","48000","-16","task","5208902","even","NA","34827","43234","36829","187257","5781","26549","19169","187760","139928","187254","187760","187194","43234","188400","33013","186694","5732","111487","Lexical Decision Task","52","43485","58","yes","1024"
"2.68604012","0","4","pumb","non-word","89.83050847457628","89.83050847457628","749.3050847457627","749.3050847457627","black","no","legacy","legacy","legacy","0","uniform","1","undefined","undefined","undefined","1","f","0","0","0","0","58","0","0","0","58","0","54","58","54","0","54","3","58","0","58","Thu Feb 18 14:25:49 2021","The main experiment item","yes","Lexical_Decision_Task.osexp","/Users/tatianapereira/Dropbox","no","Andale Mono","no","18","no","white","no","yes","576","legacy","54","54","3","/Users/tatianapereira/Dropbox/subject-5208902.csv","legacy","Lentiform Loewenfeld","3.3.7","yes","yes","600bd7cfb6416f0113b04181","602110864497cf011d9c0822","0","f","NA","space","space","space","j","f","724","NA","6405","13378","7376","42321","724","2","legacy","1024","2","48000","-16","task","5208902","even","NA","34827","43234","36829","188966","5781","26549","19169","189468","139928","188963","189468","188904","43234","190193","33013","188404","5732","111487","Lexical Decision Task","53","44209","59","yes","1024"
"3.225825991","0","7","talm","non-word","90","90","748.7833333333333","748.7833333333333","black","no","legacy","legacy","legacy","0","uniform","1","undefined","undefined","undefined","1","f","0","0","0","0","59","0","0","0","59","0","55","59","55","0","55","3","59","0","59","Thu Feb 18 14:25:49 2021","The main experiment item","yes","Lexical_Decision_Task.osexp","/Users/tatianapereira/Dropbox","no","Andale Mono","no","18","no","white","no","yes","576","legacy","55","55","3","/Users/tatianapereira/Dropbox/subject-5208902.csv","legacy","Lentiform Loewenfeld","3.3.7","yes","yes","600bd7cfb6416f0113b04181","602110864497cf011d9c0822","0","f","NA","space","space","space","j","f","718","NA","6405","13378","7376","42321","718","2","legacy","1024","2","48000","-16","task","5208902","even","NA","34827","43234","36829","190759","5781","26549","19169","191261","139928","190756","191262","190697","43234","191981","33013","190197","5732","111487","Lexical Decision Task","54","44927","60","yes","1024"
"3.081107167","0","6","chot","non-word","90.1639344262295","90.1639344262295","747.0491803278688","747.0491803278688","black","no","legacy","legacy","legacy","0","uniform","1","undefined","undefined","undefined","1","f","0","0","0","0","60","0","0","0","60","0","56","60","56","0","56","3","60","0","60","Thu Feb 18 14:25:49 2021","The main experiment item","yes","Lexical_Decision_Task.osexp","/Users/tatianapereira/Dropbox","no","Andale Mono","no","18","no","white","no","yes","576","legacy","56","56","3","/Users/tatianapereira/Dropbox/subject-5208902.csv","legacy","Lentiform Loewenfeld","3.3.7","yes","yes","600bd7cfb6416f0113b04181","602110864497cf011d9c0822","0","f","NA","space","space","space","j","f","643","NA","6405","13378","7376","42321","643","2","legacy","1024","2","48000","-16","task","5208902","even","NA","34827","43234","36829","192547","5781","26549","19169","193050","139928","192544","193051","192484","43234","193695","33013","191984","5732","111487","Lexical Decision Task","55","45570","61","yes","1024"
"2.7084209","0","8","vump","non-word","90.3225806451613","90.3225806451613","743.8225806451613","743.8225806451613","black","no","legacy","legacy","legacy","0","uniform","1","undefined","undefined","undefined","1","f","0","0","0","0","61","0","0","0","61","0","57","61","57","0","57","3","61","0","61","Thu Feb 18 14:25:49 2021","The main experiment item","yes","Lexical_Decision_Task.osexp","/Users/tatianapereira/Dropbox","no","Andale Mono","no","18","no","white","no","yes","576","legacy","57","57","3","/Users/tatianapereira/Dropbox/subject-5208902.csv","legacy","Lentiform Loewenfeld","3.3.7","yes","yes","600bd7cfb6416f0113b04181","602110864497cf011d9c0822","0","f","NA","space","space","space","j","f","547","NA","6405","13378","7376","42321","547","2","legacy","1024","2","48000","-16","task","5208902","even","NA","34827","43234","36829","194261","5781","26549","19169","194764","139928","194258","194764","194199","43234","195312","33013","193698","5732","111487","Lexical Decision Task","56","46117","62","yes","1024"
"2.696644658","5.78","2","yolk","word","90.47619047619048","90.47619047619048","740.8730158730159","740.8730158730159","black","no","legacy","legacy","legacy","0","uniform","1","undefined","undefined","undefined","1","j","0","0","0","0","62","0","0","0","62","0","58","62","58","0","58","3","62","0","62","Thu Feb 18 14:25:49 2021","The main experiment item","yes","Lexical_Decision_Task.osexp","/Users/tatianapereira/Dropbox","no","Andale Mono","no","18","no","white","no","yes","576","legacy","58","58","3","/Users/tatianapereira/Dropbox/subject-5208902.csv","legacy","Lentiform Loewenfeld","3.3.7","yes","yes","600bd7cfb6416f0113b04181","602110864497cf011d9c0822","0","j","NA","space","space","space","j","j","558","NA","6405","13378","7376","42321","558","2","legacy","1024","2","48000","-16","task","5208902","even","NA","34827","43234","36829","195879","5781","26549","19169","196382","139928","195876","196382","195816","43234","196942","33013","195316","5732","111487","Lexical Decision Task","57","46675","63","yes","1024"
"2.693726949","5.08","3","swig","word","90.625","90.625","748.828125","748.828125","black","no","legacy","legacy","legacy","0","uniform","1","undefined","undefined","undefined","1","j","0","0","0","0","63","0","0","0","63","0","59","63","59","0","59","3","63","0","63","Thu Feb 18 14:25:49 2021","The main experiment item","yes","Lexical_Decision_Task.osexp","/Users/tatianapereira/Dropbox","no","Andale Mono","no","18","no","white","no","yes","576","legacy","59","59","3","/Users/tatianapereira/Dropbox/subject-5208902.csv","legacy","Lentiform Loewenfeld","3.3.7","yes","yes","600bd7cfb6416f0113b04181","602110864497cf011d9c0822","0","j","NA","space","space","space","j","j","1250","NA","6405","13378","7376","42321","1250","2","legacy","1024","2","48000","-16","task","5208902","even","NA","34827","43234","36829","197508","5781","26549","19169","198011","139928","197505","198011","197446","43234","199262","33013","196946","5732","111487","Lexical Decision Task","58","47925","64","yes","1024"
"3.031812271","6.52","3","gulp","word","90.76923076923077","90.76923076923077","782.7846153846153","782.7846153846153","black","no","legacy","legacy","legacy","0","uniform","1","undefined","undefined","undefined","1","j","0","0","0","0","64","0","0","0","64","0","60","64","60","0","60","3","64","0","64","Thu Feb 18 14:25:49 2021","The main experiment item","yes","Lexical_Decision_Task.osexp","/Users/tatianapereira/Dropbox","no","Andale Mono","no","18","no","white","no","yes","576","legacy","60","60","3","/Users/tatianapereira/Dropbox/subject-5208902.csv","legacy","Lentiform Loewenfeld","3.3.7","yes","yes","600bd7cfb6416f0113b04181","602110864497cf011d9c0822","0","j","NA","space","space","space","j","j","2956","NA","6405","13378","7376","42321","2956","2","legacy","1024","2","48000","-16","task","5208902","even","NA","34827","43234","36829","199836","5781","26549","19169","200339","139928","199832","200339","199765","43234","203297","33013","199265","5732","111487","Lexical Decision Task","59","50881","65","yes","1024"
"3.153001286","8.7","5","palm","word","90.9090909090909","90.9090909090909","780.8030303030303","780.8030303030303","black","no","legacy","legacy","legacy","0","uniform","1","undefined","undefined","undefined","1","j","0","0","0","0","65","0","0","0","65","0","61","65","61","0","61","3","65","0","65","Thu Feb 18 14:25:49 2021","The main experiment item","yes","Lexical_Decision_Task.osexp","/Users/tatianapereira/Dropbox","no","Andale Mono","no","18","no","white","no","yes","576","legacy","61","61","3","/Users/tatianapereira/Dropbox/subject-5208902.csv","legacy","Lentiform Loewenfeld","3.3.7","yes","yes","600bd7cfb6416f0113b04181","602110864497cf011d9c0822","0","j","NA","space","space","space","j","j","652","NA","6405","13378","7376","42321","652","2","legacy","1024","2","48000","-16","task","5208902","even","NA","34827","43234","36829","203864","5781","26549","19169","204367","139928","203861","204367","203801","43234","205020","33013","203301","5732","111487","Lexical Decision Task","60","51533","66","yes","1024"
"3.397302518","7.01","2","knit","word","91.04477611940298","91.04477611940298","776.9402985074627","776.9402985074627","black","no","legacy","legacy","legacy","0","uniform","1","undefined","undefined","undefined","1","j","0","0","0","0","66","0","0","0","66","0","62","66","62","0","62","3","66","0","66","Thu Feb 18 14:25:49 2021","The main experiment item","yes","Lexical_Decision_Task.osexp","/Users/tatianapereira/Dropbox","no","Andale Mono","no","18","no","white","no","yes","576","legacy","62","62","3","/Users/tatianapereira/Dropbox/subject-5208902.csv","legacy","Lentiform Loewenfeld","3.3.7","yes","yes","600bd7cfb6416f0113b04181","602110864497cf011d9c0822","0","j","NA","space","space","space","j","j","522","NA","6405","13378","7376","42321","522","2","legacy","1024","2","48000","-16","task","5208902","even","NA","34827","43234","36829","205586","5781","26549","19169","206089","139928","205583","206089","205524","43234","206612","33013","205024","5732","111487","Lexical Decision Task","61","52055","67","yes","1024"
"3.282244367","0","6","fute","non-word","91.17647058823529","91.17647058823529","774.2058823529412","774.2058823529412","black","no","legacy","legacy","legacy","0","uniform","1","undefined","undefined","undefined","1","f","0","0","0","0","67","0","0","0","67","0","63","67","63","0","63","3","67","0","67","Thu Feb 18 14:25:49 2021","The main experiment item","yes","Lexical_Decision_Task.osexp","/Users/tatianapereira/Dropbox","no","Andale Mono","no","18","no","white","no","yes","576","legacy","63","63","3","/Users/tatianapereira/Dropbox/subject-5208902.csv","legacy","Lentiform Loewenfeld","3.3.7","yes","yes","600bd7cfb6416f0113b04181","602110864497cf011d9c0822","0","f","NA","space","space","space","j","f","591","NA","6405","13378","7376","42321","591","2","legacy","1024","2","48000","-16","task","5208902","even","NA","34827","43234","36829","207179","5781","26549","19169","207681","139928","207176","207681","207116","43234","208273","33013","206616","5732","111487","Lexical Decision Task","62","52646","68","yes","1024"
"3.105055783","0","2","norp","non-word","91.30434782608695","91.30434782608695","770.4782608695652","770.4782608695652","black","no","legacy","legacy","legacy","0","uniform","1","undefined","undefined","undefined","1","f","0","0","0","0","68","0","0","0","68","0","64","68","64","0","64","3","68","0","68","Thu Feb 18 14:25:49 2021","The main experiment item","yes","Lexical_Decision_Task.osexp","/Users/tatianapereira/Dropbox","no","Andale Mono","no","18","no","white","no","yes","576","legacy","64","64","3","/Users/tatianapereira/Dropbox/subject-5208902.csv","legacy","Lentiform Loewenfeld","3.3.7","yes","yes","600bd7cfb6416f0113b04181","602110864497cf011d9c0822","0","f","NA","space","space","space","j","f","517","NA","6405","13378","7376","42321","517","2","legacy","1024","2","48000","-16","task","5208902","even","NA","34827","43234","36829","208839","5781","26549","19169","209342","139928","208836","209342","208777","43234","209860","33013","208277","5732","111487","Lexical Decision Task","63","53163","69","yes","1024"
"2.986323777","10.85","8","ship","word","91.42857142857143","91.42857142857143","769.0571428571428","769.0571428571428","black","no","legacy","legacy","legacy","0","uniform","1","undefined","undefined","undefined","1","j","0","0","0","0","69","0","0","0","69","0","65","69","65","0","65","3","69","0","69","Thu Feb 18 14:25:49 2021","The main experiment item","yes","Lexical_Decision_Task.osexp","/Users/tatianapereira/Dropbox","no","Andale Mono","no","18","no","white","no","yes","576","legacy","65","65","3","/Users/tatianapereira/Dropbox/subject-5208902.csv","legacy","Lentiform Loewenfeld","3.3.7","yes","yes","600bd7cfb6416f0113b04181","602110864497cf011d9c0822","0","j","NA","space","space","space","j","j","671","NA","6405","13378","7376","42321","671","2","legacy","1024","2","48000","-16","task","5208902","even","NA","34827","43234","36829","210427","5781","26549","19169","210930","139928","210425","210930","210364","43234","211602","33013","209864","5732","111487","Lexical Decision Task","64","53834","70","yes","1024"
"3.488597715","0","9","nain","non-word","91.54929577464789","91.54929577464789","771.3239436619718","771.3239436619718","black","no","legacy","legacy","legacy","0","uniform","1","undefined","undefined","undefined","1","f","0","0","0","0","70","0","0","0","70","0","66","70","66","0","66","3","70","0","70","Thu Feb 18 14:25:49 2021","The main experiment item","yes","Lexical_Decision_Task.osexp","/Users/tatianapereira/Dropbox","no","Andale Mono","no","18","no","white","no","yes","576","legacy","66","66","3","/Users/tatianapereira/Dropbox/subject-5208902.csv","legacy","Lentiform Loewenfeld","3.3.7","yes","yes","600bd7cfb6416f0113b04181","602110864497cf011d9c0822","0","f","NA","space","space","space","j","f","930","NA","6405","13378","7376","42321","930","2","legacy","1024","2","48000","-16","task","5208902","even","NA","34827","43234","36829","212168","5781","26549","19169","212670","139928","212165","212670","212106","43234","213601","33013","211606","5732","111487","Lexical Decision Task","65","54764","71","yes","1024"
"3.29439347","8.6","9","wand","word","91.66666666666667","91.66666666666667","768.6805555555555","768.6805555555555","black","no","legacy","legacy","legacy","0","uniform","1","undefined","undefined","undefined","1","j","0","0","0","0","71","0","0","0","71","0","67","71","67","0","67","3","71","0","71","Thu Feb 18 14:25:49 2021","The main experiment item","yes","Lexical_Decision_Task.osexp","/Users/tatianapereira/Dropbox","no","Andale Mono","no","18","no","white","no","yes","576","legacy","67","67","3","/Users/tatianapereira/Dropbox/subject-5208902.csv","legacy","Lentiform Loewenfeld","3.3.7","yes","yes","600bd7cfb6416f0113b04181","602110864497cf011d9c0822","0","j","NA","space","space","space","j","j","581","NA","6405","13378","7376","42321","581","2","legacy","1024","2","48000","-16","task","5208902","even","NA","34827","43234","36829","214167","5781","26549","19169","214670","139928","214164","214670","214105","43234","215252","33013","213605","5732","111487","Lexical Decision Task","66","55345","72","yes","1024"
"3.062080345","0","6","tomp","non-word","91.78082191780823","91.78082191780823","766.9589041095891","766.9589041095891","black","no","legacy","legacy","legacy","0","uniform","1","undefined","undefined","undefined","1","f","0","0","0","0","72","0","0","0","72","0","68","72","68","0","68","3","72","0","72","Thu Feb 18 14:25:49 2021","The main experiment item","yes","Lexical_Decision_Task.osexp","/Users/tatianapereira/Dropbox","no","Andale Mono","no","18","no","white","no","yes","576","legacy","68","68","3","/Users/tatianapereira/Dropbox/subject-5208902.csv","legacy","Lentiform Loewenfeld","3.3.7","yes","yes","600bd7cfb6416f0113b04181","602110864497cf011d9c0822","0","f","NA","space","space","space","j","f","643","NA","6405","13378","7376","42321","643","2","legacy","1024","2","48000","-16","task","5208902","even","NA","34827","43234","36829","215816","5781","26549","19169","216320","139928","215814","216320","215756","43234","216964","33013","215256","5732","111487","Lexical Decision Task","67","55988","73","yes","1024"
"2.980911938","7.15","7","hoop","word","91.89189189189189","91.89189189189189","768.6891891891892","768.6891891891892","black","no","legacy","legacy","legacy","0","uniform","1","undefined","undefined","undefined","1","j","0","0","0","0","73","0","0","0","73","0","69","73","69","0","69","3","73","0","73","Thu Feb 18 14:25:49 2021","The main experiment item","yes","Lexical_Decision_Task.osexp","/Users/tatianapereira/Dropbox","no","Andale Mono","no","18","no","white","no","yes","576","legacy","69","69","3","/Users/tatianapereira/Dropbox/subject-5208902.csv","legacy","Lentiform Loewenfeld","3.3.7","yes","yes","600bd7cfb6416f0113b04181","602110864497cf011d9c0822","0","j","NA","space","space","space","j","j","895","NA","6405","13378","7376","42321","895","2","legacy","1024","2","48000","-16","task","5208902","even","NA","34827","43234","36829","217531","5781","26549","19169","218034","139928","217528","218034","217468","43234","218930","33013","216968","5732","111487","Lexical Decision Task","68","56883","74","yes","1024"
"3.372543801","9.24","8","coat","word","92","92","766.2533333333333","766.2533333333333","black","no","legacy","legacy","legacy","0","uniform","1","undefined","undefined","undefined","1","j","0","0","0","0","74","0","0","0","74","0","70","74","70","0","70","3","74","0","74","Thu Feb 18 14:25:49 2021","The main experiment item","yes","Lexical_Decision_Task.osexp","/Users/tatianapereira/Dropbox","no","Andale Mono","no","18","no","white","no","yes","576","legacy","70","70","3","/Users/tatianapereira/Dropbox/subject-5208902.csv","legacy","Lentiform Loewenfeld","3.3.7","yes","yes","600bd7cfb6416f0113b04181","602110864497cf011d9c0822","0","j","NA","space","space","space","j","j","586","NA","6405","13378","7376","42321","586","2","legacy","1024","2","48000","-16","task","5208902","even","NA","34827","43234","36829","219496","5781","26549","19169","219999","139928","219494","220000","219434","43234","220587","33013","218934","5732","111487","Lexical Decision Task","69","57469","75","yes","1024"
"3.347850856","10.51","2","rich","word","92.10526315789474","92.10526315789474","762.7236842105264","762.7236842105264","black","no","legacy","legacy","legacy","0","uniform","1","undefined","undefined","undefined","1","j","0","0","0","0","75","0","0","0","75","0","71","75","71","0","71","3","75","0","75","Thu Feb 18 14:25:49 2021","The main experiment item","yes","Lexical_Decision_Task.osexp","/Users/tatianapereira/Dropbox","no","Andale Mono","no","18","no","white","no","yes","576","legacy","71","71","3","/Users/tatianapereira/Dropbox/subject-5208902.csv","legacy","Lentiform Loewenfeld","3.3.7","yes","yes","600bd7cfb6416f0113b04181","602110864497cf011d9c0822","0","j","NA","space","space","space","j","j","498","NA","6405","13378","7376","42321","498","2","legacy","1024","2","48000","-16","task","5208902","even","NA","34827","43234","36829","221153","5781","26549","19169","221656","139928","221150","221657","221092","43234","222156","33013","220592","5732","111487","Lexical Decision Task","70","57967","76","yes","1024"
"2.983324025","9.56","2","debt","word","92.20779220779221","92.20779220779221","760.1948051948052","760.1948051948052","black","no","legacy","legacy","legacy","0","uniform","1","undefined","undefined","undefined","1","j","0","0","0","0","76","0","0","0","76","0","72","76","72","0","72","3","76","0","76","Thu Feb 18 14:25:49 2021","The main experiment item","yes","Lexical_Decision_Task.osexp","/Users/tatianapereira/Dropbox","no","Andale Mono","no","18","no","white","no","yes","576","legacy","72","72","3","/Users/tatianapereira/Dropbox/subject-5208902.csv","legacy","Lentiform Loewenfeld","3.3.7","yes","yes","600bd7cfb6416f0113b04181","602110864497cf011d9c0822","0","j","NA","space","space","space","j","j","568","NA","6405","13378","7376","42321","568","2","legacy","1024","2","48000","-16","task","5208902","even","NA","34827","43234","36829","222722","5781","26549","19169","223224","139928","222719","223224","222660","43234","223793","33013","222160","5732","111487","Lexical Decision Task","71","58535","77","yes","1024"
"2.839898939","8.99","6","soap","word","92.3076923076923","92.3076923076923","757.1538461538462","757.1538461538462","black","no","legacy","legacy","legacy","0","uniform","1","undefined","undefined","undefined","1","j","0","0","0","0","77","0","0","0","77","0","73","77","73","0","73","3","77","0","77","Thu Feb 18 14:25:49 2021","The main experiment item","yes","Lexical_Decision_Task.osexp","/Users/tatianapereira/Dropbox","no","Andale Mono","no","18","no","white","no","yes","576","legacy","73","73","3","/Users/tatianapereira/Dropbox/subject-5208902.csv","legacy","Lentiform Loewenfeld","3.3.7","yes","yes","600bd7cfb6416f0113b04181","602110864497cf011d9c0822","0","j","NA","space","space","space","j","j","523","NA","6405","13378","7376","42321","523","2","legacy","1024","2","48000","-16","task","5208902","even","NA","34827","43234","36829","224358","5781","26549","19169","224861","139928","224355","224861","224296","43234","225385","33013","223796","5732","111487","Lexical Decision Task","72","59058","78","yes","1024"
"3.259832699","0","9","flar","non-word","92.40506329113924","92.40506329113924","755.4810126582279","755.4810126582279","black","no","legacy","legacy","legacy","0","uniform","1","undefined","undefined","undefined","1","f","0","0","0","0","78","0","0","0","78","0","74","78","74","0","74","3","78","0","78","Thu Feb 18 14:25:49 2021","The main experiment item","yes","Lexical_Decision_Task.osexp","/Users/tatianapereira/Dropbox","no","Andale Mono","no","18","no","white","no","yes","576","legacy","74","74","3","/Users/tatianapereira/Dropbox/subject-5208902.csv","legacy","Lentiform Loewenfeld","3.3.7","yes","yes","600bd7cfb6416f0113b04181","602110864497cf011d9c0822","0","f","NA","space","space","space","j","f","625","NA","6405","13378","7376","42321","625","2","legacy","1024","2","48000","-16","task","5208902","even","NA","34827","43234","36829","225952","5781","26549","19169","226456","139928","225950","226456","225889","43234","227082","33013","225389","5732","111487","Lexical Decision Task","73","59683","79","yes","1024"
"3.120025233","0","2","nyst","non-word","92.5","92.5","754.025","754.025","black","no","legacy","legacy","legacy","0","uniform","1","undefined","undefined","undefined","1","f","0","0","0","0","79","0","0","0","79","0","75","79","75","0","75","3","79","0","79","Thu Feb 18 14:25:49 2021","The main experiment item","yes","Lexical_Decision_Task.osexp","/Users/tatianapereira/Dropbox","no","Andale Mono","no","18","no","white","no","yes","576","legacy","75","75","3","/Users/tatianapereira/Dropbox/subject-5208902.csv","legacy","Lentiform Loewenfeld","3.3.7","yes","yes","600bd7cfb6416f0113b04181","602110864497cf011d9c0822","0","f","NA","space","space","space","j","f","639","NA","6405","13378","7376","42321","639","2","legacy","1024","2","48000","-16","task","5208902","even","NA","34827","43234","36829","227649","5781","26549","19169","228151","139928","227646","228152","227586","43234","228792","33013","227086","5732","111487","Lexical Decision Task","74","60322","80","yes","1024"
"3.090140555","5.81","8","pout","word","91.35802469135803","91.35802469135803","752.9135802469136","752.9135802469136","black","no","legacy","legacy","legacy","0","uniform","0","undefined","undefined","undefined","0","j","0","0","0","0","80","0","0","0","80","0","76","80","76","0","76","3","80","0","80","Thu Feb 18 14:25:49 2021","The main experiment item","yes","Lexical_Decision_Task.osexp","/Users/tatianapereira/Dropbox","no","Andale Mono","no","18","no","white","no","yes","576","legacy","76","76","3","/Users/tatianapereira/Dropbox/subject-5208902.csv","legacy","Lentiform Loewenfeld","3.3.7","yes","yes","600bd7cfb6416f0113b04181","602110864497cf011d9c0822","0","f","NA","space","space","space","j","f","664","NA","6405","13378","7376","42321","664","2","legacy","1024","2","48000","-16","task","5208902","even","NA","34827","43234","36829","229359","5781","26549","19169","229861","139928","229356","229862","229296","43234","230527","33013","228796","5732","111487","Lexical Decision Task","74","60986","81","yes","1024"
"3.197740804","6.74","3","ache","word","91.46341463414635","91.46341463414635","750.1341463414634","750.1341463414634","black","no","legacy","legacy","legacy","0","uniform","1","undefined","undefined","undefined","1","j","0","0","0","0","81","0","0","0","81","0","77","81","77","0","77","3","81","0","81","Thu Feb 18 14:25:49 2021","The main experiment item","yes","Lexical_Decision_Task.osexp","/Users/tatianapereira/Dropbox","no","Andale Mono","no","18","no","white","no","yes","576","legacy","77","77","3","/Users/tatianapereira/Dropbox/subject-5208902.csv","legacy","Lentiform Loewenfeld","3.3.7","yes","yes","600bd7cfb6416f0113b04181","602110864497cf011d9c0822","0","j","NA","space","space","space","j","j","525","NA","6405","13378","7376","42321","525","2","legacy","1024","2","48000","-16","task","5208902","even","NA","34827","43234","36829","232095","5781","26549","19169","232598","139928","232091","232598","232030","43234","233124","33013","228796","5732","230530","Lexical Decision Task","75","61511","82","yes","1024"
"2.966923697","5.4","2","fume","word","90.36144578313252","90.36144578313252","749.1927710843373","749.1927710843373","black","no","legacy","legacy","legacy","0","uniform","0","undefined","undefined","undefined","0","j","0","0","0","0","82","0","0","0","82","0","78","82","78","0","78","3","82","0","82","Thu Feb 18 14:25:49 2021","The main experiment item","yes","Lexical_Decision_Task.osexp","/Users/tatianapereira/Dropbox","no","Andale Mono","no","18","no","white","no","yes","576","legacy","78","78","3","/Users/tatianapereira/Dropbox/subject-5208902.csv","legacy","Lentiform Loewenfeld","3.3.7","yes","yes","600bd7cfb6416f0113b04181","602110864497cf011d9c0822","0","f","NA","space","space","space","j","f","672","NA","6405","13378","7376","42321","672","2","legacy","1024","2","48000","-16","task","5208902","even","NA","34827","43234","36829","233690","5781","26549","19169","234192","139928","233687","234193","233628","43234","234866","33013","233128","5732","230530","Lexical Decision Task","75","62183","83","yes","1024"
"3.248054965","7.86","5","glow","word","90.47619047619048","90.47619047619048","747.9047619047619","747.9047619047619","black","no","legacy","legacy","legacy","0","uniform","1","undefined","undefined","undefined","1","j","0","0","0","0","83","0","0","0","83","0","79","83","79","0","79","3","83","0","83","Thu Feb 18 14:25:49 2021","The main experiment item","yes","Lexical_Decision_Task.osexp","/Users/tatianapereira/Dropbox","no","Andale Mono","no","18","no","white","no","yes","576","legacy","79","79","3","/Users/tatianapereira/Dropbox/subject-5208902.csv","legacy","Lentiform Loewenfeld","3.3.7","yes","yes","600bd7cfb6416f0113b04181","602110864497cf011d9c0822","0","j","NA","space","space","space","j","j","641","NA","6405","13378","7376","42321","641","2","legacy","1024","2","48000","-16","task","5208902","even","NA","34827","43234","36829","236436","5781","26549","19169","236938","139928","236433","236938","236370","43234","237580","33013","233128","5732","234870","Lexical Decision Task","76","62824","84","yes","1024"
"3.043885998","0","9","gome","non-word","90.58823529411765","90.58823529411765","747.6705882352941","747.6705882352941","black","no","legacy","legacy","legacy","0","uniform","1","undefined","undefined","undefined","1","f","0","0","0","0","84","0","0","0","84","0","80","84","80","0","80","3","84","0","84","Thu Feb 18 14:25:49 2021","The main experiment item","yes","Lexical_Decision_Task.osexp","/Users/tatianapereira/Dropbox","no","Andale Mono","no","18","no","white","no","yes","576","legacy","80","80","3","/Users/tatianapereira/Dropbox/subject-5208902.csv","legacy","Lentiform Loewenfeld","3.3.7","yes","yes","600bd7cfb6416f0113b04181","602110864497cf011d9c0822","0","f","NA","space","space","space","j","f","728","NA","6405","13378","7376","42321","728","2","legacy","1024","2","48000","-16","task","5208902","even","NA","34827","43234","36829","238145","5781","26549","19169","238648","139928","238142","238648","238083","43234","239377","33013","237583","5732","234870","Lexical Decision Task","77","63552","85","yes","1024"
"2.86332286","6.71","2","feud","word","90.69767441860465","90.69767441860465","746.7906976744187","746.7906976744187","black","no","legacy","legacy","legacy","0","uniform","1","undefined","undefined","undefined","1","j","0","0","0","0","85","0","0","0","85","0","81","85","81","0","81","3","85","0","85","Thu Feb 18 14:25:49 2021","The main experiment item","yes","Lexical_Decision_Task.osexp","/Users/tatianapereira/Dropbox","no","Andale Mono","no","18","no","white","no","yes","576","legacy","81","81","3","/Users/tatianapereira/Dropbox/subject-5208902.csv","legacy","Lentiform Loewenfeld","3.3.7","yes","yes","600bd7cfb6416f0113b04181","602110864497cf011d9c0822","0","j","NA","space","space","space","j","j","672","NA","6405","13378","7376","42321","672","2","legacy","1024","2","48000","-16","task","5208902","even","NA","34827","43234","36829","239944","5781","26549","19169","240446","139928","239941","240447","239881","43234","241120","33013","239381","5732","234870","Lexical Decision Task","78","64224","86","yes","1024"
"2.9737419","7.69","7","claw","word","90.80459770114942","90.80459770114942","748.9310344827586","748.9310344827586","black","no","legacy","legacy","legacy","0","uniform","1","undefined","undefined","undefined","1","j","0","0","0","0","86","0","0","0","86","0","82","86","82","0","82","3","86","0","86","Thu Feb 18 14:25:49 2021","The main experiment item","yes","Lexical_Decision_Task.osexp","/Users/tatianapereira/Dropbox","no","Andale Mono","no","18","no","white","no","yes","576","legacy","82","82","3","/Users/tatianapereira/Dropbox/subject-5208902.csv","legacy","Lentiform Loewenfeld","3.3.7","yes","yes","600bd7cfb6416f0113b04181","602110864497cf011d9c0822","0","j","NA","space","space","space","j","j","933","NA","6405","13378","7376","42321","933","2","legacy","1024","2","48000","-16","task","5208902","even","NA","34827","43234","36829","241685","5781","26549","19169","242189","139928","241683","242189","241624","43234","243123","33013","241124","5732","234870","Lexical Decision Task","79","65157","87","yes","1024"
"2.616654026","9.37","5","gift","word","90.9090909090909","90.9090909090909","748.0454545454545","748.0454545454545","black","no","legacy","legacy","legacy","0","uniform","1","undefined","undefined","undefined","1","j","0","0","0","0","87","0","0","0","87","0","83","87","83","0","83","3","87","0","87","Thu Feb 18 14:25:49 2021","The main experiment item","yes","Lexical_Decision_Task.osexp","/Users/tatianapereira/Dropbox","no","Andale Mono","no","18","no","white","no","yes","576","legacy","83","83","3","/Users/tatianapereira/Dropbox/subject-5208902.csv","legacy","Lentiform Loewenfeld","3.3.7","yes","yes","600bd7cfb6416f0113b04181","602110864497cf011d9c0822","0","j","NA","space","space","space","j","j","671","NA","6405","13378","7376","42321","671","2","legacy","1024","2","48000","-16","task","5208902","even","NA","34827","43234","36829","243688","5781","26549","19169","244192","139928","243686","244192","243627","43234","244864","33013","243127","5732","234870","Lexical Decision Task","80","65828","88","yes","1024"
"3.037294994","8.64","7","roof","word","91.01123595505618","91.01123595505618","745.314606741573","745.314606741573","black","no","legacy","legacy","legacy","0","uniform","1","undefined","undefined","undefined","1","j","0","0","0","0","88","0","0","0","88","0","84","88","84","0","84","3","88","0","88","Thu Feb 18 14:25:49 2021","The main experiment item","yes","Lexical_Decision_Task.osexp","/Users/tatianapereira/Dropbox","no","Andale Mono","no","18","no","white","no","yes","576","legacy","84","84","3","/Users/tatianapereira/Dropbox/subject-5208902.csv","legacy","Lentiform Loewenfeld","3.3.7","yes","yes","600bd7cfb6416f0113b04181","602110864497cf011d9c0822","0","j","NA","space","space","space","j","j","505","NA","6405","13378","7376","42321","505","2","legacy","1024","2","48000","-16","task","5208902","even","NA","34827","43234","36829","245426","5781","26549","19169","245929","139928","245424","245929","245367","43234","246436","33013","244867","5732","234870","Lexical Decision Task","81","66333","89","yes","1024"
"3.16326079","0","5","parg","non-word","91.11111111111111","91.11111111111111","751.2666666666667","751.2666666666667","black","no","legacy","legacy","legacy","0","uniform","1","undefined","undefined","undefined","1","f","0","0","0","0","89","0","0","0","89","0","85","89","85","0","85","3","89","0","89","Thu Feb 18 14:25:49 2021","The main experiment item","yes","Lexical_Decision_Task.osexp","/Users/tatianapereira/Dropbox","no","Andale Mono","no","18","no","white","no","yes","576","legacy","85","85","3","/Users/tatianapereira/Dropbox/subject-5208902.csv","legacy","Lentiform Loewenfeld","3.3.7","yes","yes","600bd7cfb6416f0113b04181","602110864497cf011d9c0822","0","f","NA","space","space","space","j","f","1281","NA","6405","13378","7376","42321","1281","2","legacy","1024","2","48000","-16","task","5208902","even","NA","34827","43234","36829","247002","5781","26549","19169","247504","139928","246999","247504","246939","43234","248786","33013","246439","5732","234870","Lexical Decision Task","82","67614","90","yes","1024"
"3.132473155","0","4","glim","non-word","90.10989010989012","90.10989010989012","759.2087912087912","759.2087912087912","black","no","legacy","legacy","legacy","0","uniform","0","undefined","undefined","undefined","0","f","0","0","0","0","90","0","0","0","90","0","86","90","86","0","86","3","90","0","90","Thu Feb 18 14:25:49 2021","The main experiment item","yes","Lexical_Decision_Task.osexp","/Users/tatianapereira/Dropbox","no","Andale Mono","no","18","no","white","no","yes","576","legacy","86","86","3","/Users/tatianapereira/Dropbox/subject-5208902.csv","legacy","Lentiform Loewenfeld","3.3.7","yes","yes","600bd7cfb6416f0113b04181","602110864497cf011d9c0822","0","j","NA","space","space","space","j","j","1474","NA","6405","13378","7376","42321","1474","2","legacy","1024","2","48000","-16","task","5208902","even","NA","34827","43234","36829","249350","5781","26549","19169","249853","139928","249348","249854","249290","43234","251330","33013","248790","5732","234870","Lexical Decision Task","82","69088","91","yes","1024"
"2.664328519","0","4","plux","non-word","90.21739130434783","90.21739130434783","766.4239130434783","766.4239130434783","black","no","legacy","legacy","legacy","0","uniform","1","undefined","undefined","undefined","1","f","0","0","0","0","91","0","0","0","91","0","87","91","87","0","87","3","91","0","91","Thu Feb 18 14:25:49 2021","The main experiment item","yes","Lexical_Decision_Task.osexp","/Users/tatianapereira/Dropbox","no","Andale Mono","no","18","no","white","no","yes","576","legacy","87","87","3","/Users/tatianapereira/Dropbox/subject-5208902.csv","legacy","Lentiform Loewenfeld","3.3.7","yes","yes","600bd7cfb6416f0113b04181","602110864497cf011d9c0822","0","f","NA","space","space","space","j","f","1423","NA","6405","13378","7376","42321","1423","2","legacy","1024","2","48000","-16","task","5208902","even","NA","34827","43234","36829","252897","5781","26549","19169","253400","139928","252894","253400","252834","43234","254824","33013","248790","5732","251334","Lexical Decision Task","83","70511","92","yes","1024"
"2.899092422","7.27","6","snag","word","90.3225806451613","90.3225806451613","765.5268817204301","765.5268817204301","black","no","legacy","legacy","legacy","0","uniform","1","undefined","undefined","undefined","1","j","0","0","0","0","92","0","0","0","92","0","88","92","88","0","88","3","92","0","92","Thu Feb 18 14:25:49 2021","The main experiment item","yes","Lexical_Decision_Task.osexp","/Users/tatianapereira/Dropbox","no","Andale Mono","no","18","no","white","no","yes","576","legacy","88","88","3","/Users/tatianapereira/Dropbox/subject-5208902.csv","legacy","Lentiform Loewenfeld","3.3.7","yes","yes","600bd7cfb6416f0113b04181","602110864497cf011d9c0822","0","j","NA","space","space","space","j","j","683","NA","6405","13378","7376","42321","683","2","legacy","1024","2","48000","-16","task","5208902","even","NA","34827","43234","36829","255390","5781","26549","19169","255893","139928","255387","255893","255328","43234","256577","33013","254828","5732","251334","Lexical Decision Task","84","71194","93","yes","1024"
"2.937852093","0","7","bamp","non-word","90.42553191489361","90.42553191489361","773.5744680851063","773.5744680851063","black","no","legacy","legacy","legacy","0","uniform","1","undefined","undefined","undefined","1","f","0","0","0","0","93","0","0","0","93","0","89","93","89","0","89","3","93","0","93","Thu Feb 18 14:25:49 2021","The main experiment item","yes","Lexical_Decision_Task.osexp","/Users/tatianapereira/Dropbox","no","Andale Mono","no","18","no","white","no","yes","576","legacy","89","89","3","/Users/tatianapereira/Dropbox/subject-5208902.csv","legacy","Lentiform Loewenfeld","3.3.7","yes","yes","600bd7cfb6416f0113b04181","602110864497cf011d9c0822","0","f","NA","space","space","space","j","f","1522","NA","6405","13378","7376","42321","1522","2","legacy","1024","2","48000","-16","task","5208902","even","NA","34827","43234","36829","257144","5781","26549","19169","257647","139928","257141","257647","257081","43234","259170","33013","256581","5732","251334","Lexical Decision Task","85","72716","94","yes","1024"
"2.875447132","0","9","jelt","non-word","90.52631578947368","90.52631578947368","778.021052631579","778.021052631579","black","no","legacy","legacy","legacy","0","uniform","1","undefined","undefined","undefined","1","f","0","0","0","0","94","0","0","0","94","0","90","94","90","0","90","3","94","0","94","Thu Feb 18 14:25:49 2021","The main experiment item","yes","Lexical_Decision_Task.osexp","/Users/tatianapereira/Dropbox","no","Andale Mono","no","18","no","white","no","yes","576","legacy","90","90","3","/Users/tatianapereira/Dropbox/subject-5208902.csv","legacy","Lentiform Loewenfeld","3.3.7","yes","yes","600bd7cfb6416f0113b04181","602110864497cf011d9c0822","0","f","NA","space","space","space","j","f","1196","NA","6405","13378","7376","42321","1196","2","legacy","1024","2","48000","-16","task","5208902","even","NA","34827","43234","36829","259737","5781","26549","19169","260240","139928","259734","260240","259674","43234","261437","33013","259174","5732","251334","Lexical Decision Task","86","73912","95","yes","1024"
"2.842815106","7.86","8","lump","word","90.625","90.625","776.84375","776.84375","black","no","legacy","legacy","legacy","0","uniform","1","undefined","undefined","undefined","1","j","0","0","0","0","95","0","0","0","95","0","91","95","91","0","91","3","95","0","95","Thu Feb 18 14:25:49 2021","The main experiment item","yes","Lexical_Decision_Task.osexp","/Users/tatianapereira/Dropbox","no","Andale Mono","no","18","no","white","no","yes","576","legacy","91","91","3","/Users/tatianapereira/Dropbox/subject-5208902.csv","legacy","Lentiform Loewenfeld","3.3.7","yes","yes","600bd7cfb6416f0113b04181","602110864497cf011d9c0822","0","j","NA","space","space","space","j","j","665","NA","6405","13378","7376","42321","665","2","legacy","1024","2","48000","-16","task","5208902","even","NA","34827","43234","36829","262003","5781","26549","19169","262505","139928","262000","262505","261941","43234","263172","33013","261441","5732","251334","Lexical Decision Task","87","74577","96","yes","1024"
"3.077974404","10.41","8","tool","word","90.72164948453609","90.72164948453609","774.7422680412371","774.7422680412371","black","no","legacy","legacy","legacy","0","uniform","1","undefined","undefined","undefined","1","j","0","0","0","0","96","0","0","0","96","0","92","96","92","0","92","3","96","0","96","Thu Feb 18 14:25:49 2021","The main experiment item","yes","Lexical_Decision_Task.osexp","/Users/tatianapereira/Dropbox","no","Andale Mono","no","18","no","white","no","yes","576","legacy","92","92","3","/Users/tatianapereira/Dropbox/subject-5208902.csv","legacy","Lentiform Loewenfeld","3.3.7","yes","yes","600bd7cfb6416f0113b04181","602110864497cf011d9c0822","0","j","NA","space","space","space","j","j","573","NA","6405","13378","7376","42321","573","2","legacy","1024","2","48000","-16","task","5208902","even","NA","34827","43234","36829","263739","5781","26549","19169","264241","139928","263736","264242","263676","43234","264816","33013","263176","5732","251334","Lexical Decision Task","88","75150","97","yes","1024"
"2.893578687","8.69","3","surf","word","90.81632653061224","90.81632653061224","775.704081632653","775.704081632653","black","no","legacy","legacy","legacy","0","uniform","1","undefined","undefined","undefined","1","j","0","0","0","0","97","0","0","0","97","0","93","97","93","0","93","3","97","0","97","Thu Feb 18 14:25:49 2021","The main experiment item","yes","Lexical_Decision_Task.osexp","/Users/tatianapereira/Dropbox","no","Andale Mono","no","18","no","white","no","yes","576","legacy","93","93","3","/Users/tatianapereira/Dropbox/subject-5208902.csv","legacy","Lentiform Loewenfeld","3.3.7","yes","yes","600bd7cfb6416f0113b04181","602110864497cf011d9c0822","0","j","NA","space","space","space","j","j","869","NA","6405","13378","7376","42321","869","2","legacy","1024","2","48000","-16","task","5208902","even","NA","34827","43234","36829","265383","5781","26549","19169","265886","139928","265380","265886","265320","43234","266756","33013","264820","5732","251334","Lexical Decision Task","89","76019","98","yes","1024"
"3.066077331","0","7","vorn","non-word","90.9090909090909","90.9090909090909","776.5252525252525","776.5252525252525","black","no","legacy","legacy","legacy","0","uniform","1","undefined","undefined","undefined","1","f","0","0","0","0","98","0","0","0","98","0","94","98","94","0","94","3","98","0","98","Thu Feb 18 14:25:49 2021","The main experiment item","yes","Lexical_Decision_Task.osexp","/Users/tatianapereira/Dropbox","no","Andale Mono","no","18","no","white","no","yes","576","legacy","94","94","3","/Users/tatianapereira/Dropbox/subject-5208902.csv","legacy","Lentiform Loewenfeld","3.3.7","yes","yes","600bd7cfb6416f0113b04181","602110864497cf011d9c0822","0","f","NA","space","space","space","j","f","857","NA","6405","13378","7376","42321","857","2","legacy","1024","2","48000","-16","task","5208902","even","NA","34827","43234","36829","267322","5781","26549","19169","267824","139928","267319","267825","267260","43234","268683","33013","266760","5732","251334","Lexical Decision Task","90","76876","99","yes","1024"
"2.695481676","0","7","goke","non-word","91","91","779.11","779.11","black","no","legacy","legacy","legacy","0","uniform","1","undefined","undefined","undefined","1","f","0","0","0","0","99","0","0","0","99","0","95","99","95","0","95","3","99","0","99","Thu Feb 18 14:25:49 2021","The main experiment item","yes","Lexical_Decision_Task.osexp","/Users/tatianapereira/Dropbox","no","Andale Mono","no","18","no","white","no","yes","576","legacy","95","95","3","/Users/tatianapereira/Dropbox/subject-5208902.csv","legacy","Lentiform Loewenfeld","3.3.7","yes","yes","600bd7cfb6416f0113b04181","602110864497cf011d9c0822","0","f","NA","space","space","space","j","f","1035","NA","6405","13378","7376","42321","1035","2","legacy","1024","2","48000","-16","task","5208902","even","NA","34827","43234","36829","269249","5781","26549","19169","269752","139928","269246","269753","269187","43234","270789","33013","268687","5732","251334","Lexical Decision Task","91","77911","100","yes","1024"
