"Log_BG","Log_Freq_HAL","Ortho_N","Stimulus","Type","acc","accuracy","average_response_time","avg_rt","background","bidi","canvas_backend","clock_backend","color_backend","compensation","coordinates","correct","correct_Experimental_intro","correct_Introduction","correct_Practice_intro","correct_experimenter_kb","correct_response","count_End_Of_Experiment","count_End_Of_Practice","count_Experimental_Loop","count_Experimental_intro","count_Fixation","count_Introduction","count_Practice_Loop","count_Practice_intro","count_Stimulus","count_block_break_feedback","count_experimental_sequence","count_experimenter_kb","count_increment_trial_count","count_init_trial_count","count_logger","count_practice_sequence","count_right","count_task","count_wrong","datetime","description","disable_garbage_collection","experiment_file","experiment_path","font_bold","font_family","font_italic","font_size","font_underline","foreground","form_clicks","fullscreen","height","keyboard_backend","live_row","live_row_Experimental_Loop","live_row_Practice_Loop","logfile","mouse_backend","opensesame_codename","opensesame_version","osf_always_upload_data","osf_always_upload_experiment","osf_datanode_id","osf_id","repeat_cycle","response","response_End_Of_Experiment","response_Experimental_intro","response_Introduction","response_Practice_intro","response_block_break_feedback","response_experimenter_kb","response_time","response_time_End_Of_Experiment","response_time_Experimental_intro","response_time_Introduction","response_time_Practice_intro","response_time_block_break_feedback","response_time_experimenter_kb","round_decimals","sampler_backend","sound_buf_size","sound_channels","sound_freq","sound_sample_size","start","subject_nr","subject_parity","time_End_Of_Experiment","time_End_Of_Practice","time_Experimental_Loop","time_Experimental_intro","time_Fixation","time_Introduction","time_Practice_Loop","time_Practice_intro","time_Stimulus","time_block_break_feedback","time_experimental_sequence","time_experimenter_kb","time_increment_trial_count","time_init_trial_count","time_logger","time_practice_sequence","time_right","time_task","time_wrong","title","total_correct","total_response_time","total_responses","uniform_coordinates","width"
"3.384413096","10.15","3","glad","word","100","100","1116","1116","black","no","legacy","legacy","legacy","0","uniform","1","undefined","undefined","undefined","1","j","0","0","0","0","4","0","0","0","4","NA","0","4","0","0","0","3","4","0","4","Wed Feb 24 16:39:53 2021","The main experiment item","yes","Lexical_Decision_Task.osexp","/Users/lucieiredale/Desktop","no","Andale Mono","no","18","no","white","no","yes","576","legacy","0","0","3","/Users/lucieiredale/Desktop/subject-5212092.csv","legacy","Lentiform Loewenfeld","3.3.7","yes","yes","600bd7cfb6416f0113b04181","602110864497cf011d9c0822","0","j","NA","space","space","space","NA","j","938","NA","20327","9032","3593","NA","938","2","legacy","1024","2","48000","-16","task","5212092","even","NA","26197","48530","28202","48554","4600","17241","13645","49058","NA","48552","49058","NA","48530","49996","24286","25665","4591","NA","Lexical Decision Task","5","5580","5","yes","1024"
"3.132473155","0","4","glim","non-word","83.33333333333333","83.33333333333333","1070.1666666666667","1070.1666666666667","black","no","legacy","legacy","legacy","0","uniform","0","undefined","undefined","undefined","0","f","0","0","0","0","5","0","0","0","5","NA","1","5","1","0","1","3","5","0","5","Wed Feb 24 16:39:53 2021","The main experiment item","yes","Lexical_Decision_Task.osexp","/Users/lucieiredale/Desktop","no","Andale Mono","no","18","no","white","no","yes","576","legacy","1","1","3","/Users/lucieiredale/Desktop/subject-5212092.csv","legacy","Lentiform Loewenfeld","3.3.7","yes","yes","600bd7cfb6416f0113b04181","602110864497cf011d9c0822","0","j","NA","space","space","space","NA","j","841","NA","20327","9032","3593","NA","841","2","legacy","1024","2","48000","-16","task","5212092","even","NA","26197","48530","28202","50568","4600","17241","13645","51072","NA","50565","51072","50502","48530","51913","24286","50002","4591","NA","Lexical Decision Task","5","6421","6","yes","1024"
"2.971428938","9.86","7","spot","word","85.71428571428571","85.71428571428571","997.1428571428571","997.1428571428571","black","no","legacy","legacy","legacy","0","uniform","1","undefined","undefined","undefined","1","j","0","0","0","0","6","0","0","0","6","NA","2","6","2","0","2","3","6","0","6","Wed Feb 24 16:39:53 2021","The main experiment item","yes","Lexical_Decision_Task.osexp","/Users/lucieiredale/Desktop","no","Andale Mono","no","18","no","white","no","yes","576","legacy","2","2","3","/Users/lucieiredale/Desktop/subject-5212092.csv","legacy","Lentiform Loewenfeld","3.3.7","yes","yes","600bd7cfb6416f0113b04181","602110864497cf011d9c0822","0","j","NA","space","space","space","NA","j","559","NA","20327","9032","3593","NA","559","2","legacy","1024","2","48000","-16","task","5212092","even","NA","26197","48530","28202","53484","4600","17241","13645","53987","NA","53481","53988","53417","48530","54547","24286","50002","4591","51917","Lexical Decision Task","6","6980","7","yes","1024"
"2.695481676","0","7","goke","non-word","87.5","87.5","944.75","944.75","black","no","legacy","legacy","legacy","0","uniform","1","undefined","undefined","undefined","1","f","0","0","0","0","7","0","0","0","7","NA","3","7","3","0","3","3","7","0","7","Wed Feb 24 16:39:53 2021","The main experiment item","yes","Lexical_Decision_Task.osexp","/Users/lucieiredale/Desktop","no","Andale Mono","no","18","no","white","no","yes","576","legacy","3","3","3","/Users/lucieiredale/Desktop/subject-5212092.csv","legacy","Lentiform Loewenfeld","3.3.7","yes","yes","600bd7cfb6416f0113b04181","602110864497cf011d9c0822","0","f","NA","space","space","space","NA","f","578","NA","20327","9032","3593","NA","578","2","legacy","1024","2","48000","-16","task","5212092","even","NA","26197","48530","28202","55114","4600","17241","13645","55617","NA","55112","55618","55051","48530","56196","24286","54551","4591","51917","Lexical Decision Task","7","7558","8","yes","1024"
"3.366547468","0","6","plat","non-word","77.77777777777777","77.77777777777777","940.4444444444445","940.4444444444445","black","no","legacy","legacy","legacy","0","uniform","0","undefined","undefined","undefined","0","f","0","0","0","0","8","0","0","0","8","NA","4","8","4","0","4","3","8","0","8","Wed Feb 24 16:39:53 2021","The main experiment item","yes","Lexical_Decision_Task.osexp","/Users/lucieiredale/Desktop","no","Andale Mono","no","18","no","white","no","yes","576","legacy","4","4","3","/Users/lucieiredale/Desktop/subject-5212092.csv","legacy","Lentiform Loewenfeld","3.3.7","yes","yes","600bd7cfb6416f0113b04181","602110864497cf011d9c0822","0","j","NA","space","space","space","NA","j","906","NA","20327","9032","3593","NA","906","2","legacy","1024","2","48000","-16","task","5212092","even","NA","26197","48530","28202","56763","4600","17241","13645","57266","NA","56760","57267","56700","48530","58174","24286","56200","4591","51917","Lexical Decision Task","7","8464","9","yes","1024"
"3.261341392","5.08","8","reek","word","80","80","949.9","949.9","black","no","legacy","legacy","legacy","0","uniform","1","undefined","undefined","undefined","1","j","0","0","0","0","9","0","0","0","9","NA","5","9","5","0","5","3","9","0","9","Wed Feb 24 16:39:53 2021","The main experiment item","yes","Lexical_Decision_Task.osexp","/Users/lucieiredale/Desktop","no","Andale Mono","no","18","no","white","no","yes","576","legacy","5","5","3","/Users/lucieiredale/Desktop/subject-5212092.csv","legacy","Lentiform Loewenfeld","3.3.7","yes","yes","600bd7cfb6416f0113b04181","602110864497cf011d9c0822","0","j","NA","space","space","space","NA","j","1035","NA","20327","9032","3593","NA","1035","2","legacy","1024","2","48000","-16","task","5212092","even","NA","26197","48530","28202","59745","4600","17241","13645","60251","NA","59742","60251","59677","48530","61286","24286","56200","4591","58176","Lexical Decision Task","8","9499","10","yes","1024"
"3.140404328","10.66","9","deep","word","81.81818181818181","81.81818181818181","929.4545454545455","929.4545454545455","black","no","legacy","legacy","legacy","0","uniform","1","undefined","undefined","undefined","1","j","0","0","0","0","10","0","0","0","10","NA","6","10","6","0","6","3","10","0","10","Wed Feb 24 16:39:53 2021","The main experiment item","yes","Lexical_Decision_Task.osexp","/Users/lucieiredale/Desktop","no","Andale Mono","no","18","no","white","no","yes","576","legacy","6","6","3","/Users/lucieiredale/Desktop/subject-5212092.csv","legacy","Lentiform Loewenfeld","3.3.7","yes","yes","600bd7cfb6416f0113b04181","602110864497cf011d9c0822","0","j","NA","space","space","space","NA","j","725","NA","20327","9032","3593","NA","725","2","legacy","1024","2","48000","-16","task","5212092","even","NA","26197","48530","28202","61853","4600","17241","13645","62358","NA","61850","62359","61790","48530","63085","24286","61289","4591","58176","Lexical Decision Task","9","10224","11","yes","1024"
"3.031812271","6.52","3","gulp","word","83.33333333333333","83.33333333333333","935.8333333333334","935.8333333333334","black","no","legacy","legacy","legacy","0","uniform","1","undefined","undefined","undefined","1","j","0","0","0","0","11","0","0","0","11","NA","7","11","7","0","7","3","11","0","11","Wed Feb 24 16:39:53 2021","The main experiment item","yes","Lexical_Decision_Task.osexp","/Users/lucieiredale/Desktop","no","Andale Mono","no","18","no","white","no","yes","576","legacy","7","7","3","/Users/lucieiredale/Desktop/subject-5212092.csv","legacy","Lentiform Loewenfeld","3.3.7","yes","yes","600bd7cfb6416f0113b04181","602110864497cf011d9c0822","0","j","NA","space","space","space","NA","j","1006","NA","20327","9032","3593","NA","1006","2","legacy","1024","2","48000","-16","task","5212092","even","NA","26197","48530","28202","63652","4600","17241","13645","64155","NA","63650","64156","63588","48530","65162","24286","63088","4591","58176","Lexical Decision Task","10","11230","12","yes","1024"
"3.100255637","0","6","brax","non-word","84.61538461538461","84.61538461538461","921.8461538461538","921.8461538461538","black","no","legacy","legacy","legacy","0","uniform","1","undefined","undefined","undefined","1","f","0","0","0","0","12","0","0","0","12","NA","8","12","8","0","8","3","12","0","12","Wed Feb 24 16:39:53 2021","The main experiment item","yes","Lexical_Decision_Task.osexp","/Users/lucieiredale/Desktop","no","Andale Mono","no","18","no","white","no","yes","576","legacy","8","8","3","/Users/lucieiredale/Desktop/subject-5212092.csv","legacy","Lentiform Loewenfeld","3.3.7","yes","yes","600bd7cfb6416f0113b04181","602110864497cf011d9c0822","0","f","NA","space","space","space","NA","f","754","NA","20327","9032","3593","NA","754","2","legacy","1024","2","48000","-16","task","5212092","even","NA","26197","48530","28202","65735","4600","17241","13645","66241","NA","65732","66242","65665","48530","66997","24286","65165","4591","58176","Lexical Decision Task","11","11984","13","yes","1024"
"3.121778632","0","9","sark","non-word","85.71428571428571","85.71428571428571","913.5714285714286","913.5714285714286","black","no","legacy","legacy","legacy","0","uniform","1","undefined","undefined","undefined","1","f","0","0","0","0","13","0","0","0","13","NA","9","13","9","0","9","3","13","0","13","Wed Feb 24 16:39:53 2021","The main experiment item","yes","Lexical_Decision_Task.osexp","/Users/lucieiredale/Desktop","no","Andale Mono","no","18","no","white","no","yes","576","legacy","9","9","3","/Users/lucieiredale/Desktop/subject-5212092.csv","legacy","Lentiform Loewenfeld","3.3.7","yes","yes","600bd7cfb6416f0113b04181","602110864497cf011d9c0822","0","f","NA","space","space","space","NA","f","806","NA","20327","9032","3593","NA","806","2","legacy","1024","2","48000","-16","task","5212092","even","NA","26197","48530","28202","67563","4600","17241","13645","68068","NA","67560","68068","67500","48530","68875","24286","67000","4591","58176","Lexical Decision Task","12","12790","14","yes","1024"
"2.744553742","0","2","nawk","non-word","86.66666666666667","86.66666666666667","920.6","920.6","black","no","legacy","legacy","legacy","0","uniform","1","undefined","undefined","undefined","1","f","0","0","0","0","14","0","0","0","14","NA","10","14","10","0","10","3","14","0","14","Wed Feb 24 16:39:53 2021","The main experiment item","yes","Lexical_Decision_Task.osexp","/Users/lucieiredale/Desktop","no","Andale Mono","no","18","no","white","no","yes","576","legacy","10","10","3","/Users/lucieiredale/Desktop/subject-5212092.csv","legacy","Lentiform Loewenfeld","3.3.7","yes","yes","600bd7cfb6416f0113b04181","602110864497cf011d9c0822","0","f","NA","space","space","space","NA","f","1019","NA","20327","9032","3593","NA","1019","2","legacy","1024","2","48000","-16","task","5212092","even","NA","26197","48530","28202","69446","4600","17241","13645","69949","NA","69444","69950","69379","48530","70970","24286","68879","4591","58176","Lexical Decision Task","13","13809","15","yes","1024"
"2.794720352","0","9","koot","non-word","87.5","87.5","911.9375","911.9375","black","no","legacy","legacy","legacy","0","uniform","1","undefined","undefined","undefined","1","f","0","0","0","0","15","0","0","0","15","NA","11","15","11","0","11","3","15","0","15","Wed Feb 24 16:39:53 2021","The main experiment item","yes","Lexical_Decision_Task.osexp","/Users/lucieiredale/Desktop","no","Andale Mono","no","18","no","white","no","yes","576","legacy","11","11","3","/Users/lucieiredale/Desktop/subject-5212092.csv","legacy","Lentiform Loewenfeld","3.3.7","yes","yes","600bd7cfb6416f0113b04181","602110864497cf011d9c0822","0","f","NA","space","space","space","NA","f","782","NA","20327","9032","3593","NA","782","2","legacy","1024","2","48000","-16","task","5212092","even","NA","26197","48530","28202","71542","4600","17241","13645","72045","NA","71539","72046","71474","48530","72829","24286","70974","4591","58176","Lexical Decision Task","14","14591","16","yes","1024"
"2.990042563","6.64","9","plow","word","88.23529411764706","88.23529411764706","917.6470588235294","917.6470588235294","black","no","legacy","legacy","legacy","0","uniform","1","undefined","undefined","undefined","1","j","0","0","0","0","16","0","0","0","16","NA","12","16","12","0","12","3","16","0","16","Wed Feb 24 16:39:53 2021","The main experiment item","yes","Lexical_Decision_Task.osexp","/Users/lucieiredale/Desktop","no","Andale Mono","no","18","no","white","no","yes","576","legacy","12","12","3","/Users/lucieiredale/Desktop/subject-5212092.csv","legacy","Lentiform Loewenfeld","3.3.7","yes","yes","600bd7cfb6416f0113b04181","602110864497cf011d9c0822","0","j","NA","space","space","space","NA","j","1009","NA","20327","9032","3593","NA","1009","2","legacy","1024","2","48000","-16","task","5212092","even","NA","26197","48530","28202","73401","4600","17241","13645","73904","NA","73399","73905","73335","48530","74915","24286","72835","4591","58176","Lexical Decision Task","15","15600","17","yes","1024"
"2.68604012","0","4","pumb","non-word","88.88888888888889","88.88888888888889","926.3888888888889","926.3888888888889","black","no","legacy","legacy","legacy","0","uniform","1","undefined","undefined","undefined","1","f","0","0","0","0","17","0","0","0","17","NA","13","17","13","0","13","3","17","0","17","Wed Feb 24 16:39:53 2021","The main experiment item","yes","Lexical_Decision_Task.osexp","/Users/lucieiredale/Desktop","no","Andale Mono","no","18","no","white","no","yes","576","legacy","13","13","3","/Users/lucieiredale/Desktop/subject-5212092.csv","legacy","Lentiform Loewenfeld","3.3.7","yes","yes","600bd7cfb6416f0113b04181","602110864497cf011d9c0822","0","f","NA","space","space","space","NA","f","1075","NA","20327","9032","3593","NA","1075","2","legacy","1024","2","48000","-16","task","5212092","even","NA","26197","48530","28202","75488","4600","17241","13645","75994","NA","75486","75994","75420","48530","77070","24286","74919","4591","58176","Lexical Decision Task","16","16675","18","yes","1024"
"2.714888338","0","3","brug","non-word","89.47368421052632","89.47368421052632","933.578947368421","933.578947368421","black","no","legacy","legacy","legacy","0","uniform","1","undefined","undefined","undefined","1","f","0","0","0","0","18","0","0","0","18","NA","14","18","14","0","14","3","18","0","18","Wed Feb 24 16:39:53 2021","The main experiment item","yes","Lexical_Decision_Task.osexp","/Users/lucieiredale/Desktop","no","Andale Mono","no","18","no","white","no","yes","576","legacy","14","14","3","/Users/lucieiredale/Desktop/subject-5212092.csv","legacy","Lentiform Loewenfeld","3.3.7","yes","yes","600bd7cfb6416f0113b04181","602110864497cf011d9c0822","0","f","NA","space","space","space","NA","f","1063","NA","20327","9032","3593","NA","1063","2","legacy","1024","2","48000","-16","task","5212092","even","NA","26197","48530","28202","77642","4600","17241","13645","78145","NA","77639","78146","77574","48530","79210","24286","77074","4591","58176","Lexical Decision Task","17","17738","19","yes","1024"
"3.481012421","8.34","5","teen","word","90","90","930.55","930.55","black","no","legacy","legacy","legacy","0","uniform","1","undefined","undefined","undefined","1","j","0","0","0","0","19","0","0","0","19","NA","15","19","15","0","15","3","19","0","19","Wed Feb 24 16:39:53 2021","The main experiment item","yes","Lexical_Decision_Task.osexp","/Users/lucieiredale/Desktop","no","Andale Mono","no","18","no","white","no","yes","576","legacy","15","15","3","/Users/lucieiredale/Desktop/subject-5212092.csv","legacy","Lentiform Loewenfeld","3.3.7","yes","yes","600bd7cfb6416f0113b04181","602110864497cf011d9c0822","0","j","NA","space","space","space","NA","j","873","NA","20327","9032","3593","NA","873","2","legacy","1024","2","48000","-16","task","5212092","even","NA","26197","48530","28202","79781","4600","17241","13645","80285","NA","79778","80286","79713","48530","81160","24286","79213","4591","58176","Lexical Decision Task","18","18611","20","yes","1024"
"2.972819734","0","4","scew","non-word","90.47619047619048","90.47619047619048","940.1904761904761","940.1904761904761","black","no","legacy","legacy","legacy","0","uniform","1","undefined","undefined","undefined","1","f","0","0","0","0","20","0","0","0","20","NA","16","20","16","0","16","3","20","0","20","Wed Feb 24 16:39:53 2021","The main experiment item","yes","Lexical_Decision_Task.osexp","/Users/lucieiredale/Desktop","no","Andale Mono","no","18","no","white","no","yes","576","legacy","16","16","3","/Users/lucieiredale/Desktop/subject-5212092.csv","legacy","Lentiform Loewenfeld","3.3.7","yes","yes","600bd7cfb6416f0113b04181","602110864497cf011d9c0822","0","f","NA","space","space","space","NA","f","1133","NA","20327","9032","3593","NA","1133","2","legacy","1024","2","48000","-16","task","5212092","even","NA","26197","48530","28202","81732","4600","17241","13645","82235","NA","81729","82236","81664","48530","83370","24286","81163","4591","58176","Lexical Decision Task","19","19744","21","yes","1024"
"3.068433376","8.09","2","bulb","word","90.9090909090909","90.9090909090909","937.9090909090909","937.9090909090909","black","no","legacy","legacy","legacy","0","uniform","1","undefined","undefined","undefined","1","j","0","0","0","0","21","0","0","0","21","NA","17","21","17","0","17","3","21","0","21","Wed Feb 24 16:39:53 2021","The main experiment item","yes","Lexical_Decision_Task.osexp","/Users/lucieiredale/Desktop","no","Andale Mono","no","18","no","white","no","yes","576","legacy","17","17","3","/Users/lucieiredale/Desktop/subject-5212092.csv","legacy","Lentiform Loewenfeld","3.3.7","yes","yes","600bd7cfb6416f0113b04181","602110864497cf011d9c0822","0","j","NA","space","space","space","NA","j","890","NA","20327","9032","3593","NA","890","2","legacy","1024","2","48000","-16","task","5212092","even","NA","26197","48530","28202","83946","4600","17241","13645","84449","NA","83943","84449","83875","48530","85340","24286","83375","4591","58176","Lexical Decision Task","20","20634","22","yes","1024"
"3.257359335","8","6","brew","word","91.30434782608695","91.30434782608695","937.7391304347826","937.7391304347826","black","no","legacy","legacy","legacy","0","uniform","1","undefined","undefined","undefined","1","j","0","0","0","0","22","0","0","0","22","NA","18","22","18","0","18","3","22","0","22","Wed Feb 24 16:39:53 2021","The main experiment item","yes","Lexical_Decision_Task.osexp","/Users/lucieiredale/Desktop","no","Andale Mono","no","18","no","white","no","yes","576","legacy","18","18","3","/Users/lucieiredale/Desktop/subject-5212092.csv","legacy","Lentiform Loewenfeld","3.3.7","yes","yes","600bd7cfb6416f0113b04181","602110864497cf011d9c0822","0","j","NA","space","space","space","NA","j","934","NA","20327","9032","3593","NA","934","2","legacy","1024","2","48000","-16","task","5212092","even","NA","26197","48530","28202","85911","4600","17241","13645","86414","NA","85908","86415","85842","48530","87349","24286","85342","4591","58176","Lexical Decision Task","21","21568","23","yes","1024"
"3.208172527","10.27","7","deck","word","91.66666666666667","91.66666666666667","935.1666666666666","935.1666666666666","black","no","legacy","legacy","legacy","0","uniform","1","undefined","undefined","undefined","1","j","0","0","0","0","23","0","0","0","23","NA","19","23","19","0","19","3","23","0","23","Wed Feb 24 16:39:53 2021","The main experiment item","yes","Lexical_Decision_Task.osexp","/Users/lucieiredale/Desktop","no","Andale Mono","no","18","no","white","no","yes","576","legacy","19","19","3","/Users/lucieiredale/Desktop/subject-5212092.csv","legacy","Lentiform Loewenfeld","3.3.7","yes","yes","600bd7cfb6416f0113b04181","602110864497cf011d9c0822","0","j","NA","space","space","space","NA","j","876","NA","20327","9032","3593","NA","876","2","legacy","1024","2","48000","-16","task","5212092","even","NA","26197","48530","28202","87917","4600","17241","13645","88420","NA","87914","88421","87853","48530","89298","24286","87353","4591","58176","Lexical Decision Task","22","22444","24","yes","1024"
"3.474361976","5.24","6","veer","word","88","88","931.64","931.64","black","no","legacy","legacy","legacy","0","uniform","0","undefined","undefined","undefined","0","j","0","0","0","0","24","0","0","0","24","NA","20","24","20","0","20","3","24","0","24","Wed Feb 24 16:39:53 2021","The main experiment item","yes","Lexical_Decision_Task.osexp","/Users/lucieiredale/Desktop","no","Andale Mono","no","18","no","white","no","yes","576","legacy","20","20","3","/Users/lucieiredale/Desktop/subject-5212092.csv","legacy","Lentiform Loewenfeld","3.3.7","yes","yes","600bd7cfb6416f0113b04181","602110864497cf011d9c0822","0","f","NA","space","space","space","NA","f","847","NA","20327","9032","3593","NA","847","2","legacy","1024","2","48000","-16","task","5212092","even","NA","26197","48530","28202","89865","4600","17241","13645","90368","NA","89862","90369","89801","48530","91216","24286","89301","4591","58176","Lexical Decision Task","22","23291","25","yes","1024"
"3.090140555","5.81","8","pout","word","88.46153846153847","88.46153846153847","922.7692307692307","922.7692307692307","black","no","legacy","legacy","legacy","0","uniform","1","undefined","undefined","undefined","1","j","0","0","0","0","25","0","0","0","25","NA","21","25","21","0","21","3","25","0","25","Wed Feb 24 16:39:53 2021","The main experiment item","yes","Lexical_Decision_Task.osexp","/Users/lucieiredale/Desktop","no","Andale Mono","no","18","no","white","no","yes","576","legacy","21","21","3","/Users/lucieiredale/Desktop/subject-5212092.csv","legacy","Lentiform Loewenfeld","3.3.7","yes","yes","600bd7cfb6416f0113b04181","602110864497cf011d9c0822","0","j","NA","space","space","space","NA","j","701","NA","20327","9032","3593","NA","701","2","legacy","1024","2","48000","-16","task","5212092","even","NA","26197","48530","28202","92787","4600","17241","13645","93290","NA","92784","93291","92720","48530","93993","24286","89301","4591","91219","Lexical Decision Task","23","23992","26","yes","1024"
"2.8162413","0","5","nusk","non-word","88.88888888888889","88.88888888888889","915.5555555555555","915.5555555555555","black","no","legacy","legacy","legacy","0","uniform","1","undefined","undefined","undefined","1","f","0","0","0","0","26","0","0","0","26","NA","22","26","22","0","22","3","26","0","26","Wed Feb 24 16:39:53 2021","The main experiment item","yes","Lexical_Decision_Task.osexp","/Users/lucieiredale/Desktop","no","Andale Mono","no","18","no","white","no","yes","576","legacy","22","22","3","/Users/lucieiredale/Desktop/subject-5212092.csv","legacy","Lentiform Loewenfeld","3.3.7","yes","yes","600bd7cfb6416f0113b04181","602110864497cf011d9c0822","0","f","NA","space","space","space","NA","f","728","NA","20327","9032","3593","NA","728","2","legacy","1024","2","48000","-16","task","5212092","even","NA","26197","48530","28202","94562","4600","17241","13645","95065","NA","94559","95066","94496","48530","95795","24286","93996","4591","91219","Lexical Decision Task","24","24720","27","yes","1024"
"3.303771854","0","9","dath","non-word","89.28571428571429","89.28571428571429","912.6428571428571","912.6428571428571","black","no","legacy","legacy","legacy","0","uniform","1","undefined","undefined","undefined","1","f","0","0","0","0","27","0","0","0","27","NA","23","27","23","0","23","3","27","0","27","Wed Feb 24 16:39:53 2021","The main experiment item","yes","Lexical_Decision_Task.osexp","/Users/lucieiredale/Desktop","no","Andale Mono","no","18","no","white","no","yes","576","legacy","23","23","3","/Users/lucieiredale/Desktop/subject-5212092.csv","legacy","Lentiform Loewenfeld","3.3.7","yes","yes","600bd7cfb6416f0113b04181","602110864497cf011d9c0822","0","f","NA","space","space","space","NA","f","834","NA","20327","9032","3593","NA","834","2","legacy","1024","2","48000","-16","task","5212092","even","NA","26197","48530","28202","96363","4600","17241","13645","96866","NA","96360","96867","96297","48530","97701","24286","95797","4591","91219","Lexical Decision Task","25","25554","28","yes","1024"
"2.899638141","0","3","hapt","non-word","89.65517241379311","89.65517241379311","913.9310344827586","913.9310344827586","black","no","legacy","legacy","legacy","0","uniform","1","undefined","undefined","undefined","1","f","0","0","0","0","28","0","0","0","28","NA","24","28","24","0","24","3","28","0","28","Wed Feb 24 16:39:53 2021","The main experiment item","yes","Lexical_Decision_Task.osexp","/Users/lucieiredale/Desktop","no","Andale Mono","no","18","no","white","no","yes","576","legacy","24","24","3","/Users/lucieiredale/Desktop/subject-5212092.csv","legacy","Lentiform Loewenfeld","3.3.7","yes","yes","600bd7cfb6416f0113b04181","602110864497cf011d9c0822","0","f","NA","space","space","space","NA","f","950","NA","20327","9032","3593","NA","950","2","legacy","1024","2","48000","-16","task","5212092","even","NA","26197","48530","28202","98268","4600","17241","13645","98772","NA","98265","98772","98204","48530","99722","24286","97704","4591","91219","Lexical Decision Task","26","26504","29","yes","1024"
"2.68604012","0","3","mulb","non-word","90","90","914.6333333333333","914.6333333333333","black","no","legacy","legacy","legacy","0","uniform","1","undefined","undefined","undefined","1","f","0","0","0","0","29","0","0","0","29","NA","25","29","25","0","25","3","29","0","29","Wed Feb 24 16:39:53 2021","The main experiment item","yes","Lexical_Decision_Task.osexp","/Users/lucieiredale/Desktop","no","Andale Mono","no","18","no","white","no","yes","576","legacy","25","25","3","/Users/lucieiredale/Desktop/subject-5212092.csv","legacy","Lentiform Loewenfeld","3.3.7","yes","yes","600bd7cfb6416f0113b04181","602110864497cf011d9c0822","0","f","NA","space","space","space","NA","f","935","NA","20327","9032","3593","NA","935","2","legacy","1024","2","48000","-16","task","5212092","even","NA","26197","48530","28202","100289","4600","17241","13645","100793","NA","100287","100794","100225","48530","101729","24286","99725","4591","91219","Lexical Decision Task","27","27439","30","yes","1024"
"3.039414119","0","9","meep","non-word","90.3225806451613","90.3225806451613","912.0645161290323","912.0645161290323","black","no","legacy","legacy","legacy","0","uniform","1","undefined","undefined","undefined","1","f","0","0","0","0","30","0","0","0","30","NA","26","30","26","0","26","3","30","0","30","Wed Feb 24 16:39:53 2021","The main experiment item","yes","Lexical_Decision_Task.osexp","/Users/lucieiredale/Desktop","no","Andale Mono","no","18","no","white","no","yes","576","legacy","26","26","3","/Users/lucieiredale/Desktop/subject-5212092.csv","legacy","Lentiform Loewenfeld","3.3.7","yes","yes","600bd7cfb6416f0113b04181","602110864497cf011d9c0822","0","f","NA","space","space","space","NA","f","835","NA","20327","9032","3593","NA","835","2","legacy","1024","2","48000","-16","task","5212092","even","NA","26197","48530","28202","102299","4600","17241","13645","102803","NA","102296","102803","102232","48530","103639","24286","101732","4591","91219","Lexical Decision Task","28","28274","31","yes","1024"
"2.9737419","7.69","7","claw","word","90.625","90.625","912.46875","912.46875","black","no","legacy","legacy","legacy","0","uniform","1","undefined","undefined","undefined","1","j","0","0","0","0","31","0","0","0","31","NA","27","31","27","0","27","3","31","0","31","Wed Feb 24 16:39:53 2021","The main experiment item","yes","Lexical_Decision_Task.osexp","/Users/lucieiredale/Desktop","no","Andale Mono","no","18","no","white","no","yes","576","legacy","27","27","3","/Users/lucieiredale/Desktop/subject-5212092.csv","legacy","Lentiform Loewenfeld","3.3.7","yes","yes","600bd7cfb6416f0113b04181","602110864497cf011d9c0822","0","j","NA","space","space","space","NA","j","925","NA","20327","9032","3593","NA","925","2","legacy","1024","2","48000","-16","task","5212092","even","NA","26197","48530","28202","104208","4600","17241","13645","104712","NA","104206","104713","104142","48530","105639","24286","103642","4591","91219","Lexical Decision Task","29","29199","32","yes","1024"
"3.159867847","5.98","5","brim","word","87.87878787878788","87.87878787878788","908.8484848484849","908.8484848484849","black","no","legacy","legacy","legacy","0","uniform","0","undefined","undefined","undefined","0","j","0","0","0","0","32","0","0","0","32","NA","28","32","28","0","28","3","32","0","32","Wed Feb 24 16:39:53 2021","The main experiment item","yes","Lexical_Decision_Task.osexp","/Users/lucieiredale/Desktop","no","Andale Mono","no","18","no","white","no","yes","576","legacy","28","28","3","/Users/lucieiredale/Desktop/subject-5212092.csv","legacy","Lentiform Loewenfeld","3.3.7","yes","yes","600bd7cfb6416f0113b04181","602110864497cf011d9c0822","0","f","NA","space","space","space","NA","f","793","NA","20327","9032","3593","NA","793","2","legacy","1024","2","48000","-16","task","5212092","even","NA","26197","48530","28202","106211","4600","17241","13645","106714","NA","106208","106715","106142","48530","107509","24286","105642","4591","91219","Lexical Decision Task","29","29992","33","yes","1024"
"3.091901331","0","9","nipe","non-word","88.23529411764706","88.23529411764706","907.0588235294117","907.0588235294117","black","no","legacy","legacy","legacy","0","uniform","1","undefined","undefined","undefined","1","f","0","0","0","0","33","0","0","0","33","NA","29","33","29","0","29","3","33","0","33","Wed Feb 24 16:39:53 2021","The main experiment item","yes","Lexical_Decision_Task.osexp","/Users/lucieiredale/Desktop","no","Andale Mono","no","18","no","white","no","yes","576","legacy","29","29","3","/Users/lucieiredale/Desktop/subject-5212092.csv","legacy","Lentiform Loewenfeld","3.3.7","yes","yes","600bd7cfb6416f0113b04181","602110864497cf011d9c0822","0","f","NA","space","space","space","NA","f","848","NA","20327","9032","3593","NA","848","2","legacy","1024","2","48000","-16","task","5212092","even","NA","26197","48530","28202","109087","4600","17241","13645","109593","NA","109084","109593","109012","48530","110442","24286","105642","4591","107512","Lexical Decision Task","30","30840","34","yes","1024"
"3.14849993","10.75","7","hour","word","88.57142857142857","88.57142857142857","906.2","906.2","black","no","legacy","legacy","legacy","0","uniform","1","undefined","undefined","undefined","1","j","0","0","0","0","34","0","0","0","34","NA","30","34","30","0","30","3","34","0","34","Wed Feb 24 16:39:53 2021","The main experiment item","yes","Lexical_Decision_Task.osexp","/Users/lucieiredale/Desktop","no","Andale Mono","no","18","no","white","no","yes","576","legacy","30","30","3","/Users/lucieiredale/Desktop/subject-5212092.csv","legacy","Lentiform Loewenfeld","3.3.7","yes","yes","600bd7cfb6416f0113b04181","602110864497cf011d9c0822","0","j","NA","space","space","space","NA","j","877","NA","20327","9032","3593","NA","877","2","legacy","1024","2","48000","-16","task","5212092","even","NA","26197","48530","28202","111010","4600","17241","13645","111513","NA","111008","111514","110945","48530","112392","24286","110445","4591","107512","Lexical Decision Task","31","31717","35","yes","1024"
"2.843025032","0","9","pusk","non-word","88.88888888888889","88.88888888888889","901.7222222222222","901.7222222222222","black","no","legacy","legacy","legacy","0","uniform","1","undefined","undefined","undefined","1","f","0","0","0","0","35","0","0","0","35","NA","31","35","31","0","31","3","35","0","35","Wed Feb 24 16:39:53 2021","The main experiment item","yes","Lexical_Decision_Task.osexp","/Users/lucieiredale/Desktop","no","Andale Mono","no","18","no","white","no","yes","576","legacy","31","31","3","/Users/lucieiredale/Desktop/subject-5212092.csv","legacy","Lentiform Loewenfeld","3.3.7","yes","yes","600bd7cfb6416f0113b04181","602110864497cf011d9c0822","0","f","NA","space","space","space","NA","f","745","NA","20327","9032","3593","NA","745","2","legacy","1024","2","48000","-16","task","5212092","even","NA","26197","48530","28202","112965","4600","17241","13645","113470","NA","112962","113470","112895","48530","114216","24286","112395","4591","107512","Lexical Decision Task","32","32462","36","yes","1024"
"3.274157849","0","8","leet","non-word","89.1891891891892","89.1891891891892","898.6756756756756","898.6756756756756","black","no","legacy","legacy","legacy","0","uniform","1","undefined","undefined","undefined","1","f","0","0","0","0","36","0","0","0","36","NA","32","36","32","0","32","3","36","0","36","Wed Feb 24 16:39:53 2021","The main experiment item","yes","Lexical_Decision_Task.osexp","/Users/lucieiredale/Desktop","no","Andale Mono","no","18","no","white","no","yes","576","legacy","32","32","3","/Users/lucieiredale/Desktop/subject-5212092.csv","legacy","Lentiform Loewenfeld","3.3.7","yes","yes","600bd7cfb6416f0113b04181","602110864497cf011d9c0822","0","f","NA","space","space","space","NA","f","789","NA","20327","9032","3593","NA","789","2","legacy","1024","2","48000","-16","task","5212092","even","NA","26197","48530","28202","114789","4600","17241","13645","115293","NA","114787","115294","114720","48530","116084","24286","114220","4591","107512","Lexical Decision Task","33","33251","37","yes","1024"
"3.076883066","0","8","mout","non-word","89.47368421052632","89.47368421052632","895.6578947368421","895.6578947368421","black","no","legacy","legacy","legacy","0","uniform","1","undefined","undefined","undefined","1","f","0","0","0","0","37","0","0","0","37","NA","33","37","33","0","33","3","37","0","37","Wed Feb 24 16:39:53 2021","The main experiment item","yes","Lexical_Decision_Task.osexp","/Users/lucieiredale/Desktop","no","Andale Mono","no","18","no","white","no","yes","576","legacy","33","33","3","/Users/lucieiredale/Desktop/subject-5212092.csv","legacy","Lentiform Loewenfeld","3.3.7","yes","yes","600bd7cfb6416f0113b04181","602110864497cf011d9c0822","0","f","NA","space","space","space","NA","f","784","NA","20327","9032","3593","NA","784","2","legacy","1024","2","48000","-16","task","5212092","even","NA","26197","48530","28202","116652","4600","17241","13645","117156","NA","116650","117157","116586","48530","117942","24286","116086","4591","107512","Lexical Decision Task","34","34035","38","yes","1024"
"2.696356389","0","1","pizz","non-word","89.74358974358974","89.74358974358974","891.7948717948718","891.7948717948718","black","no","legacy","legacy","legacy","0","uniform","1","undefined","undefined","undefined","1","f","0","0","0","0","38","0","0","0","38","NA","34","38","34","0","34","3","38","0","38","Wed Feb 24 16:39:53 2021","The main experiment item","yes","Lexical_Decision_Task.osexp","/Users/lucieiredale/Desktop","no","Andale Mono","no","18","no","white","no","yes","576","legacy","34","34","3","/Users/lucieiredale/Desktop/subject-5212092.csv","legacy","Lentiform Loewenfeld","3.3.7","yes","yes","600bd7cfb6416f0113b04181","602110864497cf011d9c0822","0","f","NA","space","space","space","NA","f","745","NA","20327","9032","3593","NA","745","2","legacy","1024","2","48000","-16","task","5212092","even","NA","26197","48530","28202","118515","4600","17241","13645","119019","NA","118512","119020","118445","48530","119766","24286","117945","4591","107512","Lexical Decision Task","35","34780","39","yes","1024"
"3.209246849","0","7","slem","non-word","90","90","888.6","888.6","black","no","legacy","legacy","legacy","0","uniform","1","undefined","undefined","undefined","1","f","0","0","0","0","39","0","0","0","39","NA","35","39","35","0","35","3","39","0","39","Wed Feb 24 16:39:53 2021","The main experiment item","yes","Lexical_Decision_Task.osexp","/Users/lucieiredale/Desktop","no","Andale Mono","no","18","no","white","no","yes","576","legacy","35","35","3","/Users/lucieiredale/Desktop/subject-5212092.csv","legacy","Lentiform Loewenfeld","3.3.7","yes","yes","600bd7cfb6416f0113b04181","602110864497cf011d9c0822","0","f","NA","space","space","space","NA","f","764","NA","20327","9032","3593","NA","764","2","legacy","1024","2","48000","-16","task","5212092","even","NA","26197","48530","28202","120338","4600","17241","13645","120843","NA","120336","120844","120269","48530","121609","24286","119769","4591","107512","Lexical Decision Task","36","35544","40","yes","1024"
"2.6599162","0","2","saff","non-word","90.2439024390244","90.2439024390244","882.170731707317","882.170731707317","black","no","legacy","legacy","legacy","0","uniform","1","undefined","undefined","undefined","1","f","0","0","0","0","40","0","0","0","40","NA","36","40","36","0","36","3","40","0","40","Wed Feb 24 16:39:53 2021","The main experiment item","yes","Lexical_Decision_Task.osexp","/Users/lucieiredale/Desktop","no","Andale Mono","no","18","no","white","no","yes","576","legacy","36","36","3","/Users/lucieiredale/Desktop/subject-5212092.csv","legacy","Lentiform Loewenfeld","3.3.7","yes","yes","600bd7cfb6416f0113b04181","602110864497cf011d9c0822","0","f","NA","space","space","space","NA","f","625","NA","20327","9032","3593","NA","625","2","legacy","1024","2","48000","-16","task","5212092","even","NA","26197","48530","28202","122183","4600","17241","13645","122686","NA","122180","122687","122112","48530","123313","24286","121612","4591","107512","Lexical Decision Task","37","36169","41","yes","1024"
"2.953276337","6.32","4","thaw","word","90.47619047619048","90.47619047619048","883.4285714285714","883.4285714285714","black","no","legacy","legacy","legacy","0","uniform","1","undefined","undefined","undefined","1","j","0","0","0","0","41","0","0","0","41","NA","37","41","37","0","37","3","41","0","41","Wed Feb 24 16:39:53 2021","The main experiment item","yes","Lexical_Decision_Task.osexp","/Users/lucieiredale/Desktop","no","Andale Mono","no","18","no","white","no","yes","576","legacy","37","37","3","/Users/lucieiredale/Desktop/subject-5212092.csv","legacy","Lentiform Loewenfeld","3.3.7","yes","yes","600bd7cfb6416f0113b04181","602110864497cf011d9c0822","0","j","NA","space","space","space","NA","j","935","NA","20327","9032","3593","NA","935","2","legacy","1024","2","48000","-16","task","5212092","even","NA","26197","48530","28202","123885","4600","17241","13645","124391","NA","123883","124391","123816","48530","125327","24286","123315","4591","107512","Lexical Decision Task","38","37104","42","yes","1024"
"2.594027722","9.08","8","skip","word","90.69767441860465","90.69767441860465","879.9767441860465","879.9767441860465","black","no","legacy","legacy","legacy","0","uniform","1","undefined","undefined","undefined","1","j","0","0","0","0","42","0","0","0","42","NA","38","42","38","0","38","3","42","0","42","Wed Feb 24 16:39:53 2021","The main experiment item","yes","Lexical_Decision_Task.osexp","/Users/lucieiredale/Desktop","no","Andale Mono","no","18","no","white","no","yes","576","legacy","38","38","3","/Users/lucieiredale/Desktop/subject-5212092.csv","legacy","Lentiform Loewenfeld","3.3.7","yes","yes","600bd7cfb6416f0113b04181","602110864497cf011d9c0822","0","j","NA","space","space","space","NA","j","735","NA","20327","9032","3593","NA","735","2","legacy","1024","2","48000","-16","task","5212092","even","NA","26197","48530","28202","125902","4600","17241","13645","126405","NA","125900","126406","125831","48530","127141","24286","125331","4591","107512","Lexical Decision Task","39","37839","43","yes","1024"
"3.431095062","5.74","9","perk","word","90.9090909090909","90.9090909090909","877.6136363636364","877.6136363636364","black","no","legacy","legacy","legacy","0","uniform","1","undefined","undefined","undefined","1","j","0","0","0","0","43","0","0","0","43","NA","39","43","39","0","39","3","43","0","43","Wed Feb 24 16:39:53 2021","The main experiment item","yes","Lexical_Decision_Task.osexp","/Users/lucieiredale/Desktop","no","Andale Mono","no","18","no","white","no","yes","576","legacy","39","39","3","/Users/lucieiredale/Desktop/subject-5212092.csv","legacy","Lentiform Loewenfeld","3.3.7","yes","yes","600bd7cfb6416f0113b04181","602110864497cf011d9c0822","0","j","NA","space","space","space","NA","j","776","NA","20327","9032","3593","NA","776","2","legacy","1024","2","48000","-16","task","5212092","even","NA","26197","48530","28202","127714","4600","17241","13645","128217","NA","127711","128218","127644","48530","128994","24286","127144","4591","107512","Lexical Decision Task","40","38615","44","yes","1024"
"2.709837904","6.85","8","skim","word","88.88888888888889","88.88888888888889","877.2222222222222","877.2222222222222","black","no","legacy","legacy","legacy","0","uniform","0","undefined","undefined","undefined","0","j","0","0","0","0","44","0","0","0","44","NA","40","44","40","0","40","3","44","0","44","Wed Feb 24 16:39:53 2021","The main experiment item","yes","Lexical_Decision_Task.osexp","/Users/lucieiredale/Desktop","no","Andale Mono","no","18","no","white","no","yes","576","legacy","40","40","3","/Users/lucieiredale/Desktop/subject-5212092.csv","legacy","Lentiform Loewenfeld","3.3.7","yes","yes","600bd7cfb6416f0113b04181","602110864497cf011d9c0822","0","f","NA","space","space","space","NA","f","860","NA","20327","9032","3593","NA","860","2","legacy","1024","2","48000","-16","task","5212092","even","NA","26197","48530","28202","129563","4600","17241","13645","130066","NA","129560","130067","129497","48530","130927","24286","128997","4591","107512","Lexical Decision Task","40","39475","45","yes","1024"
"3.225825991","0","7","talm","non-word","89.1304347826087","89.1304347826087","872.3695652173913","872.3695652173913","black","no","legacy","legacy","legacy","0","uniform","1","undefined","undefined","undefined","1","f","0","0","0","0","45","0","0","0","45","NA","41","45","41","0","41","3","45","0","45","Wed Feb 24 16:39:53 2021","The main experiment item","yes","Lexical_Decision_Task.osexp","/Users/lucieiredale/Desktop","no","Andale Mono","no","18","no","white","no","yes","576","legacy","41","41","3","/Users/lucieiredale/Desktop/subject-5212092.csv","legacy","Lentiform Loewenfeld","3.3.7","yes","yes","600bd7cfb6416f0113b04181","602110864497cf011d9c0822","0","f","NA","space","space","space","NA","f","654","NA","20327","9032","3593","NA","654","2","legacy","1024","2","48000","-16","task","5212092","even","NA","26197","48530","28202","132510","4600","17241","13645","133013","NA","132506","133014","132431","48530","133668","24286","128997","4591","130931","Lexical Decision Task","41","40129","46","yes","1024"
"2.839898939","8.99","6","soap","word","89.36170212765957","89.36170212765957","868.0425531914893","868.0425531914893","black","no","legacy","legacy","legacy","0","uniform","1","undefined","undefined","undefined","1","j","0","0","0","0","46","0","0","0","46","NA","42","46","42","0","42","3","46","0","46","Wed Feb 24 16:39:53 2021","The main experiment item","yes","Lexical_Decision_Task.osexp","/Users/lucieiredale/Desktop","no","Andale Mono","no","18","no","white","no","yes","576","legacy","42","42","3","/Users/lucieiredale/Desktop/subject-5212092.csv","legacy","Lentiform Loewenfeld","3.3.7","yes","yes","600bd7cfb6416f0113b04181","602110864497cf011d9c0822","0","j","NA","space","space","space","NA","j","669","NA","20327","9032","3593","NA","669","2","legacy","1024","2","48000","-16","task","5212092","even","NA","26197","48530","28202","134240","4600","17241","13645","134743","NA","134238","134743","134172","48530","135412","24286","133672","4591","130931","Lexical Decision Task","42","40798","47","yes","1024"
"2.695770526","7.34","6","pawn","word","87.5","87.5","867.2708333333334","867.2708333333334","black","no","legacy","legacy","legacy","0","uniform","0","undefined","undefined","undefined","0","j","0","0","0","0","47","0","0","0","47","NA","43","47","43","0","43","3","47","0","47","Wed Feb 24 16:39:53 2021","The main experiment item","yes","Lexical_Decision_Task.osexp","/Users/lucieiredale/Desktop","no","Andale Mono","no","18","no","white","no","yes","576","legacy","43","43","3","/Users/lucieiredale/Desktop/subject-5212092.csv","legacy","Lentiform Loewenfeld","3.3.7","yes","yes","600bd7cfb6416f0113b04181","602110864497cf011d9c0822","0","f","NA","space","space","space","NA","f","831","NA","20327","9032","3593","NA","831","2","legacy","1024","2","48000","-16","task","5212092","even","NA","26197","48530","28202","135987","4600","17241","13645","136490","NA","135984","136490","135916","48530","137322","24286","135416","4591","130931","Lexical Decision Task","42","41629","48","yes","1024"
"2.937852093","0","7","bamp","non-word","87.75510204081633","87.75510204081633","863.8163265306123","863.8163265306123","black","no","legacy","legacy","legacy","0","uniform","1","undefined","undefined","undefined","1","f","0","0","0","0","48","0","0","0","48","NA","44","48","44","0","44","3","48","0","48","Wed Feb 24 16:39:53 2021","The main experiment item","yes","Lexical_Decision_Task.osexp","/Users/lucieiredale/Desktop","no","Andale Mono","no","18","no","white","no","yes","576","legacy","44","44","3","/Users/lucieiredale/Desktop/subject-5212092.csv","legacy","Lentiform Loewenfeld","3.3.7","yes","yes","600bd7cfb6416f0113b04181","602110864497cf011d9c0822","0","f","NA","space","space","space","NA","f","698","NA","20327","9032","3593","NA","698","2","legacy","1024","2","48000","-16","task","5212092","even","NA","26197","48530","28202","138897","4600","17241","13645","139402","NA","138893","139403","138826","48530","140102","24286","135416","4591","137326","Lexical Decision Task","43","42327","49","yes","1024"
"2.755364069","7.72","2","hoax","word","88","88","861.36","861.36","black","no","legacy","legacy","legacy","0","uniform","1","undefined","undefined","undefined","1","j","0","0","0","0","49","0","0","0","49","NA","45","49","45","0","45","3","49","0","49","Wed Feb 24 16:39:53 2021","The main experiment item","yes","Lexical_Decision_Task.osexp","/Users/lucieiredale/Desktop","no","Andale Mono","no","18","no","white","no","yes","576","legacy","45","45","3","/Users/lucieiredale/Desktop/subject-5212092.csv","legacy","Lentiform Loewenfeld","3.3.7","yes","yes","600bd7cfb6416f0113b04181","602110864497cf011d9c0822","0","j","NA","space","space","space","NA","j","741","NA","20327","9032","3593","NA","741","2","legacy","1024","2","48000","-16","task","5212092","even","NA","26197","48530","28202","140673","4600","17241","13645","141178","NA","140670","141178","140606","48530","141921","24286","140106","4591","137326","Lexical Decision Task","44","43068","50","yes","1024"
"2.64476673","0","5","moft","non-word","88.23529411764706","88.23529411764706","859.0784313725491","859.0784313725491","black","no","legacy","legacy","legacy","0","uniform","1","undefined","undefined","undefined","1","f","0","0","0","0","50","0","0","0","50","NA","46","50","46","0","46","3","50","0","50","Wed Feb 24 16:39:53 2021","The main experiment item","yes","Lexical_Decision_Task.osexp","/Users/lucieiredale/Desktop","no","Andale Mono","no","18","no","white","no","yes","576","legacy","46","46","3","/Users/lucieiredale/Desktop/subject-5212092.csv","legacy","Lentiform Loewenfeld","3.3.7","yes","yes","600bd7cfb6416f0113b04181","602110864497cf011d9c0822","0","f","NA","space","space","space","NA","f","745","NA","20327","9032","3593","NA","745","2","legacy","1024","2","48000","-16","task","5212092","even","NA","26197","48530","28202","142492","4600","17241","13645","142995","NA","142490","142996","142425","48530","143741","24286","141925","4591","137326","Lexical Decision Task","45","43813","51","yes","1024"
"2.664011697","8.19","4","hawk","word","88.46153846153847","88.46153846153847","854.3846153846154","854.3846153846154","black","no","legacy","legacy","legacy","0","uniform","1","undefined","undefined","undefined","1","j","0","0","0","0","51","0","0","0","51","NA","47","51","47","0","47","3","51","0","51","Wed Feb 24 16:39:53 2021","The main experiment item","yes","Lexical_Decision_Task.osexp","/Users/lucieiredale/Desktop","no","Andale Mono","no","18","no","white","no","yes","576","legacy","47","47","3","/Users/lucieiredale/Desktop/subject-5212092.csv","legacy","Lentiform Loewenfeld","3.3.7","yes","yes","600bd7cfb6416f0113b04181","602110864497cf011d9c0822","0","j","NA","space","space","space","NA","j","615","NA","20327","9032","3593","NA","615","2","legacy","1024","2","48000","-16","task","5212092","even","NA","26197","48530","28202","144313","4600","17241","13645","144817","NA","144311","144818","144245","48530","145434","24286","143745","4591","137326","Lexical Decision Task","46","44428","52","yes","1024"
"3.153104174","10.89","6","door","word","88.67924528301887","88.67924528301887","847.6792452830189","847.6792452830189","black","no","legacy","legacy","legacy","0","uniform","1","undefined","undefined","undefined","1","j","0","0","0","0","52","0","0","0","52","NA","48","52","48","0","48","3","52","0","52","Wed Feb 24 16:39:53 2021","The main experiment item","yes","Lexical_Decision_Task.osexp","/Users/lucieiredale/Desktop","no","Andale Mono","no","18","no","white","no","yes","576","legacy","48","48","3","/Users/lucieiredale/Desktop/subject-5212092.csv","legacy","Lentiform Loewenfeld","3.3.7","yes","yes","600bd7cfb6416f0113b04181","602110864497cf011d9c0822","0","j","NA","space","space","space","NA","j","499","NA","20327","9032","3593","NA","499","2","legacy","1024","2","48000","-16","task","5212092","even","NA","26197","48530","28202","146013","4600","17241","13645","146516","NA","146009","146517","145937","48530","147017","24286","145437","4591","137326","Lexical Decision Task","47","44927","53","yes","1024"
"3.165936429","0","7","leps","non-word","88.88888888888889","88.88888888888889","844.3888888888889","844.3888888888889","black","no","legacy","legacy","legacy","0","uniform","1","undefined","undefined","undefined","1","f","0","0","0","0","53","0","0","0","53","NA","49","53","49","0","49","3","53","0","53","Wed Feb 24 16:39:53 2021","The main experiment item","yes","Lexical_Decision_Task.osexp","/Users/lucieiredale/Desktop","no","Andale Mono","no","18","no","white","no","yes","576","legacy","49","49","3","/Users/lucieiredale/Desktop/subject-5212092.csv","legacy","Lentiform Loewenfeld","3.3.7","yes","yes","600bd7cfb6416f0113b04181","602110864497cf011d9c0822","0","f","NA","space","space","space","NA","f","670","NA","20327","9032","3593","NA","670","2","legacy","1024","2","48000","-16","task","5212092","even","NA","26197","48530","28202","147589","4600","17241","13645","148095","NA","147586","148095","147521","48530","148766","24286","147020","4591","137326","Lexical Decision Task","48","45597","54","yes","1024"
"2.986323777","10.85","8","ship","word","89.0909090909091","89.0909090909091","866.4","866.4","black","no","legacy","legacy","legacy","0","uniform","1","undefined","undefined","undefined","1","j","0","0","0","0","54","0","0","0","54","0","50","54","50","0","50","3","54","0","54","Wed Feb 24 16:39:53 2021","The main experiment item","yes","Lexical_Decision_Task.osexp","/Users/lucieiredale/Desktop","no","Andale Mono","no","18","no","white","no","yes","576","legacy","50","50","3","/Users/lucieiredale/Desktop/subject-5212092.csv","legacy","Lentiform Loewenfeld","3.3.7","yes","yes","600bd7cfb6416f0113b04181","602110864497cf011d9c0822","0","j","NA","space","space","space","space","j","2055","NA","20327","9032","3593","39699","2055","2","legacy","1024","2","48000","-16","task","5212092","even","NA","26197","48530","28202","189048","4600","17241","13645","189552","149307","189046","189552","149269","48530","191607","24286","148769","4591","137326","Lexical Decision Task","49","47652","55","yes","1024"
"2.898725182","0","7","turl","non-word","89.28571428571429","89.28571428571429","863.9642857142857","863.9642857142857","black","no","legacy","legacy","legacy","0","uniform","1","undefined","undefined","undefined","1","f","0","0","0","0","55","0","0","0","55","0","51","55","51","0","51","3","55","0","55","Wed Feb 24 16:39:53 2021","The main experiment item","yes","Lexical_Decision_Task.osexp","/Users/lucieiredale/Desktop","no","Andale Mono","no","18","no","white","no","yes","576","legacy","51","51","3","/Users/lucieiredale/Desktop/subject-5212092.csv","legacy","Lentiform Loewenfeld","3.3.7","yes","yes","600bd7cfb6416f0113b04181","602110864497cf011d9c0822","0","f","NA","space","space","space","space","f","730","NA","20327","9032","3593","39699","730","2","legacy","1024","2","48000","-16","task","5212092","even","NA","26197","48530","28202","192173","4600","17241","13645","192677","149307","192171","192678","192110","48530","193408","24286","191610","4591","137326","Lexical Decision Task","50","48382","56","yes","1024"
"3.208978517","10.33","4","fish","word","89.47368421052632","89.47368421052632","857.859649122807","857.859649122807","black","no","legacy","legacy","legacy","0","uniform","1","undefined","undefined","undefined","1","j","0","0","0","0","56","0","0","0","56","0","52","56","52","0","52","3","56","0","56","Wed Feb 24 16:39:53 2021","The main experiment item","yes","Lexical_Decision_Task.osexp","/Users/lucieiredale/Desktop","no","Andale Mono","no","18","no","white","no","yes","576","legacy","52","52","3","/Users/lucieiredale/Desktop/subject-5212092.csv","legacy","Lentiform Loewenfeld","3.3.7","yes","yes","600bd7cfb6416f0113b04181","602110864497cf011d9c0822","0","j","NA","space","space","space","space","j","516","NA","20327","9032","3593","39699","516","2","legacy","1024","2","48000","-16","task","5212092","even","NA","26197","48530","28202","193975","4600","17241","13645","194478","149307","193973","194479","193911","48530","194995","24286","193411","4591","137326","Lexical Decision Task","51","48898","57","yes","1024"
"3.028977705","0","7","frow","non-word","89.65517241379311","89.65517241379311","853.551724137931","853.551724137931","black","no","legacy","legacy","legacy","0","uniform","1","undefined","undefined","undefined","1","f","0","0","0","0","57","0","0","0","57","0","53","57","53","0","53","3","57","0","57","Wed Feb 24 16:39:53 2021","The main experiment item","yes","Lexical_Decision_Task.osexp","/Users/lucieiredale/Desktop","no","Andale Mono","no","18","no","white","no","yes","576","legacy","53","53","3","/Users/lucieiredale/Desktop/subject-5212092.csv","legacy","Lentiform Loewenfeld","3.3.7","yes","yes","600bd7cfb6416f0113b04181","602110864497cf011d9c0822","0","f","NA","space","space","space","space","f","608","NA","20327","9032","3593","39699","608","2","legacy","1024","2","48000","-16","task","5212092","even","NA","26197","48530","28202","195563","4600","17241","13645","196067","149307","195561","196067","195499","48530","196675","24286","194999","4591","137326","Lexical Decision Task","52","49506","58","yes","1024"
"2.996511672","0","7","hoil","non-word","89.83050847457628","89.83050847457628","850.6440677966102","850.6440677966102","black","no","legacy","legacy","legacy","0","uniform","1","undefined","undefined","undefined","1","f","0","0","0","0","58","0","0","0","58","0","54","58","54","0","54","3","58","0","58","Wed Feb 24 16:39:53 2021","The main experiment item","yes","Lexical_Decision_Task.osexp","/Users/lucieiredale/Desktop","no","Andale Mono","no","18","no","white","no","yes","576","legacy","54","54","3","/Users/lucieiredale/Desktop/subject-5212092.csv","legacy","Lentiform Loewenfeld","3.3.7","yes","yes","600bd7cfb6416f0113b04181","602110864497cf011d9c0822","0","f","NA","space","space","space","space","f","682","NA","20327","9032","3593","39699","682","2","legacy","1024","2","48000","-16","task","5212092","even","NA","26197","48530","28202","197241","4600","17241","13645","197745","149307","197239","197746","197179","48530","198429","24286","196679","4591","137326","Lexical Decision Task","53","50188","59","yes","1024"
"3.088136089","8.32","9","worm","word","90","90","846.0333333333333","846.0333333333333","black","no","legacy","legacy","legacy","0","uniform","1","undefined","undefined","undefined","1","j","0","0","0","0","59","0","0","0","59","0","55","59","55","0","55","3","59","0","59","Wed Feb 24 16:39:53 2021","The main experiment item","yes","Lexical_Decision_Task.osexp","/Users/lucieiredale/Desktop","no","Andale Mono","no","18","no","white","no","yes","576","legacy","55","55","3","/Users/lucieiredale/Desktop/subject-5212092.csv","legacy","Lentiform Loewenfeld","3.3.7","yes","yes","600bd7cfb6416f0113b04181","602110864497cf011d9c0822","0","j","NA","space","space","space","space","j","574","NA","20327","9032","3593","39699","574","2","legacy","1024","2","48000","-16","task","5212092","even","NA","26197","48530","28202","198994","4600","17241","13645","199498","149307","198991","199498","198932","48530","200073","24286","198432","4591","137326","Lexical Decision Task","54","50762","60","yes","1024"
"2.782472624","10.55","2","huge","word","90.1639344262295","90.1639344262295","840.3770491803278","840.3770491803278","black","no","legacy","legacy","legacy","0","uniform","1","undefined","undefined","undefined","1","j","0","0","0","0","60","0","0","0","60","0","56","60","56","0","56","3","60","0","60","Wed Feb 24 16:39:53 2021","The main experiment item","yes","Lexical_Decision_Task.osexp","/Users/lucieiredale/Desktop","no","Andale Mono","no","18","no","white","no","yes","576","legacy","56","56","3","/Users/lucieiredale/Desktop/subject-5212092.csv","legacy","Lentiform Loewenfeld","3.3.7","yes","yes","600bd7cfb6416f0113b04181","602110864497cf011d9c0822","0","j","NA","space","space","space","space","j","501","NA","20327","9032","3593","39699","501","2","legacy","1024","2","48000","-16","task","5212092","even","NA","26197","48530","28202","200640","4600","17241","13645","201144","149307","200638","201145","200577","48530","201647","24286","200077","4591","137326","Lexical Decision Task","55","51263","61","yes","1024"
"2.675164031","8.57","6","glue","word","90.3225806451613","90.3225806451613","836.5","836.5","black","no","legacy","legacy","legacy","0","uniform","1","undefined","undefined","undefined","1","j","0","0","0","0","61","0","0","0","61","0","57","61","57","0","57","3","61","0","61","Wed Feb 24 16:39:53 2021","The main experiment item","yes","Lexical_Decision_Task.osexp","/Users/lucieiredale/Desktop","no","Andale Mono","no","18","no","white","no","yes","576","legacy","57","57","3","/Users/lucieiredale/Desktop/subject-5212092.csv","legacy","Lentiform Loewenfeld","3.3.7","yes","yes","600bd7cfb6416f0113b04181","602110864497cf011d9c0822","0","j","NA","space","space","space","space","j","600","NA","20327","9032","3593","39699","600","2","legacy","1024","2","48000","-16","task","5212092","even","NA","26197","48530","28202","202213","4600","17241","13645","202717","149307","202211","202717","202150","48530","203318","24286","201650","4591","137326","Lexical Decision Task","56","51863","62","yes","1024"
"3.131833513","7.66","4","limb","word","90.47619047619048","90.47619047619048","833.2063492063492","833.2063492063492","black","no","legacy","legacy","legacy","0","uniform","1","undefined","undefined","undefined","1","j","0","0","0","0","62","0","0","0","62","0","58","62","58","0","58","3","62","0","62","Wed Feb 24 16:39:53 2021","The main experiment item","yes","Lexical_Decision_Task.osexp","/Users/lucieiredale/Desktop","no","Andale Mono","no","18","no","white","no","yes","576","legacy","58","58","3","/Users/lucieiredale/Desktop/subject-5212092.csv","legacy","Lentiform Loewenfeld","3.3.7","yes","yes","600bd7cfb6416f0113b04181","602110864497cf011d9c0822","0","j","NA","space","space","space","space","j","629","NA","20327","9032","3593","39699","629","2","legacy","1024","2","48000","-16","task","5212092","even","NA","26197","48530","28202","203885","4600","17241","13645","204388","149307","203882","204389","203821","48530","205019","24286","203321","4591","137326","Lexical Decision Task","57","52492","63","yes","1024"
"3.495914186","0","4","peng","non-word","89.0625","89.0625","829.40625","829.40625","black","no","legacy","legacy","legacy","0","uniform","0","undefined","undefined","undefined","0","f","0","0","0","0","63","0","0","0","63","0","59","63","59","0","59","3","63","0","63","Wed Feb 24 16:39:53 2021","The main experiment item","yes","Lexical_Decision_Task.osexp","/Users/lucieiredale/Desktop","no","Andale Mono","no","18","no","white","no","yes","576","legacy","59","59","3","/Users/lucieiredale/Desktop/subject-5212092.csv","legacy","Lentiform Loewenfeld","3.3.7","yes","yes","600bd7cfb6416f0113b04181","602110864497cf011d9c0822","0","j","NA","space","space","space","space","j","590","NA","20327","9032","3593","39699","590","2","legacy","1024","2","48000","-16","task","5212092","even","NA","26197","48530","28202","205587","4600","17241","13645","206091","149307","205584","206092","205522","48530","206683","24286","205022","4591","137326","Lexical Decision Task","57","53082","64","yes","1024"
"3.311895072","0","9","gung","non-word","89.23076923076923","89.23076923076923","826.2461538461539","826.2461538461539","black","no","legacy","legacy","legacy","0","uniform","1","undefined","undefined","undefined","1","f","0","0","0","0","64","0","0","0","64","0","60","64","60","0","60","3","64","0","64","Wed Feb 24 16:39:53 2021","The main experiment item","yes","Lexical_Decision_Task.osexp","/Users/lucieiredale/Desktop","no","Andale Mono","no","18","no","white","no","yes","576","legacy","60","60","3","/Users/lucieiredale/Desktop/subject-5212092.csv","legacy","Lentiform Loewenfeld","3.3.7","yes","yes","600bd7cfb6416f0113b04181","602110864497cf011d9c0822","0","f","NA","space","space","space","space","f","624","NA","20327","9032","3593","39699","624","2","legacy","1024","2","48000","-16","task","5212092","even","NA","26197","48530","28202","208254","4600","17241","13645","208757","149307","208251","208758","208187","48530","209383","24286","205022","4591","206687","Lexical Decision Task","58","53706","65","yes","1024"
"3.218535505","7.85","7","goat","word","89.39393939393939","89.39393939393939","821.6363636363636","821.6363636363636","black","no","legacy","legacy","legacy","0","uniform","1","undefined","undefined","undefined","1","j","0","0","0","0","65","0","0","0","65","0","61","65","61","0","61","3","65","0","65","Wed Feb 24 16:39:53 2021","The main experiment item","yes","Lexical_Decision_Task.osexp","/Users/lucieiredale/Desktop","no","Andale Mono","no","18","no","white","no","yes","576","legacy","61","61","3","/Users/lucieiredale/Desktop/subject-5212092.csv","legacy","Lentiform Loewenfeld","3.3.7","yes","yes","600bd7cfb6416f0113b04181","602110864497cf011d9c0822","0","j","NA","space","space","space","space","j","522","NA","20327","9032","3593","39699","522","2","legacy","1024","2","48000","-16","task","5212092","even","NA","26197","48530","28202","209951","4600","17241","13645","210455","149307","209948","210455","209887","48530","210978","24286","209387","4591","206687","Lexical Decision Task","59","54228","66","yes","1024"
"2.80048796","0","8","pife","non-word","89.55223880597015","89.55223880597015","817.8059701492538","817.8059701492538","black","no","legacy","legacy","legacy","0","uniform","1","undefined","undefined","undefined","1","f","0","0","0","0","66","0","0","0","66","0","62","66","62","0","62","3","66","0","66","Wed Feb 24 16:39:53 2021","The main experiment item","yes","Lexical_Decision_Task.osexp","/Users/lucieiredale/Desktop","no","Andale Mono","no","18","no","white","no","yes","576","legacy","62","62","3","/Users/lucieiredale/Desktop/subject-5212092.csv","legacy","Lentiform Loewenfeld","3.3.7","yes","yes","600bd7cfb6416f0113b04181","602110864497cf011d9c0822","0","f","NA","space","space","space","space","f","565","NA","20327","9032","3593","39699","565","2","legacy","1024","2","48000","-16","task","5212092","even","NA","26197","48530","28202","211545","4600","17241","13645","212048","149307","211542","212049","211481","48530","212615","24286","210981","4591","206687","Lexical Decision Task","60","54793","67","yes","1024"
"3.382617311","0","4","pret","non-word","89.70588235294117","89.70588235294117","815.0294117647059","815.0294117647059","black","no","legacy","legacy","legacy","0","uniform","1","undefined","undefined","undefined","1","f","0","0","0","0","67","0","0","0","67","0","63","67","63","0","63","3","67","0","67","Wed Feb 24 16:39:53 2021","The main experiment item","yes","Lexical_Decision_Task.osexp","/Users/lucieiredale/Desktop","no","Andale Mono","no","18","no","white","no","yes","576","legacy","63","63","3","/Users/lucieiredale/Desktop/subject-5212092.csv","legacy","Lentiform Loewenfeld","3.3.7","yes","yes","600bd7cfb6416f0113b04181","602110864497cf011d9c0822","0","f","NA","space","space","space","space","f","629","NA","20327","9032","3593","39699","629","2","legacy","1024","2","48000","-16","task","5212092","even","NA","26197","48530","28202","213182","4600","17241","13645","213685","149307","213179","213686","213118","48530","214316","24286","212618","4591","206687","Lexical Decision Task","61","55422","68","yes","1024"
"2.86332286","6.71","2","feud","word","89.85507246376811","89.85507246376811","814.4782608695652","814.4782608695652","black","no","legacy","legacy","legacy","0","uniform","1","undefined","undefined","undefined","1","j","0","0","0","0","68","0","0","0","68","0","64","68","64","0","64","3","68","0","68","Wed Feb 24 16:39:53 2021","The main experiment item","yes","Lexical_Decision_Task.osexp","/Users/lucieiredale/Desktop","no","Andale Mono","no","18","no","white","no","yes","576","legacy","64","64","3","/Users/lucieiredale/Desktop/subject-5212092.csv","legacy","Lentiform Loewenfeld","3.3.7","yes","yes","600bd7cfb6416f0113b04181","602110864497cf011d9c0822","0","j","NA","space","space","space","space","j","777","NA","20327","9032","3593","39699","777","2","legacy","1024","2","48000","-16","task","5212092","even","NA","26197","48530","28202","214883","4600","17241","13645","215386","149307","214880","215387","214819","48530","216165","24286","214319","4591","206687","Lexical Decision Task","62","56199","69","yes","1024"
"3.274543461","7.46","7","scar","word","90","90","811.4285714285714","811.4285714285714","black","no","legacy","legacy","legacy","0","uniform","1","undefined","undefined","undefined","1","j","0","0","0","0","69","0","0","0","69","0","65","69","65","0","65","3","69","0","69","Wed Feb 24 16:39:53 2021","The main experiment item","yes","Lexical_Decision_Task.osexp","/Users/lucieiredale/Desktop","no","Andale Mono","no","18","no","white","no","yes","576","legacy","65","65","3","/Users/lucieiredale/Desktop/subject-5212092.csv","legacy","Lentiform Loewenfeld","3.3.7","yes","yes","600bd7cfb6416f0113b04181","602110864497cf011d9c0822","0","j","NA","space","space","space","space","j","601","NA","20327","9032","3593","39699","601","2","legacy","1024","2","48000","-16","task","5212092","even","NA","26197","48530","28202","216732","4600","17241","13645","217235","149307","216729","217236","216668","48530","217838","24286","216168","4591","206687","Lexical Decision Task","63","56800","70","yes","1024"
"3.168400243","9.12","6","horn","word","90.14084507042253","90.14084507042253","809.4929577464789","809.4929577464789","black","no","legacy","legacy","legacy","0","uniform","1","undefined","undefined","undefined","1","j","0","0","0","0","70","0","0","0","70","0","66","70","66","0","66","3","70","0","70","Wed Feb 24 16:39:53 2021","The main experiment item","yes","Lexical_Decision_Task.osexp","/Users/lucieiredale/Desktop","no","Andale Mono","no","18","no","white","no","yes","576","legacy","66","66","3","/Users/lucieiredale/Desktop/subject-5212092.csv","legacy","Lentiform Loewenfeld","3.3.7","yes","yes","600bd7cfb6416f0113b04181","602110864497cf011d9c0822","0","j","NA","space","space","space","space","j","674","NA","20327","9032","3593","39699","674","2","legacy","1024","2","48000","-16","task","5212092","even","NA","26197","48530","28202","218404","4600","17241","13645","218908","149307","218401","218908","218341","48530","219583","24286","217841","4591","206687","Lexical Decision Task","64","57474","71","yes","1024"
"2.713490543","0","3","feps","non-word","90.27777777777777","90.27777777777777","806.0694444444445","806.0694444444445","black","no","legacy","legacy","legacy","0","uniform","1","undefined","undefined","undefined","1","f","0","0","0","0","71","0","0","0","71","0","67","71","67","0","67","3","71","0","71","Wed Feb 24 16:39:53 2021","The main experiment item","yes","Lexical_Decision_Task.osexp","/Users/lucieiredale/Desktop","no","Andale Mono","no","18","no","white","no","yes","576","legacy","67","67","3","/Users/lucieiredale/Desktop/subject-5212092.csv","legacy","Lentiform Loewenfeld","3.3.7","yes","yes","600bd7cfb6416f0113b04181","602110864497cf011d9c0822","0","f","NA","space","space","space","space","f","563","NA","20327","9032","3593","39699","563","2","legacy","1024","2","48000","-16","task","5212092","even","NA","26197","48530","28202","220150","4600","17241","13645","220653","149307","220147","220653","220086","48530","221217","24286","219586","4591","206687","Lexical Decision Task","65","58037","72","yes","1024"
"2.616654026","9.37","5","gift","word","89.04109589041096","89.04109589041096","808.4109589041096","808.4109589041096","black","no","legacy","legacy","legacy","0","uniform","0","undefined","undefined","undefined","0","j","0","0","0","0","72","0","0","0","72","0","68","72","68","0","68","3","72","0","72","Wed Feb 24 16:39:53 2021","The main experiment item","yes","Lexical_Decision_Task.osexp","/Users/lucieiredale/Desktop","no","Andale Mono","no","18","no","white","no","yes","576","legacy","68","68","3","/Users/lucieiredale/Desktop/subject-5212092.csv","legacy","Lentiform Loewenfeld","3.3.7","yes","yes","600bd7cfb6416f0113b04181","602110864497cf011d9c0822","0","f","NA","space","space","space","space","f","977","NA","20327","9032","3593","39699","977","2","legacy","1024","2","48000","-16","task","5212092","even","NA","26197","48530","28202","221784","4600","17241","13645","222287","149307","221781","222288","221720","48530","223266","24286","221220","4591","206687","Lexical Decision Task","65","59014","73","yes","1024"
"2.706148589","0","4","hube","non-word","89.1891891891892","89.1891891891892","806.0540540540541","806.0540540540541","black","no","legacy","legacy","legacy","0","uniform","1","undefined","undefined","undefined","1","f","0","0","0","0","73","0","0","0","73","0","69","73","69","0","69","3","73","0","73","Wed Feb 24 16:39:53 2021","The main experiment item","yes","Lexical_Decision_Task.osexp","/Users/lucieiredale/Desktop","no","Andale Mono","no","18","no","white","no","yes","576","legacy","69","69","3","/Users/lucieiredale/Desktop/subject-5212092.csv","legacy","Lentiform Loewenfeld","3.3.7","yes","yes","600bd7cfb6416f0113b04181","602110864497cf011d9c0822","0","f","NA","space","space","space","space","f","634","NA","20327","9032","3593","39699","634","2","legacy","1024","2","48000","-16","task","5212092","even","NA","26197","48530","28202","224836","4600","17241","13645","225339","149307","224832","225340","224769","48530","225975","24286","221220","4591","223269","Lexical Decision Task","66","59648","74","yes","1024"
"3.252447662","9.67","9","boat","word","89.33333333333333","89.33333333333333","805.0933333333334","805.0933333333334","black","no","legacy","legacy","legacy","0","uniform","1","undefined","undefined","undefined","1","j","0","0","0","0","74","0","0","0","74","0","70","74","70","0","70","3","74","0","74","Wed Feb 24 16:39:53 2021","The main experiment item","yes","Lexical_Decision_Task.osexp","/Users/lucieiredale/Desktop","no","Andale Mono","no","18","no","white","no","yes","576","legacy","70","70","3","/Users/lucieiredale/Desktop/subject-5212092.csv","legacy","Lentiform Loewenfeld","3.3.7","yes","yes","600bd7cfb6416f0113b04181","602110864497cf011d9c0822","0","j","NA","space","space","space","space","j","734","NA","20327","9032","3593","39699","734","2","legacy","1024","2","48000","-16","task","5212092","even","NA","26197","48530","28202","226541","4600","17241","13645","227044","149307","226538","227045","226478","48530","227780","24286","225978","4591","223269","Lexical Decision Task","67","60382","75","yes","1024"
"2.719886232","7.98","2","quiz","word","89.47368421052632","89.47368421052632","802.078947368421","802.078947368421","black","no","legacy","legacy","legacy","0","uniform","1","undefined","undefined","undefined","1","j","0","0","0","0","75","0","0","0","75","0","71","75","71","0","71","3","75","0","75","Wed Feb 24 16:39:53 2021","The main experiment item","yes","Lexical_Decision_Task.osexp","/Users/lucieiredale/Desktop","no","Andale Mono","no","18","no","white","no","yes","576","legacy","71","71","3","/Users/lucieiredale/Desktop/subject-5212092.csv","legacy","Lentiform Loewenfeld","3.3.7","yes","yes","600bd7cfb6416f0113b04181","602110864497cf011d9c0822","0","j","NA","space","space","space","space","j","576","NA","20327","9032","3593","39699","576","2","legacy","1024","2","48000","-16","task","5212092","even","NA","26197","48530","28202","228346","4600","17241","13645","228850","149307","228343","228850","228283","48530","229426","24286","227783","4591","223269","Lexical Decision Task","68","60958","76","yes","1024"
"3.049218023","7.4","9","robe","word","89.6103896103896","89.6103896103896","799.8051948051948","799.8051948051948","black","no","legacy","legacy","legacy","0","uniform","1","undefined","undefined","undefined","1","j","0","0","0","0","76","0","0","0","76","0","72","76","72","0","72","3","76","0","76","Wed Feb 24 16:39:53 2021","The main experiment item","yes","Lexical_Decision_Task.osexp","/Users/lucieiredale/Desktop","no","Andale Mono","no","18","no","white","no","yes","576","legacy","72","72","3","/Users/lucieiredale/Desktop/subject-5212092.csv","legacy","Lentiform Loewenfeld","3.3.7","yes","yes","600bd7cfb6416f0113b04181","602110864497cf011d9c0822","0","j","NA","space","space","space","space","j","627","NA","20327","9032","3593","39699","627","2","legacy","1024","2","48000","-16","task","5212092","even","NA","26197","48530","28202","229993","4600","17241","13645","230497","149307","229991","230497","229930","48530","231124","24286","229430","4591","223269","Lexical Decision Task","69","61585","77","yes","1024"
"3.276537627","9.15","5","trap","word","89.74358974358974","89.74358974358974","797","797","black","no","legacy","legacy","legacy","0","uniform","1","undefined","undefined","undefined","1","j","0","0","0","0","77","0","0","0","77","0","73","77","73","0","73","3","77","0","77","Wed Feb 24 16:39:53 2021","The main experiment item","yes","Lexical_Decision_Task.osexp","/Users/lucieiredale/Desktop","no","Andale Mono","no","18","no","white","no","yes","576","legacy","73","73","3","/Users/lucieiredale/Desktop/subject-5212092.csv","legacy","Lentiform Loewenfeld","3.3.7","yes","yes","600bd7cfb6416f0113b04181","602110864497cf011d9c0822","0","j","NA","space","space","space","space","j","581","NA","20327","9032","3593","39699","581","2","legacy","1024","2","48000","-16","task","5212092","even","NA","26197","48530","28202","231692","4600","17241","13645","232196","149307","231690","232197","231628","48530","232779","24286","231128","4591","223269","Lexical Decision Task","70","62166","78","yes","1024"
"2.980306438","0","7","slun","non-word","88.60759493670886","88.60759493670886","796.4303797468355","796.4303797468355","black","no","legacy","legacy","legacy","0","uniform","0","undefined","undefined","undefined","0","f","0","0","0","0","78","0","0","0","78","0","74","78","74","0","74","3","78","0","78","Wed Feb 24 16:39:53 2021","The main experiment item","yes","Lexical_Decision_Task.osexp","/Users/lucieiredale/Desktop","no","Andale Mono","no","18","no","white","no","yes","576","legacy","74","74","3","/Users/lucieiredale/Desktop/subject-5212092.csv","legacy","Lentiform Loewenfeld","3.3.7","yes","yes","600bd7cfb6416f0113b04181","602110864497cf011d9c0822","0","j","NA","space","space","space","space","j","752","NA","20327","9032","3593","39699","752","2","legacy","1024","2","48000","-16","task","5212092","even","NA","26197","48530","28202","233346","4600","17241","13645","233850","149307","233343","233850","233282","48530","234603","24286","232782","4591","223269","Lexical Decision Task","70","62918","79","yes","1024"
"2.7084209","0","8","vump","non-word","88.75","88.75","793.9625","793.9625","black","no","legacy","legacy","legacy","0","uniform","1","undefined","undefined","undefined","1","f","0","0","0","0","79","0","0","0","79","0","75","79","75","0","75","3","79","0","79","Wed Feb 24 16:39:53 2021","The main experiment item","yes","Lexical_Decision_Task.osexp","/Users/lucieiredale/Desktop","no","Andale Mono","no","18","no","white","no","yes","576","legacy","75","75","3","/Users/lucieiredale/Desktop/subject-5212092.csv","legacy","Lentiform Loewenfeld","3.3.7","yes","yes","600bd7cfb6416f0113b04181","602110864497cf011d9c0822","0","f","NA","space","space","space","space","f","599","NA","20327","9032","3593","39699","599","2","legacy","1024","2","48000","-16","task","5212092","even","NA","26197","48530","28202","236174","4600","17241","13645","236677","149307","236171","236678","236107","48530","237278","24286","232782","4591","234607","Lexical Decision Task","71","63517","80","yes","1024"
"2.839268497","0","8","maft","non-word","88.88888888888889","88.88888888888889","794.7654320987655","794.7654320987655","black","no","legacy","legacy","legacy","0","uniform","1","undefined","undefined","undefined","1","f","0","0","0","0","80","0","0","0","80","0","76","80","76","0","76","3","80","0","80","Wed Feb 24 16:39:53 2021","The main experiment item","yes","Lexical_Decision_Task.osexp","/Users/lucieiredale/Desktop","no","Andale Mono","no","18","no","white","no","yes","576","legacy","76","76","3","/Users/lucieiredale/Desktop/subject-5212092.csv","legacy","Lentiform Loewenfeld","3.3.7","yes","yes","600bd7cfb6416f0113b04181","602110864497cf011d9c0822","0","f","NA","space","space","space","space","f","859","NA","20327","9032","3593","39699","859","2","legacy","1024","2","48000","-16","task","5212092","even","NA","26197","48530","28202","237845","4600","17241","13645","238349","149307","237842","238349","237782","48530","239209","24286","237282","4591","234607","Lexical Decision Task","72","64376","81","yes","1024"
"2.838639236","0","4","furg","non-word","89.02439024390245","89.02439024390245","792.560975609756","792.560975609756","black","no","legacy","legacy","legacy","0","uniform","1","undefined","undefined","undefined","1","f","0","0","0","0","81","0","0","0","81","0","77","81","77","0","77","3","81","0","81","Wed Feb 24 16:39:53 2021","The main experiment item","yes","Lexical_Decision_Task.osexp","/Users/lucieiredale/Desktop","no","Andale Mono","no","18","no","white","no","yes","576","legacy","77","77","3","/Users/lucieiredale/Desktop/subject-5212092.csv","legacy","Lentiform Loewenfeld","3.3.7","yes","yes","600bd7cfb6416f0113b04181","602110864497cf011d9c0822","0","f","NA","space","space","space","space","f","614","NA","20327","9032","3593","39699","614","2","legacy","1024","2","48000","-16","task","5212092","even","NA","26197","48530","28202","239777","4600","17241","13645","240280","149307","239774","240281","239713","48530","240896","24286","239213","4591","234607","Lexical Decision Task","73","64990","82","yes","1024"
"3.137775856","7.39","5","comb","word","89.1566265060241","89.1566265060241","788.9156626506024","788.9156626506024","black","no","legacy","legacy","legacy","0","uniform","1","undefined","undefined","undefined","1","j","0","0","0","0","82","0","0","0","82","0","78","82","78","0","78","3","82","0","82","Wed Feb 24 16:39:53 2021","The main experiment item","yes","Lexical_Decision_Task.osexp","/Users/lucieiredale/Desktop","no","Andale Mono","no","18","no","white","no","yes","576","legacy","78","78","3","/Users/lucieiredale/Desktop/subject-5212092.csv","legacy","Lentiform Loewenfeld","3.3.7","yes","yes","600bd7cfb6416f0113b04181","602110864497cf011d9c0822","0","j","NA","space","space","space","space","j","490","NA","20327","9032","3593","39699","490","2","legacy","1024","2","48000","-16","task","5212092","even","NA","26197","48530","28202","241463","4600","17241","13645","241966","149307","241460","241967","241400","48530","242458","24286","240900","4591","234607","Lexical Decision Task","74","65480","83","yes","1024"
"3.145920145","8.51","8","flew","word","89.28571428571429","89.28571428571429","788.9880952380952","788.9880952380952","black","no","legacy","legacy","legacy","0","uniform","1","undefined","undefined","undefined","1","j","0","0","0","0","83","0","0","0","83","0","79","83","79","0","79","3","83","0","83","Wed Feb 24 16:39:53 2021","The main experiment item","yes","Lexical_Decision_Task.osexp","/Users/lucieiredale/Desktop","no","Andale Mono","no","18","no","white","no","yes","576","legacy","79","79","3","/Users/lucieiredale/Desktop/subject-5212092.csv","legacy","Lentiform Loewenfeld","3.3.7","yes","yes","600bd7cfb6416f0113b04181","602110864497cf011d9c0822","0","j","NA","space","space","space","space","j","795","NA","20327","9032","3593","39699","795","2","legacy","1024","2","48000","-16","task","5212092","even","NA","26197","48530","28202","243025","4600","17241","13645","243528","149307","243022","243529","242962","48530","244325","24286","242462","4591","234607","Lexical Decision Task","75","66275","84","yes","1024"
"3.064581521","5.51","6","cask","word","88.23529411764706","88.23529411764706","787.5529411764705","787.5529411764705","black","no","legacy","legacy","legacy","0","uniform","0","undefined","undefined","undefined","0","j","0","0","0","0","84","0","0","0","84","0","80","84","80","0","80","3","84","0","84","Wed Feb 24 16:39:53 2021","The main experiment item","yes","Lexical_Decision_Task.osexp","/Users/lucieiredale/Desktop","no","Andale Mono","no","18","no","white","no","yes","576","legacy","80","80","3","/Users/lucieiredale/Desktop/subject-5212092.csv","legacy","Lentiform Loewenfeld","3.3.7","yes","yes","600bd7cfb6416f0113b04181","602110864497cf011d9c0822","0","f","NA","space","space","space","space","f","667","NA","20327","9032","3593","39699","667","2","legacy","1024","2","48000","-16","task","5212092","even","NA","26197","48530","28202","244893","4600","17241","13645","245396","149307","244890","245397","244829","48530","246065","24286","244329","4591","234607","Lexical Decision Task","75","66942","85","yes","1024"
"2.95456409","0","4","taud","non-word","88.37209302325581","88.37209302325581","789.9767441860465","789.9767441860465","black","no","legacy","legacy","legacy","0","uniform","1","undefined","undefined","undefined","1","f","0","0","0","0","85","0","0","0","85","0","81","85","81","0","81","3","85","0","85","Wed Feb 24 16:39:53 2021","The main experiment item","yes","Lexical_Decision_Task.osexp","/Users/lucieiredale/Desktop","no","Andale Mono","no","18","no","white","no","yes","576","legacy","81","81","3","/Users/lucieiredale/Desktop/subject-5212092.csv","legacy","Lentiform Loewenfeld","3.3.7","yes","yes","600bd7cfb6416f0113b04181","602110864497cf011d9c0822","0","f","NA","space","space","space","space","f","996","NA","20327","9032","3593","39699","996","2","legacy","1024","2","48000","-16","task","5212092","even","NA","26197","48530","28202","247635","4600","17241","13645","248139","149307","247632","248140","247568","48530","249137","24286","244329","4591","246068","Lexical Decision Task","76","67938","86","yes","1024"
"2.668385917","5.48","4","twig","word","88.50574712643679","88.50574712643679","790.7931034482758","790.7931034482758","black","no","legacy","legacy","legacy","0","uniform","1","undefined","undefined","undefined","1","j","0","0","0","0","86","0","0","0","86","0","82","86","82","0","82","3","86","0","86","Wed Feb 24 16:39:53 2021","The main experiment item","yes","Lexical_Decision_Task.osexp","/Users/lucieiredale/Desktop","no","Andale Mono","no","18","no","white","no","yes","576","legacy","82","82","3","/Users/lucieiredale/Desktop/subject-5212092.csv","legacy","Lentiform Loewenfeld","3.3.7","yes","yes","600bd7cfb6416f0113b04181","602110864497cf011d9c0822","0","j","NA","space","space","space","space","j","861","NA","20327","9032","3593","39699","861","2","legacy","1024","2","48000","-16","task","5212092","even","NA","26197","48530","28202","249705","4600","17241","13645","250208","149307","249702","250209","249641","48530","251071","24286","249141","4591","246068","Lexical Decision Task","77","68799","87","yes","1024"
"2.771097306","0","9","jold","non-word","88.63636363636364","88.63636363636364","791.75","791.75","black","no","legacy","legacy","legacy","0","uniform","1","undefined","undefined","undefined","1","f","0","0","0","0","87","0","0","0","87","0","83","87","83","0","83","3","87","0","87","Wed Feb 24 16:39:53 2021","The main experiment item","yes","Lexical_Decision_Task.osexp","/Users/lucieiredale/Desktop","no","Andale Mono","no","18","no","white","no","yes","576","legacy","83","83","3","/Users/lucieiredale/Desktop/subject-5212092.csv","legacy","Lentiform Loewenfeld","3.3.7","yes","yes","600bd7cfb6416f0113b04181","602110864497cf011d9c0822","0","f","NA","space","space","space","space","f","875","NA","20327","9032","3593","39699","875","2","legacy","1024","2","48000","-16","task","5212092","even","NA","26197","48530","28202","251638","4600","17241","13645","252141","149307","251635","252142","251574","48530","253018","24286","251074","4591","246068","Lexical Decision Task","78","69674","88","yes","1024"
"2.845304797","0","6","buct","non-word","88.76404494382022","88.76404494382022","790.314606741573","790.314606741573","black","no","legacy","legacy","legacy","0","uniform","1","undefined","undefined","undefined","1","f","0","0","0","0","88","0","0","0","88","0","84","88","84","0","84","3","88","0","88","Wed Feb 24 16:39:53 2021","The main experiment item","yes","Lexical_Decision_Task.osexp","/Users/lucieiredale/Desktop","no","Andale Mono","no","18","no","white","no","yes","576","legacy","84","84","3","/Users/lucieiredale/Desktop/subject-5212092.csv","legacy","Lentiform Loewenfeld","3.3.7","yes","yes","600bd7cfb6416f0113b04181","602110864497cf011d9c0822","0","f","NA","space","space","space","space","f","664","NA","20327","9032","3593","39699","664","2","legacy","1024","2","48000","-16","task","5212092","even","NA","26197","48530","28202","253584","4600","17241","13645","254088","149307","253581","254089","253521","48530","254754","24286","253021","4591","246068","Lexical Decision Task","79","70338","89","yes","1024"
"2.981215883","10.66","5","hair","word","88.88888888888889","88.88888888888889","788.4111111111112","788.4111111111112","black","no","legacy","legacy","legacy","0","uniform","1","undefined","undefined","undefined","1","j","0","0","0","0","89","0","0","0","89","0","85","89","85","0","85","3","89","0","89","Wed Feb 24 16:39:53 2021","The main experiment item","yes","Lexical_Decision_Task.osexp","/Users/lucieiredale/Desktop","no","Andale Mono","no","18","no","white","no","yes","576","legacy","85","85","3","/Users/lucieiredale/Desktop/subject-5212092.csv","legacy","Lentiform Loewenfeld","3.3.7","yes","yes","600bd7cfb6416f0113b04181","602110864497cf011d9c0822","0","j","NA","space","space","space","space","j","619","NA","20327","9032","3593","39699","619","2","legacy","1024","2","48000","-16","task","5212092","even","NA","26197","48530","28202","255321","4600","17241","13645","255824","149307","255318","255825","255257","48530","256445","24286","254757","4591","246068","Lexical Decision Task","80","70957","90","yes","1024"
"3.22685757","9.99","7","roll","word","89.01098901098901","89.01098901098901","786.2197802197802","786.2197802197802","black","no","legacy","legacy","legacy","0","uniform","1","undefined","undefined","undefined","1","j","0","0","0","0","90","0","0","0","90","0","86","90","86","0","86","3","90","0","90","Wed Feb 24 16:39:53 2021","The main experiment item","yes","Lexical_Decision_Task.osexp","/Users/lucieiredale/Desktop","no","Andale Mono","no","18","no","white","no","yes","576","legacy","86","86","3","/Users/lucieiredale/Desktop/subject-5212092.csv","legacy","Lentiform Loewenfeld","3.3.7","yes","yes","600bd7cfb6416f0113b04181","602110864497cf011d9c0822","0","j","NA","space","space","space","space","j","589","NA","20327","9032","3593","39699","589","2","legacy","1024","2","48000","-16","task","5212092","even","NA","26197","48530","28202","257011","4600","17241","13645","257514","149307","257008","257515","256948","48530","258105","24286","256448","4591","246068","Lexical Decision Task","81","71546","91","yes","1024"
"3.031408464","0","7","drow","non-word","89.1304347826087","89.1304347826087","783.4673913043479","783.4673913043479","black","no","legacy","legacy","legacy","0","uniform","1","undefined","undefined","undefined","1","f","0","0","0","0","91","0","0","0","91","0","87","91","87","0","87","3","91","0","91","Wed Feb 24 16:39:53 2021","The main experiment item","yes","Lexical_Decision_Task.osexp","/Users/lucieiredale/Desktop","no","Andale Mono","no","18","no","white","no","yes","576","legacy","87","87","3","/Users/lucieiredale/Desktop/subject-5212092.csv","legacy","Lentiform Loewenfeld","3.3.7","yes","yes","600bd7cfb6416f0113b04181","602110864497cf011d9c0822","0","f","NA","space","space","space","space","f","533","NA","20327","9032","3593","39699","533","2","legacy","1024","2","48000","-16","task","5212092","even","NA","26197","48530","28202","258671","4600","17241","13645","259174","149307","258668","259175","258608","48530","259709","24286","258108","4591","246068","Lexical Decision Task","82","72079","92","yes","1024"
"2.897810299","0","5","glur","non-word","89.24731182795699","89.24731182795699","782.0537634408602","782.0537634408602","black","no","legacy","legacy","legacy","0","uniform","1","undefined","undefined","undefined","1","f","0","0","0","0","92","0","0","0","92","0","88","92","88","0","88","3","92","0","92","Wed Feb 24 16:39:53 2021","The main experiment item","yes","Lexical_Decision_Task.osexp","/Users/lucieiredale/Desktop","no","Andale Mono","no","18","no","white","no","yes","576","legacy","88","88","3","/Users/lucieiredale/Desktop/subject-5212092.csv","legacy","Lentiform Loewenfeld","3.3.7","yes","yes","600bd7cfb6416f0113b04181","602110864497cf011d9c0822","0","f","NA","space","space","space","space","f","652","NA","20327","9032","3593","39699","652","2","legacy","1024","2","48000","-16","task","5212092","even","NA","26197","48530","28202","260275","4600","17241","13645","260779","149307","260273","260779","260212","48530","261432","24286","259712","4591","246068","Lexical Decision Task","83","72731","93","yes","1024"
"3.16326079","0","5","parg","non-word","89.36170212765957","89.36170212765957","780.2553191489362","780.2553191489362","black","no","legacy","legacy","legacy","0","uniform","1","undefined","undefined","undefined","1","f","0","0","0","0","93","0","0","0","93","0","89","93","89","0","89","3","93","0","93","Wed Feb 24 16:39:53 2021","The main experiment item","yes","Lexical_Decision_Task.osexp","/Users/lucieiredale/Desktop","no","Andale Mono","no","18","no","white","no","yes","576","legacy","89","89","3","/Users/lucieiredale/Desktop/subject-5212092.csv","legacy","Lentiform Loewenfeld","3.3.7","yes","yes","600bd7cfb6416f0113b04181","602110864497cf011d9c0822","0","f","NA","space","space","space","space","f","613","NA","20327","9032","3593","39699","613","2","legacy","1024","2","48000","-16","task","5212092","even","NA","26197","48530","28202","261999","4600","17241","13645","262502","149307","261996","262503","261935","48530","263117","24286","261435","4591","246068","Lexical Decision Task","84","73344","94","yes","1024"
"3.195807436","0","6","stup","non-word","89.47368421052632","89.47368421052632","782.2631578947369","782.2631578947369","black","no","legacy","legacy","legacy","0","uniform","1","undefined","undefined","undefined","1","f","0","0","0","0","94","0","0","0","94","0","90","94","90","0","90","3","94","0","94","Wed Feb 24 16:39:53 2021","The main experiment item","yes","Lexical_Decision_Task.osexp","/Users/lucieiredale/Desktop","no","Andale Mono","no","18","no","white","no","yes","576","legacy","90","90","3","/Users/lucieiredale/Desktop/subject-5212092.csv","legacy","Lentiform Loewenfeld","3.3.7","yes","yes","600bd7cfb6416f0113b04181","602110864497cf011d9c0822","0","f","NA","space","space","space","space","f","971","NA","20327","9032","3593","39699","971","2","legacy","1024","2","48000","-16","task","5212092","even","NA","26197","48530","28202","263684","4600","17241","13645","264187","149307","263681","264188","263620","48530","265160","24286","263120","4591","246068","Lexical Decision Task","85","74315","95","yes","1024"
"2.812467698","0","7","hafe","non-word","89.58333333333333","89.58333333333333","781.9479166666666","781.9479166666666","black","no","legacy","legacy","legacy","0","uniform","1","undefined","undefined","undefined","1","f","0","0","0","0","95","0","0","0","95","0","91","95","91","0","91","3","95","0","95","Wed Feb 24 16:39:53 2021","The main experiment item","yes","Lexical_Decision_Task.osexp","/Users/lucieiredale/Desktop","no","Andale Mono","no","18","no","white","no","yes","576","legacy","91","91","3","/Users/lucieiredale/Desktop/subject-5212092.csv","legacy","Lentiform Loewenfeld","3.3.7","yes","yes","600bd7cfb6416f0113b04181","602110864497cf011d9c0822","0","f","NA","space","space","space","space","f","752","NA","20327","9032","3593","39699","752","2","legacy","1024","2","48000","-16","task","5212092","even","NA","26197","48530","28202","265726","4600","17241","13645","266229","149307","265723","266230","265663","48530","266983","24286","265163","4591","246068","Lexical Decision Task","86","75067","96","yes","1024"
"2.920123326","7.43","4","duel","word","89.69072164948453","89.69072164948453","780.9690721649484","780.9690721649484","black","no","legacy","legacy","legacy","0","uniform","1","undefined","undefined","undefined","1","j","0","0","0","0","96","0","0","0","96","0","92","96","92","0","92","3","96","0","96","Wed Feb 24 16:39:53 2021","The main experiment item","yes","Lexical_Decision_Task.osexp","/Users/lucieiredale/Desktop","no","Andale Mono","no","18","no","white","no","yes","576","legacy","92","92","3","/Users/lucieiredale/Desktop/subject-5212092.csv","legacy","Lentiform Loewenfeld","3.3.7","yes","yes","600bd7cfb6416f0113b04181","602110864497cf011d9c0822","0","j","NA","space","space","space","space","j","687","NA","20327","9032","3593","39699","687","2","legacy","1024","2","48000","-16","task","5212092","even","NA","26197","48530","28202","267551","4600","17241","13645","268054","149307","267548","268055","267486","48530","268743","24286","266986","4591","246068","Lexical Decision Task","87","75754","97","yes","1024"
"2.821076612","0","4","lult","non-word","89.79591836734694","89.79591836734694","780.8979591836735","780.8979591836735","black","no","legacy","legacy","legacy","0","uniform","1","undefined","undefined","undefined","1","f","0","0","0","0","97","0","0","0","97","0","93","97","93","0","93","3","97","0","97","Wed Feb 24 16:39:53 2021","The main experiment item","yes","Lexical_Decision_Task.osexp","/Users/lucieiredale/Desktop","no","Andale Mono","no","18","no","white","no","yes","576","legacy","93","93","3","/Users/lucieiredale/Desktop/subject-5212092.csv","legacy","Lentiform Loewenfeld","3.3.7","yes","yes","600bd7cfb6416f0113b04181","602110864497cf011d9c0822","0","f","NA","space","space","space","space","f","774","NA","20327","9032","3593","39699","774","2","legacy","1024","2","48000","-16","task","5212092","even","NA","26197","48530","28202","269310","4600","17241","13645","269814","149307","269308","269815","269247","48530","270589","24286","268747","4591","246068","Lexical Decision Task","88","76528","98","yes","1024"
"2.907588697","8.91","9","mood","word","89.8989898989899","89.8989898989899","778.5757575757576","778.5757575757576","black","no","legacy","legacy","legacy","0","uniform","1","undefined","undefined","undefined","1","j","0","0","0","0","98","0","0","0","98","0","94","98","94","0","94","3","98","0","98","Wed Feb 24 16:39:53 2021","The main experiment item","yes","Lexical_Decision_Task.osexp","/Users/lucieiredale/Desktop","no","Andale Mono","no","18","no","white","no","yes","576","legacy","94","94","3","/Users/lucieiredale/Desktop/subject-5212092.csv","legacy","Lentiform Loewenfeld","3.3.7","yes","yes","600bd7cfb6416f0113b04181","602110864497cf011d9c0822","0","j","NA","space","space","space","space","j","551","NA","20327","9032","3593","39699","551","2","legacy","1024","2","48000","-16","task","5212092","even","NA","26197","48530","28202","271156","4600","17241","13645","271660","149307","271153","271660","271093","48530","272212","24286","270593","4591","246068","Lexical Decision Task","89","77079","99","yes","1024"
"3.347850856","10.51","2","rich","word","90","90","776.22","776.22","black","no","legacy","legacy","legacy","0","uniform","1","undefined","undefined","undefined","1","j","0","0","0","0","99","0","0","0","99","0","95","99","95","0","95","3","99","0","99","Wed Feb 24 16:39:53 2021","The main experiment item","yes","Lexical_Decision_Task.osexp","/Users/lucieiredale/Desktop","no","Andale Mono","no","18","no","white","no","yes","576","legacy","95","95","3","/Users/lucieiredale/Desktop/subject-5212092.csv","legacy","Lentiform Loewenfeld","3.3.7","yes","yes","600bd7cfb6416f0113b04181","602110864497cf011d9c0822","0","j","NA","space","space","space","space","j","543","NA","20327","9032","3593","39699","543","2","legacy","1024","2","48000","-16","task","5212092","even","NA","26197","48530","28202","272780","4600","17241","13645","273283","149307","272777","273284","272716","48530","273828","24286","272216","4591","246068","Lexical Decision Task","90","77622","100","yes","1024"
