"Log_BG","Log_Freq_HAL","Ortho_N","Stimulus","Type","acc","accuracy","average_response_time","avg_rt","background","bidi","canvas_backend","clock_backend","color_backend","compensation","coordinates","correct","correct_Experimental_intro","correct_Introduction","correct_Practice_intro","correct_experimenter_kb","correct_response","count_End_Of_Experiment","count_End_Of_Practice","count_Experimental_Loop","count_Experimental_intro","count_Fixation","count_Introduction","count_Practice_Loop","count_Practice_intro","count_Stimulus","count_block_break_feedback","count_experimental_sequence","count_experimenter_kb","count_increment_trial_count","count_init_trial_count","count_logger","count_practice_sequence","count_right","count_task","count_wrong","datetime","description","disable_garbage_collection","experiment_file","experiment_path","font_bold","font_family","font_italic","font_size","font_underline","foreground","form_clicks","fullscreen","height","keyboard_backend","live_row","live_row_Experimental_Loop","live_row_Practice_Loop","logfile","mouse_backend","opensesame_codename","opensesame_version","osf_always_upload_data","osf_always_upload_experiment","osf_datanode_id","osf_id","repeat_cycle","response","response_End_Of_Experiment","response_Experimental_intro","response_Introduction","response_Practice_intro","response_block_break_feedback","response_experimenter_kb","response_time","response_time_End_Of_Experiment","response_time_Experimental_intro","response_time_Introduction","response_time_Practice_intro","response_time_block_break_feedback","response_time_experimenter_kb","round_decimals","sampler_backend","sound_buf_size","sound_channels","sound_freq","sound_sample_size","start","subject_nr","subject_parity","time_End_Of_Experiment","time_End_Of_Practice","time_Experimental_Loop","time_Experimental_intro","time_Fixation","time_Introduction","time_Practice_Loop","time_Practice_intro","time_Stimulus","time_block_break_feedback","time_experimental_sequence","time_experimenter_kb","time_increment_trial_count","time_init_trial_count","time_logger","time_practice_sequence","time_right","time_task","time_wrong","title","total_correct","total_response_time","total_responses","uniform_coordinates","width"
"2.990042563","6.64","9","plow","word","100","100","607.2","607.2","black","no","legacy","legacy","legacy","0","uniform","1","undefined","undefined","undefined","1","j","0","0","0","0","4","0","0","0","4","NA","0","4","0","0","0","3","4","0","4","Mon Feb 22 20:58:03 2021","The main experiment item","yes","Lexical_Decision_Task.osexp","C:/Users/User","no","Andale Mono","no","18","no","white","no","yes","576","legacy","0","0","3","C:/Users/User/subject-5205644.csv","legacy","Lentiform Loewenfeld","3.3.8","yes","yes","600bd7cfb6416f0113b04181","602110864497cf011d9c0822","0","j","NA","space","space","space","NA","j","592","NA","1308","7814","3652","NA","592","2","legacy","1024","2","48000","-16","task","5205644","even","NA","30345","33656","32346","33691","10591","22065","18412","34192","NA","33689","34192","NA","33656","34785","28850","29823","10542","NA","Lexical Decision Task","5","3036","5","yes","1024"
"2.845304797","0","6","buct","non-word","100","100","604","604","black","no","legacy","legacy","legacy","0","uniform","1","undefined","undefined","undefined","1","f","0","0","0","0","5","0","0","0","5","NA","1","5","1","0","1","3","5","0","5","Mon Feb 22 20:58:03 2021","The main experiment item","yes","Lexical_Decision_Task.osexp","C:/Users/User","no","Andale Mono","no","18","no","white","no","yes","576","legacy","1","1","3","C:/Users/User/subject-5205644.csv","legacy","Lentiform Loewenfeld","3.3.8","yes","yes","600bd7cfb6416f0113b04181","602110864497cf011d9c0822","0","f","NA","space","space","space","NA","f","588","NA","1308","7814","3652","NA","588","2","legacy","1024","2","48000","-16","task","5205644","even","NA","30345","33656","32346","35363","10591","22065","18412","35864","NA","35362","35864","35300","33656","36453","28850","34800","10542","NA","Lexical Decision Task","6","3624","6","yes","1024"
"3.378276681","6.39","8","bran","word","85.71428571428571","85.71428571428571","598.4285714285714","598.4285714285714","black","no","legacy","legacy","legacy","0","uniform","0","undefined","undefined","undefined","0","j","0","0","0","0","6","0","0","0","6","NA","2","6","2","0","2","3","6","0","6","Mon Feb 22 20:58:03 2021","The main experiment item","yes","Lexical_Decision_Task.osexp","C:/Users/User","no","Andale Mono","no","18","no","white","no","yes","576","legacy","2","2","3","C:/Users/User/subject-5205644.csv","legacy","Lentiform Loewenfeld","3.3.8","yes","yes","600bd7cfb6416f0113b04181","602110864497cf011d9c0822","0","f","NA","space","space","space","NA","f","565","NA","1308","7814","3652","NA","565","2","legacy","1024","2","48000","-16","task","5205644","even","NA","30345","33656","32346","37010","10591","22065","18412","37511","NA","37009","37511","36959","33656","38077","28850","36459","10542","NA","Lexical Decision Task","6","4189","7","yes","1024"
"2.771097306","0","9","jold","non-word","87.5","87.5","609.75","609.75","black","no","legacy","legacy","legacy","0","uniform","1","undefined","undefined","undefined","1","f","0","0","0","0","7","0","0","0","7","NA","3","7","3","0","3","3","7","0","7","Mon Feb 22 20:58:03 2021","The main experiment item","yes","Lexical_Decision_Task.osexp","C:/Users/User","no","Andale Mono","no","18","no","white","no","yes","576","legacy","3","3","3","C:/Users/User/subject-5205644.csv","legacy","Lentiform Loewenfeld","3.3.8","yes","yes","600bd7cfb6416f0113b04181","602110864497cf011d9c0822","0","f","NA","space","space","space","NA","f","689","NA","1308","7814","3652","NA","689","2","legacy","1024","2","48000","-16","task","5205644","even","NA","30345","33656","32346","39639","10591","22065","18412","40141","NA","39638","40141","39584","33656","40830","28850","36459","10542","38084","Lexical Decision Task","7","4878","8","yes","1024"
"3.299579929","0","2","flis","non-word","88.88888888888889","88.88888888888889","610","610","black","no","legacy","legacy","legacy","0","uniform","1","undefined","undefined","undefined","1","f","0","0","0","0","8","0","0","0","8","NA","4","8","4","0","4","3","8","0","8","Mon Feb 22 20:58:03 2021","The main experiment item","yes","Lexical_Decision_Task.osexp","C:/Users/User","no","Andale Mono","no","18","no","white","no","yes","576","legacy","4","4","3","C:/Users/User/subject-5205644.csv","legacy","Lentiform Loewenfeld","3.3.8","yes","yes","600bd7cfb6416f0113b04181","602110864497cf011d9c0822","0","f","NA","space","space","space","NA","f","612","NA","1308","7814","3652","NA","612","2","legacy","1024","2","48000","-16","task","5205644","even","NA","30345","33656","32346","41390","10591","22065","18412","41891","NA","41388","41891","41338","33656","42504","28850","40838","10542","38084","Lexical Decision Task","8","5490","9","yes","1024"
"3.208172527","10.27","7","deck","word","90","90","595.8","595.8","black","no","legacy","legacy","legacy","0","uniform","1","undefined","undefined","undefined","1","j","0","0","0","0","9","0","0","0","9","NA","5","9","5","0","5","3","9","0","9","Mon Feb 22 20:58:03 2021","The main experiment item","yes","Lexical_Decision_Task.osexp","C:/Users/User","no","Andale Mono","no","18","no","white","no","yes","576","legacy","5","5","3","C:/Users/User/subject-5205644.csv","legacy","Lentiform Loewenfeld","3.3.8","yes","yes","600bd7cfb6416f0113b04181","602110864497cf011d9c0822","0","j","NA","space","space","space","NA","j","468","NA","1308","7814","3652","NA","468","2","legacy","1024","2","48000","-16","task","5205644","even","NA","30345","33656","32346","43062","10591","22065","18412","43563","NA","43061","43563","43011","33656","44032","28850","42511","10542","38084","Lexical Decision Task","9","5958","10","yes","1024"
"3.347850856","10.51","2","rich","word","90.9090909090909","90.9090909090909","583.0909090909091","583.0909090909091","black","no","legacy","legacy","legacy","0","uniform","1","undefined","undefined","undefined","1","j","0","0","0","0","10","0","0","0","10","NA","6","10","6","0","6","3","10","0","10","Mon Feb 22 20:58:03 2021","The main experiment item","yes","Lexical_Decision_Task.osexp","C:/Users/User","no","Andale Mono","no","18","no","white","no","yes","576","legacy","6","6","3","C:/Users/User/subject-5205644.csv","legacy","Lentiform Loewenfeld","3.3.8","yes","yes","600bd7cfb6416f0113b04181","602110864497cf011d9c0822","0","j","NA","space","space","space","NA","j","456","NA","1308","7814","3652","NA","456","2","legacy","1024","2","48000","-16","task","5205644","even","NA","30345","33656","32346","44590","10591","22065","18412","45091","NA","44588","45091","44539","33656","45547","28850","44039","10542","38084","Lexical Decision Task","10","6414","11","yes","1024"
"3.010582609","0","2","drod","non-word","91.66666666666667","91.66666666666667","579.25","579.25","black","no","legacy","legacy","legacy","0","uniform","1","undefined","undefined","undefined","1","f","0","0","0","0","11","0","0","0","11","NA","7","11","7","0","7","3","11","0","11","Mon Feb 22 20:58:03 2021","The main experiment item","yes","Lexical_Decision_Task.osexp","C:/Users/User","no","Andale Mono","no","18","no","white","no","yes","576","legacy","7","7","3","C:/Users/User/subject-5205644.csv","legacy","Lentiform Loewenfeld","3.3.8","yes","yes","600bd7cfb6416f0113b04181","602110864497cf011d9c0822","0","f","NA","space","space","space","NA","f","537","NA","1308","7814","3652","NA","537","2","legacy","1024","2","48000","-16","task","5205644","even","NA","30345","33656","32346","46103","10591","22065","18412","46604","NA","46102","46604","46053","33656","47141","28850","45553","10542","38084","Lexical Decision Task","11","6951","12","yes","1024"
"3.165936429","0","7","leps","non-word","92.3076923076923","92.3076923076923","584.3076923076923","584.3076923076923","black","no","legacy","legacy","legacy","0","uniform","1","undefined","undefined","undefined","1","f","0","0","0","0","12","0","0","0","12","NA","8","12","8","0","8","3","12","0","12","Mon Feb 22 20:58:03 2021","The main experiment item","yes","Lexical_Decision_Task.osexp","C:/Users/User","no","Andale Mono","no","18","no","white","no","yes","576","legacy","8","8","3","C:/Users/User/subject-5205644.csv","legacy","Lentiform Loewenfeld","3.3.8","yes","yes","600bd7cfb6416f0113b04181","602110864497cf011d9c0822","0","f","NA","space","space","space","NA","f","645","NA","1308","7814","3652","NA","645","2","legacy","1024","2","48000","-16","task","5205644","even","NA","30345","33656","32346","47699","10591","22065","18412","48200","NA","47696","48200","47646","33656","48846","28850","47146","10542","38084","Lexical Decision Task","12","7596","13","yes","1024"
"3.495914186","0","4","peng","non-word","85.71428571428571","85.71428571428571","579.3571428571429","579.3571428571429","black","no","legacy","legacy","legacy","0","uniform","0","undefined","undefined","undefined","0","f","0","0","0","0","13","0","0","0","13","NA","9","13","9","0","9","3","13","0","13","Mon Feb 22 20:58:03 2021","The main experiment item","yes","Lexical_Decision_Task.osexp","C:/Users/User","no","Andale Mono","no","18","no","white","no","yes","576","legacy","9","9","3","C:/Users/User/subject-5205644.csv","legacy","Lentiform Loewenfeld","3.3.8","yes","yes","600bd7cfb6416f0113b04181","602110864497cf011d9c0822","0","j","NA","space","space","space","NA","j","515","NA","1308","7814","3652","NA","515","2","legacy","1024","2","48000","-16","task","5205644","even","NA","30345","33656","32346","49402","10591","22065","18412","49903","NA","49400","49903","49353","33656","50419","28850","48853","10542","38084","Lexical Decision Task","12","8111","14","yes","1024"
"3.481012421","8.34","5","teen","word","80","80","584.2","584.2","black","no","legacy","legacy","legacy","0","uniform","0","undefined","undefined","undefined","0","j","0","0","0","0","14","0","0","0","14","NA","10","14","10","0","10","3","14","0","14","Mon Feb 22 20:58:03 2021","The main experiment item","yes","Lexical_Decision_Task.osexp","C:/Users/User","no","Andale Mono","no","18","no","white","no","yes","576","legacy","10","10","3","C:/Users/User/subject-5205644.csv","legacy","Lentiform Loewenfeld","3.3.8","yes","yes","600bd7cfb6416f0113b04181","602110864497cf011d9c0822","0","f","NA","space","space","space","NA","f","652","NA","1308","7814","3652","NA","652","2","legacy","1024","2","48000","-16","task","5205644","even","NA","30345","33656","32346","51978","10591","22065","18412","52479","NA","51976","52479","51925","33656","53131","28850","48853","10542","50425","Lexical Decision Task","12","8763","15","yes","1024"
"3.269668578","0","7","trag","non-word","75","75","589.25","589.25","black","no","legacy","legacy","legacy","0","uniform","0","undefined","undefined","undefined","0","f","0","0","0","0","15","0","0","0","15","NA","11","15","11","0","11","3","15","0","15","Mon Feb 22 20:58:03 2021","The main experiment item","yes","Lexical_Decision_Task.osexp","C:/Users/User","no","Andale Mono","no","18","no","white","no","yes","576","legacy","11","11","3","C:/Users/User/subject-5205644.csv","legacy","Lentiform Loewenfeld","3.3.8","yes","yes","600bd7cfb6416f0113b04181","602110864497cf011d9c0822","0","j","NA","space","space","space","NA","j","665","NA","1308","7814","3652","NA","665","2","legacy","1024","2","48000","-16","task","5205644","even","NA","30345","33656","32346","54690","10591","22065","18412","55191","NA","54689","55191","54638","33656","55857","28850","48853","10542","53138","Lexical Decision Task","12","9428","16","yes","1024"
"3.274157849","0","8","leet","non-word","76.47058823529412","76.47058823529412","593.2941176470588","593.2941176470588","black","no","legacy","legacy","legacy","0","uniform","1","undefined","undefined","undefined","1","f","0","0","0","0","16","0","0","0","16","NA","12","16","12","0","12","3","16","0","16","Mon Feb 22 20:58:03 2021","The main experiment item","yes","Lexical_Decision_Task.osexp","C:/Users/User","no","Andale Mono","no","18","no","white","no","yes","576","legacy","12","12","3","C:/Users/User/subject-5205644.csv","legacy","Lentiform Loewenfeld","3.3.8","yes","yes","600bd7cfb6416f0113b04181","602110864497cf011d9c0822","0","f","NA","space","space","space","NA","f","658","NA","1308","7814","3652","NA","658","2","legacy","1024","2","48000","-16","task","5205644","even","NA","30345","33656","32346","57414","10591","22065","18412","57915","NA","57412","57915","57365","33656","58574","28850","48853","10542","55865","Lexical Decision Task","13","10086","17","yes","1024"
"2.966923697","5.4","2","fume","word","77.77777777777777","77.77777777777777","587.9444444444445","587.9444444444445","black","no","legacy","legacy","legacy","0","uniform","1","undefined","undefined","undefined","1","j","0","0","0","0","17","0","0","0","17","NA","13","17","13","0","13","3","17","0","17","Mon Feb 22 20:58:03 2021","The main experiment item","yes","Lexical_Decision_Task.osexp","C:/Users/User","no","Andale Mono","no","18","no","white","no","yes","576","legacy","13","13","3","C:/Users/User/subject-5205644.csv","legacy","Lentiform Loewenfeld","3.3.8","yes","yes","600bd7cfb6416f0113b04181","602110864497cf011d9c0822","0","j","NA","space","space","space","NA","j","497","NA","1308","7814","3652","NA","497","2","legacy","1024","2","48000","-16","task","5205644","even","NA","30345","33656","32346","59134","10591","22065","18412","59635","NA","59132","59636","59082","33656","60133","28850","58582","10542","55865","Lexical Decision Task","14","10583","18","yes","1024"
"2.675164031","8.57","6","glue","word","78.94736842105263","78.94736842105263","591.3157894736842","591.3157894736842","black","no","legacy","legacy","legacy","0","uniform","1","undefined","undefined","undefined","1","j","0","0","0","0","18","0","0","0","18","NA","14","18","14","0","14","3","18","0","18","Mon Feb 22 20:58:03 2021","The main experiment item","yes","Lexical_Decision_Task.osexp","C:/Users/User","no","Andale Mono","no","18","no","white","no","yes","576","legacy","14","14","3","C:/Users/User/subject-5205644.csv","legacy","Lentiform Loewenfeld","3.3.8","yes","yes","600bd7cfb6416f0113b04181","602110864497cf011d9c0822","0","j","NA","space","space","space","NA","j","652","NA","1308","7814","3652","NA","652","2","legacy","1024","2","48000","-16","task","5205644","even","NA","30345","33656","32346","60693","10591","22065","18412","61194","NA","60691","61194","60640","33656","61848","28850","60140","10542","55865","Lexical Decision Task","15","11235","19","yes","1024"
"3.037294994","8.64","7","roof","word","80","80","586.8","586.8","black","no","legacy","legacy","legacy","0","uniform","1","undefined","undefined","undefined","1","j","0","0","0","0","19","0","0","0","19","NA","15","19","15","0","15","3","19","0","19","Mon Feb 22 20:58:03 2021","The main experiment item","yes","Lexical_Decision_Task.osexp","C:/Users/User","no","Andale Mono","no","18","no","white","no","yes","576","legacy","15","15","3","C:/Users/User/subject-5205644.csv","legacy","Lentiform Loewenfeld","3.3.8","yes","yes","600bd7cfb6416f0113b04181","602110864497cf011d9c0822","0","j","NA","space","space","space","NA","j","501","NA","1308","7814","3652","NA","501","2","legacy","1024","2","48000","-16","task","5205644","even","NA","30345","33656","32346","62405","10591","22065","18412","62906","NA","62404","62906","62355","33656","63409","28850","61855","10542","55865","Lexical Decision Task","16","11736","20","yes","1024"
"3.137775856","7.39","5","comb","word","80.95238095238095","80.95238095238095","588.1428571428571","588.1428571428571","black","no","legacy","legacy","legacy","0","uniform","1","undefined","undefined","undefined","1","j","0","0","0","0","20","0","0","0","20","NA","16","20","16","0","16","3","20","0","20","Mon Feb 22 20:58:03 2021","The main experiment item","yes","Lexical_Decision_Task.osexp","C:/Users/User","no","Andale Mono","no","18","no","white","no","yes","576","legacy","16","16","3","C:/Users/User/subject-5205644.csv","legacy","Lentiform Loewenfeld","3.3.8","yes","yes","600bd7cfb6416f0113b04181","602110864497cf011d9c0822","0","j","NA","space","space","space","NA","j","615","NA","1308","7814","3652","NA","615","2","legacy","1024","2","48000","-16","task","5205644","even","NA","30345","33656","32346","63966","10591","22065","18412","64467","NA","63964","64467","63915","33656","65082","28850","63415","10542","55865","Lexical Decision Task","17","12351","21","yes","1024"
"3.368162872","0","4","ferk","non-word","81.81818181818181","81.81818181818181","590","590","black","no","legacy","legacy","legacy","0","uniform","1","undefined","undefined","undefined","1","f","0","0","0","0","21","0","0","0","21","NA","17","21","17","0","17","3","21","0","21","Mon Feb 22 20:58:03 2021","The main experiment item","yes","Lexical_Decision_Task.osexp","C:/Users/User","no","Andale Mono","no","18","no","white","no","yes","576","legacy","17","17","3","C:/Users/User/subject-5205644.csv","legacy","Lentiform Loewenfeld","3.3.8","yes","yes","600bd7cfb6416f0113b04181","602110864497cf011d9c0822","0","f","NA","space","space","space","NA","f","629","NA","1308","7814","3652","NA","629","2","legacy","1024","2","48000","-16","task","5205644","even","NA","30345","33656","32346","65646","10591","22065","18412","66147","NA","65644","66147","65589","33656","66777","28850","65089","10542","55865","Lexical Decision Task","18","12980","22","yes","1024"
"2.980306438","0","7","slun","non-word","82.6086956521739","82.6086956521739","595.2608695652174","595.2608695652174","black","no","legacy","legacy","legacy","0","uniform","1","undefined","undefined","undefined","1","f","0","0","0","0","22","0","0","0","22","NA","18","22","18","0","18","3","22","0","22","Mon Feb 22 20:58:03 2021","The main experiment item","yes","Lexical_Decision_Task.osexp","C:/Users/User","no","Andale Mono","no","18","no","white","no","yes","576","legacy","18","18","3","C:/Users/User/subject-5205644.csv","legacy","Lentiform Loewenfeld","3.3.8","yes","yes","600bd7cfb6416f0113b04181","602110864497cf011d9c0822","0","f","NA","space","space","space","NA","f","711","NA","1308","7814","3652","NA","711","2","legacy","1024","2","48000","-16","task","5205644","even","NA","30345","33656","32346","67336","10591","22065","18412","67837","NA","67334","67837","67284","33656","68549","28850","66784","10542","55865","Lexical Decision Task","19","13691","23","yes","1024"
"3.384413096","10.15","3","glad","word","83.33333333333333","83.33333333333333","589.875","589.875","black","no","legacy","legacy","legacy","0","uniform","1","undefined","undefined","undefined","1","j","0","0","0","0","23","0","0","0","23","NA","19","23","19","0","19","3","23","0","23","Mon Feb 22 20:58:03 2021","The main experiment item","yes","Lexical_Decision_Task.osexp","C:/Users/User","no","Andale Mono","no","18","no","white","no","yes","576","legacy","19","19","3","C:/Users/User/subject-5205644.csv","legacy","Lentiform Loewenfeld","3.3.8","yes","yes","600bd7cfb6416f0113b04181","602110864497cf011d9c0822","0","j","NA","space","space","space","NA","j","466","NA","1308","7814","3652","NA","466","2","legacy","1024","2","48000","-16","task","5205644","even","NA","30345","33656","32346","69105","10591","22065","18412","69606","NA","69103","69606","69055","33656","70073","28850","68555","10542","55865","Lexical Decision Task","20","14157","24","yes","1024"
"2.713490543","0","3","feps","non-word","84","84","588","588","black","no","legacy","legacy","legacy","0","uniform","1","undefined","undefined","undefined","1","f","0","0","0","0","24","0","0","0","24","NA","20","24","20","0","20","3","24","0","24","Mon Feb 22 20:58:03 2021","The main experiment item","yes","Lexical_Decision_Task.osexp","C:/Users/User","no","Andale Mono","no","18","no","white","no","yes","576","legacy","20","20","3","C:/Users/User/subject-5205644.csv","legacy","Lentiform Loewenfeld","3.3.8","yes","yes","600bd7cfb6416f0113b04181","602110864497cf011d9c0822","0","f","NA","space","space","space","NA","f","543","NA","1308","7814","3652","NA","543","2","legacy","1024","2","48000","-16","task","5205644","even","NA","30345","33656","32346","70631","10591","22065","18412","71132","NA","70629","71132","70579","33656","71676","28850","70079","10542","55865","Lexical Decision Task","21","14700","25","yes","1024"
"2.709837904","6.85","8","skim","word","80.76923076923077","80.76923076923077","588.3846153846154","588.3846153846154","black","no","legacy","legacy","legacy","0","uniform","0","undefined","undefined","undefined","0","j","0","0","0","0","25","0","0","0","25","NA","21","25","21","0","21","3","25","0","25","Mon Feb 22 20:58:03 2021","The main experiment item","yes","Lexical_Decision_Task.osexp","C:/Users/User","no","Andale Mono","no","18","no","white","no","yes","576","legacy","21","21","3","C:/Users/User/subject-5205644.csv","legacy","Lentiform Loewenfeld","3.3.8","yes","yes","600bd7cfb6416f0113b04181","602110864497cf011d9c0822","0","f","NA","space","space","space","NA","f","598","NA","1308","7814","3652","NA","598","2","legacy","1024","2","48000","-16","task","5205644","even","NA","30345","33656","32346","72232","10591","22065","18412","72733","NA","72231","72733","72183","33656","73331","28850","71683","10542","55865","Lexical Decision Task","21","15298","26","yes","1024"
"3.168400243","9.12","6","horn","word","81.48148148148148","81.48148148148148","586.3703703703703","586.3703703703703","black","no","legacy","legacy","legacy","0","uniform","1","undefined","undefined","undefined","1","j","0","0","0","0","26","0","0","0","26","NA","22","26","22","0","22","3","26","0","26","Mon Feb 22 20:58:03 2021","The main experiment item","yes","Lexical_Decision_Task.osexp","C:/Users/User","no","Andale Mono","no","18","no","white","no","yes","576","legacy","22","22","3","C:/Users/User/subject-5205644.csv","legacy","Lentiform Loewenfeld","3.3.8","yes","yes","600bd7cfb6416f0113b04181","602110864497cf011d9c0822","0","j","NA","space","space","space","NA","j","534","NA","1308","7814","3652","NA","534","2","legacy","1024","2","48000","-16","task","5205644","even","NA","30345","33656","32346","74887","10591","22065","18412","75388","NA","74886","75388","74837","33656","75923","28850","71683","10542","73337","Lexical Decision Task","22","15832","27","yes","1024"
"2.898725182","0","7","turl","non-word","82.14285714285714","82.14285714285714","591.8571428571429","591.8571428571429","black","no","legacy","legacy","legacy","0","uniform","1","undefined","undefined","undefined","1","f","0","0","0","0","27","0","0","0","27","NA","23","27","23","0","23","3","27","0","27","Mon Feb 22 20:58:03 2021","The main experiment item","yes","Lexical_Decision_Task.osexp","C:/Users/User","no","Andale Mono","no","18","no","white","no","yes","576","legacy","23","23","3","C:/Users/User/subject-5205644.csv","legacy","Lentiform Loewenfeld","3.3.8","yes","yes","600bd7cfb6416f0113b04181","602110864497cf011d9c0822","0","f","NA","space","space","space","NA","f","740","NA","1308","7814","3652","NA","740","2","legacy","1024","2","48000","-16","task","5205644","even","NA","30345","33656","32346","76480","10591","22065","18412","76981","NA","76479","76981","76429","33656","77722","28850","75929","10542","73337","Lexical Decision Task","23","16572","28","yes","1024"
"3.120025233","0","2","nyst","non-word","82.75862068965517","82.75862068965517","590.1379310344828","590.1379310344828","black","no","legacy","legacy","legacy","0","uniform","1","undefined","undefined","undefined","1","f","0","0","0","0","28","0","0","0","28","NA","24","28","24","0","24","3","28","0","28","Mon Feb 22 20:58:03 2021","The main experiment item","yes","Lexical_Decision_Task.osexp","C:/Users/User","no","Andale Mono","no","18","no","white","no","yes","576","legacy","24","24","3","C:/Users/User/subject-5205644.csv","legacy","Lentiform Loewenfeld","3.3.8","yes","yes","600bd7cfb6416f0113b04181","602110864497cf011d9c0822","0","f","NA","space","space","space","NA","f","542","NA","1308","7814","3652","NA","542","2","legacy","1024","2","48000","-16","task","5205644","even","NA","30345","33656","32346","78286","10591","22065","18412","78787","NA","78284","78787","78230","33656","79330","28850","77730","10542","73337","Lexical Decision Task","24","17114","29","yes","1024"
"3.076883066","0","8","mout","non-word","80","80","589.5333333333333","589.5333333333333","black","no","legacy","legacy","legacy","0","uniform","0","undefined","undefined","undefined","0","f","0","0","0","0","29","0","0","0","29","NA","25","29","25","0","25","3","29","0","29","Mon Feb 22 20:58:03 2021","The main experiment item","yes","Lexical_Decision_Task.osexp","C:/Users/User","no","Andale Mono","no","18","no","white","no","yes","576","legacy","25","25","3","C:/Users/User/subject-5205644.csv","legacy","Lentiform Loewenfeld","3.3.8","yes","yes","600bd7cfb6416f0113b04181","602110864497cf011d9c0822","0","j","NA","space","space","space","NA","j","572","NA","1308","7814","3652","NA","572","2","legacy","1024","2","48000","-16","task","5205644","even","NA","30345","33656","32346","79890","10591","22065","18412","80391","NA","79888","80391","79838","33656","80964","28850","79338","10542","73337","Lexical Decision Task","24","17686","30","yes","1024"
"3.028977705","0","7","frow","non-word","77.41935483870968","77.41935483870968","591.0322580645161","591.0322580645161","black","no","legacy","legacy","legacy","0","uniform","0","undefined","undefined","undefined","0","f","0","0","0","0","30","0","0","0","30","NA","26","30","26","0","26","3","30","0","30","Mon Feb 22 20:58:03 2021","The main experiment item","yes","Lexical_Decision_Task.osexp","C:/Users/User","no","Andale Mono","no","18","no","white","no","yes","576","legacy","26","26","3","C:/Users/User/subject-5205644.csv","legacy","Lentiform Loewenfeld","3.3.8","yes","yes","600bd7cfb6416f0113b04181","602110864497cf011d9c0822","0","j","NA","space","space","space","NA","j","636","NA","1308","7814","3652","NA","636","2","legacy","1024","2","48000","-16","task","5205644","even","NA","30345","33656","32346","82524","10591","22065","18412","83025","NA","82522","83025","82472","33656","83661","28850","79338","10542","80972","Lexical Decision Task","24","18322","31","yes","1024"
"2.895974732","6.65","5","sift","word","75","75","588.5625","588.5625","black","no","legacy","legacy","legacy","0","uniform","0","undefined","undefined","undefined","0","j","0","0","0","0","31","0","0","0","31","NA","27","31","27","0","27","3","31","0","31","Mon Feb 22 20:58:03 2021","The main experiment item","yes","Lexical_Decision_Task.osexp","C:/Users/User","no","Andale Mono","no","18","no","white","no","yes","576","legacy","27","27","3","C:/Users/User/subject-5205644.csv","legacy","Lentiform Loewenfeld","3.3.8","yes","yes","600bd7cfb6416f0113b04181","602110864497cf011d9c0822","0","f","NA","space","space","space","NA","f","512","NA","1308","7814","3652","NA","512","2","legacy","1024","2","48000","-16","task","5205644","even","NA","30345","33656","32346","85219","10591","22065","18412","85720","NA","85218","85720","85169","33656","86233","28850","79338","10542","83668","Lexical Decision Task","24","18834","32","yes","1024"
"3.094121596","0","8","fode","non-word","75.75757575757575","75.75757575757575","590.6969696969697","590.6969696969697","black","no","legacy","legacy","legacy","0","uniform","1","undefined","undefined","undefined","1","f","0","0","0","0","32","0","0","0","32","NA","28","32","28","0","28","3","32","0","32","Mon Feb 22 20:58:03 2021","The main experiment item","yes","Lexical_Decision_Task.osexp","C:/Users/User","no","Andale Mono","no","18","no","white","no","yes","576","legacy","28","28","3","C:/Users/User/subject-5205644.csv","legacy","Lentiform Loewenfeld","3.3.8","yes","yes","600bd7cfb6416f0113b04181","602110864497cf011d9c0822","0","f","NA","space","space","space","NA","f","659","NA","1308","7814","3652","NA","659","2","legacy","1024","2","48000","-16","task","5205644","even","NA","30345","33656","32346","87792","10591","22065","18412","88293","NA","87790","88293","87740","33656","88953","28850","79338","10542","86240","Lexical Decision Task","25","19493","33","yes","1024"
"2.668385917","5.48","4","twig","word","76.47058823529412","76.47058823529412","589.9411764705883","589.9411764705883","black","no","legacy","legacy","legacy","0","uniform","1","undefined","undefined","undefined","1","j","0","0","0","0","33","0","0","0","33","NA","29","33","29","0","29","3","33","0","33","Mon Feb 22 20:58:03 2021","The main experiment item","yes","Lexical_Decision_Task.osexp","C:/Users/User","no","Andale Mono","no","18","no","white","no","yes","576","legacy","29","29","3","C:/Users/User/subject-5205644.csv","legacy","Lentiform Loewenfeld","3.3.8","yes","yes","600bd7cfb6416f0113b04181","602110864497cf011d9c0822","0","j","NA","space","space","space","NA","j","565","NA","1308","7814","3652","NA","565","2","legacy","1024","2","48000","-16","task","5205644","even","NA","30345","33656","32346","89508","10591","22065","18412","90009","NA","89507","90009","89460","33656","90576","28850","88960","10542","86240","Lexical Decision Task","26","20058","34","yes","1024"
"3.068433376","8.09","2","bulb","word","77.14285714285714","77.14285714285714","588.3714285714286","588.3714285714286","black","no","legacy","legacy","legacy","0","uniform","1","undefined","undefined","undefined","1","j","0","0","0","0","34","0","0","0","34","NA","30","34","30","0","30","3","34","0","34","Mon Feb 22 20:58:03 2021","The main experiment item","yes","Lexical_Decision_Task.osexp","C:/Users/User","no","Andale Mono","no","18","no","white","no","yes","576","legacy","30","30","3","C:/Users/User/subject-5205644.csv","legacy","Lentiform Loewenfeld","3.3.8","yes","yes","600bd7cfb6416f0113b04181","602110864497cf011d9c0822","0","j","NA","space","space","space","NA","j","535","NA","1308","7814","3652","NA","535","2","legacy","1024","2","48000","-16","task","5205644","even","NA","30345","33656","32346","91137","10591","22065","18412","91638","NA","91136","91639","91087","33656","92175","28850","90587","10542","86240","Lexical Decision Task","27","20593","35","yes","1024"
"3.082307743","9.68","8","camp","word","77.77777777777777","77.77777777777777","587.2222222222222","587.2222222222222","black","no","legacy","legacy","legacy","0","uniform","1","undefined","undefined","undefined","1","j","0","0","0","0","35","0","0","0","35","NA","31","35","31","0","31","3","35","0","35","Mon Feb 22 20:58:03 2021","The main experiment item","yes","Lexical_Decision_Task.osexp","C:/Users/User","no","Andale Mono","no","18","no","white","no","yes","576","legacy","31","31","3","C:/Users/User/subject-5205644.csv","legacy","Lentiform Loewenfeld","3.3.8","yes","yes","600bd7cfb6416f0113b04181","602110864497cf011d9c0822","0","j","NA","space","space","space","NA","j","547","NA","1308","7814","3652","NA","547","2","legacy","1024","2","48000","-16","task","5205644","even","NA","30345","33656","32346","92733","10591","22065","18412","93234","NA","92732","93234","92683","33656","93782","28850","92183","10542","86240","Lexical Decision Task","28","21140","36","yes","1024"
"2.858136002","0","4","phip","non-word","78.37837837837837","78.37837837837837","588.5405405405405","588.5405405405405","black","no","legacy","legacy","legacy","0","uniform","1","undefined","undefined","undefined","1","f","0","0","0","0","36","0","0","0","36","NA","32","36","32","0","32","3","36","0","36","Mon Feb 22 20:58:03 2021","The main experiment item","yes","Lexical_Decision_Task.osexp","C:/Users/User","no","Andale Mono","no","18","no","white","no","yes","576","legacy","32","32","3","C:/Users/User/subject-5205644.csv","legacy","Lentiform Loewenfeld","3.3.8","yes","yes","600bd7cfb6416f0113b04181","602110864497cf011d9c0822","0","f","NA","space","space","space","NA","f","636","NA","1308","7814","3652","NA","636","2","legacy","1024","2","48000","-16","task","5205644","even","NA","30345","33656","32346","94339","10591","22065","18412","94840","NA","94337","94840","94289","33656","95477","28850","93789","10542","86240","Lexical Decision Task","29","21776","37","yes","1024"
"2.703007489","8.37","3","pulp","word","78.94736842105263","78.94736842105263","587.5263157894736","587.5263157894736","black","no","legacy","legacy","legacy","0","uniform","1","undefined","undefined","undefined","1","j","0","0","0","0","37","0","0","0","37","NA","33","37","33","0","33","3","37","0","37","Mon Feb 22 20:58:03 2021","The main experiment item","yes","Lexical_Decision_Task.osexp","C:/Users/User","no","Andale Mono","no","18","no","white","no","yes","576","legacy","33","33","3","C:/Users/User/subject-5205644.csv","legacy","Lentiform Loewenfeld","3.3.8","yes","yes","600bd7cfb6416f0113b04181","602110864497cf011d9c0822","0","j","NA","space","space","space","NA","j","550","NA","1308","7814","3652","NA","550","2","legacy","1024","2","48000","-16","task","5205644","even","NA","30345","33656","32346","96033","10591","22065","18412","96534","NA","96032","96534","95983","33656","97086","28850","95483","10542","86240","Lexical Decision Task","30","22326","38","yes","1024"
"2.714888338","0","3","brug","non-word","79.48717948717949","79.48717948717949","590.2820512820513","590.2820512820513","black","no","legacy","legacy","legacy","0","uniform","1","undefined","undefined","undefined","1","f","0","0","0","0","38","0","0","0","38","NA","34","38","34","0","34","3","38","0","38","Mon Feb 22 20:58:03 2021","The main experiment item","yes","Lexical_Decision_Task.osexp","C:/Users/User","no","Andale Mono","no","18","no","white","no","yes","576","legacy","34","34","3","C:/Users/User/subject-5205644.csv","legacy","Lentiform Loewenfeld","3.3.8","yes","yes","600bd7cfb6416f0113b04181","602110864497cf011d9c0822","0","f","NA","space","space","space","NA","f","695","NA","1308","7814","3652","NA","695","2","legacy","1024","2","48000","-16","task","5205644","even","NA","30345","33656","32346","97642","10591","22065","18412","98143","NA","97641","98143","97593","33656","98839","28850","97093","10542","86240","Lexical Decision Task","31","23021","39","yes","1024"
"2.9737419","7.69","7","claw","word","80","80","591.525","591.525","black","no","legacy","legacy","legacy","0","uniform","1","undefined","undefined","undefined","1","j","0","0","0","0","39","0","0","0","39","NA","35","39","35","0","35","3","39","0","39","Mon Feb 22 20:58:03 2021","The main experiment item","yes","Lexical_Decision_Task.osexp","C:/Users/User","no","Andale Mono","no","18","no","white","no","yes","576","legacy","35","35","3","C:/Users/User/subject-5205644.csv","legacy","Lentiform Loewenfeld","3.3.8","yes","yes","600bd7cfb6416f0113b04181","602110864497cf011d9c0822","0","j","NA","space","space","space","NA","j","640","NA","1308","7814","3652","NA","640","2","legacy","1024","2","48000","-16","task","5205644","even","NA","30345","33656","32346","99398","10591","22065","18412","99899","NA","99396","99899","99347","33656","100540","28850","98847","10542","86240","Lexical Decision Task","32","23661","40","yes","1024"
"2.705007959","6.01","4","wept","word","80.48780487804878","80.48780487804878","591.5853658536586","591.5853658536586","black","no","legacy","legacy","legacy","0","uniform","1","undefined","undefined","undefined","1","j","0","0","0","0","40","0","0","0","40","NA","36","40","36","0","36","3","40","0","40","Mon Feb 22 20:58:03 2021","The main experiment item","yes","Lexical_Decision_Task.osexp","C:/Users/User","no","Andale Mono","no","18","no","white","no","yes","576","legacy","36","36","3","C:/Users/User/subject-5205644.csv","legacy","Lentiform Loewenfeld","3.3.8","yes","yes","600bd7cfb6416f0113b04181","602110864497cf011d9c0822","0","j","NA","space","space","space","NA","j","594","NA","1308","7814","3652","NA","594","2","legacy","1024","2","48000","-16","task","5205644","even","NA","30345","33656","32346","101094","10591","22065","18412","101596","NA","101093","101596","101046","33656","102191","28850","100546","10542","86240","Lexical Decision Task","33","24255","41","yes","1024"
"2.75025376","10.2","6","jump","word","80.95238095238095","80.95238095238095","589.047619047619","589.047619047619","black","no","legacy","legacy","legacy","0","uniform","1","undefined","undefined","undefined","1","j","0","0","0","0","41","0","0","0","41","NA","37","41","37","0","37","3","41","0","41","Mon Feb 22 20:58:03 2021","The main experiment item","yes","Lexical_Decision_Task.osexp","C:/Users/User","no","Andale Mono","no","18","no","white","no","yes","576","legacy","37","37","3","C:/Users/User/subject-5205644.csv","legacy","Lentiform Loewenfeld","3.3.8","yes","yes","600bd7cfb6416f0113b04181","602110864497cf011d9c0822","0","j","NA","space","space","space","NA","j","485","NA","1308","7814","3652","NA","485","2","legacy","1024","2","48000","-16","task","5205644","even","NA","30345","33656","32346","102753","10591","22065","18412","103254","NA","102752","103254","102705","33656","103740","28850","102205","10542","86240","Lexical Decision Task","34","24740","42","yes","1024"
"2.82129731","6.72","5","plum","word","81.3953488372093","81.3953488372093","585.4651162790698","585.4651162790698","black","no","legacy","legacy","legacy","0","uniform","1","undefined","undefined","undefined","1","j","0","0","0","0","42","0","0","0","42","NA","38","42","38","0","38","3","42","0","42","Mon Feb 22 20:58:03 2021","The main experiment item","yes","Lexical_Decision_Task.osexp","C:/Users/User","no","Andale Mono","no","18","no","white","no","yes","576","legacy","38","38","3","C:/Users/User/subject-5205644.csv","legacy","Lentiform Loewenfeld","3.3.8","yes","yes","600bd7cfb6416f0113b04181","602110864497cf011d9c0822","0","j","NA","space","space","space","NA","j","435","NA","1308","7814","3652","NA","435","2","legacy","1024","2","48000","-16","task","5205644","even","NA","30345","33656","32346","104298","10591","22065","18412","104799","NA","104296","104799","104247","33656","105235","28850","103747","10542","86240","Lexical Decision Task","35","25175","43","yes","1024"
"3.274543461","7.46","7","scar","word","81.81818181818181","81.81818181818181","590.5454545454545","590.5454545454545","black","no","legacy","legacy","legacy","0","uniform","1","undefined","undefined","undefined","1","j","0","0","0","0","43","0","0","0","43","NA","39","43","39","0","39","3","43","0","43","Mon Feb 22 20:58:03 2021","The main experiment item","yes","Lexical_Decision_Task.osexp","C:/Users/User","no","Andale Mono","no","18","no","white","no","yes","576","legacy","39","39","3","C:/Users/User/subject-5205644.csv","legacy","Lentiform Loewenfeld","3.3.8","yes","yes","600bd7cfb6416f0113b04181","602110864497cf011d9c0822","0","j","NA","space","space","space","NA","j","809","NA","1308","7814","3652","NA","809","2","legacy","1024","2","48000","-16","task","5205644","even","NA","30345","33656","32346","105792","10591","22065","18412","106293","NA","105791","106293","105742","33656","107103","28850","105242","10542","86240","Lexical Decision Task","36","25984","44","yes","1024"
"2.695481676","0","7","goke","non-word","82.22222222222223","82.22222222222223","591.6666666666666","591.6666666666666","black","no","legacy","legacy","legacy","0","uniform","1","undefined","undefined","undefined","1","f","0","0","0","0","44","0","0","0","44","NA","40","44","40","0","40","3","44","0","44","Mon Feb 22 20:58:03 2021","The main experiment item","yes","Lexical_Decision_Task.osexp","C:/Users/User","no","Andale Mono","no","18","no","white","no","yes","576","legacy","40","40","3","C:/Users/User/subject-5205644.csv","legacy","Lentiform Loewenfeld","3.3.8","yes","yes","600bd7cfb6416f0113b04181","602110864497cf011d9c0822","0","f","NA","space","space","space","NA","f","641","NA","1308","7814","3652","NA","641","2","legacy","1024","2","48000","-16","task","5205644","even","NA","30345","33656","32346","107661","10591","22065","18412","108162","NA","107659","108162","107611","33656","108804","28850","107111","10542","86240","Lexical Decision Task","37","26625","45","yes","1024"
"3.067193647","6.73","6","raft","word","82.6086956521739","82.6086956521739","593.5869565217391","593.5869565217391","black","no","legacy","legacy","legacy","0","uniform","1","undefined","undefined","undefined","1","j","0","0","0","0","45","0","0","0","45","NA","41","45","41","0","41","3","45","0","45","Mon Feb 22 20:58:03 2021","The main experiment item","yes","Lexical_Decision_Task.osexp","C:/Users/User","no","Andale Mono","no","18","no","white","no","yes","576","legacy","41","41","3","C:/Users/User/subject-5205644.csv","legacy","Lentiform Loewenfeld","3.3.8","yes","yes","600bd7cfb6416f0113b04181","602110864497cf011d9c0822","0","j","NA","space","space","space","NA","j","680","NA","1308","7814","3652","NA","680","2","legacy","1024","2","48000","-16","task","5205644","even","NA","30345","33656","32346","109363","10591","22065","18412","109864","NA","109362","109864","109311","33656","110545","28850","108811","10542","86240","Lexical Decision Task","38","27305","46","yes","1024"
"3.031812271","6.52","3","gulp","word","82.97872340425532","82.97872340425532","593.8936170212766","593.8936170212766","black","no","legacy","legacy","legacy","0","uniform","1","undefined","undefined","undefined","1","j","0","0","0","0","46","0","0","0","46","NA","42","46","42","0","42","3","46","0","46","Mon Feb 22 20:58:03 2021","The main experiment item","yes","Lexical_Decision_Task.osexp","C:/Users/User","no","Andale Mono","no","18","no","white","no","yes","576","legacy","42","42","3","C:/Users/User/subject-5205644.csv","legacy","Lentiform Loewenfeld","3.3.8","yes","yes","600bd7cfb6416f0113b04181","602110864497cf011d9c0822","0","j","NA","space","space","space","NA","j","608","NA","1308","7814","3652","NA","608","2","legacy","1024","2","48000","-16","task","5205644","even","NA","30345","33656","32346","111102","10591","22065","18412","111603","NA","111100","111603","111051","33656","112212","28850","110551","10542","86240","Lexical Decision Task","39","27913","47","yes","1024"
"3.488597715","0","9","nain","non-word","83.33333333333333","83.33333333333333","595.1458333333334","595.1458333333334","black","no","legacy","legacy","legacy","0","uniform","1","undefined","undefined","undefined","1","f","0","0","0","0","47","0","0","0","47","NA","43","47","43","0","43","3","47","0","47","Mon Feb 22 20:58:03 2021","The main experiment item","yes","Lexical_Decision_Task.osexp","C:/Users/User","no","Andale Mono","no","18","no","white","no","yes","576","legacy","43","43","3","C:/Users/User/subject-5205644.csv","legacy","Lentiform Loewenfeld","3.3.8","yes","yes","600bd7cfb6416f0113b04181","602110864497cf011d9c0822","0","f","NA","space","space","space","NA","f","654","NA","1308","7814","3652","NA","654","2","legacy","1024","2","48000","-16","task","5205644","even","NA","30345","33656","32346","112767","10591","22065","18412","113268","NA","112766","113268","112718","33656","113922","28850","112218","10542","86240","Lexical Decision Task","40","28567","48","yes","1024"
"3.140404328","10.66","9","deep","word","83.6734693877551","83.6734693877551","594.5510204081633","594.5510204081633","black","no","legacy","legacy","legacy","0","uniform","1","undefined","undefined","undefined","1","j","0","0","0","0","48","0","0","0","48","NA","44","48","44","0","44","3","48","0","48","Mon Feb 22 20:58:03 2021","The main experiment item","yes","Lexical_Decision_Task.osexp","C:/Users/User","no","Andale Mono","no","18","no","white","no","yes","576","legacy","44","44","3","C:/Users/User/subject-5205644.csv","legacy","Lentiform Loewenfeld","3.3.8","yes","yes","600bd7cfb6416f0113b04181","602110864497cf011d9c0822","0","j","NA","space","space","space","NA","j","566","NA","1308","7814","3652","NA","566","2","legacy","1024","2","48000","-16","task","5205644","even","NA","30345","33656","32346","114478","10591","22065","18412","114979","NA","114477","114979","114429","33656","115547","28850","113929","10542","86240","Lexical Decision Task","41","29133","49","yes","1024"
"3.194328374","9.42","6","harm","word","84","84","593.42","593.42","black","no","legacy","legacy","legacy","0","uniform","1","undefined","undefined","undefined","1","j","0","0","0","0","49","0","0","0","49","NA","45","49","45","0","45","3","49","0","49","Mon Feb 22 20:58:03 2021","The main experiment item","yes","Lexical_Decision_Task.osexp","C:/Users/User","no","Andale Mono","no","18","no","white","no","yes","576","legacy","45","45","3","C:/Users/User/subject-5205644.csv","legacy","Lentiform Loewenfeld","3.3.8","yes","yes","600bd7cfb6416f0113b04181","602110864497cf011d9c0822","0","j","NA","space","space","space","NA","j","538","NA","1308","7814","3652","NA","538","2","legacy","1024","2","48000","-16","task","5205644","even","NA","30345","33656","32346","116102","10591","22065","18412","116603","NA","116100","116603","116053","33656","117141","28850","115553","10542","86240","Lexical Decision Task","42","29671","50","yes","1024"
"2.937852093","0","7","bamp","non-word","84.31372549019608","84.31372549019608","593.7058823529412","593.7058823529412","black","no","legacy","legacy","legacy","0","uniform","1","undefined","undefined","undefined","1","f","0","0","0","0","50","0","0","0","50","NA","46","50","46","0","46","3","50","0","50","Mon Feb 22 20:58:03 2021","The main experiment item","yes","Lexical_Decision_Task.osexp","C:/Users/User","no","Andale Mono","no","18","no","white","no","yes","576","legacy","46","46","3","C:/Users/User/subject-5205644.csv","legacy","Lentiform Loewenfeld","3.3.8","yes","yes","600bd7cfb6416f0113b04181","602110864497cf011d9c0822","0","f","NA","space","space","space","NA","f","608","NA","1308","7814","3652","NA","608","2","legacy","1024","2","48000","-16","task","5205644","even","NA","30345","33656","32346","117702","10591","22065","18412","118203","NA","117700","118203","117647","33656","118812","28850","117147","10542","86240","Lexical Decision Task","43","30279","51","yes","1024"
"3.043885998","0","9","gome","non-word","84.61538461538461","84.61538461538461","593.3076923076923","593.3076923076923","black","no","legacy","legacy","legacy","0","uniform","1","undefined","undefined","undefined","1","f","0","0","0","0","51","0","0","0","51","NA","47","51","47","0","47","3","51","0","51","Mon Feb 22 20:58:03 2021","The main experiment item","yes","Lexical_Decision_Task.osexp","C:/Users/User","no","Andale Mono","no","18","no","white","no","yes","576","legacy","47","47","3","C:/Users/User/subject-5205644.csv","legacy","Lentiform Loewenfeld","3.3.8","yes","yes","600bd7cfb6416f0113b04181","602110864497cf011d9c0822","0","f","NA","space","space","space","NA","f","573","NA","1308","7814","3652","NA","573","2","legacy","1024","2","48000","-16","task","5205644","even","NA","30345","33656","32346","119369","10591","22065","18412","119870","NA","119367","119870","119319","33656","120444","28850","118819","10542","86240","Lexical Decision Task","44","30852","52","yes","1024"
"3.049218023","7.4","9","robe","word","84.90566037735849","84.90566037735849","592.0377358490566","592.0377358490566","black","no","legacy","legacy","legacy","0","uniform","1","undefined","undefined","undefined","1","j","0","0","0","0","52","0","0","0","52","NA","48","52","48","0","48","3","52","0","52","Mon Feb 22 20:58:03 2021","The main experiment item","yes","Lexical_Decision_Task.osexp","C:/Users/User","no","Andale Mono","no","18","no","white","no","yes","576","legacy","48","48","3","C:/Users/User/subject-5205644.csv","legacy","Lentiform Loewenfeld","3.3.8","yes","yes","600bd7cfb6416f0113b04181","602110864497cf011d9c0822","0","j","NA","space","space","space","NA","j","526","NA","1308","7814","3652","NA","526","2","legacy","1024","2","48000","-16","task","5205644","even","NA","30345","33656","32346","121001","10591","22065","18412","121503","NA","120999","121503","120951","33656","122030","28850","120451","10542","86240","Lexical Decision Task","45","31378","53","yes","1024"
"3.531734309","0","6","lerd","non-word","85.18518518518519","85.18518518518519","593.1481481481482","593.1481481481482","black","no","legacy","legacy","legacy","0","uniform","1","undefined","undefined","undefined","1","f","0","0","0","0","53","0","0","0","53","NA","49","53","49","0","49","3","53","0","53","Mon Feb 22 20:58:03 2021","The main experiment item","yes","Lexical_Decision_Task.osexp","C:/Users/User","no","Andale Mono","no","18","no","white","no","yes","576","legacy","49","49","3","C:/Users/User/subject-5205644.csv","legacy","Lentiform Loewenfeld","3.3.8","yes","yes","600bd7cfb6416f0113b04181","602110864497cf011d9c0822","0","f","NA","space","space","space","NA","f","652","NA","1308","7814","3652","NA","652","2","legacy","1024","2","48000","-16","task","5205644","even","NA","30345","33656","32346","122587","10591","22065","18412","123089","NA","122585","123089","122538","33656","123742","28850","122038","10542","86240","Lexical Decision Task","46","32030","54","yes","1024"
"2.821076612","0","4","lult","non-word","85.45454545454545","85.45454545454545","598.8545454545455","598.8545454545455","black","no","legacy","legacy","legacy","0","uniform","1","undefined","undefined","undefined","1","f","0","0","0","0","54","0","0","0","54","0","50","54","50","0","50","3","54","0","54","Mon Feb 22 20:58:03 2021","The main experiment item","yes","Lexical_Decision_Task.osexp","C:/Users/User","no","Andale Mono","no","18","no","white","no","yes","576","legacy","50","50","3","C:/Users/User/subject-5205644.csv","legacy","Lentiform Loewenfeld","3.3.8","yes","yes","600bd7cfb6416f0113b04181","602110864497cf011d9c0822","0","f","NA","space","space","space","space","f","907","NA","1308","7814","3652","23215","907","2","legacy","1024","2","48000","-16","task","5205644","even","NA","30345","33656","32346","147559","10591","22065","18412","148060","124285","147557","148060","124250","33656","148967","28850","123749","10542","86240","Lexical Decision Task","47","32937","55","yes","1024"
"2.880623071","0","9","curp","non-word","85.71428571428571","85.71428571428571","597.875","597.875","black","no","legacy","legacy","legacy","0","uniform","1","undefined","undefined","undefined","1","f","0","0","0","0","55","0","0","0","55","0","51","55","51","0","51","3","55","0","55","Mon Feb 22 20:58:03 2021","The main experiment item","yes","Lexical_Decision_Task.osexp","C:/Users/User","no","Andale Mono","no","18","no","white","no","yes","576","legacy","51","51","3","C:/Users/User/subject-5205644.csv","legacy","Lentiform Loewenfeld","3.3.8","yes","yes","600bd7cfb6416f0113b04181","602110864497cf011d9c0822","0","f","NA","space","space","space","space","f","544","NA","1308","7814","3652","23215","544","2","legacy","1024","2","48000","-16","task","5205644","even","NA","30345","33656","32346","149525","10591","22065","18412","150026","124285","149523","150026","149473","33656","150571","28850","148973","10542","86240","Lexical Decision Task","48","33481","56","yes","1024"
"2.899092422","7.27","6","snag","word","85.96491228070175","85.96491228070175","600","600","black","no","legacy","legacy","legacy","0","uniform","1","undefined","undefined","undefined","1","j","0","0","0","0","56","0","0","0","56","0","52","56","52","0","52","3","56","0","56","Mon Feb 22 20:58:03 2021","The main experiment item","yes","Lexical_Decision_Task.osexp","C:/Users/User","no","Andale Mono","no","18","no","white","no","yes","576","legacy","52","52","3","C:/Users/User/subject-5205644.csv","legacy","Lentiform Loewenfeld","3.3.8","yes","yes","600bd7cfb6416f0113b04181","602110864497cf011d9c0822","0","j","NA","space","space","space","space","j","719","NA","1308","7814","3652","23215","719","2","legacy","1024","2","48000","-16","task","5205644","even","NA","30345","33656","32346","151134","10591","22065","18412","151635","124285","151133","151635","151081","33656","152356","28850","150581","10542","86240","Lexical Decision Task","49","34200","57","yes","1024"
"3.307211407","6.07","7","honk","word","86.20689655172414","86.20689655172414","599.2931034482758","599.2931034482758","black","no","legacy","legacy","legacy","0","uniform","1","undefined","undefined","undefined","1","j","0","0","0","0","57","0","0","0","57","0","53","57","53","0","53","3","57","0","57","Mon Feb 22 20:58:03 2021","The main experiment item","yes","Lexical_Decision_Task.osexp","C:/Users/User","no","Andale Mono","no","18","no","white","no","yes","576","legacy","53","53","3","C:/Users/User/subject-5205644.csv","legacy","Lentiform Loewenfeld","3.3.8","yes","yes","600bd7cfb6416f0113b04181","602110864497cf011d9c0822","0","j","NA","space","space","space","space","j","559","NA","1308","7814","3652","23215","559","2","legacy","1024","2","48000","-16","task","5205644","even","NA","30345","33656","32346","152915","10591","22065","18412","153417","124285","152914","153417","152862","33656","153977","28850","152362","10542","86240","Lexical Decision Task","50","34759","58","yes","1024"
"3.208978517","10.33","4","fish","word","86.44067796610169","86.44067796610169","596.8813559322034","596.8813559322034","black","no","legacy","legacy","legacy","0","uniform","1","undefined","undefined","undefined","1","j","0","0","0","0","58","0","0","0","58","0","54","58","54","0","54","3","58","0","58","Mon Feb 22 20:58:03 2021","The main experiment item","yes","Lexical_Decision_Task.osexp","C:/Users/User","no","Andale Mono","no","18","no","white","no","yes","576","legacy","54","54","3","C:/Users/User/subject-5205644.csv","legacy","Lentiform Loewenfeld","3.3.8","yes","yes","600bd7cfb6416f0113b04181","602110864497cf011d9c0822","0","j","NA","space","space","space","space","j","457","NA","1308","7814","3652","23215","457","2","legacy","1024","2","48000","-16","task","5205644","even","NA","30345","33656","32346","154532","10591","22065","18412","155032","124285","154530","155032","154481","33656","155490","28850","153981","10542","86240","Lexical Decision Task","51","35216","59","yes","1024"
"3.132473155","0","4","glim","non-word","85","85","595.0166666666667","595.0166666666667","black","no","legacy","legacy","legacy","0","uniform","0","undefined","undefined","undefined","0","f","0","0","0","0","59","0","0","0","59","0","55","59","55","0","55","3","59","0","59","Mon Feb 22 20:58:03 2021","The main experiment item","yes","Lexical_Decision_Task.osexp","C:/Users/User","no","Andale Mono","no","18","no","white","no","yes","576","legacy","55","55","3","C:/Users/User/subject-5205644.csv","legacy","Lentiform Loewenfeld","3.3.8","yes","yes","600bd7cfb6416f0113b04181","602110864497cf011d9c0822","0","j","NA","space","space","space","space","j","485","NA","1308","7814","3652","23215","485","2","legacy","1024","2","48000","-16","task","5205644","even","NA","30345","33656","32346","156047","10591","22065","18412","156547","124285","156046","156547","155995","33656","157033","28850","155495","10542","86240","Lexical Decision Task","51","35701","60","yes","1024"
"3.29439347","8.6","9","wand","word","85.24590163934427","85.24590163934427","594.5737704918033","594.5737704918033","black","no","legacy","legacy","legacy","0","uniform","1","undefined","undefined","undefined","1","j","0","0","0","0","60","0","0","0","60","0","56","60","56","0","56","3","60","0","60","Mon Feb 22 20:58:03 2021","The main experiment item","yes","Lexical_Decision_Task.osexp","C:/Users/User","no","Andale Mono","no","18","no","white","no","yes","576","legacy","56","56","3","C:/Users/User/subject-5205644.csv","legacy","Lentiform Loewenfeld","3.3.8","yes","yes","600bd7cfb6416f0113b04181","602110864497cf011d9c0822","0","j","NA","space","space","space","space","j","568","NA","1308","7814","3652","23215","568","2","legacy","1024","2","48000","-16","task","5205644","even","NA","30345","33656","32346","158594","10591","22065","18412","159095","124285","158591","159095","158538","33656","159664","28850","155495","10542","157038","Lexical Decision Task","52","36269","61","yes","1024"
"3.121778632","0","9","sark","non-word","85.48387096774194","85.48387096774194","594.8064516129032","594.8064516129032","black","no","legacy","legacy","legacy","0","uniform","1","undefined","undefined","undefined","1","f","0","0","0","0","61","0","0","0","61","0","57","61","57","0","57","3","61","0","61","Mon Feb 22 20:58:03 2021","The main experiment item","yes","Lexical_Decision_Task.osexp","C:/Users/User","no","Andale Mono","no","18","no","white","no","yes","576","legacy","57","57","3","C:/Users/User/subject-5205644.csv","legacy","Lentiform Loewenfeld","3.3.8","yes","yes","600bd7cfb6416f0113b04181","602110864497cf011d9c0822","0","f","NA","space","space","space","space","f","609","NA","1308","7814","3652","23215","609","2","legacy","1024","2","48000","-16","task","5205644","even","NA","30345","33656","32346","160322","10591","22065","18412","160824","124285","160321","160824","160272","33656","161434","28850","159772","10542","157038","Lexical Decision Task","53","36878","62","yes","1024"
"3.066077331","0","7","vorn","non-word","85.71428571428571","85.71428571428571","593.9206349206349","593.9206349206349","black","no","legacy","legacy","legacy","0","uniform","1","undefined","undefined","undefined","1","f","0","0","0","0","62","0","0","0","62","0","58","62","58","0","58","3","62","0","62","Mon Feb 22 20:58:03 2021","The main experiment item","yes","Lexical_Decision_Task.osexp","C:/Users/User","no","Andale Mono","no","18","no","white","no","yes","576","legacy","58","58","3","C:/Users/User/subject-5205644.csv","legacy","Lentiform Loewenfeld","3.3.8","yes","yes","600bd7cfb6416f0113b04181","602110864497cf011d9c0822","0","f","NA","space","space","space","space","f","539","NA","1308","7814","3652","23215","539","2","legacy","1024","2","48000","-16","task","5205644","even","NA","30345","33656","32346","161990","10591","22065","18412","162491","124285","161988","162491","161939","33656","163034","28850","161439","10542","157038","Lexical Decision Task","54","37417","63","yes","1024"
"3.133964479","0","8","graw","non-word","84.375","84.375","593.078125","593.078125","black","no","legacy","legacy","legacy","0","uniform","0","undefined","undefined","undefined","0","f","0","0","0","0","63","0","0","0","63","0","59","63","59","0","59","3","63","0","63","Mon Feb 22 20:58:03 2021","The main experiment item","yes","Lexical_Decision_Task.osexp","C:/Users/User","no","Andale Mono","no","18","no","white","no","yes","576","legacy","59","59","3","C:/Users/User/subject-5205644.csv","legacy","Lentiform Loewenfeld","3.3.8","yes","yes","600bd7cfb6416f0113b04181","602110864497cf011d9c0822","0","j","NA","space","space","space","space","j","540","NA","1308","7814","3652","23215","540","2","legacy","1024","2","48000","-16","task","5205644","even","NA","30345","33656","32346","163588","10591","22065","18412","164089","124285","163587","164089","163538","33656","164630","28850","163038","10542","157038","Lexical Decision Task","54","37957","64","yes","1024"
"2.693726949","5.08","3","swig","word","83.07692307692308","83.07692307692308","595.0461538461539","595.0461538461539","black","no","legacy","legacy","legacy","0","uniform","0","undefined","undefined","undefined","0","j","0","0","0","0","64","0","0","0","64","0","60","64","60","0","60","3","64","0","64","Mon Feb 22 20:58:03 2021","The main experiment item","yes","Lexical_Decision_Task.osexp","C:/Users/User","no","Andale Mono","no","18","no","white","no","yes","576","legacy","60","60","3","C:/Users/User/subject-5205644.csv","legacy","Lentiform Loewenfeld","3.3.8","yes","yes","600bd7cfb6416f0113b04181","602110864497cf011d9c0822","0","f","NA","space","space","space","space","f","721","NA","1308","7814","3652","23215","721","2","legacy","1024","2","48000","-16","task","5205644","even","NA","30345","33656","32346","166188","10591","22065","18412","166689","124285","166187","166689","166135","33656","167410","28850","163038","10542","164635","Lexical Decision Task","54","38678","65","yes","1024"
"3.382617311","0","4","pret","non-word","83.33333333333333","83.33333333333333","600.4545454545455","600.4545454545455","black","no","legacy","legacy","legacy","0","uniform","1","undefined","undefined","undefined","1","f","0","0","0","0","65","0","0","0","65","0","61","65","61","0","61","3","65","0","65","Mon Feb 22 20:58:03 2021","The main experiment item","yes","Lexical_Decision_Task.osexp","C:/Users/User","no","Andale Mono","no","18","no","white","no","yes","576","legacy","61","61","3","C:/Users/User/subject-5205644.csv","legacy","Lentiform Loewenfeld","3.3.8","yes","yes","600bd7cfb6416f0113b04181","602110864497cf011d9c0822","0","f","NA","space","space","space","space","f","952","NA","1308","7814","3652","23215","952","2","legacy","1024","2","48000","-16","task","5205644","even","NA","30345","33656","32346","168967","10591","22065","18412","169468","124285","168966","169469","168915","33656","170422","28850","163038","10542","167415","Lexical Decision Task","55","39630","66","yes","1024"
"2.897810299","0","5","glur","non-word","83.58208955223881","83.58208955223881","602.1044776119403","602.1044776119403","black","no","legacy","legacy","legacy","0","uniform","1","undefined","undefined","undefined","1","f","0","0","0","0","66","0","0","0","66","0","62","66","62","0","62","3","66","0","66","Mon Feb 22 20:58:03 2021","The main experiment item","yes","Lexical_Decision_Task.osexp","C:/Users/User","no","Andale Mono","no","18","no","white","no","yes","576","legacy","62","62","3","C:/Users/User/subject-5205644.csv","legacy","Lentiform Loewenfeld","3.3.8","yes","yes","600bd7cfb6416f0113b04181","602110864497cf011d9c0822","0","f","NA","space","space","space","space","f","711","NA","1308","7814","3652","23215","711","2","legacy","1024","2","48000","-16","task","5205644","even","NA","30345","33656","32346","170977","10591","22065","18412","171478","124285","170975","171479","170927","33656","172191","28850","170427","10542","167415","Lexical Decision Task","56","40341","67","yes","1024"
"2.698100546","0","9","mulk","non-word","83.82352941176471","83.82352941176471","603.4117647058823","603.4117647058823","black","no","legacy","legacy","legacy","0","uniform","1","undefined","undefined","undefined","1","f","0","0","0","0","67","0","0","0","67","0","63","67","63","0","63","3","67","0","67","Mon Feb 22 20:58:03 2021","The main experiment item","yes","Lexical_Decision_Task.osexp","C:/Users/User","no","Andale Mono","no","18","no","white","no","yes","576","legacy","63","63","3","C:/Users/User/subject-5205644.csv","legacy","Lentiform Loewenfeld","3.3.8","yes","yes","600bd7cfb6416f0113b04181","602110864497cf011d9c0822","0","f","NA","space","space","space","space","f","691","NA","1308","7814","3652","23215","691","2","legacy","1024","2","48000","-16","task","5205644","even","NA","30345","33656","32346","172744","10591","22065","18412","173246","124285","172743","173246","172695","33656","173939","28850","172195","10542","167415","Lexical Decision Task","57","41032","68","yes","1024"
"3.20996159","0","4","clee","non-word","84.05797101449275","84.05797101449275","602.695652173913","602.695652173913","black","no","legacy","legacy","legacy","0","uniform","1","undefined","undefined","undefined","1","f","0","0","0","0","68","0","0","0","68","0","64","68","64","0","64","3","68","0","68","Mon Feb 22 20:58:03 2021","The main experiment item","yes","Lexical_Decision_Task.osexp","C:/Users/User","no","Andale Mono","no","18","no","white","no","yes","576","legacy","64","64","3","C:/Users/User/subject-5205644.csv","legacy","Lentiform Loewenfeld","3.3.8","yes","yes","600bd7cfb6416f0113b04181","602110864497cf011d9c0822","0","f","NA","space","space","space","space","f","554","NA","1308","7814","3652","23215","554","2","legacy","1024","2","48000","-16","task","5205644","even","NA","30345","33656","32346","174493","10591","22065","18412","174994","124285","174492","174995","174445","33656","175550","28850","173944","10542","167415","Lexical Decision Task","58","41586","69","yes","1024"
"3.102203805","7.21","3","drip","word","84.28571428571429","84.28571428571429","601.4142857142857","601.4142857142857","black","no","legacy","legacy","legacy","0","uniform","1","undefined","undefined","undefined","1","j","0","0","0","0","69","0","0","0","69","0","65","69","65","0","65","3","69","0","69","Mon Feb 22 20:58:03 2021","The main experiment item","yes","Lexical_Decision_Task.osexp","C:/Users/User","no","Andale Mono","no","18","no","white","no","yes","576","legacy","65","65","3","C:/Users/User/subject-5205644.csv","legacy","Lentiform Loewenfeld","3.3.8","yes","yes","600bd7cfb6416f0113b04181","602110864497cf011d9c0822","0","j","NA","space","space","space","space","j","513","NA","1308","7814","3652","23215","513","2","legacy","1024","2","48000","-16","task","5205644","even","NA","30345","33656","32346","176106","10591","22065","18412","176607","124285","176105","176607","176056","33656","177121","28850","175556","10542","167415","Lexical Decision Task","59","42099","70","yes","1024"
"3.091901331","0","9","nipe","non-word","84.50704225352112","84.50704225352112","602.8591549295775","602.8591549295775","black","no","legacy","legacy","legacy","0","uniform","1","undefined","undefined","undefined","1","f","0","0","0","0","70","0","0","0","70","0","66","70","66","0","66","3","70","0","70","Mon Feb 22 20:58:03 2021","The main experiment item","yes","Lexical_Decision_Task.osexp","C:/Users/User","no","Andale Mono","no","18","no","white","no","yes","576","legacy","66","66","3","C:/Users/User/subject-5205644.csv","legacy","Lentiform Loewenfeld","3.3.8","yes","yes","600bd7cfb6416f0113b04181","602110864497cf011d9c0822","0","f","NA","space","space","space","space","f","704","NA","1308","7814","3652","23215","704","2","legacy","1024","2","48000","-16","task","5205644","even","NA","30345","33656","32346","177676","10591","22065","18412","178177","124285","177675","178177","177626","33656","178882","28850","177126","10542","167415","Lexical Decision Task","60","42803","71","yes","1024"
"2.794720352","0","9","koot","non-word","84.72222222222223","84.72222222222223","604.4166666666666","604.4166666666666","black","no","legacy","legacy","legacy","0","uniform","1","undefined","undefined","undefined","1","f","0","0","0","0","71","0","0","0","71","0","67","71","67","0","67","3","71","0","71","Mon Feb 22 20:58:03 2021","The main experiment item","yes","Lexical_Decision_Task.osexp","C:/Users/User","no","Andale Mono","no","18","no","white","no","yes","576","legacy","67","67","3","C:/Users/User/subject-5205644.csv","legacy","Lentiform Loewenfeld","3.3.8","yes","yes","600bd7cfb6416f0113b04181","602110864497cf011d9c0822","0","f","NA","space","space","space","space","f","715","NA","1308","7814","3652","23215","715","2","legacy","1024","2","48000","-16","task","5205644","even","NA","30345","33656","32346","179436","10591","22065","18412","179938","124285","179435","179938","179386","33656","180654","28850","178886","10542","167415","Lexical Decision Task","61","43518","72","yes","1024"
"2.664011697","8.19","4","hawk","word","84.93150684931507","84.93150684931507","604.054794520548","604.054794520548","black","no","legacy","legacy","legacy","0","uniform","1","undefined","undefined","undefined","1","j","0","0","0","0","72","0","0","0","72","0","68","72","68","0","68","3","72","0","72","Mon Feb 22 20:58:03 2021","The main experiment item","yes","Lexical_Decision_Task.osexp","C:/Users/User","no","Andale Mono","no","18","no","white","no","yes","576","legacy","68","68","3","C:/Users/User/subject-5205644.csv","legacy","Lentiform Loewenfeld","3.3.8","yes","yes","600bd7cfb6416f0113b04181","602110864497cf011d9c0822","0","j","NA","space","space","space","space","j","578","NA","1308","7814","3652","23215","578","2","legacy","1024","2","48000","-16","task","5205644","even","NA","30345","33656","32346","181211","10591","22065","18412","181712","124285","181210","181712","181158","33656","182291","28850","180658","10542","167415","Lexical Decision Task","62","44096","73","yes","1024"
"2.95456409","0","4","taud","non-word","85.13513513513513","85.13513513513513","602.472972972973","602.472972972973","black","no","legacy","legacy","legacy","0","uniform","1","undefined","undefined","undefined","1","f","0","0","0","0","73","0","0","0","73","0","69","73","69","0","69","3","73","0","73","Mon Feb 22 20:58:03 2021","The main experiment item","yes","Lexical_Decision_Task.osexp","C:/Users/User","no","Andale Mono","no","18","no","white","no","yes","576","legacy","69","69","3","C:/Users/User/subject-5205644.csv","legacy","Lentiform Loewenfeld","3.3.8","yes","yes","600bd7cfb6416f0113b04181","602110864497cf011d9c0822","0","f","NA","space","space","space","space","f","487","NA","1308","7814","3652","23215","487","2","legacy","1024","2","48000","-16","task","5205644","even","NA","30345","33656","32346","182846","10591","22065","18412","183347","124285","182844","183347","182796","33656","183834","28850","182296","10542","167415","Lexical Decision Task","63","44583","74","yes","1024"
"3.003891166","8.05","2","frog","word","85.33333333333333","85.33333333333333","601.88","601.88","black","no","legacy","legacy","legacy","0","uniform","1","undefined","undefined","undefined","1","j","0","0","0","0","74","0","0","0","74","0","70","74","70","0","70","3","74","0","74","Mon Feb 22 20:58:03 2021","The main experiment item","yes","Lexical_Decision_Task.osexp","C:/Users/User","no","Andale Mono","no","18","no","white","no","yes","576","legacy","70","70","3","C:/Users/User/subject-5205644.csv","legacy","Lentiform Loewenfeld","3.3.8","yes","yes","600bd7cfb6416f0113b04181","602110864497cf011d9c0822","0","j","NA","space","space","space","space","j","558","NA","1308","7814","3652","23215","558","2","legacy","1024","2","48000","-16","task","5205644","even","NA","30345","33656","32346","184388","10591","22065","18412","184889","124285","184386","184890","184339","33656","185449","28850","183839","10542","167415","Lexical Decision Task","64","45141","75","yes","1024"
"3.120135028","0","3","vals","non-word","85.52631578947368","85.52631578947368","600.5131578947369","600.5131578947369","black","no","legacy","legacy","legacy","0","uniform","1","undefined","undefined","undefined","1","f","0","0","0","0","75","0","0","0","75","0","71","75","71","0","71","3","75","0","75","Mon Feb 22 20:58:03 2021","The main experiment item","yes","Lexical_Decision_Task.osexp","C:/Users/User","no","Andale Mono","no","18","no","white","no","yes","576","legacy","71","71","3","C:/Users/User/subject-5205644.csv","legacy","Lentiform Loewenfeld","3.3.8","yes","yes","600bd7cfb6416f0113b04181","602110864497cf011d9c0822","0","f","NA","space","space","space","space","f","498","NA","1308","7814","3652","23215","498","2","legacy","1024","2","48000","-16","task","5205644","even","NA","30345","33656","32346","186004","10591","22065","18412","186505","124285","186002","186505","185954","33656","187005","28850","185454","10542","167415","Lexical Decision Task","65","45639","76","yes","1024"
"2.996511672","0","7","hoil","non-word","84.41558441558442","84.41558441558442","600.6363636363636","600.6363636363636","black","no","legacy","legacy","legacy","0","uniform","0","undefined","undefined","undefined","0","f","0","0","0","0","76","0","0","0","76","0","72","76","72","0","72","3","76","0","76","Mon Feb 22 20:58:03 2021","The main experiment item","yes","Lexical_Decision_Task.osexp","C:/Users/User","no","Andale Mono","no","18","no","white","no","yes","576","legacy","72","72","3","C:/Users/User/subject-5205644.csv","legacy","Lentiform Loewenfeld","3.3.8","yes","yes","600bd7cfb6416f0113b04181","602110864497cf011d9c0822","0","j","NA","space","space","space","space","j","610","NA","1308","7814","3652","23215","610","2","legacy","1024","2","48000","-16","task","5205644","even","NA","30345","33656","32346","187559","10591","22065","18412","188060","124285","187557","188060","187510","33656","188671","28850","187010","10542","167415","Lexical Decision Task","65","46249","77","yes","1024"
"3.261341392","5.08","8","reek","word","83.33333333333333","83.33333333333333","603.6282051282051","603.6282051282051","black","no","legacy","legacy","legacy","0","uniform","0","undefined","undefined","undefined","0","j","0","0","0","0","77","0","0","0","77","0","73","77","73","0","73","3","77","0","77","Mon Feb 22 20:58:03 2021","The main experiment item","yes","Lexical_Decision_Task.osexp","C:/Users/User","no","Andale Mono","no","18","no","white","no","yes","576","legacy","73","73","3","C:/Users/User/subject-5205644.csv","legacy","Lentiform Loewenfeld","3.3.8","yes","yes","600bd7cfb6416f0113b04181","602110864497cf011d9c0822","0","f","NA","space","space","space","space","f","834","NA","1308","7814","3652","23215","834","2","legacy","1024","2","48000","-16","task","5205644","even","NA","30345","33656","32346","190228","10591","22065","18412","190729","124285","190226","190729","190176","33656","191564","28850","187010","10542","188676","Lexical Decision Task","65","47083","78","yes","1024"
"2.784379519","0","2","snaf","non-word","83.54430379746836","83.54430379746836","604.6582278481013","604.6582278481013","black","no","legacy","legacy","legacy","0","uniform","1","undefined","undefined","undefined","1","f","0","0","0","0","78","0","0","0","78","0","74","78","74","0","74","3","78","0","78","Mon Feb 22 20:58:03 2021","The main experiment item","yes","Lexical_Decision_Task.osexp","C:/Users/User","no","Andale Mono","no","18","no","white","no","yes","576","legacy","74","74","3","C:/Users/User/subject-5205644.csv","legacy","Lentiform Loewenfeld","3.3.8","yes","yes","600bd7cfb6416f0113b04181","602110864497cf011d9c0822","0","f","NA","space","space","space","space","f","685","NA","1308","7814","3652","23215","685","2","legacy","1024","2","48000","-16","task","5205644","even","NA","30345","33656","32346","193122","10591","22065","18412","193623","124285","193121","193623","193070","33656","194309","28850","187010","10542","191570","Lexical Decision Task","66","47768","79","yes","1024"
"3.153104174","10.89","6","door","word","83.75","83.75","603.7125","603.7125","black","no","legacy","legacy","legacy","0","uniform","1","undefined","undefined","undefined","1","j","0","0","0","0","79","0","0","0","79","0","75","79","75","0","75","3","79","0","79","Mon Feb 22 20:58:03 2021","The main experiment item","yes","Lexical_Decision_Task.osexp","C:/Users/User","no","Andale Mono","no","18","no","white","no","yes","576","legacy","75","75","3","C:/Users/User/subject-5205644.csv","legacy","Lentiform Loewenfeld","3.3.8","yes","yes","600bd7cfb6416f0113b04181","602110864497cf011d9c0822","0","j","NA","space","space","space","space","j","529","NA","1308","7814","3652","23215","529","2","legacy","1024","2","48000","-16","task","5205644","even","NA","30345","33656","32346","194865","10591","22065","18412","195366","124285","194863","195366","194814","33656","195896","28850","194314","10542","191570","Lexical Decision Task","67","48297","80","yes","1024"
"3.230789326","5.38","5","prim","word","82.71604938271605","82.71604938271605","607.4074074074074","607.4074074074074","black","no","legacy","legacy","legacy","0","uniform","0","undefined","undefined","undefined","0","j","0","0","0","0","80","0","0","0","80","0","76","80","76","0","76","3","80","0","80","Mon Feb 22 20:58:03 2021","The main experiment item","yes","Lexical_Decision_Task.osexp","C:/Users/User","no","Andale Mono","no","18","no","white","no","yes","576","legacy","76","76","3","C:/Users/User/subject-5205644.csv","legacy","Lentiform Loewenfeld","3.3.8","yes","yes","600bd7cfb6416f0113b04181","602110864497cf011d9c0822","0","f","NA","space","space","space","space","f","903","NA","1308","7814","3652","23215","903","2","legacy","1024","2","48000","-16","task","5205644","even","NA","30345","33656","32346","196450","10591","22065","18412","196951","124285","196448","196951","196401","33656","197855","28850","195901","10542","191570","Lexical Decision Task","67","49200","81","yes","1024"
"3.474361976","5.24","6","veer","word","82.92682926829268","82.92682926829268","610.890243902439","610.890243902439","black","no","legacy","legacy","legacy","0","uniform","1","undefined","undefined","undefined","1","j","0","0","0","0","81","0","0","0","81","0","77","81","77","0","77","3","81","0","81","Mon Feb 22 20:58:03 2021","The main experiment item","yes","Lexical_Decision_Task.osexp","C:/Users/User","no","Andale Mono","no","18","no","white","no","yes","576","legacy","77","77","3","C:/Users/User/subject-5205644.csv","legacy","Lentiform Loewenfeld","3.3.8","yes","yes","600bd7cfb6416f0113b04181","602110864497cf011d9c0822","0","j","NA","space","space","space","space","j","893","NA","1308","7814","3652","23215","893","2","legacy","1024","2","48000","-16","task","5205644","even","NA","30345","33656","32346","199412","10591","22065","18412","199913","124285","199411","199913","199360","33656","200807","28850","195901","10542","197860","Lexical Decision Task","68","50093","82","yes","1024"
"3.257359335","8","6","brew","word","83.13253012048193","83.13253012048193","611.9397590361446","611.9397590361446","black","no","legacy","legacy","legacy","0","uniform","1","undefined","undefined","undefined","1","j","0","0","0","0","82","0","0","0","82","0","78","82","78","0","78","3","82","0","82","Mon Feb 22 20:58:03 2021","The main experiment item","yes","Lexical_Decision_Task.osexp","C:/Users/User","no","Andale Mono","no","18","no","white","no","yes","576","legacy","78","78","3","C:/Users/User/subject-5205644.csv","legacy","Lentiform Loewenfeld","3.3.8","yes","yes","600bd7cfb6416f0113b04181","602110864497cf011d9c0822","0","j","NA","space","space","space","space","j","698","NA","1308","7814","3652","23215","698","2","legacy","1024","2","48000","-16","task","5205644","even","NA","30345","33656","32346","201365","10591","22065","18412","201866","124285","201363","201866","201311","33656","202565","28850","200811","10542","197860","Lexical Decision Task","69","50791","83","yes","1024"
"3.263399331","0","8","cour","non-word","83.33333333333333","83.33333333333333","611.8095238095239","611.8095238095239","black","no","legacy","legacy","legacy","0","uniform","1","undefined","undefined","undefined","1","f","0","0","0","0","83","0","0","0","83","0","79","83","79","0","79","3","83","0","83","Mon Feb 22 20:58:03 2021","The main experiment item","yes","Lexical_Decision_Task.osexp","C:/Users/User","no","Andale Mono","no","18","no","white","no","yes","576","legacy","79","79","3","C:/Users/User/subject-5205644.csv","legacy","Lentiform Loewenfeld","3.3.8","yes","yes","600bd7cfb6416f0113b04181","602110864497cf011d9c0822","0","f","NA","space","space","space","space","f","601","NA","1308","7814","3652","23215","601","2","legacy","1024","2","48000","-16","task","5205644","even","NA","30345","33656","32346","203120","10591","22065","18412","203621","124285","203118","203621","203070","33656","204223","28850","202570","10542","197860","Lexical Decision Task","70","51392","84","yes","1024"
"3.062080345","0","6","tomp","non-word","83.52941176470588","83.52941176470588","612.7647058823529","612.7647058823529","black","no","legacy","legacy","legacy","0","uniform","1","undefined","undefined","undefined","1","f","0","0","0","0","84","0","0","0","84","0","80","84","80","0","80","3","84","0","84","Mon Feb 22 20:58:03 2021","The main experiment item","yes","Lexical_Decision_Task.osexp","C:/Users/User","no","Andale Mono","no","18","no","white","no","yes","576","legacy","80","80","3","C:/Users/User/subject-5205644.csv","legacy","Lentiform Loewenfeld","3.3.8","yes","yes","600bd7cfb6416f0113b04181","602110864497cf011d9c0822","0","f","NA","space","space","space","space","f","693","NA","1308","7814","3652","23215","693","2","legacy","1024","2","48000","-16","task","5205644","even","NA","30345","33656","32346","204777","10591","22065","18412","205278","124285","204776","205278","204728","33656","205972","28850","204228","10542","197860","Lexical Decision Task","71","52085","85","yes","1024"
"2.807758206","6.25","4","hurl","word","83.72093023255815","83.72093023255815","613.2906976744187","613.2906976744187","black","no","legacy","legacy","legacy","0","uniform","1","undefined","undefined","undefined","1","j","0","0","0","0","85","0","0","0","85","0","81","85","81","0","81","3","85","0","85","Mon Feb 22 20:58:03 2021","The main experiment item","yes","Lexical_Decision_Task.osexp","C:/Users/User","no","Andale Mono","no","18","no","white","no","yes","576","legacy","81","81","3","C:/Users/User/subject-5205644.csv","legacy","Lentiform Loewenfeld","3.3.8","yes","yes","600bd7cfb6416f0113b04181","602110864497cf011d9c0822","0","j","NA","space","space","space","space","j","658","NA","1308","7814","3652","23215","658","2","legacy","1024","2","48000","-16","task","5205644","even","NA","30345","33656","32346","206525","10591","22065","18412","207026","124285","206523","207026","206476","33656","207685","28850","205976","10542","197860","Lexical Decision Task","72","52743","86","yes","1024"
"2.746890964","9.67","3","plug","word","82.75862068965517","82.75862068965517","612.9540229885057","612.9540229885057","black","no","legacy","legacy","legacy","0","uniform","0","undefined","undefined","undefined","0","j","0","0","0","0","86","0","0","0","86","0","82","86","82","0","82","3","86","0","86","Mon Feb 22 20:58:03 2021","The main experiment item","yes","Lexical_Decision_Task.osexp","C:/Users/User","no","Andale Mono","no","18","no","white","no","yes","576","legacy","82","82","3","C:/Users/User/subject-5205644.csv","legacy","Lentiform Loewenfeld","3.3.8","yes","yes","600bd7cfb6416f0113b04181","602110864497cf011d9c0822","0","f","NA","space","space","space","space","f","584","NA","1308","7814","3652","23215","584","2","legacy","1024","2","48000","-16","task","5205644","even","NA","30345","33656","32346","208245","10591","22065","18412","208746","124285","208244","208746","208191","33656","209331","28850","207691","10542","197860","Lexical Decision Task","72","53327","87","yes","1024"
"2.695770526","7.34","6","pawn","word","82.95454545454545","82.95454545454545","612.875","612.875","black","no","legacy","legacy","legacy","0","uniform","1","undefined","undefined","undefined","1","j","0","0","0","0","87","0","0","0","87","0","83","87","83","0","83","3","87","0","87","Mon Feb 22 20:58:03 2021","The main experiment item","yes","Lexical_Decision_Task.osexp","C:/Users/User","no","Andale Mono","no","18","no","white","no","yes","576","legacy","83","83","3","C:/Users/User/subject-5205644.csv","legacy","Lentiform Loewenfeld","3.3.8","yes","yes","600bd7cfb6416f0113b04181","602110864497cf011d9c0822","0","j","NA","space","space","space","space","j","606","NA","1308","7814","3652","23215","606","2","legacy","1024","2","48000","-16","task","5205644","even","NA","30345","33656","32346","210887","10591","22065","18412","211388","124285","210885","211388","210835","33656","211995","28850","207691","10542","209335","Lexical Decision Task","73","53933","88","yes","1024"
"3.105055783","0","2","norp","non-word","83.14606741573034","83.14606741573034","612.6179775280899","612.6179775280899","black","no","legacy","legacy","legacy","0","uniform","1","undefined","undefined","undefined","1","f","0","0","0","0","88","0","0","0","88","0","84","88","84","0","84","3","88","0","88","Mon Feb 22 20:58:03 2021","The main experiment item","yes","Lexical_Decision_Task.osexp","C:/Users/User","no","Andale Mono","no","18","no","white","no","yes","576","legacy","84","84","3","C:/Users/User/subject-5205644.csv","legacy","Lentiform Loewenfeld","3.3.8","yes","yes","600bd7cfb6416f0113b04181","602110864497cf011d9c0822","0","f","NA","space","space","space","space","f","590","NA","1308","7814","3652","23215","590","2","legacy","1024","2","48000","-16","task","5205644","even","NA","30345","33656","32346","212551","10591","22065","18412","213052","124285","212549","213052","212501","33656","213643","28850","212001","10542","209335","Lexical Decision Task","74","54523","89","yes","1024"
"3.067070856","9.39","3","loud","word","83.33333333333333","83.33333333333333","611.4333333333333","611.4333333333333","black","no","legacy","legacy","legacy","0","uniform","1","undefined","undefined","undefined","1","j","0","0","0","0","89","0","0","0","89","0","85","89","85","0","85","3","89","0","89","Mon Feb 22 20:58:03 2021","The main experiment item","yes","Lexical_Decision_Task.osexp","C:/Users/User","no","Andale Mono","no","18","no","white","no","yes","576","legacy","85","85","3","C:/Users/User/subject-5205644.csv","legacy","Lentiform Loewenfeld","3.3.8","yes","yes","600bd7cfb6416f0113b04181","602110864497cf011d9c0822","0","j","NA","space","space","space","space","j","506","NA","1308","7814","3652","23215","506","2","legacy","1024","2","48000","-16","task","5205644","even","NA","30345","33656","32346","214197","10591","22065","18412","214698","124285","214195","214698","214147","33656","215205","28850","213647","10542","209335","Lexical Decision Task","75","55029","90","yes","1024"
"3.440331212","7.35","6","stew","word","83.51648351648352","83.51648351648352","611.8021978021978","611.8021978021978","black","no","legacy","legacy","legacy","0","uniform","1","undefined","undefined","undefined","1","j","0","0","0","0","90","0","0","0","90","0","86","90","86","0","86","3","90","0","90","Mon Feb 22 20:58:03 2021","The main experiment item","yes","Lexical_Decision_Task.osexp","C:/Users/User","no","Andale Mono","no","18","no","white","no","yes","576","legacy","86","86","3","C:/Users/User/subject-5205644.csv","legacy","Lentiform Loewenfeld","3.3.8","yes","yes","600bd7cfb6416f0113b04181","602110864497cf011d9c0822","0","j","NA","space","space","space","space","j","645","NA","1308","7814","3652","23215","645","2","legacy","1024","2","48000","-16","task","5205644","even","NA","30345","33656","32346","215761","10591","22065","18412","216262","124285","215759","216262","215710","33656","216908","28850","215210","10542","209335","Lexical Decision Task","76","55674","91","yes","1024"
"3.15462682","0","6","noal","non-word","83.69565217391305","83.69565217391305","611.054347826087","611.054347826087","black","no","legacy","legacy","legacy","0","uniform","1","undefined","undefined","undefined","1","f","0","0","0","0","91","0","0","0","91","0","87","91","87","0","87","3","91","0","91","Mon Feb 22 20:58:03 2021","The main experiment item","yes","Lexical_Decision_Task.osexp","C:/Users/User","no","Andale Mono","no","18","no","white","no","yes","576","legacy","87","87","3","C:/Users/User/subject-5205644.csv","legacy","Lentiform Loewenfeld","3.3.8","yes","yes","600bd7cfb6416f0113b04181","602110864497cf011d9c0822","0","f","NA","space","space","space","space","f","543","NA","1308","7814","3652","23215","543","2","legacy","1024","2","48000","-16","task","5205644","even","NA","30345","33656","32346","217464","10591","22065","18412","217965","124285","217462","217965","217413","33656","218509","28850","216913","10542","209335","Lexical Decision Task","77","56217","92","yes","1024"
"2.755364069","7.72","2","hoax","word","83.87096774193549","83.87096774193549","610.6666666666666","610.6666666666666","black","no","legacy","legacy","legacy","0","uniform","1","undefined","undefined","undefined","1","j","0","0","0","0","92","0","0","0","92","0","88","92","88","0","88","3","92","0","92","Mon Feb 22 20:58:03 2021","The main experiment item","yes","Lexical_Decision_Task.osexp","C:/Users/User","no","Andale Mono","no","18","no","white","no","yes","576","legacy","88","88","3","C:/Users/User/subject-5205644.csv","legacy","Lentiform Loewenfeld","3.3.8","yes","yes","600bd7cfb6416f0113b04181","602110864497cf011d9c0822","0","j","NA","space","space","space","space","j","575","NA","1308","7814","3652","23215","575","2","legacy","1024","2","48000","-16","task","5205644","even","NA","30345","33656","32346","219069","10591","22065","18412","219570","124285","219067","219571","219014","33656","220147","28850","218514","10542","209335","Lexical Decision Task","78","56792","93","yes","1024"
"2.972357144","0","5","dasp","non-word","84.04255319148936","84.04255319148936","609.8936170212766","609.8936170212766","black","no","legacy","legacy","legacy","0","uniform","1","undefined","undefined","undefined","1","f","0","0","0","0","93","0","0","0","93","0","89","93","89","0","89","3","93","0","93","Mon Feb 22 20:58:03 2021","The main experiment item","yes","Lexical_Decision_Task.osexp","C:/Users/User","no","Andale Mono","no","18","no","white","no","yes","576","legacy","89","89","3","C:/Users/User/subject-5205644.csv","legacy","Lentiform Loewenfeld","3.3.8","yes","yes","600bd7cfb6416f0113b04181","602110864497cf011d9c0822","0","f","NA","space","space","space","space","f","538","NA","1308","7814","3652","23215","538","2","legacy","1024","2","48000","-16","task","5205644","even","NA","30345","33656","32346","220704","10591","22065","18412","221205","124285","220702","221205","220652","33656","221744","28850","220152","10542","209335","Lexical Decision Task","79","57330","94","yes","1024"
"2.706148589","0","4","hube","non-word","84.21052631578948","84.21052631578948","608.2210526315789","608.2210526315789","black","no","legacy","legacy","legacy","0","uniform","1","undefined","undefined","undefined","1","f","0","0","0","0","94","0","0","0","94","0","90","94","90","0","90","3","94","0","94","Mon Feb 22 20:58:03 2021","The main experiment item","yes","Lexical_Decision_Task.osexp","C:/Users/User","no","Andale Mono","no","18","no","white","no","yes","576","legacy","90","90","3","C:/Users/User/subject-5205644.csv","legacy","Lentiform Loewenfeld","3.3.8","yes","yes","600bd7cfb6416f0113b04181","602110864497cf011d9c0822","0","f","NA","space","space","space","space","f","451","NA","1308","7814","3652","23215","451","2","legacy","1024","2","48000","-16","task","5205644","even","NA","30345","33656","32346","222299","10591","22065","18412","222800","124285","222297","222800","222249","33656","223252","28850","221749","10542","209335","Lexical Decision Task","80","57781","95","yes","1024"
"3.039414119","0","9","meep","non-word","83.33333333333333","83.33333333333333","607.8645833333334","607.8645833333334","black","no","legacy","legacy","legacy","0","uniform","0","undefined","undefined","undefined","0","f","0","0","0","0","95","0","0","0","95","0","91","95","91","0","91","3","95","0","95","Mon Feb 22 20:58:03 2021","The main experiment item","yes","Lexical_Decision_Task.osexp","C:/Users/User","no","Andale Mono","no","18","no","white","no","yes","576","legacy","91","91","3","C:/Users/User/subject-5205644.csv","legacy","Lentiform Loewenfeld","3.3.8","yes","yes","600bd7cfb6416f0113b04181","602110864497cf011d9c0822","0","j","NA","space","space","space","space","j","574","NA","1308","7814","3652","23215","574","2","legacy","1024","2","48000","-16","task","5205644","even","NA","30345","33656","32346","223807","10591","22065","18412","224308","124285","223806","224308","223758","33656","224882","28850","223258","10542","209335","Lexical Decision Task","80","58355","96","yes","1024"
"2.868644438","10.52","4","town","word","83.50515463917526","83.50515463917526","608.4432989690722","608.4432989690722","black","no","legacy","legacy","legacy","0","uniform","1","undefined","undefined","undefined","1","j","0","0","0","0","96","0","0","0","96","0","92","96","92","0","92","3","96","0","96","Mon Feb 22 20:58:03 2021","The main experiment item","yes","Lexical_Decision_Task.osexp","C:/Users/User","no","Andale Mono","no","18","no","white","no","yes","576","legacy","92","92","3","C:/Users/User/subject-5205644.csv","legacy","Lentiform Loewenfeld","3.3.8","yes","yes","600bd7cfb6416f0113b04181","602110864497cf011d9c0822","0","j","NA","space","space","space","space","j","664","NA","1308","7814","3652","23215","664","2","legacy","1024","2","48000","-16","task","5205644","even","NA","30345","33656","32346","226443","10591","22065","18412","226944","124285","226441","226944","226387","33656","227609","28850","223258","10542","224887","Lexical Decision Task","81","59019","97","yes","1024"
"2.839898939","8.99","6","soap","word","83.6734693877551","83.6734693877551","609.3367346938776","609.3367346938776","black","no","legacy","legacy","legacy","0","uniform","1","undefined","undefined","undefined","1","j","0","0","0","0","97","0","0","0","97","0","93","97","93","0","93","3","97","0","97","Mon Feb 22 20:58:03 2021","The main experiment item","yes","Lexical_Decision_Task.osexp","C:/Users/User","no","Andale Mono","no","18","no","white","no","yes","576","legacy","93","93","3","C:/Users/User/subject-5205644.csv","legacy","Lentiform Loewenfeld","3.3.8","yes","yes","600bd7cfb6416f0113b04181","602110864497cf011d9c0822","0","j","NA","space","space","space","space","j","696","NA","1308","7814","3652","23215","696","2","legacy","1024","2","48000","-16","task","5205644","even","NA","30345","33656","32346","228167","10591","22065","18412","228668","124285","228166","228668","228115","33656","229366","28850","227615","10542","224887","Lexical Decision Task","82","59715","98","yes","1024"
"3.216517684","10.87","3","film","word","82.82828282828282","82.82828282828282","608.3636363636364","608.3636363636364","black","no","legacy","legacy","legacy","0","uniform","0","undefined","undefined","undefined","0","j","0","0","0","0","98","0","0","0","98","0","94","98","94","0","94","3","98","0","98","Mon Feb 22 20:58:03 2021","The main experiment item","yes","Lexical_Decision_Task.osexp","C:/Users/User","no","Andale Mono","no","18","no","white","no","yes","576","legacy","94","94","3","C:/Users/User/subject-5205644.csv","legacy","Lentiform Loewenfeld","3.3.8","yes","yes","600bd7cfb6416f0113b04181","602110864497cf011d9c0822","0","f","NA","space","space","space","space","f","513","NA","1308","7814","3652","23215","513","2","legacy","1024","2","48000","-16","task","5205644","even","NA","30345","33656","32346","229921","10591","22065","18412","230422","124285","229920","230422","229871","33656","230936","28850","229371","10542","224887","Lexical Decision Task","82","60228","99","yes","1024"
"2.979548375","8.71","4","soup","word","83","83","607.26","607.26","black","no","legacy","legacy","legacy","0","uniform","1","undefined","undefined","undefined","1","j","0","0","0","0","99","0","0","0","99","0","95","99","95","0","95","3","99","0","99","Mon Feb 22 20:58:03 2021","The main experiment item","yes","Lexical_Decision_Task.osexp","C:/Users/User","no","Andale Mono","no","18","no","white","no","yes","576","legacy","95","95","3","C:/Users/User/subject-5205644.csv","legacy","Lentiform Loewenfeld","3.3.8","yes","yes","600bd7cfb6416f0113b04181","602110864497cf011d9c0822","0","j","NA","space","space","space","space","j","498","NA","1308","7814","3652","23215","498","2","legacy","1024","2","48000","-16","task","5205644","even","NA","30345","33656","32346","232495","10591","22065","18412","232996","124285","232493","232996","232441","33656","233495","28850","229371","10542","230941","Lexical Decision Task","83","60726","100","yes","1024"
"2.696644658","5.78","2","yolk","word","83.16831683168317","83.16831683168317","606.990099009901","606.990099009901","black","no","legacy","legacy","legacy","0","uniform","1","undefined","undefined","undefined","1","j","0","0","0","0","100","0","0","0","100","0","96","100","96","0","96","3","100","0","100","Mon Feb 22 20:58:03 2021","The main experiment item","yes","Lexical_Decision_Task.osexp","C:/Users/User","no","Andale Mono","no","18","no","white","no","yes","576","legacy","96","96","3","C:/Users/User/subject-5205644.csv","legacy","Lentiform Loewenfeld","3.3.8","yes","yes","600bd7cfb6416f0113b04181","602110864497cf011d9c0822","0","j","NA","space","space","space","space","j","580","NA","1308","7814","3652","23215","580","2","legacy","1024","2","48000","-16","task","5205644","even","NA","30345","33656","32346","234052","10591","22065","18412","234553","124285","234051","234553","234000","33656","235134","28850","233500","10542","230941","Lexical Decision Task","84","61306","101","yes","1024"
"3.153001286","8.7","5","palm","word","83.33333333333333","83.33333333333333","606.2745098039215","606.2745098039215","black","no","legacy","legacy","legacy","0","uniform","1","undefined","undefined","undefined","1","j","0","0","0","0","101","0","0","0","101","0","97","101","97","0","97","3","101","0","101","Mon Feb 22 20:58:03 2021","The main experiment item","yes","Lexical_Decision_Task.osexp","C:/Users/User","no","Andale Mono","no","18","no","white","no","yes","576","legacy","97","97","3","C:/Users/User/subject-5205644.csv","legacy","Lentiform Loewenfeld","3.3.8","yes","yes","600bd7cfb6416f0113b04181","602110864497cf011d9c0822","0","j","NA","space","space","space","space","j","534","NA","1308","7814","3652","23215","534","2","legacy","1024","2","48000","-16","task","5205644","even","NA","30345","33656","32346","235691","10591","22065","18412","236192","124285","235689","236192","235639","33656","236727","28850","235139","10542","230941","Lexical Decision Task","85","61840","102","yes","1024"
