"Log_BG","Log_Freq_HAL","Ortho_N","Stimulus","Type","acc","accuracy","average_response_time","avg_rt","background","bidi","canvas_backend","clock_backend","color_backend","compensation","coordinates","correct","correct_Experimental_intro","correct_Introduction","correct_Practice_intro","correct_experimenter_kb","correct_response","count_End_Of_Experiment","count_End_Of_Practice","count_Experimental_Loop","count_Experimental_intro","count_Fixation","count_Introduction","count_Practice_Loop","count_Practice_intro","count_Stimulus","count_block_break_feedback","count_experimental_sequence","count_experimenter_kb","count_increment_trial_count","count_init_trial_count","count_logger","count_practice_sequence","count_right","count_task","count_wrong","datetime","description","disable_garbage_collection","experiment_file","experiment_path","font_bold","font_family","font_italic","font_size","font_underline","foreground","form_clicks","fullscreen","height","keyboard_backend","live_row","live_row_Experimental_Loop","live_row_Practice_Loop","logfile","mouse_backend","opensesame_codename","opensesame_version","osf_always_upload_data","osf_always_upload_experiment","osf_datanode_id","osf_id","repeat_cycle","response","response_End_Of_Experiment","response_Experimental_intro","response_Introduction","response_Practice_intro","response_block_break_feedback","response_experimenter_kb","response_time","response_time_End_Of_Experiment","response_time_Experimental_intro","response_time_Introduction","response_time_Practice_intro","response_time_block_break_feedback","response_time_experimenter_kb","round_decimals","sampler_backend","sound_buf_size","sound_channels","sound_freq","sound_sample_size","start","subject_nr","subject_parity","time_End_Of_Experiment","time_End_Of_Practice","time_Experimental_Loop","time_Experimental_intro","time_Fixation","time_Introduction","time_Practice_Loop","time_Practice_intro","time_Stimulus","time_block_break_feedback","time_experimental_sequence","time_experimenter_kb","time_increment_trial_count","time_init_trial_count","time_logger","time_practice_sequence","time_right","time_task","time_wrong","title","total_correct","total_response_time","total_responses","uniform_coordinates","width"
"3.378276681","6.39","8","bran","word","80","80","1542.2","1542.2","black","no","legacy","legacy","legacy","0","uniform","0","undefined","undefined","undefined","0","j","0","0","0","0","4","0","0","0","4","NA","0","4","0","0","0","3","4","0","4","Wed Feb 17 11:54:33 2021","The main experiment item","yes","Lexical_Decision_Task.osexp","C:/Users/gilmo/Documents","no","Andale Mono","no","18","no","white","no","yes","576","legacy","0","0","3","C:/Users/gilmo/Documents/subject-5204366 Lexical.csv","legacy","Lentiform Loewenfeld","3.3.7","yes","yes","600bd7cfb6416f0113b04181","602110864497cf011d9c0822","0","f","NA","space","space","space","NA","f","2636","NA","3404","11803","8006","NA","2636","2","legacy","1024","2","48000","-16","task","5204366","even","NA","34500","39907","36503","40008","4874","24687","16681","40511","NA","40005","40511","NA","39907","43148","32315","33950","4850","NA","Lexical Decision Task","4","7711","5","yes","1024"
"2.719886232","7.98","2","quiz","word","83.33333333333333","83.33333333333333","1462.5","1462.5","black","no","legacy","legacy","legacy","0","uniform","1","undefined","undefined","undefined","1","j","0","0","0","0","5","0","0","0","5","NA","1","5","1","0","1","3","5","0","5","Wed Feb 17 11:54:33 2021","The main experiment item","yes","Lexical_Decision_Task.osexp","C:/Users/gilmo/Documents","no","Andale Mono","no","18","no","white","no","yes","576","legacy","1","1","3","C:/Users/gilmo/Documents/subject-5204366 Lexical.csv","legacy","Lentiform Loewenfeld","3.3.7","yes","yes","600bd7cfb6416f0113b04181","602110864497cf011d9c0822","0","j","NA","space","space","space","NA","j","1064","NA","3404","11803","8006","NA","1064","2","legacy","1024","2","48000","-16","task","5204366","even","NA","34500","39907","36503","44846","4874","24687","16681","45349","NA","44841","45349","44667","39907","46414","32315","33950","4850","43167","Lexical Decision Task","5","8775","6","yes","1024"
"2.839268497","0","8","maft","non-word","85.71428571428571","85.71428571428571","1543","1543","black","no","legacy","legacy","legacy","0","uniform","1","undefined","undefined","undefined","1","f","0","0","0","0","6","0","0","0","6","NA","2","6","2","0","2","3","6","0","6","Wed Feb 17 11:54:33 2021","The main experiment item","yes","Lexical_Decision_Task.osexp","C:/Users/gilmo/Documents","no","Andale Mono","no","18","no","white","no","yes","576","legacy","2","2","3","C:/Users/gilmo/Documents/subject-5204366 Lexical.csv","legacy","Lentiform Loewenfeld","3.3.7","yes","yes","600bd7cfb6416f0113b04181","602110864497cf011d9c0822","0","f","NA","space","space","space","NA","f","2026","NA","3404","11803","8006","NA","2026","2","legacy","1024","2","48000","-16","task","5204366","even","NA","34500","39907","36503","47061","4874","24687","16681","47564","NA","47059","47564","46925","39907","49591","32315","46425","4850","43167","Lexical Decision Task","6","10801","7","yes","1024"
"3.137775856","7.39","5","comb","word","87.5","87.5","1479.125","1479.125","black","no","legacy","legacy","legacy","0","uniform","1","undefined","undefined","undefined","1","j","0","0","0","0","7","0","0","0","7","NA","3","7","3","0","3","3","7","0","7","Wed Feb 17 11:54:33 2021","The main experiment item","yes","Lexical_Decision_Task.osexp","C:/Users/gilmo/Documents","no","Andale Mono","no","18","no","white","no","yes","576","legacy","3","3","3","C:/Users/gilmo/Documents/subject-5204366 Lexical.csv","legacy","Lentiform Loewenfeld","3.3.7","yes","yes","600bd7cfb6416f0113b04181","602110864497cf011d9c0822","0","j","NA","space","space","space","NA","j","1032","NA","3404","11803","8006","NA","1032","2","legacy","1024","2","48000","-16","task","5204366","even","NA","34500","39907","36503","50262","4874","24687","16681","50765","NA","50258","50765","50103","39907","51797","32315","49602","4850","43167","Lexical Decision Task","7","11833","8","yes","1024"
"2.980911938","7.15","7","hoop","word","88.88888888888889","88.88888888888889","1433.2222222222222","1433.2222222222222","black","no","legacy","legacy","legacy","0","uniform","1","undefined","undefined","undefined","1","j","0","0","0","0","8","0","0","0","8","NA","4","8","4","0","4","3","8","0","8","Wed Feb 17 11:54:33 2021","The main experiment item","yes","Lexical_Decision_Task.osexp","C:/Users/gilmo/Documents","no","Andale Mono","no","18","no","white","no","yes","576","legacy","4","4","3","C:/Users/gilmo/Documents/subject-5204366 Lexical.csv","legacy","Lentiform Loewenfeld","3.3.7","yes","yes","600bd7cfb6416f0113b04181","602110864497cf011d9c0822","0","j","NA","space","space","space","NA","j","1066","NA","3404","11803","8006","NA","1066","2","legacy","1024","2","48000","-16","task","5204366","even","NA","34500","39907","36503","52443","4874","24687","16681","52946","NA","52440","52946","52306","39907","54013","32315","51805","4850","43167","Lexical Decision Task","8","12899","9","yes","1024"
"3.067193647","6.73","6","raft","word","90","90","1408.9","1408.9","black","no","legacy","legacy","legacy","0","uniform","1","undefined","undefined","undefined","1","j","0","0","0","0","9","0","0","0","9","NA","5","9","5","0","5","3","9","0","9","Wed Feb 17 11:54:33 2021","The main experiment item","yes","Lexical_Decision_Task.osexp","C:/Users/gilmo/Documents","no","Andale Mono","no","18","no","white","no","yes","576","legacy","5","5","3","C:/Users/gilmo/Documents/subject-5204366 Lexical.csv","legacy","Lentiform Loewenfeld","3.3.7","yes","yes","600bd7cfb6416f0113b04181","602110864497cf011d9c0822","0","j","NA","space","space","space","NA","j","1190","NA","3404","11803","8006","NA","1190","2","legacy","1024","2","48000","-16","task","5204366","even","NA","34500","39907","36503","54654","4874","24687","16681","55157","NA","54652","55158","54523","39907","56349","32315","54023","4850","43167","Lexical Decision Task","9","14089","10","yes","1024"
"2.75025376","10.2","6","jump","word","90.9090909090909","90.9090909090909","1366.090909090909","1366.090909090909","black","no","legacy","legacy","legacy","0","uniform","1","undefined","undefined","undefined","1","j","0","0","0","0","10","0","0","0","10","NA","6","10","6","0","6","3","10","0","10","Wed Feb 17 11:54:33 2021","The main experiment item","yes","Lexical_Decision_Task.osexp","C:/Users/gilmo/Documents","no","Andale Mono","no","18","no","white","no","yes","576","legacy","6","6","3","C:/Users/gilmo/Documents/subject-5204366 Lexical.csv","legacy","Lentiform Loewenfeld","3.3.7","yes","yes","600bd7cfb6416f0113b04181","602110864497cf011d9c0822","0","j","NA","space","space","space","NA","j","938","NA","3404","11803","8006","NA","938","2","legacy","1024","2","48000","-16","task","5204366","even","NA","34500","39907","36503","57027","4874","24687","16681","57530","NA","57023","57530","56861","39907","58469","32315","56361","4850","43167","Lexical Decision Task","10","15027","11","yes","1024"
"2.842815106","7.86","8","lump","word","91.66666666666667","91.66666666666667","1346.3333333333333","1346.3333333333333","black","no","legacy","legacy","legacy","0","uniform","1","undefined","undefined","undefined","1","j","0","0","0","0","11","0","0","0","11","NA","7","11","7","0","7","3","11","0","11","Wed Feb 17 11:54:33 2021","The main experiment item","yes","Lexical_Decision_Task.osexp","C:/Users/gilmo/Documents","no","Andale Mono","no","18","no","white","no","yes","576","legacy","7","7","3","C:/Users/gilmo/Documents/subject-5204366 Lexical.csv","legacy","Lentiform Loewenfeld","3.3.7","yes","yes","600bd7cfb6416f0113b04181","602110864497cf011d9c0822","0","j","NA","space","space","space","NA","j","1129","NA","3404","11803","8006","NA","1129","2","legacy","1024","2","48000","-16","task","5204366","even","NA","34500","39907","36503","59120","4874","24687","16681","59623","NA","59118","59624","58979","39907","60753","32315","58479","4850","43167","Lexical Decision Task","11","16156","12","yes","1024"
"3.208978517","10.33","4","fish","word","92.3076923076923","92.3076923076923","1314.923076923077","1314.923076923077","black","no","legacy","legacy","legacy","0","uniform","1","undefined","undefined","undefined","1","j","0","0","0","0","12","0","0","0","12","NA","8","12","8","0","8","3","12","0","12","Wed Feb 17 11:54:33 2021","The main experiment item","yes","Lexical_Decision_Task.osexp","C:/Users/gilmo/Documents","no","Andale Mono","no","18","no","white","no","yes","576","legacy","8","8","3","C:/Users/gilmo/Documents/subject-5204366 Lexical.csv","legacy","Lentiform Loewenfeld","3.3.7","yes","yes","600bd7cfb6416f0113b04181","602110864497cf011d9c0822","0","j","NA","space","space","space","NA","j","938","NA","3404","11803","8006","NA","938","2","legacy","1024","2","48000","-16","task","5204366","even","NA","34500","39907","36503","61396","4874","24687","16681","61899","NA","61393","61899","61261","39907","62839","32315","60761","4850","43167","Lexical Decision Task","12","17094","13","yes","1024"
"3.20871002","7.15","8","cram","word","92.85714285714286","92.85714285714286","1386.5","1386.5","black","no","legacy","legacy","legacy","0","uniform","1","undefined","undefined","undefined","1","j","0","0","0","0","13","0","0","0","13","NA","9","13","9","0","9","3","13","0","13","Wed Feb 17 11:54:33 2021","The main experiment item","yes","Lexical_Decision_Task.osexp","C:/Users/gilmo/Documents","no","Andale Mono","no","18","no","white","no","yes","576","legacy","9","9","3","C:/Users/gilmo/Documents/subject-5204366 Lexical.csv","legacy","Lentiform Loewenfeld","3.3.7","yes","yes","600bd7cfb6416f0113b04181","602110864497cf011d9c0822","0","j","NA","space","space","space","NA","j","2317","NA","3404","11803","8006","NA","2317","2","legacy","1024","2","48000","-16","task","5204366","even","NA","34500","39907","36503","63479","4874","24687","16681","63982","NA","63477","63982","63352","39907","66300","32315","62852","4850","43167","Lexical Decision Task","13","19411","14","yes","1024"
"3.039414119","0","9","meep","non-word","93.33333333333333","93.33333333333333","1419.7333333333333","1419.7333333333333","black","no","legacy","legacy","legacy","0","uniform","1","undefined","undefined","undefined","1","f","0","0","0","0","14","0","0","0","14","NA","10","14","10","0","10","3","14","0","14","Wed Feb 17 11:54:33 2021","The main experiment item","yes","Lexical_Decision_Task.osexp","C:/Users/gilmo/Documents","no","Andale Mono","no","18","no","white","no","yes","576","legacy","10","10","3","C:/Users/gilmo/Documents/subject-5204366 Lexical.csv","legacy","Lentiform Loewenfeld","3.3.7","yes","yes","600bd7cfb6416f0113b04181","602110864497cf011d9c0822","0","f","NA","space","space","space","NA","f","1885","NA","3404","11803","8006","NA","1885","2","legacy","1024","2","48000","-16","task","5204366","even","NA","34500","39907","36503","66945","4874","24687","16681","67448","NA","66943","67448","66808","39907","69335","32315","66308","4850","43167","Lexical Decision Task","14","21296","15","yes","1024"
"3.120025233","0","2","nyst","non-word","93.75","93.75","1450.0625","1450.0625","black","no","legacy","legacy","legacy","0","uniform","1","undefined","undefined","undefined","1","f","0","0","0","0","15","0","0","0","15","NA","11","15","11","0","11","3","15","0","15","Wed Feb 17 11:54:33 2021","The main experiment item","yes","Lexical_Decision_Task.osexp","C:/Users/gilmo/Documents","no","Andale Mono","no","18","no","white","no","yes","576","legacy","11","11","3","C:/Users/gilmo/Documents/subject-5204366 Lexical.csv","legacy","Lentiform Loewenfeld","3.3.7","yes","yes","600bd7cfb6416f0113b04181","602110864497cf011d9c0822","0","f","NA","space","space","space","NA","f","1905","NA","3404","11803","8006","NA","1905","2","legacy","1024","2","48000","-16","task","5204366","even","NA","34500","39907","36503","69978","4874","24687","16681","70481","NA","69976","70481","69847","39907","72386","32315","69347","4850","43167","Lexical Decision Task","15","23201","16","yes","1024"
"2.594027722","9.08","8","skip","word","94.11764705882354","94.11764705882354","1426.9411764705883","1426.9411764705883","black","no","legacy","legacy","legacy","0","uniform","1","undefined","undefined","undefined","1","j","0","0","0","0","16","0","0","0","16","NA","12","16","12","0","12","3","16","0","16","Wed Feb 17 11:54:33 2021","The main experiment item","yes","Lexical_Decision_Task.osexp","C:/Users/gilmo/Documents","no","Andale Mono","no","18","no","white","no","yes","576","legacy","12","12","3","C:/Users/gilmo/Documents/subject-5204366 Lexical.csv","legacy","Lentiform Loewenfeld","3.3.7","yes","yes","600bd7cfb6416f0113b04181","602110864497cf011d9c0822","0","j","NA","space","space","space","NA","j","1057","NA","3404","11803","8006","NA","1057","2","legacy","1024","2","48000","-16","task","5204366","even","NA","34500","39907","36503","73027","4874","24687","16681","73530","NA","73025","73530","72895","39907","74588","32315","72394","4850","43167","Lexical Decision Task","16","24258","17","yes","1024"
"3.299579929","0","2","flis","non-word","94.44444444444444","94.44444444444444","1410.2777777777778","1410.2777777777778","black","no","legacy","legacy","legacy","0","uniform","1","undefined","undefined","undefined","1","f","0","0","0","0","17","0","0","0","17","NA","13","17","13","0","13","3","17","0","17","Wed Feb 17 11:54:33 2021","The main experiment item","yes","Lexical_Decision_Task.osexp","C:/Users/gilmo/Documents","no","Andale Mono","no","18","no","white","no","yes","576","legacy","13","13","3","C:/Users/gilmo/Documents/subject-5204366 Lexical.csv","legacy","Lentiform Loewenfeld","3.3.7","yes","yes","600bd7cfb6416f0113b04181","602110864497cf011d9c0822","0","f","NA","space","space","space","NA","f","1127","NA","3404","11803","8006","NA","1127","2","legacy","1024","2","48000","-16","task","5204366","even","NA","34500","39907","36503","75229","4874","24687","16681","75732","NA","75227","75733","75101","39907","76861","32315","74601","4850","43167","Lexical Decision Task","17","25385","18","yes","1024"
"3.248054965","7.86","5","glow","word","94.73684210526316","94.73684210526316","1395.4736842105262","1395.4736842105262","black","no","legacy","legacy","legacy","0","uniform","1","undefined","undefined","undefined","1","j","0","0","0","0","18","0","0","0","18","NA","14","18","14","0","14","3","18","0","18","Wed Feb 17 11:54:33 2021","The main experiment item","yes","Lexical_Decision_Task.osexp","C:/Users/gilmo/Documents","no","Andale Mono","no","18","no","white","no","yes","576","legacy","14","14","3","C:/Users/gilmo/Documents/subject-5204366 Lexical.csv","legacy","Lentiform Loewenfeld","3.3.7","yes","yes","600bd7cfb6416f0113b04181","602110864497cf011d9c0822","0","j","NA","space","space","space","NA","j","1129","NA","3404","11803","8006","NA","1129","2","legacy","1024","2","48000","-16","task","5204366","even","NA","34500","39907","36503","77501","4874","24687","16681","78004","NA","77499","78005","77373","39907","79135","32315","76873","4850","43167","Lexical Decision Task","18","26514","19","yes","1024"
"3.282244367","0","6","fute","non-word","95","95","1418.2","1418.2","black","no","legacy","legacy","legacy","0","uniform","1","undefined","undefined","undefined","1","f","0","0","0","0","19","0","0","0","19","NA","15","19","15","0","15","3","19","0","19","Wed Feb 17 11:54:33 2021","The main experiment item","yes","Lexical_Decision_Task.osexp","C:/Users/gilmo/Documents","no","Andale Mono","no","18","no","white","no","yes","576","legacy","15","15","3","C:/Users/gilmo/Documents/subject-5204366 Lexical.csv","legacy","Lentiform Loewenfeld","3.3.7","yes","yes","600bd7cfb6416f0113b04181","602110864497cf011d9c0822","0","f","NA","space","space","space","NA","f","1850","NA","3404","11803","8006","NA","1850","2","legacy","1024","2","48000","-16","task","5204366","even","NA","34500","39907","36503","79779","4874","24687","16681","80282","NA","79777","80283","79646","39907","82134","32315","79146","4850","43167","Lexical Decision Task","19","28364","20","yes","1024"
"3.374198258","0","8","vist","non-word","90.47619047619048","90.47619047619048","1413.952380952381","1413.952380952381","black","no","legacy","legacy","legacy","0","uniform","0","undefined","undefined","undefined","0","f","0","0","0","0","20","0","0","0","20","NA","16","20","16","0","16","3","20","0","20","Wed Feb 17 11:54:33 2021","The main experiment item","yes","Lexical_Decision_Task.osexp","C:/Users/gilmo/Documents","no","Andale Mono","no","18","no","white","no","yes","576","legacy","16","16","3","C:/Users/gilmo/Documents/subject-5204366 Lexical.csv","legacy","Lentiform Loewenfeld","3.3.7","yes","yes","600bd7cfb6416f0113b04181","602110864497cf011d9c0822","0","j","NA","space","space","space","NA","j","1329","NA","3404","11803","8006","NA","1329","2","legacy","1024","2","48000","-16","task","5204366","even","NA","34500","39907","36503","82774","4874","24687","16681","83277","NA","82772","83277","82645","39907","84607","32315","82145","4850","43167","Lexical Decision Task","19","29693","21","yes","1024"
"2.778633532","0","3","jurp","non-word","86.36363636363636","86.36363636363636","1486.0454545454545","1486.0454545454545","black","no","legacy","legacy","legacy","0","uniform","0","undefined","undefined","undefined","0","f","0","0","0","0","21","0","0","0","21","NA","17","21","17","0","17","3","21","0","21","Wed Feb 17 11:54:33 2021","The main experiment item","yes","Lexical_Decision_Task.osexp","C:/Users/gilmo/Documents","no","Andale Mono","no","18","no","white","no","yes","576","legacy","17","17","3","C:/Users/gilmo/Documents/subject-5204366 Lexical.csv","legacy","Lentiform Loewenfeld","3.3.7","yes","yes","600bd7cfb6416f0113b04181","602110864497cf011d9c0822","0","None","NA","space","space","space","NA","None","3000","NA","3404","11803","8006","NA","3000","2","legacy","1024","2","48000","-16","task","5204366","even","NA","34500","39907","36503","86257","4874","24687","16681","86760","NA","86255","86761","86118","39907","89761","32315","82145","4850","84618","Lexical Decision Task","19","32693","22","yes","1024"
"2.953276337","6.32","4","thaw","word","86.95652173913044","86.95652173913044","1502.4782608695652","1502.4782608695652","black","no","legacy","legacy","legacy","0","uniform","1","undefined","undefined","undefined","1","j","0","0","0","0","22","0","0","0","22","NA","18","22","18","0","18","3","22","0","22","Wed Feb 17 11:54:33 2021","The main experiment item","yes","Lexical_Decision_Task.osexp","C:/Users/gilmo/Documents","no","Andale Mono","no","18","no","white","no","yes","576","legacy","18","18","3","C:/Users/gilmo/Documents/subject-5204366 Lexical.csv","legacy","Lentiform Loewenfeld","3.3.7","yes","yes","600bd7cfb6416f0113b04181","602110864497cf011d9c0822","0","j","NA","space","space","space","NA","j","1864","NA","3404","11803","8006","NA","1864","2","legacy","1024","2","48000","-16","task","5204366","even","NA","34500","39907","36503","91406","4874","24687","16681","91909","NA","91404","91909","91270","39907","93773","32315","82145","4850","89770","Lexical Decision Task","20","34557","23","yes","1024"
"2.708989954","9.28","9","bowl","word","87.5","87.5","1498.625","1498.625","black","no","legacy","legacy","legacy","0","uniform","1","undefined","undefined","undefined","1","j","0","0","0","0","23","0","0","0","23","NA","19","23","19","0","19","3","23","0","23","Wed Feb 17 11:54:33 2021","The main experiment item","yes","Lexical_Decision_Task.osexp","C:/Users/gilmo/Documents","no","Andale Mono","no","18","no","white","no","yes","576","legacy","19","19","3","C:/Users/gilmo/Documents/subject-5204366 Lexical.csv","legacy","Lentiform Loewenfeld","3.3.7","yes","yes","600bd7cfb6416f0113b04181","602110864497cf011d9c0822","0","j","NA","space","space","space","NA","j","1410","NA","3404","11803","8006","NA","1410","2","legacy","1024","2","48000","-16","task","5204366","even","NA","34500","39907","36503","94415","4874","24687","16681","94918","NA","94413","94918","94283","39907","96330","32315","93782","4850","89770","Lexical Decision Task","21","35967","24","yes","1024"
"2.875447132","0","9","jelt","non-word","88","88","1493.96","1493.96","black","no","legacy","legacy","legacy","0","uniform","1","undefined","undefined","undefined","1","f","0","0","0","0","24","0","0","0","24","NA","20","24","20","0","20","3","24","0","24","Wed Feb 17 11:54:33 2021","The main experiment item","yes","Lexical_Decision_Task.osexp","C:/Users/gilmo/Documents","no","Andale Mono","no","18","no","white","no","yes","576","legacy","20","20","3","C:/Users/gilmo/Documents/subject-5204366 Lexical.csv","legacy","Lentiform Loewenfeld","3.3.7","yes","yes","600bd7cfb6416f0113b04181","602110864497cf011d9c0822","0","f","NA","space","space","space","NA","f","1382","NA","3404","11803","8006","NA","1382","2","legacy","1024","2","48000","-16","task","5204366","even","NA","34500","39907","36503","96972","4874","24687","16681","97475","NA","96970","97475","96842","39907","98858","32315","96342","4850","89770","Lexical Decision Task","22","37349","25","yes","1024"
"2.843025032","0","9","pusk","non-word","88.46153846153847","88.46153846153847","1515.2692307692307","1515.2692307692307","black","no","legacy","legacy","legacy","0","uniform","1","undefined","undefined","undefined","1","f","0","0","0","0","25","0","0","0","25","NA","21","25","21","0","21","3","25","0","25","Wed Feb 17 11:54:33 2021","The main experiment item","yes","Lexical_Decision_Task.osexp","C:/Users/gilmo/Documents","no","Andale Mono","no","18","no","white","no","yes","576","legacy","21","21","3","C:/Users/gilmo/Documents/subject-5204366 Lexical.csv","legacy","Lentiform Loewenfeld","3.3.7","yes","yes","600bd7cfb6416f0113b04181","602110864497cf011d9c0822","0","f","NA","space","space","space","NA","f","2048","NA","3404","11803","8006","NA","2048","2","legacy","1024","2","48000","-16","task","5204366","even","NA","34500","39907","36503","99503","4874","24687","16681","100006","NA","99500","100006","99370","39907","102055","32315","98870","4850","89770","Lexical Decision Task","23","39397","26","yes","1024"
"3.216517684","10.87","3","film","word","88.88888888888889","88.88888888888889","1498.5925925925926","1498.5925925925926","black","no","legacy","legacy","legacy","0","uniform","1","undefined","undefined","undefined","1","j","0","0","0","0","26","0","0","0","26","NA","22","26","22","0","22","3","26","0","26","Wed Feb 17 11:54:33 2021","The main experiment item","yes","Lexical_Decision_Task.osexp","C:/Users/gilmo/Documents","no","Andale Mono","no","18","no","white","no","yes","576","legacy","22","22","3","C:/Users/gilmo/Documents/subject-5204366 Lexical.csv","legacy","Lentiform Loewenfeld","3.3.7","yes","yes","600bd7cfb6416f0113b04181","602110864497cf011d9c0822","0","j","NA","space","space","space","NA","j","1065","NA","3404","11803","8006","NA","1065","2","legacy","1024","2","48000","-16","task","5204366","even","NA","34500","39907","36503","102700","4874","24687","16681","103203","NA","102698","103204","102566","39907","104270","32315","102066","4850","89770","Lexical Decision Task","24","40462","27","yes","1024"
"3.302475237","0","7","leel","non-word","89.28571428571429","89.28571428571429","1487.2142857142858","1487.2142857142858","black","no","legacy","legacy","legacy","0","uniform","1","undefined","undefined","undefined","1","f","0","0","0","0","27","0","0","0","27","NA","23","27","23","0","23","3","27","0","27","Wed Feb 17 11:54:33 2021","The main experiment item","yes","Lexical_Decision_Task.osexp","C:/Users/gilmo/Documents","no","Andale Mono","no","18","no","white","no","yes","576","legacy","23","23","3","C:/Users/gilmo/Documents/subject-5204366 Lexical.csv","legacy","Lentiform Loewenfeld","3.3.7","yes","yes","600bd7cfb6416f0113b04181","602110864497cf011d9c0822","0","f","NA","space","space","space","NA","f","1180","NA","3404","11803","8006","NA","1180","2","legacy","1024","2","48000","-16","task","5204366","even","NA","34500","39907","36503","104909","4874","24687","16681","105411","NA","104906","105412","104778","39907","106593","32315","104278","4850","89770","Lexical Decision Task","25","41642","28","yes","1024"
"2.799799878","0","4","ciff","non-word","89.65517241379311","89.65517241379311","1510.0689655172414","1510.0689655172414","black","no","legacy","legacy","legacy","0","uniform","1","undefined","undefined","undefined","1","f","0","0","0","0","28","0","0","0","28","NA","24","28","24","0","24","3","28","0","28","Wed Feb 17 11:54:33 2021","The main experiment item","yes","Lexical_Decision_Task.osexp","C:/Users/gilmo/Documents","no","Andale Mono","no","18","no","white","no","yes","576","legacy","24","24","3","C:/Users/gilmo/Documents/subject-5204366 Lexical.csv","legacy","Lentiform Loewenfeld","3.3.7","yes","yes","600bd7cfb6416f0113b04181","602110864497cf011d9c0822","0","f","NA","space","space","space","NA","f","2150","NA","3404","11803","8006","NA","2150","2","legacy","1024","2","48000","-16","task","5204366","even","NA","34500","39907","36503","107237","4874","24687","16681","107740","NA","107235","107740","107105","39907","109891","32315","106605","4850","89770","Lexical Decision Task","26","43792","29","yes","1024"
"3.165936429","0","7","leps","non-word","90","90","1494.6","1494.6","black","no","legacy","legacy","legacy","0","uniform","1","undefined","undefined","undefined","1","f","0","0","0","0","29","0","0","0","29","NA","25","29","25","0","25","3","29","0","29","Wed Feb 17 11:54:33 2021","The main experiment item","yes","Lexical_Decision_Task.osexp","C:/Users/gilmo/Documents","no","Andale Mono","no","18","no","white","no","yes","576","legacy","25","25","3","C:/Users/gilmo/Documents/subject-5204366 Lexical.csv","legacy","Lentiform Loewenfeld","3.3.7","yes","yes","600bd7cfb6416f0113b04181","602110864497cf011d9c0822","0","f","NA","space","space","space","NA","f","1046","NA","3404","11803","8006","NA","1046","2","legacy","1024","2","48000","-16","task","5204366","even","NA","34500","39907","36503","110533","4874","24687","16681","111037","NA","110532","111037","110400","39907","112084","32315","109900","4850","89770","Lexical Decision Task","27","44838","30","yes","1024"
"3.460446784","0","5","dess","non-word","90.3225806451613","90.3225806451613","1494.8064516129032","1494.8064516129032","black","no","legacy","legacy","legacy","0","uniform","1","undefined","undefined","undefined","1","f","0","0","0","0","30","0","0","0","30","NA","26","30","26","0","26","3","30","0","30","Wed Feb 17 11:54:33 2021","The main experiment item","yes","Lexical_Decision_Task.osexp","C:/Users/gilmo/Documents","no","Andale Mono","no","18","no","white","no","yes","576","legacy","26","26","3","C:/Users/gilmo/Documents/subject-5204366 Lexical.csv","legacy","Lentiform Loewenfeld","3.3.7","yes","yes","600bd7cfb6416f0113b04181","602110864497cf011d9c0822","0","f","NA","space","space","space","NA","f","1501","NA","3404","11803","8006","NA","1501","2","legacy","1024","2","48000","-16","task","5204366","even","NA","34500","39907","36503","112738","4874","24687","16681","113241","NA","112736","113242","112596","39907","114744","32315","112096","4850","89770","Lexical Decision Task","28","46339","31","yes","1024"
"2.845304797","0","6","buct","non-word","90.625","90.625","1482.78125","1482.78125","black","no","legacy","legacy","legacy","0","uniform","1","undefined","undefined","undefined","1","f","0","0","0","0","31","0","0","0","31","NA","27","31","27","0","27","3","31","0","31","Wed Feb 17 11:54:33 2021","The main experiment item","yes","Lexical_Decision_Task.osexp","C:/Users/gilmo/Documents","no","Andale Mono","no","18","no","white","no","yes","576","legacy","27","27","3","C:/Users/gilmo/Documents/subject-5204366 Lexical.csv","legacy","Lentiform Loewenfeld","3.3.7","yes","yes","600bd7cfb6416f0113b04181","602110864497cf011d9c0822","0","f","NA","space","space","space","NA","f","1110","NA","3404","11803","8006","NA","1110","2","legacy","1024","2","48000","-16","task","5204366","even","NA","34500","39907","36503","115390","4874","24687","16681","115893","NA","115388","115893","115256","39907","117003","32315","114755","4850","89770","Lexical Decision Task","29","47449","32","yes","1024"
"2.794720352","0","9","koot","non-word","90.9090909090909","90.9090909090909","1467.909090909091","1467.909090909091","black","no","legacy","legacy","legacy","0","uniform","1","undefined","undefined","undefined","1","f","0","0","0","0","32","0","0","0","32","NA","28","32","28","0","28","3","32","0","32","Wed Feb 17 11:54:33 2021","The main experiment item","yes","Lexical_Decision_Task.osexp","C:/Users/gilmo/Documents","no","Andale Mono","no","18","no","white","no","yes","576","legacy","28","28","3","C:/Users/gilmo/Documents/subject-5204366 Lexical.csv","legacy","Lentiform Loewenfeld","3.3.7","yes","yes","600bd7cfb6416f0113b04181","602110864497cf011d9c0822","0","f","NA","space","space","space","NA","f","992","NA","3404","11803","8006","NA","992","2","legacy","1024","2","48000","-16","task","5204366","even","NA","34500","39907","36503","117643","4874","24687","16681","118147","NA","117641","118147","117511","39907","119140","32315","117011","4850","89770","Lexical Decision Task","30","48441","33","yes","1024"
"2.803231716","5.26","3","kiln","word","88.23529411764706","88.23529411764706","1466.764705882353","1466.764705882353","black","no","legacy","legacy","legacy","0","uniform","0","undefined","undefined","undefined","0","j","0","0","0","0","33","0","0","0","33","NA","29","33","29","0","29","3","33","0","33","Wed Feb 17 11:54:33 2021","The main experiment item","yes","Lexical_Decision_Task.osexp","C:/Users/gilmo/Documents","no","Andale Mono","no","18","no","white","no","yes","576","legacy","29","29","3","C:/Users/gilmo/Documents/subject-5204366 Lexical.csv","legacy","Lentiform Loewenfeld","3.3.7","yes","yes","600bd7cfb6416f0113b04181","602110864497cf011d9c0822","0","f","NA","space","space","space","NA","f","1429","NA","3404","11803","8006","NA","1429","2","legacy","1024","2","48000","-16","task","5204366","even","NA","34500","39907","36503","119783","4874","24687","16681","120286","NA","119780","120287","119652","39907","121717","32315","119152","4850","89770","Lexical Decision Task","30","49870","34","yes","1024"
"3.363486562","6.93","9","lush","word","88.57142857142857","88.57142857142857","1464.5428571428572","1464.5428571428572","black","no","legacy","legacy","legacy","0","uniform","1","undefined","undefined","undefined","1","j","0","0","0","0","34","0","0","0","34","NA","30","34","30","0","30","3","34","0","34","Wed Feb 17 11:54:33 2021","The main experiment item","yes","Lexical_Decision_Task.osexp","C:/Users/gilmo/Documents","no","Andale Mono","no","18","no","white","no","yes","576","legacy","30","30","3","C:/Users/gilmo/Documents/subject-5204366 Lexical.csv","legacy","Lentiform Loewenfeld","3.3.7","yes","yes","600bd7cfb6416f0113b04181","602110864497cf011d9c0822","0","j","NA","space","space","space","NA","j","1389","NA","3404","11803","8006","NA","1389","2","legacy","1024","2","48000","-16","task","5204366","even","NA","34500","39907","36503","123365","4874","24687","16681","123868","NA","123363","123868","123228","39907","125257","32315","119152","4850","121728","Lexical Decision Task","31","51259","35","yes","1024"
"2.782472624","10.55","2","huge","word","88.88888888888889","88.88888888888889","1446.111111111111","1446.111111111111","black","no","legacy","legacy","legacy","0","uniform","1","undefined","undefined","undefined","1","j","0","0","0","0","35","0","0","0","35","NA","31","35","31","0","31","3","35","0","35","Wed Feb 17 11:54:33 2021","The main experiment item","yes","Lexical_Decision_Task.osexp","C:/Users/gilmo/Documents","no","Andale Mono","no","18","no","white","no","yes","576","legacy","31","31","3","C:/Users/gilmo/Documents/subject-5204366 Lexical.csv","legacy","Lentiform Loewenfeld","3.3.7","yes","yes","600bd7cfb6416f0113b04181","602110864497cf011d9c0822","0","j","NA","space","space","space","NA","j","801","NA","3404","11803","8006","NA","801","2","legacy","1024","2","48000","-16","task","5204366","even","NA","34500","39907","36503","125896","4874","24687","16681","126400","NA","125894","126400","125765","39907","127201","32315","125265","4850","121728","Lexical Decision Task","32","52060","36","yes","1024"
"3.100255637","0","6","brax","non-word","89.1891891891892","89.1891891891892","1441.3513513513512","1441.3513513513512","black","no","legacy","legacy","legacy","0","uniform","1","undefined","undefined","undefined","1","f","0","0","0","0","36","0","0","0","36","NA","32","36","32","0","32","3","36","0","36","Wed Feb 17 11:54:33 2021","The main experiment item","yes","Lexical_Decision_Task.osexp","C:/Users/gilmo/Documents","no","Andale Mono","no","18","no","white","no","yes","576","legacy","32","32","3","C:/Users/gilmo/Documents/subject-5204366 Lexical.csv","legacy","Lentiform Loewenfeld","3.3.7","yes","yes","600bd7cfb6416f0113b04181","602110864497cf011d9c0822","0","f","NA","space","space","space","NA","f","1270","NA","3404","11803","8006","NA","1270","2","legacy","1024","2","48000","-16","task","5204366","even","NA","34500","39907","36503","127856","4874","24687","16681","128359","NA","127853","128360","127711","39907","129631","32315","127211","4850","121728","Lexical Decision Task","33","53330","37","yes","1024"
"3.492014979","0","9","yine","non-word","89.47368421052632","89.47368421052632","1430.6052631578948","1430.6052631578948","black","no","legacy","legacy","legacy","0","uniform","1","undefined","undefined","undefined","1","f","0","0","0","0","37","0","0","0","37","NA","33","37","33","0","33","3","37","0","37","Wed Feb 17 11:54:33 2021","The main experiment item","yes","Lexical_Decision_Task.osexp","C:/Users/gilmo/Documents","no","Andale Mono","no","18","no","white","no","yes","576","legacy","33","33","3","C:/Users/gilmo/Documents/subject-5204366 Lexical.csv","legacy","Lentiform Loewenfeld","3.3.7","yes","yes","600bd7cfb6416f0113b04181","602110864497cf011d9c0822","0","f","NA","space","space","space","NA","f","1033","NA","3404","11803","8006","NA","1033","2","legacy","1024","2","48000","-16","task","5204366","even","NA","34500","39907","36503","130300","4874","24687","16681","130803","NA","130296","130803","130139","39907","131838","32315","129639","4850","121728","Lexical Decision Task","34","54363","38","yes","1024"
"2.9737419","7.69","7","claw","word","89.74358974358974","89.74358974358974","1429.3846153846155","1429.3846153846155","black","no","legacy","legacy","legacy","0","uniform","1","undefined","undefined","undefined","1","j","0","0","0","0","38","0","0","0","38","NA","34","38","34","0","34","3","38","0","38","Wed Feb 17 11:54:33 2021","The main experiment item","yes","Lexical_Decision_Task.osexp","C:/Users/gilmo/Documents","no","Andale Mono","no","18","no","white","no","yes","576","legacy","34","34","3","C:/Users/gilmo/Documents/subject-5204366 Lexical.csv","legacy","Lentiform Loewenfeld","3.3.7","yes","yes","600bd7cfb6416f0113b04181","602110864497cf011d9c0822","0","j","NA","space","space","space","NA","j","1383","NA","3404","11803","8006","NA","1383","2","legacy","1024","2","48000","-16","task","5204366","even","NA","34500","39907","36503","132482","4874","24687","16681","132985","NA","132480","132985","132349","39907","134370","32315","131849","4850","121728","Lexical Decision Task","35","55746","39","yes","1024"
"3.159867847","5.98","5","brim","word","90","90","1427.55","1427.55","black","no","legacy","legacy","legacy","0","uniform","1","undefined","undefined","undefined","1","j","0","0","0","0","39","0","0","0","39","NA","35","39","35","0","35","3","39","0","39","Wed Feb 17 11:54:33 2021","The main experiment item","yes","Lexical_Decision_Task.osexp","C:/Users/gilmo/Documents","no","Andale Mono","no","18","no","white","no","yes","576","legacy","35","35","3","C:/Users/gilmo/Documents/subject-5204366 Lexical.csv","legacy","Lentiform Loewenfeld","3.3.7","yes","yes","600bd7cfb6416f0113b04181","602110864497cf011d9c0822","0","j","NA","space","space","space","NA","j","1356","NA","3404","11803","8006","NA","1356","2","legacy","1024","2","48000","-16","task","5204366","even","NA","34500","39907","36503","135014","4874","24687","16681","135517","NA","135011","135517","134882","39907","136873","32315","134381","4850","121728","Lexical Decision Task","36","57102","40","yes","1024"
"3.440331212","7.35","6","stew","word","90.2439024390244","90.2439024390244","1422.0487804878048","1422.0487804878048","black","no","legacy","legacy","legacy","0","uniform","1","undefined","undefined","undefined","1","j","0","0","0","0","40","0","0","0","40","NA","36","40","36","0","36","3","40","0","40","Wed Feb 17 11:54:33 2021","The main experiment item","yes","Lexical_Decision_Task.osexp","C:/Users/gilmo/Documents","no","Andale Mono","no","18","no","white","no","yes","576","legacy","36","36","3","C:/Users/gilmo/Documents/subject-5204366 Lexical.csv","legacy","Lentiform Loewenfeld","3.3.7","yes","yes","600bd7cfb6416f0113b04181","602110864497cf011d9c0822","0","j","NA","space","space","space","NA","j","1202","NA","3404","11803","8006","NA","1202","2","legacy","1024","2","48000","-16","task","5204366","even","NA","34500","39907","36503","137517","4874","24687","16681","138020","NA","137514","138020","137381","39907","139224","32315","136881","4850","121728","Lexical Decision Task","37","58304","41","yes","1024"
"3.043885998","0","9","gome","non-word","90.47619047619048","90.47619047619048","1451.6666666666667","1451.6666666666667","black","no","legacy","legacy","legacy","0","uniform","1","undefined","undefined","undefined","1","f","0","0","0","0","41","0","0","0","41","NA","37","41","37","0","37","3","41","0","41","Wed Feb 17 11:54:33 2021","The main experiment item","yes","Lexical_Decision_Task.osexp","C:/Users/gilmo/Documents","no","Andale Mono","no","18","no","white","no","yes","576","legacy","37","37","3","C:/Users/gilmo/Documents/subject-5204366 Lexical.csv","legacy","Lentiform Loewenfeld","3.3.7","yes","yes","600bd7cfb6416f0113b04181","602110864497cf011d9c0822","0","f","NA","space","space","space","NA","f","2666","NA","3404","11803","8006","NA","2666","2","legacy","1024","2","48000","-16","task","5204366","even","NA","34500","39907","36503","139866","4874","24687","16681","140369","NA","139864","140369","139734","39907","143037","32315","139234","4850","121728","Lexical Decision Task","38","60970","42","yes","1024"
"2.706148589","0","4","hube","non-word","90.69767441860465","90.69767441860465","1450.7906976744187","1450.7906976744187","black","no","legacy","legacy","legacy","0","uniform","1","undefined","undefined","undefined","1","f","0","0","0","0","42","0","0","0","42","NA","38","42","38","0","38","3","42","0","42","Wed Feb 17 11:54:33 2021","The main experiment item","yes","Lexical_Decision_Task.osexp","C:/Users/gilmo/Documents","no","Andale Mono","no","18","no","white","no","yes","576","legacy","38","38","3","C:/Users/gilmo/Documents/subject-5204366 Lexical.csv","legacy","Lentiform Loewenfeld","3.3.7","yes","yes","600bd7cfb6416f0113b04181","602110864497cf011d9c0822","0","f","NA","space","space","space","NA","f","1414","NA","3404","11803","8006","NA","1414","2","legacy","1024","2","48000","-16","task","5204366","even","NA","34500","39907","36503","143677","4874","24687","16681","144180","NA","143675","144181","143547","39907","145597","32315","143047","4850","121728","Lexical Decision Task","39","62384","43","yes","1024"
"3.495914186","0","4","peng","non-word","90.9090909090909","90.9090909090909","1454.4545454545455","1454.4545454545455","black","no","legacy","legacy","legacy","0","uniform","1","undefined","undefined","undefined","1","f","0","0","0","0","43","0","0","0","43","NA","39","43","39","0","39","3","43","0","43","Wed Feb 17 11:54:33 2021","The main experiment item","yes","Lexical_Decision_Task.osexp","C:/Users/gilmo/Documents","no","Andale Mono","no","18","no","white","no","yes","576","legacy","39","39","3","C:/Users/gilmo/Documents/subject-5204366 Lexical.csv","legacy","Lentiform Loewenfeld","3.3.7","yes","yes","600bd7cfb6416f0113b04181","602110864497cf011d9c0822","0","f","NA","space","space","space","NA","f","1612","NA","3404","11803","8006","NA","1612","2","legacy","1024","2","48000","-16","task","5204366","even","NA","34500","39907","36503","146243","4874","24687","16681","146746","NA","146240","146746","146107","39907","148360","32315","145607","4850","121728","Lexical Decision Task","40","63996","44","yes","1024"
"3.082307743","9.68","8","camp","word","91.11111111111111","91.11111111111111","1452.3777777777777","1452.3777777777777","black","no","legacy","legacy","legacy","0","uniform","1","undefined","undefined","undefined","1","j","0","0","0","0","44","0","0","0","44","NA","40","44","40","0","40","3","44","0","44","Wed Feb 17 11:54:33 2021","The main experiment item","yes","Lexical_Decision_Task.osexp","C:/Users/gilmo/Documents","no","Andale Mono","no","18","no","white","no","yes","576","legacy","40","40","3","C:/Users/gilmo/Documents/subject-5204366 Lexical.csv","legacy","Lentiform Loewenfeld","3.3.7","yes","yes","600bd7cfb6416f0113b04181","602110864497cf011d9c0822","0","j","NA","space","space","space","NA","j","1361","NA","3404","11803","8006","NA","1361","2","legacy","1024","2","48000","-16","task","5204366","even","NA","34500","39907","36503","149004","4874","24687","16681","149507","NA","149002","149507","148871","39907","150868","32315","148371","4850","121728","Lexical Decision Task","41","65357","45","yes","1024"
"3.031408464","0","7","drow","non-word","91.30434782608695","91.30434782608695","1452.5652173913043","1452.5652173913043","black","no","legacy","legacy","legacy","0","uniform","1","undefined","undefined","undefined","1","f","0","0","0","0","45","0","0","0","45","NA","41","45","41","0","41","3","45","0","45","Wed Feb 17 11:54:33 2021","The main experiment item","yes","Lexical_Decision_Task.osexp","C:/Users/gilmo/Documents","no","Andale Mono","no","18","no","white","no","yes","576","legacy","41","41","3","C:/Users/gilmo/Documents/subject-5204366 Lexical.csv","legacy","Lentiform Loewenfeld","3.3.7","yes","yes","600bd7cfb6416f0113b04181","602110864497cf011d9c0822","0","f","NA","space","space","space","NA","f","1461","NA","3404","11803","8006","NA","1461","2","legacy","1024","2","48000","-16","task","5204366","even","NA","34500","39907","36503","151511","4874","24687","16681","152013","NA","151509","152014","151377","39907","153477","32315","150877","4850","121728","Lexical Decision Task","42","66818","46","yes","1024"
"2.695481676","0","7","goke","non-word","91.48936170212765","91.48936170212765","1444.8510638297873","1444.8510638297873","black","no","legacy","legacy","legacy","0","uniform","1","undefined","undefined","undefined","1","f","0","0","0","0","46","0","0","0","46","NA","42","46","42","0","42","3","46","0","46","Wed Feb 17 11:54:33 2021","The main experiment item","yes","Lexical_Decision_Task.osexp","C:/Users/gilmo/Documents","no","Andale Mono","no","18","no","white","no","yes","576","legacy","42","42","3","C:/Users/gilmo/Documents/subject-5204366 Lexical.csv","legacy","Lentiform Loewenfeld","3.3.7","yes","yes","600bd7cfb6416f0113b04181","602110864497cf011d9c0822","0","f","NA","space","space","space","NA","f","1090","NA","3404","11803","8006","NA","1090","2","legacy","1024","2","48000","-16","task","5204366","even","NA","34500","39907","36503","154120","4874","24687","16681","154623","NA","154118","154624","153989","39907","155715","32315","153489","4850","121728","Lexical Decision Task","43","67908","47","yes","1024"
"2.814027728","8.2","4","foam","word","91.66666666666667","91.66666666666667","1438.2708333333333","1438.2708333333333","black","no","legacy","legacy","legacy","0","uniform","1","undefined","undefined","undefined","1","j","0","0","0","0","47","0","0","0","47","NA","43","47","43","0","43","3","47","0","47","Wed Feb 17 11:54:33 2021","The main experiment item","yes","Lexical_Decision_Task.osexp","C:/Users/gilmo/Documents","no","Andale Mono","no","18","no","white","no","yes","576","legacy","43","43","3","C:/Users/gilmo/Documents/subject-5204366 Lexical.csv","legacy","Lentiform Loewenfeld","3.3.7","yes","yes","600bd7cfb6416f0113b04181","602110864497cf011d9c0822","0","j","NA","space","space","space","NA","j","1129","NA","3404","11803","8006","NA","1129","2","legacy","1024","2","48000","-16","task","5204366","even","NA","34500","39907","36503","156355","4874","24687","16681","156858","NA","156353","156858","156225","39907","157989","32315","155725","4850","121728","Lexical Decision Task","44","69037","48","yes","1024"
"3.20996159","0","4","clee","non-word","91.83673469387755","91.83673469387755","1429.6326530612246","1429.6326530612246","black","no","legacy","legacy","legacy","0","uniform","1","undefined","undefined","undefined","1","f","0","0","0","0","48","0","0","0","48","NA","44","48","44","0","44","3","48","0","48","Wed Feb 17 11:54:33 2021","The main experiment item","yes","Lexical_Decision_Task.osexp","C:/Users/gilmo/Documents","no","Andale Mono","no","18","no","white","no","yes","576","legacy","44","44","3","C:/Users/gilmo/Documents/subject-5204366 Lexical.csv","legacy","Lentiform Loewenfeld","3.3.7","yes","yes","600bd7cfb6416f0113b04181","602110864497cf011d9c0822","0","f","NA","space","space","space","NA","f","1015","NA","3404","11803","8006","NA","1015","2","legacy","1024","2","48000","-16","task","5204366","even","NA","34500","39907","36503","158635","4874","24687","16681","159138","NA","158633","159138","158499","39907","160155","32315","157999","4850","121728","Lexical Decision Task","45","70052","49","yes","1024"
"2.616654026","9.37","5","gift","word","92","92","1420.82","1420.82","black","no","legacy","legacy","legacy","0","uniform","1","undefined","undefined","undefined","1","j","0","0","0","0","49","0","0","0","49","NA","45","49","45","0","45","3","49","0","49","Wed Feb 17 11:54:33 2021","The main experiment item","yes","Lexical_Decision_Task.osexp","C:/Users/gilmo/Documents","no","Andale Mono","no","18","no","white","no","yes","576","legacy","45","45","3","C:/Users/gilmo/Documents/subject-5204366 Lexical.csv","legacy","Lentiform Loewenfeld","3.3.7","yes","yes","600bd7cfb6416f0113b04181","602110864497cf011d9c0822","0","j","NA","space","space","space","NA","j","989","NA","3404","11803","8006","NA","989","2","legacy","1024","2","48000","-16","task","5204366","even","NA","34500","39907","36503","160800","4874","24687","16681","161303","NA","160798","161303","160667","39907","162294","32315","160167","4850","121728","Lexical Decision Task","46","71041","50","yes","1024"
"2.920123326","7.43","4","duel","word","92.15686274509804","92.15686274509804","1413.9411764705883","1413.9411764705883","black","no","legacy","legacy","legacy","0","uniform","1","undefined","undefined","undefined","1","j","0","0","0","0","50","0","0","0","50","NA","46","50","46","0","46","3","50","0","50","Wed Feb 17 11:54:33 2021","The main experiment item","yes","Lexical_Decision_Task.osexp","C:/Users/gilmo/Documents","no","Andale Mono","no","18","no","white","no","yes","576","legacy","46","46","3","C:/Users/gilmo/Documents/subject-5204366 Lexical.csv","legacy","Lentiform Loewenfeld","3.3.7","yes","yes","600bd7cfb6416f0113b04181","602110864497cf011d9c0822","0","j","NA","space","space","space","NA","j","1070","NA","3404","11803","8006","NA","1070","2","legacy","1024","2","48000","-16","task","5204366","even","NA","34500","39907","36503","162939","4874","24687","16681","163442","NA","162937","163442","162805","39907","164513","32315","162305","4850","121728","Lexical Decision Task","47","72111","51","yes","1024"
"2.7084209","0","8","vump","non-word","92.3076923076923","92.3076923076923","1406","1406","black","no","legacy","legacy","legacy","0","uniform","1","undefined","undefined","undefined","1","f","0","0","0","0","51","0","0","0","51","NA","47","51","47","0","47","3","51","0","51","Wed Feb 17 11:54:33 2021","The main experiment item","yes","Lexical_Decision_Task.osexp","C:/Users/gilmo/Documents","no","Andale Mono","no","18","no","white","no","yes","576","legacy","47","47","3","C:/Users/gilmo/Documents/subject-5204366 Lexical.csv","legacy","Lentiform Loewenfeld","3.3.7","yes","yes","600bd7cfb6416f0113b04181","602110864497cf011d9c0822","0","f","NA","space","space","space","NA","f","1001","NA","3404","11803","8006","NA","1001","2","legacy","1024","2","48000","-16","task","5204366","even","NA","34500","39907","36503","165156","4874","24687","16681","165660","NA","165153","165660","165021","39907","166663","32315","164521","4850","121728","Lexical Decision Task","48","73112","52","yes","1024"
"3.274543461","7.46","7","scar","word","92.45283018867924","92.45283018867924","1397.132075471698","1397.132075471698","black","no","legacy","legacy","legacy","0","uniform","1","undefined","undefined","undefined","1","j","0","0","0","0","52","0","0","0","52","NA","48","52","48","0","48","3","52","0","52","Wed Feb 17 11:54:33 2021","The main experiment item","yes","Lexical_Decision_Task.osexp","C:/Users/gilmo/Documents","no","Andale Mono","no","18","no","white","no","yes","576","legacy","48","48","3","C:/Users/gilmo/Documents/subject-5204366 Lexical.csv","legacy","Lentiform Loewenfeld","3.3.7","yes","yes","600bd7cfb6416f0113b04181","602110864497cf011d9c0822","0","j","NA","space","space","space","NA","j","936","NA","3404","11803","8006","NA","936","2","legacy","1024","2","48000","-16","task","5204366","even","NA","34500","39907","36503","167305","4874","24687","16681","167808","NA","167303","167808","167174","39907","168745","32315","166674","4850","121728","Lexical Decision Task","49","74048","53","yes","1024"
"3.366547468","0","6","plat","non-word","92.5925925925926","92.5925925925926","1392.1296296296296","1392.1296296296296","black","no","legacy","legacy","legacy","0","uniform","1","undefined","undefined","undefined","1","f","0","0","0","0","53","0","0","0","53","NA","49","53","49","0","49","3","53","0","53","Wed Feb 17 11:54:33 2021","The main experiment item","yes","Lexical_Decision_Task.osexp","C:/Users/gilmo/Documents","no","Andale Mono","no","18","no","white","no","yes","576","legacy","49","49","3","C:/Users/gilmo/Documents/subject-5204366 Lexical.csv","legacy","Lentiform Loewenfeld","3.3.7","yes","yes","600bd7cfb6416f0113b04181","602110864497cf011d9c0822","0","f","NA","space","space","space","NA","f","1127","NA","3404","11803","8006","NA","1127","2","legacy","1024","2","48000","-16","task","5204366","even","NA","34500","39907","36503","169389","4874","24687","16681","169892","NA","169386","169893","169253","39907","171020","32315","168753","4850","121728","Lexical Decision Task","50","75175","54","yes","1024"
"3.134602053","0","8","jart","non-word","92.72727272727273","92.72727272727273","1394.3818181818183","1394.3818181818183","black","no","legacy","legacy","legacy","0","uniform","1","undefined","undefined","undefined","1","f","0","0","0","0","54","0","0","0","54","0","50","54","50","0","50","3","54","0","54","Wed Feb 17 11:54:33 2021","The main experiment item","yes","Lexical_Decision_Task.osexp","C:/Users/gilmo/Documents","no","Andale Mono","no","18","no","white","no","yes","576","legacy","50","50","3","C:/Users/gilmo/Documents/subject-5204366 Lexical.csv","legacy","Lentiform Loewenfeld","3.3.7","yes","yes","600bd7cfb6416f0113b04181","602110864497cf011d9c0822","0","f","NA","space","space","space","n","f","1516","NA","3404","11803","8006","4136","1516","2","legacy","1024","2","48000","-16","task","5204366","even","NA","34500","39907","36503","175835","4874","24687","16681","176338","171636","175834","176339","171530","39907","177856","32315","171030","4850","121728","Lexical Decision Task","51","76691","55","yes","1024"
"2.983324025","9.56","2","debt","word","92.85714285714286","92.85714285714286","1390.642857142857","1390.642857142857","black","no","legacy","legacy","legacy","0","uniform","1","undefined","undefined","undefined","1","j","0","0","0","0","55","0","0","0","55","0","51","55","51","0","51","3","55","0","55","Wed Feb 17 11:54:33 2021","The main experiment item","yes","Lexical_Decision_Task.osexp","C:/Users/gilmo/Documents","no","Andale Mono","no","18","no","white","no","yes","576","legacy","51","51","3","C:/Users/gilmo/Documents/subject-5204366 Lexical.csv","legacy","Lentiform Loewenfeld","3.3.7","yes","yes","600bd7cfb6416f0113b04181","602110864497cf011d9c0822","0","j","NA","space","space","space","n","j","1185","NA","3404","11803","8006","4136","1185","2","legacy","1024","2","48000","-16","task","5204366","even","NA","34500","39907","36503","178497","4874","24687","16681","179000","171636","178494","179000","178365","39907","180187","32315","177864","4850","121728","Lexical Decision Task","52","77876","56","yes","1024"
"2.767650507","0","6","yolt","non-word","92.98245614035088","92.98245614035088","1383.4035087719299","1383.4035087719299","black","no","legacy","legacy","legacy","0","uniform","1","undefined","undefined","undefined","1","f","0","0","0","0","56","0","0","0","56","0","52","56","52","0","52","3","56","0","56","Wed Feb 17 11:54:33 2021","The main experiment item","yes","Lexical_Decision_Task.osexp","C:/Users/gilmo/Documents","no","Andale Mono","no","18","no","white","no","yes","576","legacy","52","52","3","C:/Users/gilmo/Documents/subject-5204366 Lexical.csv","legacy","Lentiform Loewenfeld","3.3.7","yes","yes","600bd7cfb6416f0113b04181","602110864497cf011d9c0822","0","f","NA","space","space","space","n","f","978","NA","3404","11803","8006","4136","978","2","legacy","1024","2","48000","-16","task","5204366","even","NA","34500","39907","36503","180823","4874","24687","16681","181326","171636","180821","181327","180698","39907","182306","32315","180198","4850","121728","Lexical Decision Task","53","78854","57","yes","1024"
"2.897810299","0","5","glur","non-word","93.10344827586206","93.10344827586206","1380.8275862068965","1380.8275862068965","black","no","legacy","legacy","legacy","0","uniform","1","undefined","undefined","undefined","1","f","0","0","0","0","57","0","0","0","57","0","53","57","53","0","53","3","57","0","57","Wed Feb 17 11:54:33 2021","The main experiment item","yes","Lexical_Decision_Task.osexp","C:/Users/gilmo/Documents","no","Andale Mono","no","18","no","white","no","yes","576","legacy","53","53","3","C:/Users/gilmo/Documents/subject-5204366 Lexical.csv","legacy","Lentiform Loewenfeld","3.3.7","yes","yes","600bd7cfb6416f0113b04181","602110864497cf011d9c0822","0","f","NA","space","space","space","n","f","1234","NA","3404","11803","8006","4136","1234","2","legacy","1024","2","48000","-16","task","5204366","even","NA","34500","39907","36503","182945","4874","24687","16681","183448","171636","182943","183448","182815","39907","184683","32315","182315","4850","121728","Lexical Decision Task","54","80088","58","yes","1024"
"3.372543801","9.24","8","coat","word","93.22033898305085","93.22033898305085","1380.5084745762713","1380.5084745762713","black","no","legacy","legacy","legacy","0","uniform","1","undefined","undefined","undefined","1","j","0","0","0","0","58","0","0","0","58","0","54","58","54","0","54","3","58","0","58","Wed Feb 17 11:54:33 2021","The main experiment item","yes","Lexical_Decision_Task.osexp","C:/Users/gilmo/Documents","no","Andale Mono","no","18","no","white","no","yes","576","legacy","54","54","3","C:/Users/gilmo/Documents/subject-5204366 Lexical.csv","legacy","Lentiform Loewenfeld","3.3.7","yes","yes","600bd7cfb6416f0113b04181","602110864497cf011d9c0822","0","j","NA","space","space","space","n","j","1362","NA","3404","11803","8006","4136","1362","2","legacy","1024","2","48000","-16","task","5204366","even","NA","34500","39907","36503","185327","4874","24687","16681","185831","171636","185325","185831","185194","39907","187195","32315","184694","4850","121728","Lexical Decision Task","55","81450","59","yes","1024"
"2.744553742","0","2","nawk","non-word","93.33333333333333","93.33333333333333","1375.6","1375.6","black","no","legacy","legacy","legacy","0","uniform","1","undefined","undefined","undefined","1","f","0","0","0","0","59","0","0","0","59","0","55","59","55","0","55","3","59","0","59","Wed Feb 17 11:54:33 2021","The main experiment item","yes","Lexical_Decision_Task.osexp","C:/Users/gilmo/Documents","no","Andale Mono","no","18","no","white","no","yes","576","legacy","55","55","3","C:/Users/gilmo/Documents/subject-5204366 Lexical.csv","legacy","Lentiform Loewenfeld","3.3.7","yes","yes","600bd7cfb6416f0113b04181","602110864497cf011d9c0822","0","f","NA","space","space","space","n","f","1086","NA","3404","11803","8006","4136","1086","2","legacy","1024","2","48000","-16","task","5204366","even","NA","34500","39907","36503","187837","4874","24687","16681","188340","171636","187835","188340","187706","39907","189427","32315","187206","4850","121728","Lexical Decision Task","56","82536","60","yes","1024"
"2.6599162","0","6","flug","non-word","93.44262295081967","93.44262295081967","1371.688524590164","1371.688524590164","black","no","legacy","legacy","legacy","0","uniform","1","undefined","undefined","undefined","1","f","0","0","0","0","60","0","0","0","60","0","56","60","56","0","56","3","60","0","60","Wed Feb 17 11:54:33 2021","The main experiment item","yes","Lexical_Decision_Task.osexp","C:/Users/gilmo/Documents","no","Andale Mono","no","18","no","white","no","yes","576","legacy","56","56","3","C:/Users/gilmo/Documents/subject-5204366 Lexical.csv","legacy","Lentiform Loewenfeld","3.3.7","yes","yes","600bd7cfb6416f0113b04181","602110864497cf011d9c0822","0","f","NA","space","space","space","n","f","1137","NA","3404","11803","8006","4136","1137","2","legacy","1024","2","48000","-16","task","5204366","even","NA","34500","39907","36503","190070","4874","24687","16681","190574","171636","190068","190574","189937","39907","191712","32315","189437","4850","121728","Lexical Decision Task","57","83673","61","yes","1024"
"3.194328374","9.42","6","harm","word","93.54838709677419","93.54838709677419","1367.3387096774193","1367.3387096774193","black","no","legacy","legacy","legacy","0","uniform","1","undefined","undefined","undefined","1","j","0","0","0","0","61","0","0","0","61","0","57","61","57","0","57","3","61","0","61","Wed Feb 17 11:54:33 2021","The main experiment item","yes","Lexical_Decision_Task.osexp","C:/Users/gilmo/Documents","no","Andale Mono","no","18","no","white","no","yes","576","legacy","57","57","3","C:/Users/gilmo/Documents/subject-5204366 Lexical.csv","legacy","Lentiform Loewenfeld","3.3.7","yes","yes","600bd7cfb6416f0113b04181","602110864497cf011d9c0822","0","j","NA","space","space","space","n","j","1102","NA","3404","11803","8006","4136","1102","2","legacy","1024","2","48000","-16","task","5204366","even","NA","34500","39907","36503","192348","4874","24687","16681","192851","171636","192346","192851","192219","39907","193956","32315","191719","4850","121728","Lexical Decision Task","58","84775","62","yes","1024"
"3.197740804","6.74","3","ache","word","93.65079365079364","93.65079365079364","1360.5555555555557","1360.5555555555557","black","no","legacy","legacy","legacy","0","uniform","1","undefined","undefined","undefined","1","j","0","0","0","0","62","0","0","0","62","0","58","62","58","0","58","3","62","0","62","Wed Feb 17 11:54:33 2021","The main experiment item","yes","Lexical_Decision_Task.osexp","C:/Users/gilmo/Documents","no","Andale Mono","no","18","no","white","no","yes","576","legacy","58","58","3","C:/Users/gilmo/Documents/subject-5204366 Lexical.csv","legacy","Lentiform Loewenfeld","3.3.7","yes","yes","600bd7cfb6416f0113b04181","602110864497cf011d9c0822","0","j","NA","space","space","space","n","j","940","NA","3404","11803","8006","4136","940","2","legacy","1024","2","48000","-16","task","5204366","even","NA","34500","39907","36503","194599","4874","24687","16681","195102","171636","194597","195103","194467","39907","196045","32315","193966","4850","121728","Lexical Decision Task","59","85715","63","yes","1024"
"3.102203805","7.21","3","drip","word","93.75","93.75","1353.40625","1353.40625","black","no","legacy","legacy","legacy","0","uniform","1","undefined","undefined","undefined","1","j","0","0","0","0","63","0","0","0","63","0","59","63","59","0","59","3","63","0","63","Wed Feb 17 11:54:33 2021","The main experiment item","yes","Lexical_Decision_Task.osexp","C:/Users/gilmo/Documents","no","Andale Mono","no","18","no","white","no","yes","576","legacy","59","59","3","C:/Users/gilmo/Documents/subject-5204366 Lexical.csv","legacy","Lentiform Loewenfeld","3.3.7","yes","yes","600bd7cfb6416f0113b04181","602110864497cf011d9c0822","0","j","NA","space","space","space","n","j","903","NA","3404","11803","8006","4136","903","2","legacy","1024","2","48000","-16","task","5204366","even","NA","34500","39907","36503","196692","4874","24687","16681","197195","171636","196690","197195","196556","39907","198100","32315","196056","4850","121728","Lexical Decision Task","60","86618","64","yes","1024"
"3.316948329","0","1","besc","non-word","93.84615384615384","93.84615384615384","1347.5846153846153","1347.5846153846153","black","no","legacy","legacy","legacy","0","uniform","1","undefined","undefined","undefined","1","f","0","0","0","0","64","0","0","0","64","0","60","64","60","0","60","3","64","0","64","Wed Feb 17 11:54:33 2021","The main experiment item","yes","Lexical_Decision_Task.osexp","C:/Users/gilmo/Documents","no","Andale Mono","no","18","no","white","no","yes","576","legacy","60","60","3","C:/Users/gilmo/Documents/subject-5204366 Lexical.csv","legacy","Lentiform Loewenfeld","3.3.7","yes","yes","600bd7cfb6416f0113b04181","602110864497cf011d9c0822","0","f","NA","space","space","space","n","f","975","NA","3404","11803","8006","4136","975","2","legacy","1024","2","48000","-16","task","5204366","even","NA","34500","39907","36503","198785","4874","24687","16681","199288","171636","198780","199288","198612","39907","200265","32315","198112","4850","121728","Lexical Decision Task","61","87593","65","yes","1024"
"2.664011697","8.19","4","hawk","word","93.93939393939394","93.93939393939394","1346.8333333333333","1346.8333333333333","black","no","legacy","legacy","legacy","0","uniform","1","undefined","undefined","undefined","1","j","0","0","0","0","65","0","0","0","65","0","61","65","61","0","61","3","65","0","65","Wed Feb 17 11:54:33 2021","The main experiment item","yes","Lexical_Decision_Task.osexp","C:/Users/gilmo/Documents","no","Andale Mono","no","18","no","white","no","yes","576","legacy","61","61","3","C:/Users/gilmo/Documents/subject-5204366 Lexical.csv","legacy","Lentiform Loewenfeld","3.3.7","yes","yes","600bd7cfb6416f0113b04181","602110864497cf011d9c0822","0","j","NA","space","space","space","n","j","1298","NA","3404","11803","8006","4136","1298","2","legacy","1024","2","48000","-16","task","5204366","even","NA","34500","39907","36503","200908","4874","24687","16681","201411","171636","200906","201411","200778","39907","202710","32315","200278","4850","121728","Lexical Decision Task","62","88891","66","yes","1024"
"2.693726949","5.08","3","swig","word","94.02985074626865","94.02985074626865","1356.358208955224","1356.358208955224","black","no","legacy","legacy","legacy","0","uniform","1","undefined","undefined","undefined","1","j","0","0","0","0","66","0","0","0","66","0","62","66","62","0","62","3","66","0","66","Wed Feb 17 11:54:33 2021","The main experiment item","yes","Lexical_Decision_Task.osexp","C:/Users/gilmo/Documents","no","Andale Mono","no","18","no","white","no","yes","576","legacy","62","62","3","C:/Users/gilmo/Documents/subject-5204366 Lexical.csv","legacy","Lentiform Loewenfeld","3.3.7","yes","yes","600bd7cfb6416f0113b04181","602110864497cf011d9c0822","0","j","NA","space","space","space","n","j","1985","NA","3404","11803","8006","4136","1985","2","legacy","1024","2","48000","-16","task","5204366","even","NA","34500","39907","36503","203355","4874","24687","16681","203858","171636","203352","203858","203222","39907","205845","32315","202722","4850","121728","Lexical Decision Task","63","90876","67","yes","1024"
"2.8162413","0","5","nusk","non-word","94.11764705882354","94.11764705882354","1359.735294117647","1359.735294117647","black","no","legacy","legacy","legacy","0","uniform","1","undefined","undefined","undefined","1","f","0","0","0","0","67","0","0","0","67","0","63","67","63","0","63","3","67","0","67","Wed Feb 17 11:54:33 2021","The main experiment item","yes","Lexical_Decision_Task.osexp","C:/Users/gilmo/Documents","no","Andale Mono","no","18","no","white","no","yes","576","legacy","63","63","3","C:/Users/gilmo/Documents/subject-5204366 Lexical.csv","legacy","Lentiform Loewenfeld","3.3.7","yes","yes","600bd7cfb6416f0113b04181","602110864497cf011d9c0822","0","f","NA","space","space","space","n","f","1586","NA","3404","11803","8006","4136","1586","2","legacy","1024","2","48000","-16","task","5204366","even","NA","34500","39907","36503","206491","4874","24687","16681","206994","171636","206489","206994","206356","39907","208583","32315","205856","4850","121728","Lexical Decision Task","64","92462","68","yes","1024"
"3.174641193","0","3","ramb","non-word","94.20289855072464","94.20289855072464","1356.8985507246377","1356.8985507246377","black","no","legacy","legacy","legacy","0","uniform","1","undefined","undefined","undefined","1","f","0","0","0","0","68","0","0","0","68","0","64","68","64","0","64","3","68","0","68","Wed Feb 17 11:54:33 2021","The main experiment item","yes","Lexical_Decision_Task.osexp","C:/Users/gilmo/Documents","no","Andale Mono","no","18","no","white","no","yes","576","legacy","64","64","3","C:/Users/gilmo/Documents/subject-5204366 Lexical.csv","legacy","Lentiform Loewenfeld","3.3.7","yes","yes","600bd7cfb6416f0113b04181","602110864497cf011d9c0822","0","f","NA","space","space","space","n","f","1164","NA","3404","11803","8006","4136","1164","2","legacy","1024","2","48000","-16","task","5204366","even","NA","34500","39907","36503","209226","4874","24687","16681","209729","171636","209223","209729","209093","39907","210894","32315","208593","4850","121728","Lexical Decision Task","65","93626","69","yes","1024"
"2.86332286","6.71","2","feud","word","94.28571428571429","94.28571428571429","1360.857142857143","1360.857142857143","black","no","legacy","legacy","legacy","0","uniform","1","undefined","undefined","undefined","1","j","0","0","0","0","69","0","0","0","69","0","65","69","65","0","65","3","69","0","69","Wed Feb 17 11:54:33 2021","The main experiment item","yes","Lexical_Decision_Task.osexp","C:/Users/gilmo/Documents","no","Andale Mono","no","18","no","white","no","yes","576","legacy","65","65","3","C:/Users/gilmo/Documents/subject-5204366 Lexical.csv","legacy","Lentiform Loewenfeld","3.3.7","yes","yes","600bd7cfb6416f0113b04181","602110864497cf011d9c0822","0","j","NA","space","space","space","n","j","1634","NA","3404","11803","8006","4136","1634","2","legacy","1024","2","48000","-16","task","5204366","even","NA","34500","39907","36503","211532","4874","24687","16681","212035","171636","211530","212035","211405","39907","213671","32315","210904","4850","121728","Lexical Decision Task","66","95260","70","yes","1024"
"2.771097306","0","9","jold","non-word","94.36619718309859","94.36619718309859","1359.056338028169","1359.056338028169","black","no","legacy","legacy","legacy","0","uniform","1","undefined","undefined","undefined","1","f","0","0","0","0","70","0","0","0","70","0","66","70","66","0","66","3","70","0","70","Wed Feb 17 11:54:33 2021","The main experiment item","yes","Lexical_Decision_Task.osexp","C:/Users/gilmo/Documents","no","Andale Mono","no","18","no","white","no","yes","576","legacy","66","66","3","C:/Users/gilmo/Documents/subject-5204366 Lexical.csv","legacy","Lentiform Loewenfeld","3.3.7","yes","yes","600bd7cfb6416f0113b04181","602110864497cf011d9c0822","0","f","NA","space","space","space","n","f","1233","NA","3404","11803","8006","4136","1233","2","legacy","1024","2","48000","-16","task","5204366","even","NA","34500","39907","36503","214317","4874","24687","16681","214820","171636","214315","214821","214184","39907","216056","32315","213683","4850","121728","Lexical Decision Task","67","96493","71","yes","1024"
"3.257359335","8","6","brew","word","94.44444444444444","94.44444444444444","1354.638888888889","1354.638888888889","black","no","legacy","legacy","legacy","0","uniform","1","undefined","undefined","undefined","1","j","0","0","0","0","71","0","0","0","71","0","67","71","67","0","67","3","71","0","71","Wed Feb 17 11:54:33 2021","The main experiment item","yes","Lexical_Decision_Task.osexp","C:/Users/gilmo/Documents","no","Andale Mono","no","18","no","white","no","yes","576","legacy","67","67","3","C:/Users/gilmo/Documents/subject-5204366 Lexical.csv","legacy","Lentiform Loewenfeld","3.3.7","yes","yes","600bd7cfb6416f0113b04181","602110864497cf011d9c0822","0","j","NA","space","space","space","n","j","1041","NA","3404","11803","8006","4136","1041","2","legacy","1024","2","48000","-16","task","5204366","even","NA","34500","39907","36503","216701","4874","24687","16681","217205","171636","216699","217205","216565","39907","218248","32315","216065","4850","121728","Lexical Decision Task","68","97534","72","yes","1024"
"2.821076612","0","4","lult","non-word","94.52054794520548","94.52054794520548","1350.9041095890411","1350.9041095890411","black","no","legacy","legacy","legacy","0","uniform","1","undefined","undefined","undefined","1","f","0","0","0","0","72","0","0","0","72","0","68","72","68","0","68","3","72","0","72","Wed Feb 17 11:54:33 2021","The main experiment item","yes","Lexical_Decision_Task.osexp","C:/Users/gilmo/Documents","no","Andale Mono","no","18","no","white","no","yes","576","legacy","68","68","3","C:/Users/gilmo/Documents/subject-5204366 Lexical.csv","legacy","Lentiform Loewenfeld","3.3.7","yes","yes","600bd7cfb6416f0113b04181","602110864497cf011d9c0822","0","f","NA","space","space","space","n","f","1082","NA","3404","11803","8006","4136","1082","2","legacy","1024","2","48000","-16","task","5204366","even","NA","34500","39907","36503","218889","4874","24687","16681","219393","171636","218887","219393","218759","39907","220478","32315","218258","4850","121728","Lexical Decision Task","69","98616","73","yes","1024"
"3.140404328","10.66","9","deep","word","94.5945945945946","94.5945945945946","1346.7432432432433","1346.7432432432433","black","no","legacy","legacy","legacy","0","uniform","1","undefined","undefined","undefined","1","j","0","0","0","0","73","0","0","0","73","0","69","73","69","0","69","3","73","0","73","Wed Feb 17 11:54:33 2021","The main experiment item","yes","Lexical_Decision_Task.osexp","C:/Users/gilmo/Documents","no","Andale Mono","no","18","no","white","no","yes","576","legacy","69","69","3","C:/Users/gilmo/Documents/subject-5204366 Lexical.csv","legacy","Lentiform Loewenfeld","3.3.7","yes","yes","600bd7cfb6416f0113b04181","602110864497cf011d9c0822","0","j","NA","space","space","space","n","j","1043","NA","3404","11803","8006","4136","1043","2","legacy","1024","2","48000","-16","task","5204366","even","NA","34500","39907","36503","221119","4874","24687","16681","221622","171636","221116","221622","220988","39907","222667","32315","220488","4850","121728","Lexical Decision Task","70","99659","74","yes","1024"
"2.755364069","7.72","2","hoax","word","94.66666666666667","94.66666666666667","1343.92","1343.92","black","no","legacy","legacy","legacy","0","uniform","1","undefined","undefined","undefined","1","j","0","0","0","0","74","0","0","0","74","0","70","74","70","0","70","3","74","0","74","Wed Feb 17 11:54:33 2021","The main experiment item","yes","Lexical_Decision_Task.osexp","C:/Users/gilmo/Documents","no","Andale Mono","no","18","no","white","no","yes","576","legacy","70","70","3","C:/Users/gilmo/Documents/subject-5204366 Lexical.csv","legacy","Lentiform Loewenfeld","3.3.7","yes","yes","600bd7cfb6416f0113b04181","602110864497cf011d9c0822","0","j","NA","space","space","space","n","j","1135","NA","3404","11803","8006","4136","1135","2","legacy","1024","2","48000","-16","task","5204366","even","NA","34500","39907","36503","223313","4874","24687","16681","223816","171636","223311","223816","223179","39907","224953","32315","222678","4850","121728","Lexical Decision Task","71","100794","75","yes","1024"
"3.29439347","8.6","9","wand","word","94.73684210526316","94.73684210526316","1337.6842105263158","1337.6842105263158","black","no","legacy","legacy","legacy","0","uniform","1","undefined","undefined","undefined","1","j","0","0","0","0","75","0","0","0","75","0","71","75","71","0","71","3","75","0","75","Wed Feb 17 11:54:33 2021","The main experiment item","yes","Lexical_Decision_Task.osexp","C:/Users/gilmo/Documents","no","Andale Mono","no","18","no","white","no","yes","576","legacy","71","71","3","C:/Users/gilmo/Documents/subject-5204366 Lexical.csv","legacy","Lentiform Loewenfeld","3.3.7","yes","yes","600bd7cfb6416f0113b04181","602110864497cf011d9c0822","0","j","NA","space","space","space","n","j","870","NA","3404","11803","8006","4136","870","2","legacy","1024","2","48000","-16","task","5204366","even","NA","34500","39907","36503","225601","4874","24687","16681","226104","171636","225598","226104","225465","39907","226976","32315","224965","4850","121728","Lexical Decision Task","72","101664","76","yes","1024"
"3.062080345","0","6","tomp","non-word","94.8051948051948","94.8051948051948","1337.2077922077922","1337.2077922077922","black","no","legacy","legacy","legacy","0","uniform","1","undefined","undefined","undefined","1","f","0","0","0","0","76","0","0","0","76","0","72","76","72","0","72","3","76","0","76","Wed Feb 17 11:54:33 2021","The main experiment item","yes","Lexical_Decision_Task.osexp","C:/Users/gilmo/Documents","no","Andale Mono","no","18","no","white","no","yes","576","legacy","72","72","3","C:/Users/gilmo/Documents/subject-5204366 Lexical.csv","legacy","Lentiform Loewenfeld","3.3.7","yes","yes","600bd7cfb6416f0113b04181","602110864497cf011d9c0822","0","f","NA","space","space","space","n","f","1301","NA","3404","11803","8006","4136","1301","2","legacy","1024","2","48000","-16","task","5204366","even","NA","34500","39907","36503","227616","4874","24687","16681","228118","171636","227614","228119","227486","39907","229421","32315","226986","4850","121728","Lexical Decision Task","73","102965","77","yes","1024"
"2.937852093","0","7","bamp","non-word","94.87179487179488","94.87179487179488","1332.551282051282","1332.551282051282","black","no","legacy","legacy","legacy","0","uniform","1","undefined","undefined","undefined","1","f","0","0","0","0","77","0","0","0","77","0","73","77","73","0","73","3","77","0","77","Wed Feb 17 11:54:33 2021","The main experiment item","yes","Lexical_Decision_Task.osexp","C:/Users/gilmo/Documents","no","Andale Mono","no","18","no","white","no","yes","576","legacy","73","73","3","C:/Users/gilmo/Documents/subject-5204366 Lexical.csv","legacy","Lentiform Loewenfeld","3.3.7","yes","yes","600bd7cfb6416f0113b04181","602110864497cf011d9c0822","0","f","NA","space","space","space","n","f","974","NA","3404","11803","8006","4136","974","2","legacy","1024","2","48000","-16","task","5204366","even","NA","34500","39907","36503","230062","4874","24687","16681","230565","171636","230060","230565","229933","39907","231540","32315","229433","4850","121728","Lexical Decision Task","74","103939","78","yes","1024"
"2.696356389","0","1","pizz","non-word","94.9367088607595","94.9367088607595","1329.126582278481","1329.126582278481","black","no","legacy","legacy","legacy","0","uniform","1","undefined","undefined","undefined","1","f","0","0","0","0","78","0","0","0","78","0","74","78","74","0","74","3","78","0","78","Wed Feb 17 11:54:33 2021","The main experiment item","yes","Lexical_Decision_Task.osexp","C:/Users/gilmo/Documents","no","Andale Mono","no","18","no","white","no","yes","576","legacy","74","74","3","C:/Users/gilmo/Documents/subject-5204366 Lexical.csv","legacy","Lentiform Loewenfeld","3.3.7","yes","yes","600bd7cfb6416f0113b04181","602110864497cf011d9c0822","0","f","NA","space","space","space","n","f","1062","NA","3404","11803","8006","4136","1062","2","legacy","1024","2","48000","-16","task","5204366","even","NA","34500","39907","36503","232184","4874","24687","16681","232687","171636","232182","232687","232049","39907","233751","32315","231549","4850","121728","Lexical Decision Task","75","105001","79","yes","1024"
"3.705778213","0","6","stin","non-word","95","95","1325.8625","1325.8625","black","no","legacy","legacy","legacy","0","uniform","1","undefined","undefined","undefined","1","f","0","0","0","0","79","0","0","0","79","0","75","79","75","0","75","3","79","0","79","Wed Feb 17 11:54:33 2021","The main experiment item","yes","Lexical_Decision_Task.osexp","C:/Users/gilmo/Documents","no","Andale Mono","no","18","no","white","no","yes","576","legacy","75","75","3","C:/Users/gilmo/Documents/subject-5204366 Lexical.csv","legacy","Lentiform Loewenfeld","3.3.7","yes","yes","600bd7cfb6416f0113b04181","602110864497cf011d9c0822","0","f","NA","space","space","space","n","f","1068","NA","3404","11803","8006","4136","1068","2","legacy","1024","2","48000","-16","task","5204366","even","NA","34500","39907","36503","234389","4874","24687","16681","234892","171636","234387","234892","234260","39907","235964","32315","233760","4850","121728","Lexical Decision Task","76","106069","80","yes","1024"
"3.153001286","8.7","5","palm","word","95.06172839506173","95.06172839506173","1325.9382716049383","1325.9382716049383","black","no","legacy","legacy","legacy","0","uniform","1","undefined","undefined","undefined","1","j","0","0","0","0","80","0","0","0","80","0","76","80","76","0","76","3","80","0","80","Wed Feb 17 11:54:33 2021","The main experiment item","yes","Lexical_Decision_Task.osexp","C:/Users/gilmo/Documents","no","Andale Mono","no","18","no","white","no","yes","576","legacy","76","76","3","C:/Users/gilmo/Documents/subject-5204366 Lexical.csv","legacy","Lentiform Loewenfeld","3.3.7","yes","yes","600bd7cfb6416f0113b04181","602110864497cf011d9c0822","0","j","NA","space","space","space","n","j","1332","NA","3404","11803","8006","4136","1332","2","legacy","1024","2","48000","-16","task","5204366","even","NA","34500","39907","36503","236613","4874","24687","16681","237116","171636","236610","237116","236476","39907","238449","32315","235976","4850","121728","Lexical Decision Task","77","107401","81","yes","1024"
"3.066077331","0","7","vorn","non-word","95.1219512195122","95.1219512195122","1321.8292682926829","1321.8292682926829","black","no","legacy","legacy","legacy","0","uniform","1","undefined","undefined","undefined","1","f","0","0","0","0","81","0","0","0","81","0","77","81","77","0","77","3","81","0","81","Wed Feb 17 11:54:33 2021","The main experiment item","yes","Lexical_Decision_Task.osexp","C:/Users/gilmo/Documents","no","Andale Mono","no","18","no","white","no","yes","576","legacy","77","77","3","C:/Users/gilmo/Documents/subject-5204366 Lexical.csv","legacy","Lentiform Loewenfeld","3.3.7","yes","yes","600bd7cfb6416f0113b04181","602110864497cf011d9c0822","0","f","NA","space","space","space","n","f","989","NA","3404","11803","8006","4136","989","2","legacy","1024","2","48000","-16","task","5204366","even","NA","34500","39907","36503","239088","4874","24687","16681","239591","171636","239086","239591","238958","39907","240580","32315","238457","4850","121728","Lexical Decision Task","78","108390","82","yes","1024"
"3.068433376","8.09","2","bulb","word","95.18072289156626","95.18072289156626","1321.5301204819277","1321.5301204819277","black","no","legacy","legacy","legacy","0","uniform","1","undefined","undefined","undefined","1","j","0","0","0","0","82","0","0","0","82","0","78","82","78","0","78","3","82","0","82","Wed Feb 17 11:54:33 2021","The main experiment item","yes","Lexical_Decision_Task.osexp","C:/Users/gilmo/Documents","no","Andale Mono","no","18","no","white","no","yes","576","legacy","78","78","3","C:/Users/gilmo/Documents/subject-5204366 Lexical.csv","legacy","Lentiform Loewenfeld","3.3.7","yes","yes","600bd7cfb6416f0113b04181","602110864497cf011d9c0822","0","j","NA","space","space","space","n","j","1297","NA","3404","11803","8006","4136","1297","2","legacy","1024","2","48000","-16","task","5204366","even","NA","34500","39907","36503","241218","4874","24687","16681","241721","171636","241216","241721","241089","39907","243020","32315","240589","4850","121728","Lexical Decision Task","79","109687","83","yes","1024"
"2.807758206","6.25","4","hurl","word","95.23809523809524","95.23809523809524","1317.5238095238096","1317.5238095238096","black","no","legacy","legacy","legacy","0","uniform","1","undefined","undefined","undefined","1","j","0","0","0","0","83","0","0","0","83","0","79","83","79","0","79","3","83","0","83","Wed Feb 17 11:54:33 2021","The main experiment item","yes","Lexical_Decision_Task.osexp","C:/Users/gilmo/Documents","no","Andale Mono","no","18","no","white","no","yes","576","legacy","79","79","3","C:/Users/gilmo/Documents/subject-5204366 Lexical.csv","legacy","Lentiform Loewenfeld","3.3.7","yes","yes","600bd7cfb6416f0113b04181","602110864497cf011d9c0822","0","j","NA","space","space","space","n","j","985","NA","3404","11803","8006","4136","985","2","legacy","1024","2","48000","-16","task","5204366","even","NA","34500","39907","36503","243662","4874","24687","16681","244165","171636","243661","244166","243532","39907","245152","32315","243032","4850","121728","Lexical Decision Task","80","110672","84","yes","1024"
"2.899092422","7.27","6","snag","word","95.29411764705883","95.29411764705883","1312.729411764706","1312.729411764706","black","no","legacy","legacy","legacy","0","uniform","1","undefined","undefined","undefined","1","j","0","0","0","0","84","0","0","0","84","0","80","84","80","0","80","3","84","0","84","Wed Feb 17 11:54:33 2021","The main experiment item","yes","Lexical_Decision_Task.osexp","C:/Users/gilmo/Documents","no","Andale Mono","no","18","no","white","no","yes","576","legacy","80","80","3","C:/Users/gilmo/Documents/subject-5204366 Lexical.csv","legacy","Lentiform Loewenfeld","3.3.7","yes","yes","600bd7cfb6416f0113b04181","602110864497cf011d9c0822","0","j","NA","space","space","space","n","j","910","NA","3404","11803","8006","4136","910","2","legacy","1024","2","48000","-16","task","5204366","even","NA","34500","39907","36503","245790","4874","24687","16681","246293","171636","245788","246294","245662","39907","247206","32315","245162","4850","121728","Lexical Decision Task","81","111582","85","yes","1024"
"3.064581521","5.51","6","cask","word","95.34883720930233","95.34883720930233","1308.0232558139535","1308.0232558139535","black","no","legacy","legacy","legacy","0","uniform","1","undefined","undefined","undefined","1","j","0","0","0","0","85","0","0","0","85","0","81","85","81","0","81","3","85","0","85","Wed Feb 17 11:54:33 2021","The main experiment item","yes","Lexical_Decision_Task.osexp","C:/Users/gilmo/Documents","no","Andale Mono","no","18","no","white","no","yes","576","legacy","81","81","3","C:/Users/gilmo/Documents/subject-5204366 Lexical.csv","legacy","Lentiform Loewenfeld","3.3.7","yes","yes","600bd7cfb6416f0113b04181","602110864497cf011d9c0822","0","j","NA","space","space","space","n","j","908","NA","3404","11803","8006","4136","908","2","legacy","1024","2","48000","-16","task","5204366","even","NA","34500","39907","36503","247849","4874","24687","16681","248352","171636","247847","248352","247719","39907","249262","32315","247217","4850","121728","Lexical Decision Task","82","112490","86","yes","1024"
"2.880623071","0","9","curp","non-word","95.40229885057471","95.40229885057471","1304.942528735632","1304.942528735632","black","no","legacy","legacy","legacy","0","uniform","1","undefined","undefined","undefined","1","f","0","0","0","0","86","0","0","0","86","0","82","86","82","0","82","3","86","0","86","Wed Feb 17 11:54:33 2021","The main experiment item","yes","Lexical_Decision_Task.osexp","C:/Users/gilmo/Documents","no","Andale Mono","no","18","no","white","no","yes","576","legacy","82","82","3","C:/Users/gilmo/Documents/subject-5204366 Lexical.csv","legacy","Lentiform Loewenfeld","3.3.7","yes","yes","600bd7cfb6416f0113b04181","602110864497cf011d9c0822","0","f","NA","space","space","space","n","f","1040","NA","3404","11803","8006","4136","1040","2","legacy","1024","2","48000","-16","task","5204366","even","NA","34500","39907","36503","249908","4874","24687","16681","250411","171636","249905","250411","249774","39907","251452","32315","249274","4850","121728","Lexical Decision Task","83","113530","87","yes","1024"
"2.858136002","0","4","phip","non-word","95.45454545454545","95.45454545454545","1304.7727272727273","1304.7727272727273","black","no","legacy","legacy","legacy","0","uniform","1","undefined","undefined","undefined","1","f","0","0","0","0","87","0","0","0","87","0","83","87","83","0","83","3","87","0","87","Wed Feb 17 11:54:33 2021","The main experiment item","yes","Lexical_Decision_Task.osexp","C:/Users/gilmo/Documents","no","Andale Mono","no","18","no","white","no","yes","576","legacy","83","83","3","C:/Users/gilmo/Documents/subject-5204366 Lexical.csv","legacy","Lentiform Loewenfeld","3.3.7","yes","yes","600bd7cfb6416f0113b04181","602110864497cf011d9c0822","0","f","NA","space","space","space","n","f","1290","NA","3404","11803","8006","4136","1290","2","legacy","1024","2","48000","-16","task","5204366","even","NA","34500","39907","36503","252093","4874","24687","16681","252596","171636","252091","252596","251959","39907","253888","32315","251459","4850","121728","Lexical Decision Task","84","114820","88","yes","1024"
"3.088136089","8.32","9","worm","word","95.50561797752809","95.50561797752809","1305.3595505617977","1305.3595505617977","black","no","legacy","legacy","legacy","0","uniform","1","undefined","undefined","undefined","1","j","0","0","0","0","88","0","0","0","88","0","84","88","84","0","84","3","88","0","88","Wed Feb 17 11:54:33 2021","The main experiment item","yes","Lexical_Decision_Task.osexp","C:/Users/gilmo/Documents","no","Andale Mono","no","18","no","white","no","yes","576","legacy","84","84","3","C:/Users/gilmo/Documents/subject-5204366 Lexical.csv","legacy","Lentiform Loewenfeld","3.3.7","yes","yes","600bd7cfb6416f0113b04181","602110864497cf011d9c0822","0","j","NA","space","space","space","n","j","1357","NA","3404","11803","8006","4136","1357","2","legacy","1024","2","48000","-16","task","5204366","even","NA","34500","39907","36503","254525","4874","24687","16681","255028","171636","254522","255028","254400","39907","256387","32315","253899","4850","121728","Lexical Decision Task","85","116177","89","yes","1024"
"3.121778632","0","9","sark","non-word","95.55555555555556","95.55555555555556","1305.3666666666666","1305.3666666666666","black","no","legacy","legacy","legacy","0","uniform","1","undefined","undefined","undefined","1","f","0","0","0","0","89","0","0","0","89","0","85","89","85","0","85","3","89","0","89","Wed Feb 17 11:54:33 2021","The main experiment item","yes","Lexical_Decision_Task.osexp","C:/Users/gilmo/Documents","no","Andale Mono","no","18","no","white","no","yes","576","legacy","85","85","3","C:/Users/gilmo/Documents/subject-5204366 Lexical.csv","legacy","Lentiform Loewenfeld","3.3.7","yes","yes","600bd7cfb6416f0113b04181","602110864497cf011d9c0822","0","f","NA","space","space","space","n","f","1306","NA","3404","11803","8006","4136","1306","2","legacy","1024","2","48000","-16","task","5204366","even","NA","34500","39907","36503","257032","4874","24687","16681","257535","171636","257030","257535","256898","39907","258843","32315","256398","4850","121728","Lexical Decision Task","86","117483","90","yes","1024"
"3.368162872","0","4","ferk","non-word","95.6043956043956","95.6043956043956","1302.076923076923","1302.076923076923","black","no","legacy","legacy","legacy","0","uniform","1","undefined","undefined","undefined","1","f","0","0","0","0","90","0","0","0","90","0","86","90","86","0","86","3","90","0","90","Wed Feb 17 11:54:33 2021","The main experiment item","yes","Lexical_Decision_Task.osexp","C:/Users/gilmo/Documents","no","Andale Mono","no","18","no","white","no","yes","576","legacy","86","86","3","C:/Users/gilmo/Documents/subject-5204366 Lexical.csv","legacy","Lentiform Loewenfeld","3.3.7","yes","yes","600bd7cfb6416f0113b04181","602110864497cf011d9c0822","0","f","NA","space","space","space","n","f","1006","NA","3404","11803","8006","4136","1006","2","legacy","1024","2","48000","-16","task","5204366","even","NA","34500","39907","36503","259491","4874","24687","16681","259994","171636","259487","259995","259355","39907","261001","32315","258855","4850","121728","Lexical Decision Task","87","118489","91","yes","1024"
"2.812467698","0","7","hafe","non-word","95.65217391304348","95.65217391304348","1299.1847826086957","1299.1847826086957","black","no","legacy","legacy","legacy","0","uniform","1","undefined","undefined","undefined","1","f","0","0","0","0","91","0","0","0","91","0","87","91","87","0","87","3","91","0","91","Wed Feb 17 11:54:33 2021","The main experiment item","yes","Lexical_Decision_Task.osexp","C:/Users/gilmo/Documents","no","Andale Mono","no","18","no","white","no","yes","576","legacy","87","87","3","C:/Users/gilmo/Documents/subject-5204366 Lexical.csv","legacy","Lentiform Loewenfeld","3.3.7","yes","yes","600bd7cfb6416f0113b04181","602110864497cf011d9c0822","0","f","NA","space","space","space","n","f","1036","NA","3404","11803","8006","4136","1036","2","legacy","1024","2","48000","-16","task","5204366","even","NA","34500","39907","36503","261645","4874","24687","16681","262149","171636","261643","262149","261509","39907","263186","32315","261009","4850","121728","Lexical Decision Task","88","119525","92","yes","1024"
"3.090140555","5.81","8","pout","word","95.6989247311828","95.6989247311828","1299.784946236559","1299.784946236559","black","no","legacy","legacy","legacy","0","uniform","1","undefined","undefined","undefined","1","j","0","0","0","0","92","0","0","0","92","0","88","92","88","0","88","3","92","0","92","Wed Feb 17 11:54:33 2021","The main experiment item","yes","Lexical_Decision_Task.osexp","C:/Users/gilmo/Documents","no","Andale Mono","no","18","no","white","no","yes","576","legacy","88","88","3","C:/Users/gilmo/Documents/subject-5204366 Lexical.csv","legacy","Lentiform Loewenfeld","3.3.7","yes","yes","600bd7cfb6416f0113b04181","602110864497cf011d9c0822","0","j","NA","space","space","space","n","j","1355","NA","3404","11803","8006","4136","1355","2","legacy","1024","2","48000","-16","task","5204366","even","NA","34500","39907","36503","263831","4874","24687","16681","264336","171636","263829","264336","263697","39907","265693","32315","263197","4850","121728","Lexical Decision Task","89","120880","93","yes","1024"
"3.094121596","0","8","fode","non-word","95.74468085106383","95.74468085106383","1296.8085106382978","1296.8085106382978","black","no","legacy","legacy","legacy","0","uniform","1","undefined","undefined","undefined","1","f","0","0","0","0","93","0","0","0","93","0","89","93","89","0","89","3","93","0","93","Wed Feb 17 11:54:33 2021","The main experiment item","yes","Lexical_Decision_Task.osexp","C:/Users/gilmo/Documents","no","Andale Mono","no","18","no","white","no","yes","576","legacy","89","89","3","C:/Users/gilmo/Documents/subject-5204366 Lexical.csv","legacy","Lentiform Loewenfeld","3.3.7","yes","yes","600bd7cfb6416f0113b04181","602110864497cf011d9c0822","0","f","NA","space","space","space","n","f","1020","NA","3404","11803","8006","4136","1020","2","legacy","1024","2","48000","-16","task","5204366","even","NA","34500","39907","36503","266341","4874","24687","16681","266844","171636","266339","266844","266204","39907","267866","32315","265704","4850","121728","Lexical Decision Task","90","121900","94","yes","1024"
"2.80048796","0","8","pife","non-word","95.78947368421052","95.78947368421052","1293.9789473684211","1293.9789473684211","black","no","legacy","legacy","legacy","0","uniform","1","undefined","undefined","undefined","1","f","0","0","0","0","94","0","0","0","94","0","90","94","90","0","90","3","94","0","94","Wed Feb 17 11:54:33 2021","The main experiment item","yes","Lexical_Decision_Task.osexp","C:/Users/gilmo/Documents","no","Andale Mono","no","18","no","white","no","yes","576","legacy","90","90","3","C:/Users/gilmo/Documents/subject-5204366 Lexical.csv","legacy","Lentiform Loewenfeld","3.3.7","yes","yes","600bd7cfb6416f0113b04181","602110864497cf011d9c0822","0","f","NA","space","space","space","n","f","1028","NA","3404","11803","8006","4136","1028","2","legacy","1024","2","48000","-16","task","5204366","even","NA","34500","39907","36503","268510","4874","24687","16681","269013","171636","268507","269013","268374","39907","270042","32315","267873","4850","121728","Lexical Decision Task","91","122928","95","yes","1024"
"2.68604012","0","4","pumb","non-word","95.83333333333333","95.83333333333333","1294.2291666666667","1294.2291666666667","black","no","legacy","legacy","legacy","0","uniform","1","undefined","undefined","undefined","1","f","0","0","0","0","95","0","0","0","95","0","91","95","91","0","91","3","95","0","95","Wed Feb 17 11:54:33 2021","The main experiment item","yes","Lexical_Decision_Task.osexp","C:/Users/gilmo/Documents","no","Andale Mono","no","18","no","white","no","yes","576","legacy","91","91","3","C:/Users/gilmo/Documents/subject-5204366 Lexical.csv","legacy","Lentiform Loewenfeld","3.3.7","yes","yes","600bd7cfb6416f0113b04181","602110864497cf011d9c0822","0","f","NA","space","space","space","n","f","1318","NA","3404","11803","8006","4136","1318","2","legacy","1024","2","48000","-16","task","5204366","even","NA","34500","39907","36503","270687","4874","24687","16681","271190","171636","270684","271190","270554","39907","272509","32315","270053","4850","121728","Lexical Decision Task","92","124246","96","yes","1024"
"2.68604012","0","3","mulb","non-word","95.87628865979381","95.87628865979381","1291.1855670103093","1291.1855670103093","black","no","legacy","legacy","legacy","0","uniform","1","undefined","undefined","undefined","1","f","0","0","0","0","96","0","0","0","96","0","92","96","92","0","92","3","96","0","96","Wed Feb 17 11:54:33 2021","The main experiment item","yes","Lexical_Decision_Task.osexp","C:/Users/gilmo/Documents","no","Andale Mono","no","18","no","white","no","yes","576","legacy","92","92","3","C:/Users/gilmo/Documents/subject-5204366 Lexical.csv","legacy","Lentiform Loewenfeld","3.3.7","yes","yes","600bd7cfb6416f0113b04181","602110864497cf011d9c0822","0","f","NA","space","space","space","n","f","999","NA","3404","11803","8006","4136","999","2","legacy","1024","2","48000","-16","task","5204366","even","NA","34500","39907","36503","273149","4874","24687","16681","273652","171636","273147","273652","273018","39907","274653","32315","272518","4850","121728","Lexical Decision Task","93","125245","97","yes","1024"
"2.884795364","0","6","flob","non-word","95.91836734693878","95.91836734693878","1287.765306122449","1287.765306122449","black","no","legacy","legacy","legacy","0","uniform","1","undefined","undefined","undefined","1","f","0","0","0","0","97","0","0","0","97","0","93","97","93","0","93","3","97","0","97","Wed Feb 17 11:54:33 2021","The main experiment item","yes","Lexical_Decision_Task.osexp","C:/Users/gilmo/Documents","no","Andale Mono","no","18","no","white","no","yes","576","legacy","93","93","3","C:/Users/gilmo/Documents/subject-5204366 Lexical.csv","legacy","Lentiform Loewenfeld","3.3.7","yes","yes","600bd7cfb6416f0113b04181","602110864497cf011d9c0822","0","f","NA","space","space","space","n","f","956","NA","3404","11803","8006","4136","956","2","legacy","1024","2","48000","-16","task","5204366","even","NA","34500","39907","36503","275295","4874","24687","16681","275798","171636","275293","275798","275163","39907","276756","32315","274663","4850","121728","Lexical Decision Task","94","126201","98","yes","1024"
"2.898725182","0","7","turl","non-word","95.95959595959596","95.95959595959596","1284.3838383838383","1284.3838383838383","black","no","legacy","legacy","legacy","0","uniform","1","undefined","undefined","undefined","1","f","0","0","0","0","98","0","0","0","98","0","94","98","94","0","94","3","98","0","98","Wed Feb 17 11:54:33 2021","The main experiment item","yes","Lexical_Decision_Task.osexp","C:/Users/gilmo/Documents","no","Andale Mono","no","18","no","white","no","yes","576","legacy","94","94","3","C:/Users/gilmo/Documents/subject-5204366 Lexical.csv","legacy","Lentiform Loewenfeld","3.3.7","yes","yes","600bd7cfb6416f0113b04181","602110864497cf011d9c0822","0","f","NA","space","space","space","n","f","953","NA","3404","11803","8006","4136","953","2","legacy","1024","2","48000","-16","task","5204366","even","NA","34500","39907","36503","277404","4874","24687","16681","277908","171636","277402","277908","277268","39907","278864","32315","276767","4850","121728","Lexical Decision Task","95","127154","99","yes","1024"
