"Log_BG","Log_Freq_HAL","Ortho_N","Stimulus","Type","acc","accuracy","average_response_time","avg_rt","background","bidi","canvas_backend","clock_backend","color_backend","compensation","coordinates","correct","correct_Experimental_intro","correct_Introduction","correct_Practice_intro","correct_experimenter_kb","correct_response","count_End_Of_Experiment","count_End_Of_Practice","count_Experimental_Loop","count_Experimental_intro","count_Fixation","count_Introduction","count_Practice_Loop","count_Practice_intro","count_Stimulus","count_block_break_feedback","count_experimental_sequence","count_experimenter_kb","count_increment_trial_count","count_init_trial_count","count_logger","count_practice_sequence","count_right","count_task","count_wrong","datetime","description","disable_garbage_collection","experiment_file","experiment_path","font_bold","font_family","font_italic","font_size","font_underline","foreground","form_clicks","fullscreen","height","keyboard_backend","live_row","live_row_Experimental_Loop","live_row_Practice_Loop","logfile","mouse_backend","opensesame_codename","opensesame_version","osf_always_upload_data","osf_always_upload_experiment","osf_datanode_id","osf_id","repeat_cycle","response","response_End_Of_Experiment","response_Experimental_intro","response_Introduction","response_Practice_intro","response_block_break_feedback","response_experimenter_kb","response_time","response_time_End_Of_Experiment","response_time_Experimental_intro","response_time_Introduction","response_time_Practice_intro","response_time_block_break_feedback","response_time_experimenter_kb","round_decimals","sampler_backend","sound_buf_size","sound_channels","sound_freq","sound_sample_size","start","subject_nr","subject_parity","time_End_Of_Experiment","time_End_Of_Practice","time_Experimental_Loop","time_Experimental_intro","time_Fixation","time_Introduction","time_Practice_Loop","time_Practice_intro","time_Stimulus","time_block_break_feedback","time_experimental_sequence","time_experimenter_kb","time_increment_trial_count","time_init_trial_count","time_logger","time_practice_sequence","time_right","time_task","time_wrong","title","total_correct","total_response_time","total_responses","uniform_coordinates","width"
"2.698387659","6.66","7","skid","word","100","100","753.8","753.8","black","no","legacy","legacy","legacy","0","uniform","1","undefined","undefined","undefined","1","j","0","0","0","0","4","0","0","0","4","NA","0","4","0","0","0","3","4","0","4","Wed Feb 17 14:02:37 2021","The main experiment item","yes","Lexical_Decision_Task.osexp","/Users/nicole/Downloads","no","Andale Mono","no","18","no","white","no","yes","576","legacy","0","0","3","/Users/nicole/Downloads/subject-5213344.csv","legacy","Lentiform Loewenfeld","3.3.7","yes","yes","600bd7cfb6416f0113b04181","602110864497cf011d9c0822","0","j","NA","space","space","space","NA","j","691","NA","2021","11779","5566","NA","691","2","legacy","1024","2","48000","-16","task","5213344","even","NA","30022","34047","32024","34079","5186","22548","16980","34584","NA","34077","34584","NA","34047","35277","28196","29493","5121","NA","Lexical Decision Task","5","3769","5","yes","1024"
"2.897810299","0","5","glur","non-word","100","100","716","716","black","no","legacy","legacy","legacy","0","uniform","1","undefined","undefined","undefined","1","f","0","0","0","0","5","0","0","0","5","NA","1","5","1","0","1","3","5","0","5","Wed Feb 17 14:02:37 2021","The main experiment item","yes","Lexical_Decision_Task.osexp","/Users/nicole/Downloads","no","Andale Mono","no","18","no","white","no","yes","576","legacy","1","1","3","/Users/nicole/Downloads/subject-5213344.csv","legacy","Lentiform Loewenfeld","3.3.7","yes","yes","600bd7cfb6416f0113b04181","602110864497cf011d9c0822","0","f","NA","space","space","space","NA","f","527","NA","2021","11779","5566","NA","527","2","legacy","1024","2","48000","-16","task","5213344","even","NA","30022","34047","32024","35853","5186","22548","16980","36357","NA","35851","36358","35786","34047","36887","28196","35286","5121","NA","Lexical Decision Task","6","4296","6","yes","1024"
"3.263399331","0","8","cour","non-word","100","100","707.2857142857143","707.2857142857143","black","no","legacy","legacy","legacy","0","uniform","1","undefined","undefined","undefined","1","f","0","0","0","0","6","0","0","0","6","NA","2","6","2","0","2","3","6","0","6","Wed Feb 17 14:02:37 2021","The main experiment item","yes","Lexical_Decision_Task.osexp","/Users/nicole/Downloads","no","Andale Mono","no","18","no","white","no","yes","576","legacy","2","2","3","/Users/nicole/Downloads/subject-5213344.csv","legacy","Lentiform Loewenfeld","3.3.7","yes","yes","600bd7cfb6416f0113b04181","602110864497cf011d9c0822","0","f","NA","space","space","space","NA","f","655","NA","2021","11779","5566","NA","655","2","legacy","1024","2","48000","-16","task","5213344","even","NA","30022","34047","32024","37451","5186","22548","16980","37954","NA","37448","37955","37392","34047","38612","28196","36892","5121","NA","Lexical Decision Task","7","4951","7","yes","1024"
"2.884795364","0","6","flob","non-word","100","100","781.25","781.25","black","no","legacy","legacy","legacy","0","uniform","1","undefined","undefined","undefined","1","f","0","0","0","0","7","0","0","0","7","NA","3","7","3","0","3","3","7","0","7","Wed Feb 17 14:02:37 2021","The main experiment item","yes","Lexical_Decision_Task.osexp","/Users/nicole/Downloads","no","Andale Mono","no","18","no","white","no","yes","576","legacy","3","3","3","/Users/nicole/Downloads/subject-5213344.csv","legacy","Lentiform Loewenfeld","3.3.7","yes","yes","600bd7cfb6416f0113b04181","602110864497cf011d9c0822","0","f","NA","space","space","space","NA","f","1299","NA","2021","11779","5566","NA","1299","2","legacy","1024","2","48000","-16","task","5213344","even","NA","30022","34047","32024","39171","5186","22548","16980","39675","NA","39169","39676","39116","34047","40976","28196","38616","5121","NA","Lexical Decision Task","8","6250","8","yes","1024"
"3.153001286","8.7","5","palm","word","100","100","763.7777777777778","763.7777777777778","black","no","legacy","legacy","legacy","0","uniform","1","undefined","undefined","undefined","1","j","0","0","0","0","8","0","0","0","8","NA","4","8","4","0","4","3","8","0","8","Wed Feb 17 14:02:37 2021","The main experiment item","yes","Lexical_Decision_Task.osexp","/Users/nicole/Downloads","no","Andale Mono","no","18","no","white","no","yes","576","legacy","4","4","3","/Users/nicole/Downloads/subject-5213344.csv","legacy","Lentiform Loewenfeld","3.3.7","yes","yes","600bd7cfb6416f0113b04181","602110864497cf011d9c0822","0","j","NA","space","space","space","NA","j","624","NA","2021","11779","5566","NA","624","2","legacy","1024","2","48000","-16","task","5213344","even","NA","30022","34047","32024","41535","5186","22548","16980","42039","NA","41532","42039","41481","34047","42664","28196","40981","5121","NA","Lexical Decision Task","9","6874","9","yes","1024"
"2.839898939","8.99","6","soap","word","100","100","747","747","black","no","legacy","legacy","legacy","0","uniform","1","undefined","undefined","undefined","1","j","0","0","0","0","9","0","0","0","9","NA","5","9","5","0","5","3","9","0","9","Wed Feb 17 14:02:37 2021","The main experiment item","yes","Lexical_Decision_Task.osexp","/Users/nicole/Downloads","no","Andale Mono","no","18","no","white","no","yes","576","legacy","5","5","3","/Users/nicole/Downloads/subject-5213344.csv","legacy","Lentiform Loewenfeld","3.3.7","yes","yes","600bd7cfb6416f0113b04181","602110864497cf011d9c0822","0","j","NA","space","space","space","NA","j","596","NA","2021","11779","5566","NA","596","2","legacy","1024","2","48000","-16","task","5213344","even","NA","30022","34047","32024","43226","5186","22548","16980","43731","NA","43223","43732","43169","34047","44329","28196","42669","5121","NA","Lexical Decision Task","10","7470","10","yes","1024"
"3.20996159","0","4","clee","non-word","100","100","733.9090909090909","733.9090909090909","black","no","legacy","legacy","legacy","0","uniform","1","undefined","undefined","undefined","1","f","0","0","0","0","10","0","0","0","10","NA","6","10","6","0","6","3","10","0","10","Wed Feb 17 14:02:37 2021","The main experiment item","yes","Lexical_Decision_Task.osexp","/Users/nicole/Downloads","no","Andale Mono","no","18","no","white","no","yes","576","legacy","6","6","3","/Users/nicole/Downloads/subject-5213344.csv","legacy","Lentiform Loewenfeld","3.3.7","yes","yes","600bd7cfb6416f0113b04181","602110864497cf011d9c0822","0","f","NA","space","space","space","NA","f","603","NA","2021","11779","5566","NA","603","2","legacy","1024","2","48000","-16","task","5213344","even","NA","30022","34047","32024","44890","5186","22548","16980","45395","NA","44888","45396","44834","34047","46000","28196","44334","5121","NA","Lexical Decision Task","11","8073","11","yes","1024"
"2.809559715","8.44","4","volt","word","100","100","752.0833333333334","752.0833333333334","black","no","legacy","legacy","legacy","0","uniform","1","undefined","undefined","undefined","1","j","0","0","0","0","11","0","0","0","11","NA","7","11","7","0","7","3","11","0","11","Wed Feb 17 14:02:37 2021","The main experiment item","yes","Lexical_Decision_Task.osexp","/Users/nicole/Downloads","no","Andale Mono","no","18","no","white","no","yes","576","legacy","7","7","3","/Users/nicole/Downloads/subject-5213344.csv","legacy","Lentiform Loewenfeld","3.3.7","yes","yes","600bd7cfb6416f0113b04181","602110864497cf011d9c0822","0","j","NA","space","space","space","NA","j","952","NA","2021","11779","5566","NA","952","2","legacy","1024","2","48000","-16","task","5213344","even","NA","30022","34047","32024","46560","5186","22548","16980","47062","NA","46558","47063","46506","34047","48017","28196","46006","5121","NA","Lexical Decision Task","12","9025","12","yes","1024"
"2.728085817","10.02","9","bike","word","100","100","734.4615384615385","734.4615384615385","black","no","legacy","legacy","legacy","0","uniform","1","undefined","undefined","undefined","1","j","0","0","0","0","12","0","0","0","12","NA","8","12","8","0","8","3","12","0","12","Wed Feb 17 14:02:37 2021","The main experiment item","yes","Lexical_Decision_Task.osexp","/Users/nicole/Downloads","no","Andale Mono","no","18","no","white","no","yes","576","legacy","8","8","3","/Users/nicole/Downloads/subject-5213344.csv","legacy","Lentiform Loewenfeld","3.3.7","yes","yes","600bd7cfb6416f0113b04181","602110864497cf011d9c0822","0","j","NA","space","space","space","NA","j","523","NA","2021","11779","5566","NA","523","2","legacy","1024","2","48000","-16","task","5213344","even","NA","30022","34047","32024","48576","5186","22548","16980","49079","NA","48573","49080","48522","34047","49605","28196","48022","5121","NA","Lexical Decision Task","13","9548","13","yes","1024"
"3.102203805","7.21","3","drip","word","100","100","731.5","731.5","black","no","legacy","legacy","legacy","0","uniform","1","undefined","undefined","undefined","1","j","0","0","0","0","13","0","0","0","13","NA","9","13","9","0","9","3","13","0","13","Wed Feb 17 14:02:37 2021","The main experiment item","yes","Lexical_Decision_Task.osexp","/Users/nicole/Downloads","no","Andale Mono","no","18","no","white","no","yes","576","legacy","9","9","3","/Users/nicole/Downloads/subject-5213344.csv","legacy","Lentiform Loewenfeld","3.3.7","yes","yes","600bd7cfb6416f0113b04181","602110864497cf011d9c0822","0","j","NA","space","space","space","NA","j","693","NA","2021","11779","5566","NA","693","2","legacy","1024","2","48000","-16","task","5213344","even","NA","30022","34047","32024","50165","5186","22548","16980","50668","NA","50162","50669","50111","34047","51364","28196","49610","5121","NA","Lexical Decision Task","14","10241","14","yes","1024"
"3.149629599","0","2","cleb","non-word","100","100","715.8666666666667","715.8666666666667","black","no","legacy","legacy","legacy","0","uniform","1","undefined","undefined","undefined","1","f","0","0","0","0","14","0","0","0","14","NA","10","14","10","0","10","3","14","0","14","Wed Feb 17 14:02:37 2021","The main experiment item","yes","Lexical_Decision_Task.osexp","/Users/nicole/Downloads","no","Andale Mono","no","18","no","white","no","yes","576","legacy","10","10","3","/Users/nicole/Downloads/subject-5213344.csv","legacy","Lentiform Loewenfeld","3.3.7","yes","yes","600bd7cfb6416f0113b04181","602110864497cf011d9c0822","0","f","NA","space","space","space","NA","f","497","NA","2021","11779","5566","NA","497","2","legacy","1024","2","48000","-16","task","5213344","even","NA","30022","34047","32024","51923","5186","22548","16980","52428","NA","51921","52429","51869","34047","52928","28196","51369","5121","NA","Lexical Decision Task","15","10738","15","yes","1024"
"2.803231716","5.26","3","kiln","word","100","100","722","722","black","no","legacy","legacy","legacy","0","uniform","1","undefined","undefined","undefined","1","j","0","0","0","0","15","0","0","0","15","NA","11","15","11","0","11","3","15","0","15","Wed Feb 17 14:02:37 2021","The main experiment item","yes","Lexical_Decision_Task.osexp","/Users/nicole/Downloads","no","Andale Mono","no","18","no","white","no","yes","576","legacy","11","11","3","/Users/nicole/Downloads/subject-5213344.csv","legacy","Lentiform Loewenfeld","3.3.7","yes","yes","600bd7cfb6416f0113b04181","602110864497cf011d9c0822","0","j","NA","space","space","space","NA","j","814","NA","2021","11779","5566","NA","814","2","legacy","1024","2","48000","-16","task","5213344","even","NA","30022","34047","32024","53489","5186","22548","16980","53992","NA","53486","53993","53433","34047","54808","28196","52933","5121","NA","Lexical Decision Task","16","11552","16","yes","1024"
"2.95456409","0","4","taud","non-word","100","100","725.8823529411765","725.8823529411765","black","no","legacy","legacy","legacy","0","uniform","1","undefined","undefined","undefined","1","f","0","0","0","0","16","0","0","0","16","NA","12","16","12","0","12","3","16","0","16","Wed Feb 17 14:02:37 2021","The main experiment item","yes","Lexical_Decision_Task.osexp","/Users/nicole/Downloads","no","Andale Mono","no","18","no","white","no","yes","576","legacy","12","12","3","/Users/nicole/Downloads/subject-5213344.csv","legacy","Lentiform Loewenfeld","3.3.7","yes","yes","600bd7cfb6416f0113b04181","602110864497cf011d9c0822","0","f","NA","space","space","space","NA","f","788","NA","2021","11779","5566","NA","788","2","legacy","1024","2","48000","-16","task","5213344","even","NA","30022","34047","32024","55371","5186","22548","16980","55874","NA","55368","55875","55314","34047","56664","28196","54813","5121","NA","Lexical Decision Task","17","12340","17","yes","1024"
"2.664011697","8.19","4","hawk","word","100","100","725.1111111111111","725.1111111111111","black","no","legacy","legacy","legacy","0","uniform","1","undefined","undefined","undefined","1","j","0","0","0","0","17","0","0","0","17","NA","13","17","13","0","13","3","17","0","17","Wed Feb 17 14:02:37 2021","The main experiment item","yes","Lexical_Decision_Task.osexp","/Users/nicole/Downloads","no","Andale Mono","no","18","no","white","no","yes","576","legacy","13","13","3","/Users/nicole/Downloads/subject-5213344.csv","legacy","Lentiform Loewenfeld","3.3.7","yes","yes","600bd7cfb6416f0113b04181","602110864497cf011d9c0822","0","j","NA","space","space","space","NA","j","712","NA","2021","11779","5566","NA","712","2","legacy","1024","2","48000","-16","task","5213344","even","NA","30022","34047","32024","57228","5186","22548","16980","57732","NA","57224","57733","57169","34047","58446","28196","56669","5121","NA","Lexical Decision Task","18","13052","18","yes","1024"
"3.062080345","0","6","tomp","non-word","100","100","732.5263157894736","732.5263157894736","black","no","legacy","legacy","legacy","0","uniform","1","undefined","undefined","undefined","1","f","0","0","0","0","18","0","0","0","18","NA","14","18","14","0","14","3","18","0","18","Wed Feb 17 14:02:37 2021","The main experiment item","yes","Lexical_Decision_Task.osexp","/Users/nicole/Downloads","no","Andale Mono","no","18","no","white","no","yes","576","legacy","14","14","3","/Users/nicole/Downloads/subject-5213344.csv","legacy","Lentiform Loewenfeld","3.3.7","yes","yes","600bd7cfb6416f0113b04181","602110864497cf011d9c0822","0","f","NA","space","space","space","NA","f","866","NA","2021","11779","5566","NA","866","2","legacy","1024","2","48000","-16","task","5213344","even","NA","30022","34047","32024","59028","5186","22548","16980","59532","NA","59024","59533","58951","34047","60400","28196","58451","5121","NA","Lexical Decision Task","19","13918","19","yes","1024"
"2.67699827","0","6","hulf","non-word","95","95","745.85","745.85","black","no","legacy","legacy","legacy","0","uniform","0","undefined","undefined","undefined","0","f","0","0","0","0","19","0","0","0","19","NA","15","19","15","0","15","3","19","0","19","Wed Feb 17 14:02:37 2021","The main experiment item","yes","Lexical_Decision_Task.osexp","/Users/nicole/Downloads","no","Andale Mono","no","18","no","white","no","yes","576","legacy","15","15","3","/Users/nicole/Downloads/subject-5213344.csv","legacy","Lentiform Loewenfeld","3.3.7","yes","yes","600bd7cfb6416f0113b04181","602110864497cf011d9c0822","0","j","NA","space","space","space","NA","j","999","NA","2021","11779","5566","NA","999","2","legacy","1024","2","48000","-16","task","5213344","even","NA","30022","34047","32024","60980","5186","22548","16980","61485","NA","60977","61485","60906","34047","62485","28196","60406","5121","NA","Lexical Decision Task","19","14917","20","yes","1024"
"2.981215883","10.66","5","hair","word","95.23809523809524","95.23809523809524","756.4761904761905","756.4761904761905","black","no","legacy","legacy","legacy","0","uniform","1","undefined","undefined","undefined","1","j","0","0","0","0","20","0","0","0","20","NA","16","20","16","0","16","3","20","0","20","Wed Feb 17 14:02:37 2021","The main experiment item","yes","Lexical_Decision_Task.osexp","/Users/nicole/Downloads","no","Andale Mono","no","18","no","white","no","yes","576","legacy","16","16","3","/Users/nicole/Downloads/subject-5213344.csv","legacy","Lentiform Loewenfeld","3.3.7","yes","yes","600bd7cfb6416f0113b04181","602110864497cf011d9c0822","0","j","NA","space","space","space","NA","j","969","NA","2021","11779","5566","NA","969","2","legacy","1024","2","48000","-16","task","5213344","even","NA","30022","34047","32024","64051","5186","22548","16980","64556","NA","64048","64556","63991","34047","65527","28196","60406","5121","62491","Lexical Decision Task","20","15886","21","yes","1024"
"3.316948329","0","1","besc","non-word","95.45454545454545","95.45454545454545","759.8181818181819","759.8181818181819","black","no","legacy","legacy","legacy","0","uniform","1","undefined","undefined","undefined","1","f","0","0","0","0","21","0","0","0","21","NA","17","21","17","0","17","3","21","0","21","Wed Feb 17 14:02:37 2021","The main experiment item","yes","Lexical_Decision_Task.osexp","/Users/nicole/Downloads","no","Andale Mono","no","18","no","white","no","yes","576","legacy","17","17","3","/Users/nicole/Downloads/subject-5213344.csv","legacy","Lentiform Loewenfeld","3.3.7","yes","yes","600bd7cfb6416f0113b04181","602110864497cf011d9c0822","0","f","NA","space","space","space","NA","f","830","NA","2021","11779","5566","NA","830","2","legacy","1024","2","48000","-16","task","5213344","even","NA","30022","34047","32024","66089","5186","22548","16980","66592","NA","66086","66592","66032","34047","67424","28196","65531","5121","62491","Lexical Decision Task","21","16716","22","yes","1024"
"3.132473155","0","4","glim","non-word","95.65217391304348","95.65217391304348","785.2173913043479","785.2173913043479","black","no","legacy","legacy","legacy","0","uniform","1","undefined","undefined","undefined","1","f","0","0","0","0","22","0","0","0","22","NA","18","22","18","0","18","3","22","0","22","Wed Feb 17 14:02:37 2021","The main experiment item","yes","Lexical_Decision_Task.osexp","/Users/nicole/Downloads","no","Andale Mono","no","18","no","white","no","yes","576","legacy","18","18","3","/Users/nicole/Downloads/subject-5213344.csv","legacy","Lentiform Loewenfeld","3.3.7","yes","yes","600bd7cfb6416f0113b04181","602110864497cf011d9c0822","0","f","NA","space","space","space","NA","f","1344","NA","2021","11779","5566","NA","1344","2","legacy","1024","2","48000","-16","task","5213344","even","NA","30022","34047","32024","67984","5186","22548","16980","68486","NA","67981","68486","67930","34047","69831","28196","67429","5121","62491","Lexical Decision Task","22","18060","23","yes","1024"
"3.495914186","0","4","peng","non-word","95.83333333333333","95.83333333333333","792.5416666666666","792.5416666666666","black","no","legacy","legacy","legacy","0","uniform","1","undefined","undefined","undefined","1","f","0","0","0","0","23","0","0","0","23","NA","19","23","19","0","19","3","23","0","23","Wed Feb 17 14:02:37 2021","The main experiment item","yes","Lexical_Decision_Task.osexp","/Users/nicole/Downloads","no","Andale Mono","no","18","no","white","no","yes","576","legacy","19","19","3","/Users/nicole/Downloads/subject-5213344.csv","legacy","Lentiform Loewenfeld","3.3.7","yes","yes","600bd7cfb6416f0113b04181","602110864497cf011d9c0822","0","f","NA","space","space","space","NA","f","961","NA","2021","11779","5566","NA","961","2","legacy","1024","2","48000","-16","task","5213344","even","NA","30022","34047","32024","70397","5186","22548","16980","70901","NA","70394","70902","70336","34047","71864","28196","69836","5121","62491","Lexical Decision Task","23","19021","24","yes","1024"
"2.616654026","9.37","5","gift","word","96","96","795.12","795.12","black","no","legacy","legacy","legacy","0","uniform","1","undefined","undefined","undefined","1","j","0","0","0","0","24","0","0","0","24","NA","20","24","20","0","20","3","24","0","24","Wed Feb 17 14:02:37 2021","The main experiment item","yes","Lexical_Decision_Task.osexp","/Users/nicole/Downloads","no","Andale Mono","no","18","no","white","no","yes","576","legacy","20","20","3","/Users/nicole/Downloads/subject-5213344.csv","legacy","Lentiform Loewenfeld","3.3.7","yes","yes","600bd7cfb6416f0113b04181","602110864497cf011d9c0822","0","j","NA","space","space","space","NA","j","857","NA","2021","11779","5566","NA","857","2","legacy","1024","2","48000","-16","task","5213344","even","NA","30022","34047","32024","72424","5186","22548","16980","72929","NA","72422","72930","72369","34047","73788","28196","71869","5121","62491","Lexical Decision Task","24","19878","25","yes","1024"
"3.064581521","5.51","6","cask","word","92.3076923076923","92.3076923076923","822.5769230769231","822.5769230769231","black","no","legacy","legacy","legacy","0","uniform","0","undefined","undefined","undefined","0","j","0","0","0","0","25","0","0","0","25","NA","21","25","21","0","21","3","25","0","25","Wed Feb 17 14:02:37 2021","The main experiment item","yes","Lexical_Decision_Task.osexp","/Users/nicole/Downloads","no","Andale Mono","no","18","no","white","no","yes","576","legacy","21","21","3","/Users/nicole/Downloads/subject-5213344.csv","legacy","Lentiform Loewenfeld","3.3.7","yes","yes","600bd7cfb6416f0113b04181","602110864497cf011d9c0822","0","f","NA","space","space","space","NA","f","1509","NA","2021","11779","5566","NA","1509","2","legacy","1024","2","48000","-16","task","5213344","even","NA","30022","34047","32024","74348","5186","22548","16980","74853","NA","74345","74853","74293","34047","76363","28196","73793","5121","62491","Lexical Decision Task","24","21387","26","yes","1024"
"2.664328519","0","4","plux","non-word","92.5925925925926","92.5925925925926","831.8888888888889","831.8888888888889","black","no","legacy","legacy","legacy","0","uniform","1","undefined","undefined","undefined","1","f","0","0","0","0","26","0","0","0","26","NA","22","26","22","0","22","3","26","0","26","Wed Feb 17 14:02:37 2021","The main experiment item","yes","Lexical_Decision_Task.osexp","/Users/nicole/Downloads","no","Andale Mono","no","18","no","white","no","yes","576","legacy","22","22","3","/Users/nicole/Downloads/subject-5213344.csv","legacy","Lentiform Loewenfeld","3.3.7","yes","yes","600bd7cfb6416f0113b04181","602110864497cf011d9c0822","0","f","NA","space","space","space","NA","f","1074","NA","2021","11779","5566","NA","1074","2","legacy","1024","2","48000","-16","task","5213344","even","NA","30022","34047","32024","77924","5186","22548","16980","78427","NA","77922","78428","77868","34047","79504","28196","73793","5121","76368","Lexical Decision Task","25","22461","27","yes","1024"
"3.165936429","0","7","leps","non-word","92.85714285714286","92.85714285714286","833.0357142857143","833.0357142857143","black","no","legacy","legacy","legacy","0","uniform","1","undefined","undefined","undefined","1","f","0","0","0","0","27","0","0","0","27","NA","23","27","23","0","23","3","27","0","27","Wed Feb 17 14:02:37 2021","The main experiment item","yes","Lexical_Decision_Task.osexp","/Users/nicole/Downloads","no","Andale Mono","no","18","no","white","no","yes","576","legacy","23","23","3","/Users/nicole/Downloads/subject-5213344.csv","legacy","Lentiform Loewenfeld","3.3.7","yes","yes","600bd7cfb6416f0113b04181","602110864497cf011d9c0822","0","f","NA","space","space","space","NA","f","864","NA","2021","11779","5566","NA","864","2","legacy","1024","2","48000","-16","task","5213344","even","NA","30022","34047","32024","80081","5186","22548","16980","80584","NA","80077","80585","80009","34047","81451","28196","79509","5121","76368","Lexical Decision Task","26","23325","28","yes","1024"
"3.208172527","10.27","7","deck","word","93.10344827586206","93.10344827586206","826.7586206896551","826.7586206896551","black","no","legacy","legacy","legacy","0","uniform","1","undefined","undefined","undefined","1","j","0","0","0","0","28","0","0","0","28","NA","24","28","24","0","24","3","28","0","28","Wed Feb 17 14:02:37 2021","The main experiment item","yes","Lexical_Decision_Task.osexp","/Users/nicole/Downloads","no","Andale Mono","no","18","no","white","no","yes","576","legacy","24","24","3","/Users/nicole/Downloads/subject-5213344.csv","legacy","Lentiform Loewenfeld","3.3.7","yes","yes","600bd7cfb6416f0113b04181","602110864497cf011d9c0822","0","j","NA","space","space","space","NA","j","651","NA","2021","11779","5566","NA","651","2","legacy","1024","2","48000","-16","task","5213344","even","NA","30022","34047","32024","82009","5186","22548","16980","82514","NA","82007","82515","81956","34047","83167","28196","81455","5121","76368","Lexical Decision Task","27","23976","29","yes","1024"
"2.807758206","6.25","4","hurl","word","93.33333333333333","93.33333333333333","841.2333333333333","841.2333333333333","black","no","legacy","legacy","legacy","0","uniform","1","undefined","undefined","undefined","1","j","0","0","0","0","29","0","0","0","29","NA","25","29","25","0","25","3","29","0","29","Wed Feb 17 14:02:37 2021","The main experiment item","yes","Lexical_Decision_Task.osexp","/Users/nicole/Downloads","no","Andale Mono","no","18","no","white","no","yes","576","legacy","25","25","3","/Users/nicole/Downloads/subject-5213344.csv","legacy","Lentiform Loewenfeld","3.3.7","yes","yes","600bd7cfb6416f0113b04181","602110864497cf011d9c0822","0","j","NA","space","space","space","NA","j","1261","NA","2021","11779","5566","NA","1261","2","legacy","1024","2","48000","-16","task","5213344","even","NA","30022","34047","32024","83727","5186","22548","16980","84230","NA","83725","84231","83673","34047","85493","28196","83173","5121","76368","Lexical Decision Task","28","25237","30","yes","1024"
"3.443783828","7.65","3","verb","word","93.54838709677419","93.54838709677419","837.516129032258","837.516129032258","black","no","legacy","legacy","legacy","0","uniform","1","undefined","undefined","undefined","1","j","0","0","0","0","30","0","0","0","30","NA","26","30","26","0","26","3","30","0","30","Wed Feb 17 14:02:37 2021","The main experiment item","yes","Lexical_Decision_Task.osexp","/Users/nicole/Downloads","no","Andale Mono","no","18","no","white","no","yes","576","legacy","26","26","3","/Users/nicole/Downloads/subject-5213344.csv","legacy","Lentiform Loewenfeld","3.3.7","yes","yes","600bd7cfb6416f0113b04181","602110864497cf011d9c0822","0","j","NA","space","space","space","NA","j","726","NA","2021","11779","5566","NA","726","2","legacy","1024","2","48000","-16","task","5213344","even","NA","30022","34047","32024","86054","5186","22548","16980","86558","NA","86051","86559","85998","34047","87286","28196","85498","5121","76368","Lexical Decision Task","29","25963","31","yes","1024"
"3.22685757","9.99","7","roll","word","93.75","93.75","832.84375","832.84375","black","no","legacy","legacy","legacy","0","uniform","1","undefined","undefined","undefined","1","j","0","0","0","0","31","0","0","0","31","NA","27","31","27","0","27","3","31","0","31","Wed Feb 17 14:02:37 2021","The main experiment item","yes","Lexical_Decision_Task.osexp","/Users/nicole/Downloads","no","Andale Mono","no","18","no","white","no","yes","576","legacy","27","27","3","/Users/nicole/Downloads/subject-5213344.csv","legacy","Lentiform Loewenfeld","3.3.7","yes","yes","600bd7cfb6416f0113b04181","602110864497cf011d9c0822","0","j","NA","space","space","space","NA","j","688","NA","2021","11779","5566","NA","688","2","legacy","1024","2","48000","-16","task","5213344","even","NA","30022","34047","32024","87845","5186","22548","16980","88349","NA","87842","88350","87791","34047","89039","28196","87291","5121","76368","Lexical Decision Task","30","26651","32","yes","1024"
"3.039414119","0","9","meep","non-word","93.93939393939394","93.93939393939394","829.939393939394","829.939393939394","black","no","legacy","legacy","legacy","0","uniform","1","undefined","undefined","undefined","1","f","0","0","0","0","32","0","0","0","32","NA","28","32","28","0","28","3","32","0","32","Wed Feb 17 14:02:37 2021","The main experiment item","yes","Lexical_Decision_Task.osexp","/Users/nicole/Downloads","no","Andale Mono","no","18","no","white","no","yes","576","legacy","28","28","3","/Users/nicole/Downloads/subject-5213344.csv","legacy","Lentiform Loewenfeld","3.3.7","yes","yes","600bd7cfb6416f0113b04181","602110864497cf011d9c0822","0","f","NA","space","space","space","NA","f","737","NA","2021","11779","5566","NA","737","2","legacy","1024","2","48000","-16","task","5213344","even","NA","30022","34047","32024","89599","5186","22548","16980","90102","NA","89596","90103","89544","34047","90841","28196","89044","5121","76368","Lexical Decision Task","31","27388","33","yes","1024"
"2.979548375","8.71","4","soup","word","94.11764705882354","94.11764705882354","824.9117647058823","824.9117647058823","black","no","legacy","legacy","legacy","0","uniform","1","undefined","undefined","undefined","1","j","0","0","0","0","33","0","0","0","33","NA","29","33","29","0","29","3","33","0","33","Wed Feb 17 14:02:37 2021","The main experiment item","yes","Lexical_Decision_Task.osexp","/Users/nicole/Downloads","no","Andale Mono","no","18","no","white","no","yes","576","legacy","29","29","3","/Users/nicole/Downloads/subject-5213344.csv","legacy","Lentiform Loewenfeld","3.3.7","yes","yes","600bd7cfb6416f0113b04181","602110864497cf011d9c0822","0","j","NA","space","space","space","NA","j","659","NA","2021","11779","5566","NA","659","2","legacy","1024","2","48000","-16","task","5213344","even","NA","30022","34047","32024","91401","5186","22548","16980","91903","NA","91398","91903","91346","34047","92564","28196","90845","5121","76368","Lexical Decision Task","32","28047","34","yes","1024"
"3.031812271","6.52","3","gulp","word","94.28571428571429","94.28571428571429","829.2857142857143","829.2857142857143","black","no","legacy","legacy","legacy","0","uniform","1","undefined","undefined","undefined","1","j","0","0","0","0","34","0","0","0","34","NA","30","34","30","0","30","3","34","0","34","Wed Feb 17 14:02:37 2021","The main experiment item","yes","Lexical_Decision_Task.osexp","/Users/nicole/Downloads","no","Andale Mono","no","18","no","white","no","yes","576","legacy","30","30","3","/Users/nicole/Downloads/subject-5213344.csv","legacy","Lentiform Loewenfeld","3.3.7","yes","yes","600bd7cfb6416f0113b04181","602110864497cf011d9c0822","0","j","NA","space","space","space","NA","j","978","NA","2021","11779","5566","NA","978","2","legacy","1024","2","48000","-16","task","5213344","even","NA","30022","34047","32024","93134","5186","22548","16980","93636","NA","93131","93637","93079","34047","94617","28196","92579","5121","76368","Lexical Decision Task","33","29025","35","yes","1024"
"2.880623071","0","9","curp","non-word","94.44444444444444","94.44444444444444","836.0833333333334","836.0833333333334","black","no","legacy","legacy","legacy","0","uniform","1","undefined","undefined","undefined","1","f","0","0","0","0","35","0","0","0","35","NA","31","35","31","0","31","3","35","0","35","Wed Feb 17 14:02:37 2021","The main experiment item","yes","Lexical_Decision_Task.osexp","/Users/nicole/Downloads","no","Andale Mono","no","18","no","white","no","yes","576","legacy","31","31","3","/Users/nicole/Downloads/subject-5213344.csv","legacy","Lentiform Loewenfeld","3.3.7","yes","yes","600bd7cfb6416f0113b04181","602110864497cf011d9c0822","0","f","NA","space","space","space","NA","f","1074","NA","2021","11779","5566","NA","1074","2","legacy","1024","2","48000","-16","task","5213344","even","NA","30022","34047","32024","95175","5186","22548","16980","95679","NA","95173","95680","95121","34047","96756","28196","94621","5121","76368","Lexical Decision Task","34","30099","36","yes","1024"
"2.983324025","9.56","2","debt","word","94.5945945945946","94.5945945945946","831.4054054054054","831.4054054054054","black","no","legacy","legacy","legacy","0","uniform","1","undefined","undefined","undefined","1","j","0","0","0","0","36","0","0","0","36","NA","32","36","32","0","32","3","36","0","36","Wed Feb 17 14:02:37 2021","The main experiment item","yes","Lexical_Decision_Task.osexp","/Users/nicole/Downloads","no","Andale Mono","no","18","no","white","no","yes","576","legacy","32","32","3","/Users/nicole/Downloads/subject-5213344.csv","legacy","Lentiform Loewenfeld","3.3.7","yes","yes","600bd7cfb6416f0113b04181","602110864497cf011d9c0822","0","j","NA","space","space","space","NA","j","663","NA","2021","11779","5566","NA","663","2","legacy","1024","2","48000","-16","task","5213344","even","NA","30022","34047","32024","97315","5186","22548","16980","97820","NA","97312","97820","97261","34047","98485","28196","96760","5121","76368","Lexical Decision Task","35","30762","37","yes","1024"
"3.153104174","10.89","6","door","word","94.73684210526316","94.73684210526316","839.078947368421","839.078947368421","black","no","legacy","legacy","legacy","0","uniform","1","undefined","undefined","undefined","1","j","0","0","0","0","37","0","0","0","37","NA","33","37","33","0","33","3","37","0","37","Wed Feb 17 14:02:37 2021","The main experiment item","yes","Lexical_Decision_Task.osexp","/Users/nicole/Downloads","no","Andale Mono","no","18","no","white","no","yes","576","legacy","33","33","3","/Users/nicole/Downloads/subject-5213344.csv","legacy","Lentiform Loewenfeld","3.3.7","yes","yes","600bd7cfb6416f0113b04181","602110864497cf011d9c0822","0","j","NA","space","space","space","NA","j","1123","NA","2021","11779","5566","NA","1123","2","legacy","1024","2","48000","-16","task","5213344","even","NA","30022","34047","32024","99045","5186","22548","16980","99550","NA","99043","99550","98989","34047","100674","28196","98489","5121","76368","Lexical Decision Task","36","31885","38","yes","1024"
"2.719886232","7.98","2","quiz","word","94.87179487179488","94.87179487179488","833.7435897435897","833.7435897435897","black","no","legacy","legacy","legacy","0","uniform","1","undefined","undefined","undefined","1","j","0","0","0","0","38","0","0","0","38","NA","34","38","34","0","34","3","38","0","38","Wed Feb 17 14:02:37 2021","The main experiment item","yes","Lexical_Decision_Task.osexp","/Users/nicole/Downloads","no","Andale Mono","no","18","no","white","no","yes","576","legacy","34","34","3","/Users/nicole/Downloads/subject-5213344.csv","legacy","Lentiform Loewenfeld","3.3.7","yes","yes","600bd7cfb6416f0113b04181","602110864497cf011d9c0822","0","j","NA","space","space","space","NA","j","631","NA","2021","11779","5566","NA","631","2","legacy","1024","2","48000","-16","task","5213344","even","NA","30022","34047","32024","101238","5186","22548","16980","101742","NA","101236","101743","101179","34047","102375","28196","100679","5121","76368","Lexical Decision Task","37","32516","39","yes","1024"
"3.137775856","7.39","5","comb","word","95","95","828.85","828.85","black","no","legacy","legacy","legacy","0","uniform","1","undefined","undefined","undefined","1","j","0","0","0","0","39","0","0","0","39","NA","35","39","35","0","35","3","39","0","39","Wed Feb 17 14:02:37 2021","The main experiment item","yes","Lexical_Decision_Task.osexp","/Users/nicole/Downloads","no","Andale Mono","no","18","no","white","no","yes","576","legacy","35","35","3","/Users/nicole/Downloads/subject-5213344.csv","legacy","Lentiform Loewenfeld","3.3.7","yes","yes","600bd7cfb6416f0113b04181","602110864497cf011d9c0822","0","j","NA","space","space","space","NA","j","638","NA","2021","11779","5566","NA","638","2","legacy","1024","2","48000","-16","task","5213344","even","NA","30022","34047","32024","102936","5186","22548","16980","103439","NA","102933","103439","102881","34047","104078","28196","102380","5121","76368","Lexical Decision Task","38","33154","40","yes","1024"
"2.924968096","0","4","phim","non-word","95.1219512195122","95.1219512195122","825.5121951219512","825.5121951219512","black","no","legacy","legacy","legacy","0","uniform","1","undefined","undefined","undefined","1","f","0","0","0","0","40","0","0","0","40","NA","36","40","36","0","36","3","40","0","40","Wed Feb 17 14:02:37 2021","The main experiment item","yes","Lexical_Decision_Task.osexp","/Users/nicole/Downloads","no","Andale Mono","no","18","no","white","no","yes","576","legacy","36","36","3","/Users/nicole/Downloads/subject-5213344.csv","legacy","Lentiform Loewenfeld","3.3.7","yes","yes","600bd7cfb6416f0113b04181","602110864497cf011d9c0822","0","f","NA","space","space","space","NA","f","692","NA","2021","11779","5566","NA","692","2","legacy","1024","2","48000","-16","task","5213344","even","NA","30022","34047","32024","104643","5186","22548","16980","105148","NA","104640","105149","104584","34047","105842","28196","104084","5121","76368","Lexical Decision Task","39","33846","41","yes","1024"
"2.82129731","6.72","5","plum","word","95.23809523809524","95.23809523809524","822.0952380952381","822.0952380952381","black","no","legacy","legacy","legacy","0","uniform","1","undefined","undefined","undefined","1","j","0","0","0","0","41","0","0","0","41","NA","37","41","37","0","37","3","41","0","41","Wed Feb 17 14:02:37 2021","The main experiment item","yes","Lexical_Decision_Task.osexp","/Users/nicole/Downloads","no","Andale Mono","no","18","no","white","no","yes","576","legacy","37","37","3","/Users/nicole/Downloads/subject-5213344.csv","legacy","Lentiform Loewenfeld","3.3.7","yes","yes","600bd7cfb6416f0113b04181","602110864497cf011d9c0822","0","j","NA","space","space","space","NA","j","682","NA","2021","11779","5566","NA","682","2","legacy","1024","2","48000","-16","task","5213344","even","NA","30022","34047","32024","106401","5186","22548","16980","106906","NA","106399","106906","106347","34047","107590","28196","105847","5121","76368","Lexical Decision Task","40","34528","42","yes","1024"
"2.698100546","0","9","mulk","non-word","93.02325581395348","93.02325581395348","826.9767441860465","826.9767441860465","black","no","legacy","legacy","legacy","0","uniform","0","undefined","undefined","undefined","0","f","0","0","0","0","42","0","0","0","42","NA","38","42","38","0","38","3","42","0","42","Wed Feb 17 14:02:37 2021","The main experiment item","yes","Lexical_Decision_Task.osexp","/Users/nicole/Downloads","no","Andale Mono","no","18","no","white","no","yes","576","legacy","38","38","3","/Users/nicole/Downloads/subject-5213344.csv","legacy","Lentiform Loewenfeld","3.3.7","yes","yes","600bd7cfb6416f0113b04181","602110864497cf011d9c0822","0","j","NA","space","space","space","NA","j","1032","NA","2021","11779","5566","NA","1032","2","legacy","1024","2","48000","-16","task","5213344","even","NA","30022","34047","32024","108151","5186","22548","16980","108654","NA","108148","108654","108096","34047","109688","28196","107595","5121","76368","Lexical Decision Task","40","35560","43","yes","1024"
"3.440331212","7.35","6","stew","word","93.18181818181819","93.18181818181819","825.9545454545455","825.9545454545455","black","no","legacy","legacy","legacy","0","uniform","1","undefined","undefined","undefined","1","j","0","0","0","0","43","0","0","0","43","NA","39","43","39","0","39","3","43","0","43","Wed Feb 17 14:02:37 2021","The main experiment item","yes","Lexical_Decision_Task.osexp","/Users/nicole/Downloads","no","Andale Mono","no","18","no","white","no","yes","576","legacy","39","39","3","/Users/nicole/Downloads/subject-5213344.csv","legacy","Lentiform Loewenfeld","3.3.7","yes","yes","600bd7cfb6416f0113b04181","602110864497cf011d9c0822","0","j","NA","space","space","space","NA","j","782","NA","2021","11779","5566","NA","782","2","legacy","1024","2","48000","-16","task","5213344","even","NA","30022","34047","32024","111249","5186","22548","16980","111752","NA","111247","111753","111193","34047","112537","28196","107595","5121","109693","Lexical Decision Task","41","36342","44","yes","1024"
"2.80048796","0","8","pife","non-word","93.33333333333333","93.33333333333333","823.0222222222222","823.0222222222222","black","no","legacy","legacy","legacy","0","uniform","1","undefined","undefined","undefined","1","f","0","0","0","0","44","0","0","0","44","NA","40","44","40","0","40","3","44","0","44","Wed Feb 17 14:02:37 2021","The main experiment item","yes","Lexical_Decision_Task.osexp","/Users/nicole/Downloads","no","Andale Mono","no","18","no","white","no","yes","576","legacy","40","40","3","/Users/nicole/Downloads/subject-5213344.csv","legacy","Lentiform Loewenfeld","3.3.7","yes","yes","600bd7cfb6416f0113b04181","602110864497cf011d9c0822","0","f","NA","space","space","space","NA","f","694","NA","2021","11779","5566","NA","694","2","legacy","1024","2","48000","-16","task","5213344","even","NA","30022","34047","32024","113096","5186","22548","16980","113601","NA","113093","113601","113042","34047","114296","28196","112542","5121","109693","Lexical Decision Task","42","37036","45","yes","1024"
"3.168400243","9.12","6","horn","word","93.47826086956522","93.47826086956522","819.2608695652174","819.2608695652174","black","no","legacy","legacy","legacy","0","uniform","1","undefined","undefined","undefined","1","j","0","0","0","0","45","0","0","0","45","NA","41","45","41","0","41","3","45","0","45","Wed Feb 17 14:02:37 2021","The main experiment item","yes","Lexical_Decision_Task.osexp","/Users/nicole/Downloads","no","Andale Mono","no","18","no","white","no","yes","576","legacy","41","41","3","/Users/nicole/Downloads/subject-5213344.csv","legacy","Lentiform Loewenfeld","3.3.7","yes","yes","600bd7cfb6416f0113b04181","602110864497cf011d9c0822","0","j","NA","space","space","space","NA","j","650","NA","2021","11779","5566","NA","650","2","legacy","1024","2","48000","-16","task","5213344","even","NA","30022","34047","32024","114868","5186","22548","16980","115372","NA","114862","115372","114802","34047","116023","28196","114302","5121","109693","Lexical Decision Task","43","37686","46","yes","1024"
"3.20871002","7.15","8","cram","word","93.61702127659575","93.61702127659575","819.468085106383","819.468085106383","black","no","legacy","legacy","legacy","0","uniform","1","undefined","undefined","undefined","1","j","0","0","0","0","46","0","0","0","46","NA","42","46","42","0","42","3","46","0","46","Wed Feb 17 14:02:37 2021","The main experiment item","yes","Lexical_Decision_Task.osexp","/Users/nicole/Downloads","no","Andale Mono","no","18","no","white","no","yes","576","legacy","42","42","3","/Users/nicole/Downloads/subject-5213344.csv","legacy","Lentiform Loewenfeld","3.3.7","yes","yes","600bd7cfb6416f0113b04181","602110864497cf011d9c0822","0","j","NA","space","space","space","NA","j","829","NA","2021","11779","5566","NA","829","2","legacy","1024","2","48000","-16","task","5213344","even","NA","30022","34047","32024","116583","5186","22548","16980","117087","NA","116581","117088","116528","34047","117918","28196","116028","5121","109693","Lexical Decision Task","44","38515","47","yes","1024"
"2.980306438","0","7","slun","non-word","93.75","93.75","817.375","817.375","black","no","legacy","legacy","legacy","0","uniform","1","undefined","undefined","undefined","1","f","0","0","0","0","47","0","0","0","47","NA","43","47","43","0","43","3","47","0","47","Wed Feb 17 14:02:37 2021","The main experiment item","yes","Lexical_Decision_Task.osexp","/Users/nicole/Downloads","no","Andale Mono","no","18","no","white","no","yes","576","legacy","43","43","3","/Users/nicole/Downloads/subject-5213344.csv","legacy","Lentiform Loewenfeld","3.3.7","yes","yes","600bd7cfb6416f0113b04181","602110864497cf011d9c0822","0","f","NA","space","space","space","NA","f","719","NA","2021","11779","5566","NA","719","2","legacy","1024","2","48000","-16","task","5213344","even","NA","30022","34047","32024","118481","5186","22548","16980","118986","NA","118479","118987","118424","34047","119707","28196","117924","5121","109693","Lexical Decision Task","45","39234","48","yes","1024"
"2.744553742","0","2","nawk","non-word","93.87755102040816","93.87755102040816","818.3265306122449","818.3265306122449","black","no","legacy","legacy","legacy","0","uniform","1","undefined","undefined","undefined","1","f","0","0","0","0","48","0","0","0","48","NA","44","48","44","0","44","3","48","0","48","Wed Feb 17 14:02:37 2021","The main experiment item","yes","Lexical_Decision_Task.osexp","/Users/nicole/Downloads","no","Andale Mono","no","18","no","white","no","yes","576","legacy","44","44","3","/Users/nicole/Downloads/subject-5213344.csv","legacy","Lentiform Loewenfeld","3.3.7","yes","yes","600bd7cfb6416f0113b04181","602110864497cf011d9c0822","0","f","NA","space","space","space","NA","f","864","NA","2021","11779","5566","NA","864","2","legacy","1024","2","48000","-16","task","5213344","even","NA","30022","34047","32024","120273","5186","22548","16980","120778","NA","120271","120778","120213","34047","121643","28196","119713","5121","109693","Lexical Decision Task","46","40098","49","yes","1024"
"3.121778632","0","9","sark","non-word","94","94","820.4","820.4","black","no","legacy","legacy","legacy","0","uniform","1","undefined","undefined","undefined","1","f","0","0","0","0","49","0","0","0","49","NA","45","49","45","0","45","3","49","0","49","Wed Feb 17 14:02:37 2021","The main experiment item","yes","Lexical_Decision_Task.osexp","/Users/nicole/Downloads","no","Andale Mono","no","18","no","white","no","yes","576","legacy","45","45","3","/Users/nicole/Downloads/subject-5213344.csv","legacy","Lentiform Loewenfeld","3.3.7","yes","yes","600bd7cfb6416f0113b04181","602110864497cf011d9c0822","0","f","NA","space","space","space","NA","f","922","NA","2021","11779","5566","NA","922","2","legacy","1024","2","48000","-16","task","5213344","even","NA","30022","34047","32024","122202","5186","22548","16980","122706","NA","122200","122707","122148","34047","123631","28196","121648","5121","109693","Lexical Decision Task","47","41020","50","yes","1024"
"3.366547468","0","6","plat","non-word","94.11764705882354","94.11764705882354","825.9019607843137","825.9019607843137","black","no","legacy","legacy","legacy","0","uniform","1","undefined","undefined","undefined","1","f","0","0","0","0","50","0","0","0","50","NA","46","50","46","0","46","3","50","0","50","Wed Feb 17 14:02:37 2021","The main experiment item","yes","Lexical_Decision_Task.osexp","/Users/nicole/Downloads","no","Andale Mono","no","18","no","white","no","yes","576","legacy","46","46","3","/Users/nicole/Downloads/subject-5213344.csv","legacy","Lentiform Loewenfeld","3.3.7","yes","yes","600bd7cfb6416f0113b04181","602110864497cf011d9c0822","0","f","NA","space","space","space","NA","f","1101","NA","2021","11779","5566","NA","1101","2","legacy","1024","2","48000","-16","task","5213344","even","NA","30022","34047","32024","124190","5186","22548","16980","124694","NA","124188","124695","124137","34047","125798","28196","123637","5121","109693","Lexical Decision Task","48","42121","51","yes","1024"
"2.895974732","6.65","5","sift","word","94.23076923076923","94.23076923076923","835.1730769230769","835.1730769230769","black","no","legacy","legacy","legacy","0","uniform","1","undefined","undefined","undefined","1","j","0","0","0","0","51","0","0","0","51","NA","47","51","47","0","47","3","51","0","51","Wed Feb 17 14:02:37 2021","The main experiment item","yes","Lexical_Decision_Task.osexp","/Users/nicole/Downloads","no","Andale Mono","no","18","no","white","no","yes","576","legacy","47","47","3","/Users/nicole/Downloads/subject-5213344.csv","legacy","Lentiform Loewenfeld","3.3.7","yes","yes","600bd7cfb6416f0113b04181","602110864497cf011d9c0822","0","j","NA","space","space","space","NA","j","1308","NA","2021","11779","5566","NA","1308","2","legacy","1024","2","48000","-16","task","5213344","even","NA","30022","34047","32024","126358","5186","22548","16980","126862","NA","126355","126863","126303","34047","128173","28196","125802","5121","109693","Lexical Decision Task","49","43429","52","yes","1024"
"2.838639236","0","4","furg","non-word","94.33962264150944","94.33962264150944","832.8301886792453","832.8301886792453","black","no","legacy","legacy","legacy","0","uniform","1","undefined","undefined","undefined","1","f","0","0","0","0","52","0","0","0","52","NA","48","52","48","0","48","3","52","0","52","Wed Feb 17 14:02:37 2021","The main experiment item","yes","Lexical_Decision_Task.osexp","/Users/nicole/Downloads","no","Andale Mono","no","18","no","white","no","yes","576","legacy","48","48","3","/Users/nicole/Downloads/subject-5213344.csv","legacy","Lentiform Loewenfeld","3.3.7","yes","yes","600bd7cfb6416f0113b04181","602110864497cf011d9c0822","0","f","NA","space","space","space","NA","f","711","NA","2021","11779","5566","NA","711","2","legacy","1024","2","48000","-16","task","5213344","even","NA","30022","34047","32024","128737","5186","22548","16980","129242","NA","128735","129242","128677","34047","129954","28196","128177","5121","109693","Lexical Decision Task","50","44140","53","yes","1024"
"2.75025376","10.2","6","jump","word","94.44444444444444","94.44444444444444","828.9444444444445","828.9444444444445","black","no","legacy","legacy","legacy","0","uniform","1","undefined","undefined","undefined","1","j","0","0","0","0","53","0","0","0","53","NA","49","53","49","0","49","3","53","0","53","Wed Feb 17 14:02:37 2021","The main experiment item","yes","Lexical_Decision_Task.osexp","/Users/nicole/Downloads","no","Andale Mono","no","18","no","white","no","yes","576","legacy","49","49","3","/Users/nicole/Downloads/subject-5213344.csv","legacy","Lentiform Loewenfeld","3.3.7","yes","yes","600bd7cfb6416f0113b04181","602110864497cf011d9c0822","0","j","NA","space","space","space","NA","j","623","NA","2021","11779","5566","NA","623","2","legacy","1024","2","48000","-16","task","5213344","even","NA","30022","34047","32024","130513","5186","22548","16980","131018","NA","130511","131018","130460","34047","131642","28196","129960","5121","109693","Lexical Decision Task","51","44763","54","yes","1024"
"2.793790385","5.67","9","swab","word","92.72727272727273","92.72727272727273","829.3090909090909","829.3090909090909","black","no","legacy","legacy","legacy","0","uniform","0","undefined","undefined","undefined","0","j","0","0","0","0","54","0","0","0","54","0","50","54","50","0","50","3","54","0","54","Wed Feb 17 14:02:37 2021","The main experiment item","yes","Lexical_Decision_Task.osexp","/Users/nicole/Downloads","no","Andale Mono","no","18","no","white","no","yes","576","legacy","50","50","3","/Users/nicole/Downloads/subject-5213344.csv","legacy","Lentiform Loewenfeld","3.3.7","yes","yes","600bd7cfb6416f0113b04181","602110864497cf011d9c0822","0","f","NA","space","space","space","space","f","849","NA","2021","11779","5566","4779","849","2","legacy","1024","2","48000","-16","task","5213344","even","NA","30022","34047","32024","137013","5186","22548","16980","137518","132179","137011","137518","132147","34047","138369","28196","131647","5121","109693","Lexical Decision Task","51","45612","55","yes","1024"
"3.120025233","0","2","nyst","non-word","92.85714285714286","92.85714285714286","828.9821428571429","828.9821428571429","black","no","legacy","legacy","legacy","0","uniform","1","undefined","undefined","undefined","1","f","0","0","0","0","55","0","0","0","55","0","51","55","51","0","51","3","55","0","55","Wed Feb 17 14:02:37 2021","The main experiment item","yes","Lexical_Decision_Task.osexp","/Users/nicole/Downloads","no","Andale Mono","no","18","no","white","no","yes","576","legacy","51","51","3","/Users/nicole/Downloads/subject-5213344.csv","legacy","Lentiform Loewenfeld","3.3.7","yes","yes","600bd7cfb6416f0113b04181","602110864497cf011d9c0822","0","f","NA","space","space","space","space","f","811","NA","2021","11779","5566","4779","811","2","legacy","1024","2","48000","-16","task","5213344","even","NA","30022","34047","32024","139933","5186","22548","16980","140436","132179","139930","140437","139874","34047","141250","28196","131647","5121","138374","Lexical Decision Task","52","46423","56","yes","1024"
"3.460446784","0","5","dess","non-word","92.98245614035088","92.98245614035088","826.2105263157895","826.2105263157895","black","no","legacy","legacy","legacy","0","uniform","1","undefined","undefined","undefined","1","f","0","0","0","0","56","0","0","0","56","0","52","56","52","0","52","3","56","0","56","Wed Feb 17 14:02:37 2021","The main experiment item","yes","Lexical_Decision_Task.osexp","/Users/nicole/Downloads","no","Andale Mono","no","18","no","white","no","yes","576","legacy","52","52","3","/Users/nicole/Downloads/subject-5213344.csv","legacy","Lentiform Loewenfeld","3.3.7","yes","yes","600bd7cfb6416f0113b04181","602110864497cf011d9c0822","0","f","NA","space","space","space","space","f","671","NA","2021","11779","5566","4779","671","2","legacy","1024","2","48000","-16","task","5213344","even","NA","30022","34047","32024","141808","5186","22548","16980","142311","132179","141806","142312","141755","34047","142984","28196","141254","5121","138374","Lexical Decision Task","53","47094","57","yes","1024"
"3.037294994","8.64","7","roof","word","93.10344827586206","93.10344827586206","822.2931034482758","822.2931034482758","black","no","legacy","legacy","legacy","0","uniform","1","undefined","undefined","undefined","1","j","0","0","0","0","57","0","0","0","57","0","53","57","53","0","53","3","57","0","57","Wed Feb 17 14:02:37 2021","The main experiment item","yes","Lexical_Decision_Task.osexp","/Users/nicole/Downloads","no","Andale Mono","no","18","no","white","no","yes","576","legacy","53","53","3","/Users/nicole/Downloads/subject-5213344.csv","legacy","Lentiform Loewenfeld","3.3.7","yes","yes","600bd7cfb6416f0113b04181","602110864497cf011d9c0822","0","j","NA","space","space","space","space","j","599","NA","2021","11779","5566","4779","599","2","legacy","1024","2","48000","-16","task","5213344","even","NA","30022","34047","32024","143547","5186","22548","16980","144051","132179","143544","144052","143490","34047","144652","28196","142989","5121","138374","Lexical Decision Task","54","47693","58","yes","1024"
"2.907588697","8.91","9","mood","word","93.22033898305085","93.22033898305085","816.9322033898305","816.9322033898305","black","no","legacy","legacy","legacy","0","uniform","1","undefined","undefined","undefined","1","j","0","0","0","0","58","0","0","0","58","0","54","58","54","0","54","3","58","0","58","Wed Feb 17 14:02:37 2021","The main experiment item","yes","Lexical_Decision_Task.osexp","/Users/nicole/Downloads","no","Andale Mono","no","18","no","white","no","yes","576","legacy","54","54","3","/Users/nicole/Downloads/subject-5213344.csv","legacy","Lentiform Loewenfeld","3.3.7","yes","yes","600bd7cfb6416f0113b04181","602110864497cf011d9c0822","0","j","NA","space","space","space","space","j","506","NA","2021","11779","5566","4779","506","2","legacy","1024","2","48000","-16","task","5213344","even","NA","30022","34047","32024","145212","5186","22548","16980","145716","132179","145210","145717","145157","34047","146224","28196","144657","5121","138374","Lexical Decision Task","55","48199","59","yes","1024"
"2.996511672","0","7","hoil","non-word","93.33333333333333","93.33333333333333","819.9","819.9","black","no","legacy","legacy","legacy","0","uniform","1","undefined","undefined","undefined","1","f","0","0","0","0","59","0","0","0","59","0","55","59","55","0","55","3","59","0","59","Wed Feb 17 14:02:37 2021","The main experiment item","yes","Lexical_Decision_Task.osexp","/Users/nicole/Downloads","no","Andale Mono","no","18","no","white","no","yes","576","legacy","55","55","3","/Users/nicole/Downloads/subject-5213344.csv","legacy","Lentiform Loewenfeld","3.3.7","yes","yes","600bd7cfb6416f0113b04181","602110864497cf011d9c0822","0","f","NA","space","space","space","space","f","995","NA","2021","11779","5566","4779","995","2","legacy","1024","2","48000","-16","task","5213344","even","NA","30022","34047","32024","146785","5186","22548","16980","147289","132179","146783","147290","146729","34047","148286","28196","146229","5121","138374","Lexical Decision Task","56","49194","60","yes","1024"
"2.594027722","9.08","8","skip","word","93.44262295081967","93.44262295081967","816.311475409836","816.311475409836","black","no","legacy","legacy","legacy","0","uniform","1","undefined","undefined","undefined","1","j","0","0","0","0","60","0","0","0","60","0","56","60","56","0","56","3","60","0","60","Wed Feb 17 14:02:37 2021","The main experiment item","yes","Lexical_Decision_Task.osexp","/Users/nicole/Downloads","no","Andale Mono","no","18","no","white","no","yes","576","legacy","56","56","3","/Users/nicole/Downloads/subject-5213344.csv","legacy","Lentiform Loewenfeld","3.3.7","yes","yes","600bd7cfb6416f0113b04181","602110864497cf011d9c0822","0","j","NA","space","space","space","space","j","601","NA","2021","11779","5566","4779","601","2","legacy","1024","2","48000","-16","task","5213344","even","NA","30022","34047","32024","148846","5186","22548","16980","149350","132179","148844","149351","148792","34047","149954","28196","148291","5121","138374","Lexical Decision Task","57","49795","61","yes","1024"
"3.120135028","0","3","vals","non-word","93.54838709677419","93.54838709677419","818.4032258064516","818.4032258064516","black","no","legacy","legacy","legacy","0","uniform","1","undefined","undefined","undefined","1","f","0","0","0","0","61","0","0","0","61","0","57","61","57","0","57","3","61","0","61","Wed Feb 17 14:02:37 2021","The main experiment item","yes","Lexical_Decision_Task.osexp","/Users/nicole/Downloads","no","Andale Mono","no","18","no","white","no","yes","576","legacy","57","57","3","/Users/nicole/Downloads/subject-5213344.csv","legacy","Lentiform Loewenfeld","3.3.7","yes","yes","600bd7cfb6416f0113b04181","602110864497cf011d9c0822","0","f","NA","space","space","space","space","f","946","NA","2021","11779","5566","4779","946","2","legacy","1024","2","48000","-16","task","5213344","even","NA","30022","34047","32024","150513","5186","22548","16980","151017","132179","150510","151018","150459","34047","151966","28196","149959","5121","138374","Lexical Decision Task","58","50741","62","yes","1024"
"3.131833513","7.66","4","limb","word","93.65079365079364","93.65079365079364","817.7619047619048","817.7619047619048","black","no","legacy","legacy","legacy","0","uniform","1","undefined","undefined","undefined","1","j","0","0","0","0","62","0","0","0","62","0","58","62","58","0","58","3","62","0","62","Wed Feb 17 14:02:37 2021","The main experiment item","yes","Lexical_Decision_Task.osexp","/Users/nicole/Downloads","no","Andale Mono","no","18","no","white","no","yes","576","legacy","58","58","3","/Users/nicole/Downloads/subject-5213344.csv","legacy","Lentiform Loewenfeld","3.3.7","yes","yes","600bd7cfb6416f0113b04181","602110864497cf011d9c0822","0","j","NA","space","space","space","space","j","778","NA","2021","11779","5566","4779","778","2","legacy","1024","2","48000","-16","task","5213344","even","NA","30022","34047","32024","152541","5186","22548","16980","153044","132179","152537","153045","152471","34047","153825","28196","151970","5121","138374","Lexical Decision Task","59","51519","63","yes","1024"
"3.531734309","0","6","lerd","non-word","93.75","93.75","820.625","820.625","black","no","legacy","legacy","legacy","0","uniform","1","undefined","undefined","undefined","1","f","0","0","0","0","63","0","0","0","63","0","59","63","59","0","59","3","63","0","63","Wed Feb 17 14:02:37 2021","The main experiment item","yes","Lexical_Decision_Task.osexp","/Users/nicole/Downloads","no","Andale Mono","no","18","no","white","no","yes","576","legacy","59","59","3","/Users/nicole/Downloads/subject-5213344.csv","legacy","Lentiform Loewenfeld","3.3.7","yes","yes","600bd7cfb6416f0113b04181","602110864497cf011d9c0822","0","f","NA","space","space","space","space","f","1001","NA","2021","11779","5566","4779","1001","2","legacy","1024","2","48000","-16","task","5213344","even","NA","30022","34047","32024","154386","5186","22548","16980","154890","132179","154384","154891","154332","34047","155893","28196","153831","5121","138374","Lexical Decision Task","60","52520","64","yes","1024"
"2.6599162","0","6","flug","non-word","93.84615384615384","93.84615384615384","818.8615384615384","818.8615384615384","black","no","legacy","legacy","legacy","0","uniform","1","undefined","undefined","undefined","1","f","0","0","0","0","64","0","0","0","64","0","60","64","60","0","60","3","64","0","64","Wed Feb 17 14:02:37 2021","The main experiment item","yes","Lexical_Decision_Task.osexp","/Users/nicole/Downloads","no","Andale Mono","no","18","no","white","no","yes","576","legacy","60","60","3","/Users/nicole/Downloads/subject-5213344.csv","legacy","Lentiform Loewenfeld","3.3.7","yes","yes","600bd7cfb6416f0113b04181","602110864497cf011d9c0822","0","f","NA","space","space","space","space","f","706","NA","2021","11779","5566","4779","706","2","legacy","1024","2","48000","-16","task","5213344","even","NA","30022","34047","32024","156454","5186","22548","16980","156957","132179","156452","156957","156398","34047","157665","28196","155898","5121","138374","Lexical Decision Task","61","53226","65","yes","1024"
"3.081107167","0","6","chot","non-word","93.93939393939394","93.93939393939394","815.6212121212121","815.6212121212121","black","no","legacy","legacy","legacy","0","uniform","1","undefined","undefined","undefined","1","f","0","0","0","0","65","0","0","0","65","0","61","65","61","0","61","3","65","0","65","Wed Feb 17 14:02:37 2021","The main experiment item","yes","Lexical_Decision_Task.osexp","/Users/nicole/Downloads","no","Andale Mono","no","18","no","white","no","yes","576","legacy","61","61","3","/Users/nicole/Downloads/subject-5213344.csv","legacy","Lentiform Loewenfeld","3.3.7","yes","yes","600bd7cfb6416f0113b04181","602110864497cf011d9c0822","0","f","NA","space","space","space","space","f","605","NA","2021","11779","5566","4779","605","2","legacy","1024","2","48000","-16","task","5213344","even","NA","30022","34047","32024","158225","5186","22548","16980","158729","132179","158222","158730","158170","34047","159337","28196","157669","5121","138374","Lexical Decision Task","62","53831","66","yes","1024"
"3.481012421","8.34","5","teen","word","94.02985074626865","94.02985074626865","810.9253731343283","810.9253731343283","black","no","legacy","legacy","legacy","0","uniform","1","undefined","undefined","undefined","1","j","0","0","0","0","66","0","0","0","66","0","62","66","62","0","62","3","66","0","66","Wed Feb 17 14:02:37 2021","The main experiment item","yes","Lexical_Decision_Task.osexp","/Users/nicole/Downloads","no","Andale Mono","no","18","no","white","no","yes","576","legacy","62","62","3","/Users/nicole/Downloads/subject-5213344.csv","legacy","Lentiform Loewenfeld","3.3.7","yes","yes","600bd7cfb6416f0113b04181","602110864497cf011d9c0822","0","j","NA","space","space","space","space","j","501","NA","2021","11779","5566","4779","501","2","legacy","1024","2","48000","-16","task","5213344","even","NA","30022","34047","32024","159905","5186","22548","16980","160409","132179","159902","160410","159842","34047","160912","28196","159342","5121","138374","Lexical Decision Task","63","54332","67","yes","1024"
"3.119255889","6.63","2","itch","word","92.6470588235294","92.6470588235294","806.0147058823529","806.0147058823529","black","no","legacy","legacy","legacy","0","uniform","0","undefined","undefined","undefined","0","j","0","0","0","0","67","0","0","0","67","0","63","67","63","0","63","3","67","0","67","Wed Feb 17 14:02:37 2021","The main experiment item","yes","Lexical_Decision_Task.osexp","/Users/nicole/Downloads","no","Andale Mono","no","18","no","white","no","yes","576","legacy","63","63","3","/Users/nicole/Downloads/subject-5213344.csv","legacy","Lentiform Loewenfeld","3.3.7","yes","yes","600bd7cfb6416f0113b04181","602110864497cf011d9c0822","0","f","NA","space","space","space","space","f","477","NA","2021","11779","5566","4779","477","2","legacy","1024","2","48000","-16","task","5213344","even","NA","30022","34047","32024","161469","5186","22548","16980","161972","132179","161467","161973","161417","34047","162451","28196","160917","5121","138374","Lexical Decision Task","63","54809","68","yes","1024"
"3.378276681","6.39","8","bran","word","91.30434782608695","91.30434782608695","803.9565217391304","803.9565217391304","black","no","legacy","legacy","legacy","0","uniform","0","undefined","undefined","undefined","0","j","0","0","0","0","68","0","0","0","68","0","64","68","64","0","64","3","68","0","68","Wed Feb 17 14:02:37 2021","The main experiment item","yes","Lexical_Decision_Task.osexp","/Users/nicole/Downloads","no","Andale Mono","no","18","no","white","no","yes","576","legacy","64","64","3","/Users/nicole/Downloads/subject-5213344.csv","legacy","Lentiform Loewenfeld","3.3.7","yes","yes","600bd7cfb6416f0113b04181","602110864497cf011d9c0822","0","f","NA","space","space","space","space","f","664","NA","2021","11779","5566","4779","664","2","legacy","1024","2","48000","-16","task","5213344","even","NA","30022","34047","32024","164020","5186","22548","16980","164524","132179","164017","164524","163957","34047","165189","28196","160917","5121","162456","Lexical Decision Task","63","55473","69","yes","1024"
"2.778633532","0","3","jurp","non-word","91.42857142857143","91.42857142857143","804.5285714285715","804.5285714285715","black","no","legacy","legacy","legacy","0","uniform","1","undefined","undefined","undefined","1","f","0","0","0","0","69","0","0","0","69","0","65","69","65","0","65","3","69","0","69","Wed Feb 17 14:02:37 2021","The main experiment item","yes","Lexical_Decision_Task.osexp","/Users/nicole/Downloads","no","Andale Mono","no","18","no","white","no","yes","576","legacy","65","65","3","/Users/nicole/Downloads/subject-5213344.csv","legacy","Lentiform Loewenfeld","3.3.7","yes","yes","600bd7cfb6416f0113b04181","602110864497cf011d9c0822","0","f","NA","space","space","space","space","f","844","NA","2021","11779","5566","4779","844","2","legacy","1024","2","48000","-16","task","5213344","even","NA","30022","34047","32024","166753","5186","22548","16980","167256","132179","166750","167257","166694","34047","168103","28196","160917","5121","165194","Lexical Decision Task","64","56317","70","yes","1024"
"3.282244367","0","6","fute","non-word","91.54929577464789","91.54929577464789","812.7887323943662","812.7887323943662","black","no","legacy","legacy","legacy","0","uniform","1","undefined","undefined","undefined","1","f","0","0","0","0","70","0","0","0","70","0","66","70","66","0","66","3","70","0","70","Wed Feb 17 14:02:37 2021","The main experiment item","yes","Lexical_Decision_Task.osexp","/Users/nicole/Downloads","no","Andale Mono","no","18","no","white","no","yes","576","legacy","66","66","3","/Users/nicole/Downloads/subject-5213344.csv","legacy","Lentiform Loewenfeld","3.3.7","yes","yes","600bd7cfb6416f0113b04181","602110864497cf011d9c0822","0","f","NA","space","space","space","space","f","1391","NA","2021","11779","5566","4779","1391","2","legacy","1024","2","48000","-16","task","5213344","even","NA","30022","34047","32024","168663","5186","22548","16980","169167","132179","168660","169167","168609","34047","170560","28196","168108","5121","165194","Lexical Decision Task","65","57708","71","yes","1024"
"3.274543461","7.46","7","scar","word","91.66666666666667","91.66666666666667","809.3055555555555","809.3055555555555","black","no","legacy","legacy","legacy","0","uniform","1","undefined","undefined","undefined","1","j","0","0","0","0","71","0","0","0","71","0","67","71","67","0","67","3","71","0","71","Wed Feb 17 14:02:37 2021","The main experiment item","yes","Lexical_Decision_Task.osexp","/Users/nicole/Downloads","no","Andale Mono","no","18","no","white","no","yes","576","legacy","67","67","3","/Users/nicole/Downloads/subject-5213344.csv","legacy","Lentiform Loewenfeld","3.3.7","yes","yes","600bd7cfb6416f0113b04181","602110864497cf011d9c0822","0","j","NA","space","space","space","space","j","562","NA","2021","11779","5566","4779","562","2","legacy","1024","2","48000","-16","task","5213344","even","NA","30022","34047","32024","171122","5186","22548","16980","171626","132179","171119","171626","171065","34047","172190","28196","170565","5121","165194","Lexical Decision Task","66","58270","72","yes","1024"
"2.937852093","0","7","bamp","non-word","91.78082191780823","91.78082191780823","812.2465753424658","812.2465753424658","black","no","legacy","legacy","legacy","0","uniform","1","undefined","undefined","undefined","1","f","0","0","0","0","72","0","0","0","72","0","68","72","68","0","68","3","72","0","72","Wed Feb 17 14:02:37 2021","The main experiment item","yes","Lexical_Decision_Task.osexp","/Users/nicole/Downloads","no","Andale Mono","no","18","no","white","no","yes","576","legacy","68","68","3","/Users/nicole/Downloads/subject-5213344.csv","legacy","Lentiform Loewenfeld","3.3.7","yes","yes","600bd7cfb6416f0113b04181","602110864497cf011d9c0822","0","f","NA","space","space","space","space","f","1024","NA","2021","11779","5566","4779","1024","2","legacy","1024","2","48000","-16","task","5213344","even","NA","30022","34047","32024","172748","5186","22548","16980","173252","132179","172746","173253","172695","34047","174278","28196","172195","5121","165194","Lexical Decision Task","67","59294","73","yes","1024"
"2.708989954","9.28","9","bowl","word","91.89189189189189","91.89189189189189","809.2702702702703","809.2702702702703","black","no","legacy","legacy","legacy","0","uniform","1","undefined","undefined","undefined","1","j","0","0","0","0","73","0","0","0","73","0","69","73","69","0","69","3","73","0","73","Wed Feb 17 14:02:37 2021","The main experiment item","yes","Lexical_Decision_Task.osexp","/Users/nicole/Downloads","no","Andale Mono","no","18","no","white","no","yes","576","legacy","69","69","3","/Users/nicole/Downloads/subject-5213344.csv","legacy","Lentiform Loewenfeld","3.3.7","yes","yes","600bd7cfb6416f0113b04181","602110864497cf011d9c0822","0","j","NA","space","space","space","space","j","592","NA","2021","11779","5566","4779","592","2","legacy","1024","2","48000","-16","task","5213344","even","NA","30022","34047","32024","174843","5186","22548","16980","175347","132179","174840","175348","174784","34047","175941","28196","174283","5121","165194","Lexical Decision Task","68","59886","74","yes","1024"
"2.843025032","0","9","pusk","non-word","92","92","808.5866666666667","808.5866666666667","black","no","legacy","legacy","legacy","0","uniform","1","undefined","undefined","undefined","1","f","0","0","0","0","74","0","0","0","74","0","70","74","70","0","70","3","74","0","74","Wed Feb 17 14:02:37 2021","The main experiment item","yes","Lexical_Decision_Task.osexp","/Users/nicole/Downloads","no","Andale Mono","no","18","no","white","no","yes","576","legacy","70","70","3","/Users/nicole/Downloads/subject-5213344.csv","legacy","Lentiform Loewenfeld","3.3.7","yes","yes","600bd7cfb6416f0113b04181","602110864497cf011d9c0822","0","f","NA","space","space","space","space","f","758","NA","2021","11779","5566","4779","758","2","legacy","1024","2","48000","-16","task","5213344","even","NA","30022","34047","32024","176504","5186","22548","16980","177008","132179","176502","177009","176446","34047","177769","28196","175946","5121","165194","Lexical Decision Task","69","60644","75","yes","1024"
"2.972357144","0","5","dasp","non-word","92.10526315789474","92.10526315789474","809.1052631578947","809.1052631578947","black","no","legacy","legacy","legacy","0","uniform","1","undefined","undefined","undefined","1","f","0","0","0","0","75","0","0","0","75","0","71","75","71","0","71","3","75","0","75","Wed Feb 17 14:02:37 2021","The main experiment item","yes","Lexical_Decision_Task.osexp","/Users/nicole/Downloads","no","Andale Mono","no","18","no","white","no","yes","576","legacy","71","71","3","/Users/nicole/Downloads/subject-5213344.csv","legacy","Lentiform Loewenfeld","3.3.7","yes","yes","600bd7cfb6416f0113b04181","602110864497cf011d9c0822","0","f","NA","space","space","space","space","f","848","NA","2021","11779","5566","4779","848","2","legacy","1024","2","48000","-16","task","5213344","even","NA","30022","34047","32024","178330","5186","22548","16980","178834","132179","178328","178835","178274","34047","179685","28196","177774","5121","165194","Lexical Decision Task","70","61492","76","yes","1024"
"2.7084209","0","8","vump","non-word","92.20779220779221","92.20779220779221","809.5064935064935","809.5064935064935","black","no","legacy","legacy","legacy","0","uniform","1","undefined","undefined","undefined","1","f","0","0","0","0","76","0","0","0","76","0","72","76","72","0","72","3","76","0","76","Wed Feb 17 14:02:37 2021","The main experiment item","yes","Lexical_Decision_Task.osexp","/Users/nicole/Downloads","no","Andale Mono","no","18","no","white","no","yes","576","legacy","72","72","3","/Users/nicole/Downloads/subject-5213344.csv","legacy","Lentiform Loewenfeld","3.3.7","yes","yes","600bd7cfb6416f0113b04181","602110864497cf011d9c0822","0","f","NA","space","space","space","space","f","840","NA","2021","11779","5566","4779","840","2","legacy","1024","2","48000","-16","task","5213344","even","NA","30022","34047","32024","180247","5186","22548","16980","180752","132179","180245","180753","180190","34047","181595","28196","179690","5121","165194","Lexical Decision Task","71","62332","77","yes","1024"
"3.043885998","0","9","gome","non-word","92.3076923076923","92.3076923076923","807.5512820512821","807.5512820512821","black","no","legacy","legacy","legacy","0","uniform","1","undefined","undefined","undefined","1","f","0","0","0","0","77","0","0","0","77","0","73","77","73","0","73","3","77","0","77","Wed Feb 17 14:02:37 2021","The main experiment item","yes","Lexical_Decision_Task.osexp","/Users/nicole/Downloads","no","Andale Mono","no","18","no","white","no","yes","576","legacy","73","73","3","/Users/nicole/Downloads/subject-5213344.csv","legacy","Lentiform Loewenfeld","3.3.7","yes","yes","600bd7cfb6416f0113b04181","602110864497cf011d9c0822","0","f","NA","space","space","space","space","f","657","NA","2021","11779","5566","4779","657","2","legacy","1024","2","48000","-16","task","5213344","even","NA","30022","34047","32024","182154","5186","22548","16980","182657","132179","182151","182657","182100","34047","183316","28196","181600","5121","165194","Lexical Decision Task","72","62989","78","yes","1024"
"3.077974404","10.41","8","tool","word","92.40506329113924","92.40506329113924","804.5822784810126","804.5822784810126","black","no","legacy","legacy","legacy","0","uniform","1","undefined","undefined","undefined","1","j","0","0","0","0","78","0","0","0","78","0","74","78","74","0","74","3","78","0","78","Wed Feb 17 14:02:37 2021","The main experiment item","yes","Lexical_Decision_Task.osexp","/Users/nicole/Downloads","no","Andale Mono","no","18","no","white","no","yes","576","legacy","74","74","3","/Users/nicole/Downloads/subject-5213344.csv","legacy","Lentiform Loewenfeld","3.3.7","yes","yes","600bd7cfb6416f0113b04181","602110864497cf011d9c0822","0","j","NA","space","space","space","space","j","573","NA","2021","11779","5566","4779","573","2","legacy","1024","2","48000","-16","task","5213344","even","NA","30022","34047","32024","183875","5186","22548","16980","184379","132179","183872","184379","183821","34047","184954","28196","183321","5121","165194","Lexical Decision Task","73","63562","79","yes","1024"
"2.576725172","0","8","gowl","non-word","92.5","92.5","805.6375","805.6375","black","no","legacy","legacy","legacy","0","uniform","1","undefined","undefined","undefined","1","f","0","0","0","0","79","0","0","0","79","0","75","79","75","0","75","3","79","0","79","Wed Feb 17 14:02:37 2021","The main experiment item","yes","Lexical_Decision_Task.osexp","/Users/nicole/Downloads","no","Andale Mono","no","18","no","white","no","yes","576","legacy","75","75","3","/Users/nicole/Downloads/subject-5213344.csv","legacy","Lentiform Loewenfeld","3.3.7","yes","yes","600bd7cfb6416f0113b04181","602110864497cf011d9c0822","0","f","NA","space","space","space","space","f","889","NA","2021","11779","5566","4779","889","2","legacy","1024","2","48000","-16","task","5213344","even","NA","30022","34047","32024","185518","5186","22548","16980","186022","132179","185515","186023","185459","34047","186914","28196","184959","5121","165194","Lexical Decision Task","74","64451","80","yes","1024"
"3.397302518","7.01","2","knit","word","92.5925925925926","92.5925925925926","804.2962962962963","804.2962962962963","black","no","legacy","legacy","legacy","0","uniform","1","undefined","undefined","undefined","1","j","0","0","0","0","80","0","0","0","80","0","76","80","76","0","76","3","80","0","80","Wed Feb 17 14:02:37 2021","The main experiment item","yes","Lexical_Decision_Task.osexp","/Users/nicole/Downloads","no","Andale Mono","no","18","no","white","no","yes","576","legacy","76","76","3","/Users/nicole/Downloads/subject-5213344.csv","legacy","Lentiform Loewenfeld","3.3.7","yes","yes","600bd7cfb6416f0113b04181","602110864497cf011d9c0822","0","j","NA","space","space","space","space","j","697","NA","2021","11779","5566","4779","697","2","legacy","1024","2","48000","-16","task","5213344","even","NA","30022","34047","32024","187480","5186","22548","16980","187985","132179","187478","187986","187419","34047","188684","28196","186918","5121","165194","Lexical Decision Task","75","65148","81","yes","1024"
"2.952953801","0","8","clax","non-word","92.6829268292683","92.6829268292683","804.780487804878","804.780487804878","black","no","legacy","legacy","legacy","0","uniform","1","undefined","undefined","undefined","1","f","0","0","0","0","81","0","0","0","81","0","77","81","77","0","77","3","81","0","81","Wed Feb 17 14:02:37 2021","The main experiment item","yes","Lexical_Decision_Task.osexp","/Users/nicole/Downloads","no","Andale Mono","no","18","no","white","no","yes","576","legacy","77","77","3","/Users/nicole/Downloads/subject-5213344.csv","legacy","Lentiform Loewenfeld","3.3.7","yes","yes","600bd7cfb6416f0113b04181","602110864497cf011d9c0822","0","f","NA","space","space","space","space","f","844","NA","2021","11779","5566","4779","844","2","legacy","1024","2","48000","-16","task","5213344","even","NA","30022","34047","32024","189244","5186","22548","16980","189749","132179","189242","189750","189189","34047","190595","28196","188689","5121","165194","Lexical Decision Task","76","65992","82","yes","1024"
"3.230789326","5.38","5","prim","word","92.7710843373494","92.7710843373494","807.1927710843373","807.1927710843373","black","no","legacy","legacy","legacy","0","uniform","1","undefined","undefined","undefined","1","j","0","0","0","0","82","0","0","0","82","0","78","82","78","0","78","3","82","0","82","Wed Feb 17 14:02:37 2021","The main experiment item","yes","Lexical_Decision_Task.osexp","/Users/nicole/Downloads","no","Andale Mono","no","18","no","white","no","yes","576","legacy","78","78","3","/Users/nicole/Downloads/subject-5213344.csv","legacy","Lentiform Loewenfeld","3.3.7","yes","yes","600bd7cfb6416f0113b04181","602110864497cf011d9c0822","0","j","NA","space","space","space","space","j","1005","NA","2021","11779","5566","4779","1005","2","legacy","1024","2","48000","-16","task","5213344","even","NA","30022","34047","32024","191155","5186","22548","16980","191658","132179","191152","191659","191100","34047","192665","28196","190600","5121","165194","Lexical Decision Task","77","66997","83","yes","1024"
"3.068433376","8.09","2","bulb","word","92.85714285714286","92.85714285714286","805.9047619047619","805.9047619047619","black","no","legacy","legacy","legacy","0","uniform","1","undefined","undefined","undefined","1","j","0","0","0","0","83","0","0","0","83","0","79","83","79","0","79","3","83","0","83","Wed Feb 17 14:02:37 2021","The main experiment item","yes","Lexical_Decision_Task.osexp","/Users/nicole/Downloads","no","Andale Mono","no","18","no","white","no","yes","576","legacy","79","79","3","/Users/nicole/Downloads/subject-5213344.csv","legacy","Lentiform Loewenfeld","3.3.7","yes","yes","600bd7cfb6416f0113b04181","602110864497cf011d9c0822","0","j","NA","space","space","space","space","j","699","NA","2021","11779","5566","4779","699","2","legacy","1024","2","48000","-16","task","5213344","even","NA","30022","34047","32024","193225","5186","22548","16980","193728","132179","193222","193728","193171","34047","194429","28196","192670","5121","165194","Lexical Decision Task","78","67696","84","yes","1024"
"3.1430148","7.92","8","bald","word","92.94117647058823","92.94117647058823","802.6235294117647","802.6235294117647","black","no","legacy","legacy","legacy","0","uniform","1","undefined","undefined","undefined","1","j","0","0","0","0","84","0","0","0","84","0","80","84","80","0","80","3","84","0","84","Wed Feb 17 14:02:37 2021","The main experiment item","yes","Lexical_Decision_Task.osexp","/Users/nicole/Downloads","no","Andale Mono","no","18","no","white","no","yes","576","legacy","80","80","3","/Users/nicole/Downloads/subject-5213344.csv","legacy","Lentiform Loewenfeld","3.3.7","yes","yes","600bd7cfb6416f0113b04181","602110864497cf011d9c0822","0","j","NA","space","space","space","space","j","527","NA","2021","11779","5566","4779","527","2","legacy","1024","2","48000","-16","task","5213344","even","NA","30022","34047","32024","194990","5186","22548","16980","195494","132179","194987","195495","194935","34047","196024","28196","194435","5121","165194","Lexical Decision Task","79","68223","85","yes","1024"
"3.145920145","8.51","8","flew","word","93.02325581395348","93.02325581395348","804.953488372093","804.953488372093","black","no","legacy","legacy","legacy","0","uniform","1","undefined","undefined","undefined","1","j","0","0","0","0","85","0","0","0","85","0","81","85","81","0","81","3","85","0","85","Wed Feb 17 14:02:37 2021","The main experiment item","yes","Lexical_Decision_Task.osexp","/Users/nicole/Downloads","no","Andale Mono","no","18","no","white","no","yes","576","legacy","81","81","3","/Users/nicole/Downloads/subject-5213344.csv","legacy","Lentiform Loewenfeld","3.3.7","yes","yes","600bd7cfb6416f0113b04181","602110864497cf011d9c0822","0","j","NA","space","space","space","space","j","1003","NA","2021","11779","5566","4779","1003","2","legacy","1024","2","48000","-16","task","5213344","even","NA","30022","34047","32024","196584","5186","22548","16980","197088","132179","196581","197089","196530","34047","198094","28196","196029","5121","165194","Lexical Decision Task","80","69226","86","yes","1024"
"2.696644658","5.78","2","yolk","word","93.10344827586206","93.10344827586206","801.2873563218391","801.2873563218391","black","no","legacy","legacy","legacy","0","uniform","1","undefined","undefined","undefined","1","j","0","0","0","0","86","0","0","0","86","0","82","86","82","0","82","3","86","0","86","Wed Feb 17 14:02:37 2021","The main experiment item","yes","Lexical_Decision_Task.osexp","/Users/nicole/Downloads","no","Andale Mono","no","18","no","white","no","yes","576","legacy","82","82","3","/Users/nicole/Downloads/subject-5213344.csv","legacy","Lentiform Loewenfeld","3.3.7","yes","yes","600bd7cfb6416f0113b04181","602110864497cf011d9c0822","0","j","NA","space","space","space","space","j","486","NA","2021","11779","5566","4779","486","2","legacy","1024","2","48000","-16","task","5213344","even","NA","30022","34047","32024","198654","5186","22548","16980","199158","132179","198652","199159","198600","34047","199647","28196","198099","5121","165194","Lexical Decision Task","81","69712","87","yes","1024"
"3.374198258","0","8","vist","non-word","93.18181818181819","93.18181818181819","802.0227272727273","802.0227272727273","black","no","legacy","legacy","legacy","0","uniform","1","undefined","undefined","undefined","1","f","0","0","0","0","87","0","0","0","87","0","83","87","83","0","83","3","87","0","87","Wed Feb 17 14:02:37 2021","The main experiment item","yes","Lexical_Decision_Task.osexp","/Users/nicole/Downloads","no","Andale Mono","no","18","no","white","no","yes","576","legacy","83","83","3","/Users/nicole/Downloads/subject-5213344.csv","legacy","Lentiform Loewenfeld","3.3.7","yes","yes","600bd7cfb6416f0113b04181","602110864497cf011d9c0822","0","f","NA","space","space","space","space","f","866","NA","2021","11779","5566","4779","866","2","legacy","1024","2","48000","-16","task","5213344","even","NA","30022","34047","32024","200206","5186","22548","16980","200710","132179","200203","200711","200152","34047","201579","28196","199652","5121","165194","Lexical Decision Task","82","70578","88","yes","1024"
"3.2757719","0","5","slea","non-word","93.25842696629213","93.25842696629213","799.3483146067416","799.3483146067416","black","no","legacy","legacy","legacy","0","uniform","1","undefined","undefined","undefined","1","f","0","0","0","0","88","0","0","0","88","0","84","88","84","0","84","3","88","0","88","Wed Feb 17 14:02:37 2021","The main experiment item","yes","Lexical_Decision_Task.osexp","/Users/nicole/Downloads","no","Andale Mono","no","18","no","white","no","yes","576","legacy","84","84","3","/Users/nicole/Downloads/subject-5213344.csv","legacy","Lentiform Loewenfeld","3.3.7","yes","yes","600bd7cfb6416f0113b04181","602110864497cf011d9c0822","0","f","NA","space","space","space","space","f","564","NA","2021","11779","5566","4779","564","2","legacy","1024","2","48000","-16","task","5213344","even","NA","30022","34047","32024","202138","5186","22548","16980","202642","132179","202136","202643","202084","34047","203208","28196","201584","5121","165194","Lexical Decision Task","83","71142","89","yes","1024"
"2.875447132","0","9","jelt","non-word","93.33333333333333","93.33333333333333","799.5333333333333","799.5333333333333","black","no","legacy","legacy","legacy","0","uniform","1","undefined","undefined","undefined","1","f","0","0","0","0","89","0","0","0","89","0","85","89","85","0","85","3","89","0","89","Wed Feb 17 14:02:37 2021","The main experiment item","yes","Lexical_Decision_Task.osexp","/Users/nicole/Downloads","no","Andale Mono","no","18","no","white","no","yes","576","legacy","85","85","3","/Users/nicole/Downloads/subject-5213344.csv","legacy","Lentiform Loewenfeld","3.3.7","yes","yes","600bd7cfb6416f0113b04181","602110864497cf011d9c0822","0","f","NA","space","space","space","space","f","816","NA","2021","11779","5566","4779","816","2","legacy","1024","2","48000","-16","task","5213344","even","NA","30022","34047","32024","203767","5186","22548","16980","204270","132179","203764","204271","203713","34047","205088","28196","203212","5121","165194","Lexical Decision Task","84","71958","90","yes","1024"
"3.261341392","5.08","8","reek","word","93.4065934065934","93.4065934065934","798.8461538461538","798.8461538461538","black","no","legacy","legacy","legacy","0","uniform","1","undefined","undefined","undefined","1","j","0","0","0","0","90","0","0","0","90","0","86","90","86","0","86","3","90","0","90","Wed Feb 17 14:02:37 2021","The main experiment item","yes","Lexical_Decision_Task.osexp","/Users/nicole/Downloads","no","Andale Mono","no","18","no","white","no","yes","576","legacy","86","86","3","/Users/nicole/Downloads/subject-5213344.csv","legacy","Lentiform Loewenfeld","3.3.7","yes","yes","600bd7cfb6416f0113b04181","602110864497cf011d9c0822","0","j","NA","space","space","space","space","j","737","NA","2021","11779","5566","4779","737","2","legacy","1024","2","48000","-16","task","5213344","even","NA","30022","34047","32024","205648","5186","22548","16980","206151","132179","205645","206151","205593","34047","206889","28196","205093","5121","165194","Lexical Decision Task","85","72695","91","yes","1024"
"3.140404328","10.66","9","deep","word","93.47826086956522","93.47826086956522","797.3369565217391","797.3369565217391","black","no","legacy","legacy","legacy","0","uniform","1","undefined","undefined","undefined","1","j","0","0","0","0","91","0","0","0","91","0","87","91","87","0","87","3","91","0","91","Wed Feb 17 14:02:37 2021","The main experiment item","yes","Lexical_Decision_Task.osexp","/Users/nicole/Downloads","no","Andale Mono","no","18","no","white","no","yes","576","legacy","87","87","3","/Users/nicole/Downloads/subject-5213344.csv","legacy","Lentiform Loewenfeld","3.3.7","yes","yes","600bd7cfb6416f0113b04181","602110864497cf011d9c0822","0","j","NA","space","space","space","space","j","660","NA","2021","11779","5566","4779","660","2","legacy","1024","2","48000","-16","task","5213344","even","NA","30022","34047","32024","207449","5186","22548","16980","207953","132179","207447","207953","207394","34047","208614","28196","206894","5121","165194","Lexical Decision Task","86","73355","92","yes","1024"
"3.091901331","0","9","nipe","non-word","93.54838709677419","93.54838709677419","797.3010752688172","797.3010752688172","black","no","legacy","legacy","legacy","0","uniform","1","undefined","undefined","undefined","1","f","0","0","0","0","92","0","0","0","92","0","88","92","88","0","88","3","92","0","92","Wed Feb 17 14:02:37 2021","The main experiment item","yes","Lexical_Decision_Task.osexp","/Users/nicole/Downloads","no","Andale Mono","no","18","no","white","no","yes","576","legacy","88","88","3","/Users/nicole/Downloads/subject-5213344.csv","legacy","Lentiform Loewenfeld","3.3.7","yes","yes","600bd7cfb6416f0113b04181","602110864497cf011d9c0822","0","f","NA","space","space","space","space","f","794","NA","2021","11779","5566","4779","794","2","legacy","1024","2","48000","-16","task","5213344","even","NA","30022","34047","32024","209171","5186","22548","16980","209676","132179","209169","209677","209119","34047","210473","28196","208619","5121","165194","Lexical Decision Task","87","74149","93","yes","1024"
"3.003891166","8.05","2","frog","word","93.61702127659575","93.61702127659575","794.6063829787234","794.6063829787234","black","no","legacy","legacy","legacy","0","uniform","1","undefined","undefined","undefined","1","j","0","0","0","0","93","0","0","0","93","0","89","93","89","0","89","3","93","0","93","Wed Feb 17 14:02:37 2021","The main experiment item","yes","Lexical_Decision_Task.osexp","/Users/nicole/Downloads","no","Andale Mono","no","18","no","white","no","yes","576","legacy","89","89","3","/Users/nicole/Downloads/subject-5213344.csv","legacy","Lentiform Loewenfeld","3.3.7","yes","yes","600bd7cfb6416f0113b04181","602110864497cf011d9c0822","0","j","NA","space","space","space","space","j","544","NA","2021","11779","5566","4779","544","2","legacy","1024","2","48000","-16","task","5213344","even","NA","30022","34047","32024","211034","5186","22548","16980","211538","132179","211032","211539","210978","34047","212085","28196","210477","5121","165194","Lexical Decision Task","88","74693","94","yes","1024"
"2.746890964","9.67","3","plug","word","93.6842105263158","93.6842105263158","792.9052631578948","792.9052631578948","black","no","legacy","legacy","legacy","0","uniform","1","undefined","undefined","undefined","1","j","0","0","0","0","94","0","0","0","94","0","90","94","90","0","90","3","94","0","94","Wed Feb 17 14:02:37 2021","The main experiment item","yes","Lexical_Decision_Task.osexp","/Users/nicole/Downloads","no","Andale Mono","no","18","no","white","no","yes","576","legacy","90","90","3","/Users/nicole/Downloads/subject-5213344.csv","legacy","Lentiform Loewenfeld","3.3.7","yes","yes","600bd7cfb6416f0113b04181","602110864497cf011d9c0822","0","j","NA","space","space","space","space","j","633","NA","2021","11779","5566","4779","633","2","legacy","1024","2","48000","-16","task","5213344","even","NA","30022","34047","32024","212643","5186","22548","16980","213146","132179","212641","213147","212590","34047","213782","28196","212090","5121","165194","Lexical Decision Task","89","75326","95","yes","1024"
"3.209246849","0","7","slem","non-word","93.75","93.75","791.6145833333334","791.6145833333334","black","no","legacy","legacy","legacy","0","uniform","1","undefined","undefined","undefined","1","f","0","0","0","0","95","0","0","0","95","0","91","95","91","0","91","3","95","0","95","Wed Feb 17 14:02:37 2021","The main experiment item","yes","Lexical_Decision_Task.osexp","/Users/nicole/Downloads","no","Andale Mono","no","18","no","white","no","yes","576","legacy","91","91","3","/Users/nicole/Downloads/subject-5213344.csv","legacy","Lentiform Loewenfeld","3.3.7","yes","yes","600bd7cfb6416f0113b04181","602110864497cf011d9c0822","0","f","NA","space","space","space","space","f","669","NA","2021","11779","5566","4779","669","2","legacy","1024","2","48000","-16","task","5213344","even","NA","30022","34047","32024","214344","5186","22548","16980","214849","132179","214340","214849","214287","34047","215521","28196","213786","5121","165194","Lexical Decision Task","90","75995","96","yes","1024"
"2.675164031","8.57","6","glue","word","93.81443298969072","93.81443298969072","790.2061855670103","790.2061855670103","black","no","legacy","legacy","legacy","0","uniform","1","undefined","undefined","undefined","1","j","0","0","0","0","96","0","0","0","96","0","92","96","92","0","92","3","96","0","96","Wed Feb 17 14:02:37 2021","The main experiment item","yes","Lexical_Decision_Task.osexp","/Users/nicole/Downloads","no","Andale Mono","no","18","no","white","no","yes","576","legacy","92","92","3","/Users/nicole/Downloads/subject-5213344.csv","legacy","Lentiform Loewenfeld","3.3.7","yes","yes","600bd7cfb6416f0113b04181","602110864497cf011d9c0822","0","j","NA","space","space","space","space","j","655","NA","2021","11779","5566","4779","655","2","legacy","1024","2","48000","-16","task","5213344","even","NA","30022","34047","32024","216099","5186","22548","16980","216603","132179","216096","216604","216028","34047","217262","28196","215527","5121","165194","Lexical Decision Task","91","76650","97","yes","1024"
"2.64476673","0","5","moft","non-word","93.87755102040816","93.87755102040816","788.4795918367347","788.4795918367347","black","no","legacy","legacy","legacy","0","uniform","1","undefined","undefined","undefined","1","f","0","0","0","0","97","0","0","0","97","0","93","97","93","0","93","3","97","0","97","Wed Feb 17 14:02:37 2021","The main experiment item","yes","Lexical_Decision_Task.osexp","/Users/nicole/Downloads","no","Andale Mono","no","18","no","white","no","yes","576","legacy","93","93","3","/Users/nicole/Downloads/subject-5213344.csv","legacy","Lentiform Loewenfeld","3.3.7","yes","yes","600bd7cfb6416f0113b04181","602110864497cf011d9c0822","0","f","NA","space","space","space","space","f","621","NA","2021","11779","5566","4779","621","2","legacy","1024","2","48000","-16","task","5213344","even","NA","30022","34047","32024","217867","5186","22548","16980","218370","132179","217862","218371","217768","34047","218995","28196","217268","5121","165194","Lexical Decision Task","92","77271","98","yes","1024"
"2.794720352","0","9","koot","non-word","92.92929292929293","92.92929292929293","786.7171717171717","786.7171717171717","black","no","legacy","legacy","legacy","0","uniform","0","undefined","undefined","undefined","0","f","0","0","0","0","98","0","0","0","98","0","94","98","94","0","94","3","98","0","98","Wed Feb 17 14:02:37 2021","The main experiment item","yes","Lexical_Decision_Task.osexp","/Users/nicole/Downloads","no","Andale Mono","no","18","no","white","no","yes","576","legacy","94","94","3","/Users/nicole/Downloads/subject-5213344.csv","legacy","Lentiform Loewenfeld","3.3.7","yes","yes","600bd7cfb6416f0113b04181","602110864497cf011d9c0822","0","j","NA","space","space","space","space","j","614","NA","2021","11779","5566","4779","614","2","legacy","1024","2","48000","-16","task","5213344","even","NA","30022","34047","32024","219566","5186","22548","16980","220068","132179","219562","220069","219501","34047","220685","28196","219000","5121","165194","Lexical Decision Task","92","77885","99","yes","1024"
"3.010582609","0","2","drod","non-word","93","93","787.6","787.6","black","no","legacy","legacy","legacy","0","uniform","1","undefined","undefined","undefined","1","f","0","0","0","0","99","0","0","0","99","0","95","99","95","0","95","3","99","0","99","Wed Feb 17 14:02:37 2021","The main experiment item","yes","Lexical_Decision_Task.osexp","/Users/nicole/Downloads","no","Andale Mono","no","18","no","white","no","yes","576","legacy","95","95","3","/Users/nicole/Downloads/subject-5213344.csv","legacy","Lentiform Loewenfeld","3.3.7","yes","yes","600bd7cfb6416f0113b04181","602110864497cf011d9c0822","0","f","NA","space","space","space","space","f","875","NA","2021","11779","5566","4779","875","2","legacy","1024","2","48000","-16","task","5213344","even","NA","30022","34047","32024","222246","5186","22548","16980","222749","132179","222243","222750","222189","34047","223627","28196","219000","5121","220689","Lexical Decision Task","93","78760","100","yes","1024"
"2.767650507","0","6","yolt","non-word","92.07920792079207","92.07920792079207","787.5049504950495","787.5049504950495","black","no","legacy","legacy","legacy","0","uniform","0","undefined","undefined","undefined","0","f","0","0","0","0","100","0","0","0","100","0","96","100","96","0","96","3","100","0","100","Wed Feb 17 14:02:37 2021","The main experiment item","yes","Lexical_Decision_Task.osexp","/Users/nicole/Downloads","no","Andale Mono","no","18","no","white","no","yes","576","legacy","96","96","3","/Users/nicole/Downloads/subject-5213344.csv","legacy","Lentiform Loewenfeld","3.3.7","yes","yes","600bd7cfb6416f0113b04181","602110864497cf011d9c0822","0","j","NA","space","space","space","space","j","778","NA","2021","11779","5566","4779","778","2","legacy","1024","2","48000","-16","task","5213344","even","NA","30022","34047","32024","224190","5186","22548","16980","224694","132179","224187","224695","224133","34047","225475","28196","223633","5121","220689","Lexical Decision Task","93","79538","101","yes","1024"
