"Log_BG","Log_Freq_HAL","Ortho_N","Stimulus","Type","acc","accuracy","average_response_time","avg_rt","background","bidi","canvas_backend","clock_backend","color_backend","compensation","coordinates","correct","correct_Experimental_intro","correct_Introduction","correct_Practice_intro","correct_experimenter_kb","correct_response","count_End_Of_Experiment","count_End_Of_Practice","count_Experimental_Loop","count_Experimental_intro","count_Fixation","count_Introduction","count_Practice_Loop","count_Practice_intro","count_Stimulus","count_block_break_feedback","count_experimental_sequence","count_experimenter_kb","count_increment_trial_count","count_init_trial_count","count_logger","count_practice_sequence","count_right","count_task","count_wrong","datetime","description","disable_garbage_collection","experiment_file","experiment_path","font_bold","font_family","font_italic","font_size","font_underline","foreground","form_clicks","fullscreen","height","keyboard_backend","live_row","live_row_Experimental_Loop","live_row_Practice_Loop","logfile","mouse_backend","opensesame_codename","opensesame_version","osf_always_upload_data","osf_always_upload_experiment","osf_datanode_id","osf_id","repeat_cycle","response","response_End_Of_Experiment","response_Experimental_intro","response_Introduction","response_Practice_intro","response_block_break_feedback","response_experimenter_kb","response_time","response_time_End_Of_Experiment","response_time_Experimental_intro","response_time_Introduction","response_time_Practice_intro","response_time_block_break_feedback","response_time_experimenter_kb","round_decimals","sampler_backend","sound_buf_size","sound_channels","sound_freq","sound_sample_size","start","subject_nr","subject_parity","time_End_Of_Experiment","time_End_Of_Practice","time_Experimental_Loop","time_Experimental_intro","time_Fixation","time_Introduction","time_Practice_Loop","time_Practice_intro","time_Stimulus","time_block_break_feedback","time_experimental_sequence","time_experimenter_kb","time_increment_trial_count","time_init_trial_count","time_logger","time_practice_sequence","time_right","time_task","time_wrong","title","total_correct","total_response_time","total_responses","uniform_coordinates","width"
"2.695770526","7.34","6","pawn","word","100","100","1030.8","1030.8","black","no","legacy","legacy","legacy","0","uniform","1","undefined","undefined","undefined","1","j","0","0","0","0","4","0","0","0","4","NA","0","4","0","0","0","3","4","0","4","Fri Feb 19 14:27:39 2021","The main experiment item","yes","Lexical_Decision_Task.osexp","C:/Users/Eleanor/OneDrive/Research Methods","no","Andale Mono","no","18","no","white","no","yes","576","legacy","0","0","3","C:/Users/Eleanor/OneDrive/Research Methods/subject-5211278.csv","legacy","Lentiform Loewenfeld","3.3.8","yes","yes","600bd7cfb6416f0113b04181","602110864497cf011d9c0822","0","j","NA","j","j","j","NA","j","1068","NA","5409","8665","7622","NA","1068","2","legacy","1024","2","48000","-16","task","5211278","even","NA","38638","46049","40640","46103","13328","29617","21995","46605","NA","46101","46605","NA","46049","47673","36815","38106","13326","NA","Lexical Decision Task","5","5154","5","yes","1024"
"2.767650507","0","6","yolt","non-word","100","100","1005.6666666666666","1005.6666666666666","black","no","legacy","legacy","legacy","0","uniform","1","undefined","undefined","undefined","1","f","0","0","0","0","5","0","0","0","5","NA","1","5","1","0","1","3","5","0","5","Fri Feb 19 14:27:39 2021","The main experiment item","yes","Lexical_Decision_Task.osexp","C:/Users/Eleanor/OneDrive/Research Methods","no","Andale Mono","no","18","no","white","no","yes","576","legacy","1","1","3","C:/Users/Eleanor/OneDrive/Research Methods/subject-5211278.csv","legacy","Lentiform Loewenfeld","3.3.8","yes","yes","600bd7cfb6416f0113b04181","602110864497cf011d9c0822","0","f","NA","j","j","j","NA","f","880","NA","5409","8665","7622","NA","880","2","legacy","1024","2","48000","-16","task","5211278","even","NA","38638","46049","40640","48362","13328","29617","21995","48864","NA","48360","48864","48267","46049","49745","36815","47767","13326","NA","Lexical Decision Task","6","6034","6","yes","1024"
"3.159867847","5.98","5","brim","word","100","100","1034.142857142857","1034.142857142857","black","no","legacy","legacy","legacy","0","uniform","1","undefined","undefined","undefined","1","j","0","0","0","0","6","0","0","0","6","NA","2","6","2","0","2","3","6","0","6","Fri Feb 19 14:27:39 2021","The main experiment item","yes","Lexical_Decision_Task.osexp","C:/Users/Eleanor/OneDrive/Research Methods","no","Andale Mono","no","18","no","white","no","yes","576","legacy","2","2","3","C:/Users/Eleanor/OneDrive/Research Methods/subject-5211278.csv","legacy","Lentiform Loewenfeld","3.3.8","yes","yes","600bd7cfb6416f0113b04181","602110864497cf011d9c0822","0","j","NA","j","j","j","NA","j","1205","NA","5409","8665","7622","NA","1205","2","legacy","1024","2","48000","-16","task","5211278","even","NA","38638","46049","40640","50350","13328","29617","21995","50852","NA","50348","50852","50270","46049","52057","36815","49770","13326","NA","Lexical Decision Task","7","7239","7","yes","1024"
"3.137775856","7.39","5","comb","word","100","100","990.125","990.125","black","no","legacy","legacy","legacy","0","uniform","1","undefined","undefined","undefined","1","j","0","0","0","0","7","0","0","0","7","NA","3","7","3","0","3","3","7","0","7","Fri Feb 19 14:27:39 2021","The main experiment item","yes","Lexical_Decision_Task.osexp","C:/Users/Eleanor/OneDrive/Research Methods","no","Andale Mono","no","18","no","white","no","yes","576","legacy","3","3","3","C:/Users/Eleanor/OneDrive/Research Methods/subject-5211278.csv","legacy","Lentiform Loewenfeld","3.3.8","yes","yes","600bd7cfb6416f0113b04181","602110864497cf011d9c0822","0","j","NA","j","j","j","NA","j","682","NA","5409","8665","7622","NA","682","2","legacy","1024","2","48000","-16","task","5211278","even","NA","38638","46049","40640","52656","13328","29617","21995","53159","NA","52655","53159","52583","46049","53841","36815","52083","13326","NA","Lexical Decision Task","8","7921","8","yes","1024"
"2.705007959","6.01","4","wept","word","100","100","983.7777777777778","983.7777777777778","black","no","legacy","legacy","legacy","0","uniform","1","undefined","undefined","undefined","1","j","0","0","0","0","8","0","0","0","8","NA","4","8","4","0","4","3","8","0","8","Fri Feb 19 14:27:39 2021","The main experiment item","yes","Lexical_Decision_Task.osexp","C:/Users/Eleanor/OneDrive/Research Methods","no","Andale Mono","no","18","no","white","no","yes","576","legacy","4","4","3","C:/Users/Eleanor/OneDrive/Research Methods/subject-5211278.csv","legacy","Lentiform Loewenfeld","3.3.8","yes","yes","600bd7cfb6416f0113b04181","602110864497cf011d9c0822","0","j","NA","j","j","j","NA","j","933","NA","5409","8665","7622","NA","933","2","legacy","1024","2","48000","-16","task","5211278","even","NA","38638","46049","40640","54477","13328","29617","21995","54979","NA","54475","54979","54386","46049","55912","36815","53886","13326","NA","Lexical Decision Task","9","8854","9","yes","1024"
"3.090140555","5.81","8","pout","word","100","100","975.5","975.5","black","no","legacy","legacy","legacy","0","uniform","1","undefined","undefined","undefined","1","j","0","0","0","0","9","0","0","0","9","NA","5","9","5","0","5","3","9","0","9","Fri Feb 19 14:27:39 2021","The main experiment item","yes","Lexical_Decision_Task.osexp","C:/Users/Eleanor/OneDrive/Research Methods","no","Andale Mono","no","18","no","white","no","yes","576","legacy","5","5","3","C:/Users/Eleanor/OneDrive/Research Methods/subject-5211278.csv","legacy","Lentiform Loewenfeld","3.3.8","yes","yes","600bd7cfb6416f0113b04181","602110864497cf011d9c0822","0","j","NA","j","j","j","NA","j","901","NA","5409","8665","7622","NA","901","2","legacy","1024","2","48000","-16","task","5211278","even","NA","38638","46049","40640","56517","13328","29617","21995","57019","NA","56515","57019","56436","46049","57921","36815","55936","13326","NA","Lexical Decision Task","10","9755","10","yes","1024"
"2.898725182","0","7","turl","non-word","90.9090909090909","90.9090909090909","968.5454545454545","968.5454545454545","black","no","legacy","legacy","legacy","0","uniform","0","undefined","undefined","undefined","0","f","0","0","0","0","10","0","0","0","10","NA","6","10","6","0","6","3","10","0","10","Fri Feb 19 14:27:39 2021","The main experiment item","yes","Lexical_Decision_Task.osexp","C:/Users/Eleanor/OneDrive/Research Methods","no","Andale Mono","no","18","no","white","no","yes","576","legacy","6","6","3","C:/Users/Eleanor/OneDrive/Research Methods/subject-5211278.csv","legacy","Lentiform Loewenfeld","3.3.8","yes","yes","600bd7cfb6416f0113b04181","602110864497cf011d9c0822","0","j","NA","j","j","j","NA","j","899","NA","5409","8665","7622","NA","899","2","legacy","1024","2","48000","-16","task","5211278","even","NA","38638","46049","40640","58543","13328","29617","21995","59045","NA","58541","59045","58451","46049","59945","36815","57951","13326","NA","Lexical Decision Task","10","10654","11","yes","1024"
"3.076883066","0","8","mout","non-word","91.66666666666667","91.66666666666667","948.5833333333334","948.5833333333334","black","no","legacy","legacy","legacy","0","uniform","1","undefined","undefined","undefined","1","f","0","0","0","0","11","0","0","0","11","NA","7","11","7","0","7","3","11","0","11","Fri Feb 19 14:27:39 2021","The main experiment item","yes","Lexical_Decision_Task.osexp","C:/Users/Eleanor/OneDrive/Research Methods","no","Andale Mono","no","18","no","white","no","yes","576","legacy","7","7","3","C:/Users/Eleanor/OneDrive/Research Methods/subject-5211278.csv","legacy","Lentiform Loewenfeld","3.3.8","yes","yes","600bd7cfb6416f0113b04181","602110864497cf011d9c0822","0","f","NA","j","j","j","NA","f","729","NA","5409","8665","7622","NA","729","2","legacy","1024","2","48000","-16","task","5211278","even","NA","38638","46049","40640","61553","13328","29617","21995","62055","NA","61552","62055","61469","46049","62785","36815","57951","13326","59969","Lexical Decision Task","11","11383","12","yes","1024"
"3.094121596","0","8","fode","non-word","92.3076923076923","92.3076923076923","917.1538461538462","917.1538461538462","black","no","legacy","legacy","legacy","0","uniform","1","undefined","undefined","undefined","1","f","0","0","0","0","12","0","0","0","12","NA","8","12","8","0","8","3","12","0","12","Fri Feb 19 14:27:39 2021","The main experiment item","yes","Lexical_Decision_Task.osexp","C:/Users/Eleanor/OneDrive/Research Methods","no","Andale Mono","no","18","no","white","no","yes","576","legacy","8","8","3","C:/Users/Eleanor/OneDrive/Research Methods/subject-5211278.csv","legacy","Lentiform Loewenfeld","3.3.8","yes","yes","600bd7cfb6416f0113b04181","602110864497cf011d9c0822","0","f","NA","j","j","j","NA","f","540","NA","5409","8665","7622","NA","540","2","legacy","1024","2","48000","-16","task","5211278","even","NA","38638","46049","40640","63389","13328","29617","21995","63892","NA","63388","63892","63307","46049","64433","36815","62807","13326","59969","Lexical Decision Task","12","11923","13","yes","1024"
"3.068433376","8.09","2","bulb","word","92.85714285714286","92.85714285714286","897.5714285714286","897.5714285714286","black","no","legacy","legacy","legacy","0","uniform","1","undefined","undefined","undefined","1","j","0","0","0","0","13","0","0","0","13","NA","9","13","9","0","9","3","13","0","13","Fri Feb 19 14:27:39 2021","The main experiment item","yes","Lexical_Decision_Task.osexp","C:/Users/Eleanor/OneDrive/Research Methods","no","Andale Mono","no","18","no","white","no","yes","576","legacy","9","9","3","C:/Users/Eleanor/OneDrive/Research Methods/subject-5211278.csv","legacy","Lentiform Loewenfeld","3.3.8","yes","yes","600bd7cfb6416f0113b04181","602110864497cf011d9c0822","0","j","NA","j","j","j","NA","j","643","NA","5409","8665","7622","NA","643","2","legacy","1024","2","48000","-16","task","5211278","even","NA","38638","46049","40640","65031","13328","29617","21995","65533","NA","65029","65533","64954","46049","66177","36815","64454","13326","59969","Lexical Decision Task","13","12566","14","yes","1024"
"3.443783828","7.65","3","verb","word","93.33333333333333","93.33333333333333","889.1333333333333","889.1333333333333","black","no","legacy","legacy","legacy","0","uniform","1","undefined","undefined","undefined","1","j","0","0","0","0","14","0","0","0","14","NA","10","14","10","0","10","3","14","0","14","Fri Feb 19 14:27:39 2021","The main experiment item","yes","Lexical_Decision_Task.osexp","C:/Users/Eleanor/OneDrive/Research Methods","no","Andale Mono","no","18","no","white","no","yes","576","legacy","10","10","3","C:/Users/Eleanor/OneDrive/Research Methods/subject-5211278.csv","legacy","Lentiform Loewenfeld","3.3.8","yes","yes","600bd7cfb6416f0113b04181","602110864497cf011d9c0822","0","j","NA","j","j","j","NA","j","771","NA","5409","8665","7622","NA","771","2","legacy","1024","2","48000","-16","task","5211278","even","NA","38638","46049","40640","66783","13328","29617","21995","67285","NA","66781","67285","66702","46049","68056","36815","66202","13326","59969","Lexical Decision Task","14","13337","15","yes","1024"
"3.132473155","0","4","glim","non-word","93.75","93.75","890.625","890.625","black","no","legacy","legacy","legacy","0","uniform","1","undefined","undefined","undefined","1","f","0","0","0","0","15","0","0","0","15","NA","11","15","11","0","11","3","15","0","15","Fri Feb 19 14:27:39 2021","The main experiment item","yes","Lexical_Decision_Task.osexp","C:/Users/Eleanor/OneDrive/Research Methods","no","Andale Mono","no","18","no","white","no","yes","576","legacy","11","11","3","C:/Users/Eleanor/OneDrive/Research Methods/subject-5211278.csv","legacy","Lentiform Loewenfeld","3.3.8","yes","yes","600bd7cfb6416f0113b04181","602110864497cf011d9c0822","0","f","NA","j","j","j","NA","f","913","NA","5409","8665","7622","NA","913","2","legacy","1024","2","48000","-16","task","5211278","even","NA","38638","46049","40640","68658","13328","29617","21995","69160","NA","68657","69160","68582","46049","70073","36815","68082","13326","59969","Lexical Decision Task","15","14250","16","yes","1024"
"3.382617311","0","4","pret","non-word","88.23529411764706","88.23529411764706","911","911","black","no","legacy","legacy","legacy","0","uniform","0","undefined","undefined","undefined","0","f","0","0","0","0","16","0","0","0","16","NA","12","16","12","0","12","3","16","0","16","Fri Feb 19 14:27:39 2021","The main experiment item","yes","Lexical_Decision_Task.osexp","C:/Users/Eleanor/OneDrive/Research Methods","no","Andale Mono","no","18","no","white","no","yes","576","legacy","12","12","3","C:/Users/Eleanor/OneDrive/Research Methods/subject-5211278.csv","legacy","Lentiform Loewenfeld","3.3.8","yes","yes","600bd7cfb6416f0113b04181","602110864497cf011d9c0822","0","j","NA","j","j","j","NA","j","1237","NA","5409","8665","7622","NA","1237","2","legacy","1024","2","48000","-16","task","5211278","even","NA","38638","46049","40640","70685","13328","29617","21995","71187","NA","70683","71187","70599","46049","72424","36815","70099","13326","59969","Lexical Decision Task","15","15487","17","yes","1024"
"3.067070856","9.39","3","loud","word","88.88888888888889","88.88888888888889","902.1111111111111","902.1111111111111","black","no","legacy","legacy","legacy","0","uniform","1","undefined","undefined","undefined","1","j","0","0","0","0","17","0","0","0","17","NA","13","17","13","0","13","3","17","0","17","Fri Feb 19 14:27:39 2021","The main experiment item","yes","Lexical_Decision_Task.osexp","C:/Users/Eleanor/OneDrive/Research Methods","no","Andale Mono","no","18","no","white","no","yes","576","legacy","13","13","3","C:/Users/Eleanor/OneDrive/Research Methods/subject-5211278.csv","legacy","Lentiform Loewenfeld","3.3.8","yes","yes","600bd7cfb6416f0113b04181","602110864497cf011d9c0822","0","j","NA","j","j","j","NA","j","751","NA","5409","8665","7622","NA","751","2","legacy","1024","2","48000","-16","task","5211278","even","NA","38638","46049","40640","74027","13328","29617","21995","74529","NA","74026","74529","73948","46049","75280","36815","70099","13326","72448","Lexical Decision Task","16","16238","18","yes","1024"
"2.714888338","0","3","brug","non-word","89.47368421052632","89.47368421052632","898.6842105263158","898.6842105263158","black","no","legacy","legacy","legacy","0","uniform","1","undefined","undefined","undefined","1","f","0","0","0","0","18","0","0","0","18","NA","14","18","14","0","14","3","18","0","18","Fri Feb 19 14:27:39 2021","The main experiment item","yes","Lexical_Decision_Task.osexp","C:/Users/Eleanor/OneDrive/Research Methods","no","Andale Mono","no","18","no","white","no","yes","576","legacy","14","14","3","C:/Users/Eleanor/OneDrive/Research Methods/subject-5211278.csv","legacy","Lentiform Loewenfeld","3.3.8","yes","yes","600bd7cfb6416f0113b04181","602110864497cf011d9c0822","0","f","NA","j","j","j","NA","f","837","NA","5409","8665","7622","NA","837","2","legacy","1024","2","48000","-16","task","5211278","even","NA","38638","46049","40640","75885","13328","29617","21995","76387","NA","75883","76387","75806","46049","77224","36815","75306","13326","72448","Lexical Decision Task","17","17075","19","yes","1024"
"2.746890964","9.67","3","plug","word","90","90","885.4","885.4","black","no","legacy","legacy","legacy","0","uniform","1","undefined","undefined","undefined","1","j","0","0","0","0","19","0","0","0","19","NA","15","19","15","0","15","3","19","0","19","Fri Feb 19 14:27:39 2021","The main experiment item","yes","Lexical_Decision_Task.osexp","C:/Users/Eleanor/OneDrive/Research Methods","no","Andale Mono","no","18","no","white","no","yes","576","legacy","15","15","3","C:/Users/Eleanor/OneDrive/Research Methods/subject-5211278.csv","legacy","Lentiform Loewenfeld","3.3.8","yes","yes","600bd7cfb6416f0113b04181","602110864497cf011d9c0822","0","j","NA","j","j","j","NA","j","633","NA","5409","8665","7622","NA","633","2","legacy","1024","2","48000","-16","task","5211278","even","NA","38638","46049","40640","77833","13328","29617","21995","78335","NA","77831","78335","77753","46049","78968","36815","77253","13326","72448","Lexical Decision Task","18","17708","20","yes","1024"
"2.858136002","0","4","phip","non-word","90.47619047619048","90.47619047619048","877.7142857142857","877.7142857142857","black","no","legacy","legacy","legacy","0","uniform","1","undefined","undefined","undefined","1","f","0","0","0","0","20","0","0","0","20","NA","16","20","16","0","16","3","20","0","20","Fri Feb 19 14:27:39 2021","The main experiment item","yes","Lexical_Decision_Task.osexp","C:/Users/Eleanor/OneDrive/Research Methods","no","Andale Mono","no","18","no","white","no","yes","576","legacy","16","16","3","C:/Users/Eleanor/OneDrive/Research Methods/subject-5211278.csv","legacy","Lentiform Loewenfeld","3.3.8","yes","yes","600bd7cfb6416f0113b04181","602110864497cf011d9c0822","0","f","NA","j","j","j","NA","f","724","NA","5409","8665","7622","NA","724","2","legacy","1024","2","48000","-16","task","5211278","even","NA","38638","46049","40640","79582","13328","29617","21995","80084","NA","79580","80084","79493","46049","80809","36815","78993","13326","72448","Lexical Decision Task","19","18432","21","yes","1024"
"2.814027728","8.2","4","foam","word","90.9090909090909","90.9090909090909","864.9545454545455","864.9545454545455","black","no","legacy","legacy","legacy","0","uniform","1","undefined","undefined","undefined","1","j","0","0","0","0","21","0","0","0","21","NA","17","21","17","0","17","3","21","0","21","Fri Feb 19 14:27:39 2021","The main experiment item","yes","Lexical_Decision_Task.osexp","C:/Users/Eleanor/OneDrive/Research Methods","no","Andale Mono","no","18","no","white","no","yes","576","legacy","17","17","3","C:/Users/Eleanor/OneDrive/Research Methods/subject-5211278.csv","legacy","Lentiform Loewenfeld","3.3.8","yes","yes","600bd7cfb6416f0113b04181","602110864497cf011d9c0822","0","j","NA","j","j","j","NA","j","597","NA","5409","8665","7622","NA","597","2","legacy","1024","2","48000","-16","task","5211278","even","NA","38638","46049","40640","81405","13328","29617","21995","81907","NA","81404","81907","81332","46049","82505","36815","80832","13326","72448","Lexical Decision Task","20","19029","22","yes","1024"
"2.68604012","0","3","mulb","non-word","91.30434782608695","91.30434782608695","857.0869565217391","857.0869565217391","black","no","legacy","legacy","legacy","0","uniform","1","undefined","undefined","undefined","1","f","0","0","0","0","22","0","0","0","22","NA","18","22","18","0","18","3","22","0","22","Fri Feb 19 14:27:39 2021","The main experiment item","yes","Lexical_Decision_Task.osexp","C:/Users/Eleanor/OneDrive/Research Methods","no","Andale Mono","no","18","no","white","no","yes","576","legacy","18","18","3","C:/Users/Eleanor/OneDrive/Research Methods/subject-5211278.csv","legacy","Lentiform Loewenfeld","3.3.8","yes","yes","600bd7cfb6416f0113b04181","602110864497cf011d9c0822","0","f","NA","j","j","j","NA","f","684","NA","5409","8665","7622","NA","684","2","legacy","1024","2","48000","-16","task","5211278","even","NA","38638","46049","40640","83102","13328","29617","21995","83604","NA","83101","83604","83023","46049","84288","36815","82523","13326","72448","Lexical Decision Task","21","19713","23","yes","1024"
"3.062080345","0","6","tomp","non-word","91.66666666666667","91.66666666666667","853.6666666666666","853.6666666666666","black","no","legacy","legacy","legacy","0","uniform","1","undefined","undefined","undefined","1","f","0","0","0","0","23","0","0","0","23","NA","19","23","19","0","19","3","23","0","23","Fri Feb 19 14:27:39 2021","The main experiment item","yes","Lexical_Decision_Task.osexp","C:/Users/Eleanor/OneDrive/Research Methods","no","Andale Mono","no","18","no","white","no","yes","576","legacy","19","19","3","C:/Users/Eleanor/OneDrive/Research Methods/subject-5211278.csv","legacy","Lentiform Loewenfeld","3.3.8","yes","yes","600bd7cfb6416f0113b04181","602110864497cf011d9c0822","0","f","NA","j","j","j","NA","f","775","NA","5409","8665","7622","NA","775","2","legacy","1024","2","48000","-16","task","5211278","even","NA","38638","46049","40640","84891","13328","29617","21995","85393","NA","84889","85393","84815","46049","86168","36815","84315","13326","72448","Lexical Decision Task","22","20488","24","yes","1024"
"3.102203805","7.21","3","drip","word","92","92","845.64","845.64","black","no","legacy","legacy","legacy","0","uniform","1","undefined","undefined","undefined","1","j","0","0","0","0","24","0","0","0","24","NA","20","24","20","0","20","3","24","0","24","Fri Feb 19 14:27:39 2021","The main experiment item","yes","Lexical_Decision_Task.osexp","C:/Users/Eleanor/OneDrive/Research Methods","no","Andale Mono","no","18","no","white","no","yes","576","legacy","20","20","3","C:/Users/Eleanor/OneDrive/Research Methods/subject-5211278.csv","legacy","Lentiform Loewenfeld","3.3.8","yes","yes","600bd7cfb6416f0113b04181","602110864497cf011d9c0822","0","j","NA","j","j","j","NA","j","653","NA","5409","8665","7622","NA","653","2","legacy","1024","2","48000","-16","task","5211278","even","NA","38638","46049","40640","86772","13328","29617","21995","87274","NA","86770","87274","86694","46049","87928","36815","86194","13326","72448","Lexical Decision Task","23","21141","25","yes","1024"
"2.971428938","9.86","7","spot","word","92.3076923076923","92.3076923076923","837","837","black","no","legacy","legacy","legacy","0","uniform","1","undefined","undefined","undefined","1","j","0","0","0","0","25","0","0","0","25","NA","21","25","21","0","21","3","25","0","25","Fri Feb 19 14:27:39 2021","The main experiment item","yes","Lexical_Decision_Task.osexp","C:/Users/Eleanor/OneDrive/Research Methods","no","Andale Mono","no","18","no","white","no","yes","576","legacy","21","21","3","C:/Users/Eleanor/OneDrive/Research Methods/subject-5211278.csv","legacy","Lentiform Loewenfeld","3.3.8","yes","yes","600bd7cfb6416f0113b04181","602110864497cf011d9c0822","0","j","NA","j","j","j","NA","j","621","NA","5409","8665","7622","NA","621","2","legacy","1024","2","48000","-16","task","5211278","even","NA","38638","46049","40640","88533","13328","29617","21995","89035","NA","88531","89035","88451","46049","89657","36815","87951","13326","72448","Lexical Decision Task","24","21762","26","yes","1024"
"2.703007489","8.37","3","pulp","word","92.5925925925926","92.5925925925926","832.1111111111111","832.1111111111111","black","no","legacy","legacy","legacy","0","uniform","1","undefined","undefined","undefined","1","j","0","0","0","0","26","0","0","0","26","NA","22","26","22","0","22","3","26","0","26","Fri Feb 19 14:27:39 2021","The main experiment item","yes","Lexical_Decision_Task.osexp","C:/Users/Eleanor/OneDrive/Research Methods","no","Andale Mono","no","18","no","white","no","yes","576","legacy","22","22","3","C:/Users/Eleanor/OneDrive/Research Methods/subject-5211278.csv","legacy","Lentiform Loewenfeld","3.3.8","yes","yes","600bd7cfb6416f0113b04181","602110864497cf011d9c0822","0","j","NA","j","j","j","NA","j","705","NA","5409","8665","7622","NA","705","2","legacy","1024","2","48000","-16","task","5211278","even","NA","38638","46049","40640","90257","13328","29617","21995","90759","NA","90255","90759","90182","46049","91465","36815","89682","13326","72448","Lexical Decision Task","25","22467","27","yes","1024"
"2.819763221","0","2","durp","non-word","92.85714285714286","92.85714285714286","823.1071428571429","823.1071428571429","black","no","legacy","legacy","legacy","0","uniform","1","undefined","undefined","undefined","1","f","0","0","0","0","27","0","0","0","27","NA","23","27","23","0","23","3","27","0","27","Fri Feb 19 14:27:39 2021","The main experiment item","yes","Lexical_Decision_Task.osexp","C:/Users/Eleanor/OneDrive/Research Methods","no","Andale Mono","no","18","no","white","no","yes","576","legacy","23","23","3","C:/Users/Eleanor/OneDrive/Research Methods/subject-5211278.csv","legacy","Lentiform Loewenfeld","3.3.8","yes","yes","600bd7cfb6416f0113b04181","602110864497cf011d9c0822","0","f","NA","j","j","j","NA","f","580","NA","5409","8665","7622","NA","580","2","legacy","1024","2","48000","-16","task","5211278","even","NA","38638","46049","40640","92070","13328","29617","21995","92572","NA","92069","92572","91990","46049","93152","36815","91490","13326","72448","Lexical Decision Task","26","23047","28","yes","1024"
"2.709837904","6.85","8","skim","word","93.10344827586206","93.10344827586206","825.3103448275862","825.3103448275862","black","no","legacy","legacy","legacy","0","uniform","1","undefined","undefined","undefined","1","j","0","0","0","0","28","0","0","0","28","NA","24","28","24","0","24","3","28","0","28","Fri Feb 19 14:27:39 2021","The main experiment item","yes","Lexical_Decision_Task.osexp","C:/Users/Eleanor/OneDrive/Research Methods","no","Andale Mono","no","18","no","white","no","yes","576","legacy","24","24","3","C:/Users/Eleanor/OneDrive/Research Methods/subject-5211278.csv","legacy","Lentiform Loewenfeld","3.3.8","yes","yes","600bd7cfb6416f0113b04181","602110864497cf011d9c0822","0","j","NA","j","j","j","NA","j","887","NA","5409","8665","7622","NA","887","2","legacy","1024","2","48000","-16","task","5211278","even","NA","38638","46049","40640","93746","13328","29617","21995","94248","NA","93744","94248","93673","46049","95136","36815","93173","13326","72448","Lexical Decision Task","27","23934","29","yes","1024"
"3.165936429","0","7","leps","non-word","93.33333333333333","93.33333333333333","823.4333333333333","823.4333333333333","black","no","legacy","legacy","legacy","0","uniform","1","undefined","undefined","undefined","1","f","0","0","0","0","29","0","0","0","29","NA","25","29","25","0","25","3","29","0","29","Fri Feb 19 14:27:39 2021","The main experiment item","yes","Lexical_Decision_Task.osexp","C:/Users/Eleanor/OneDrive/Research Methods","no","Andale Mono","no","18","no","white","no","yes","576","legacy","25","25","3","C:/Users/Eleanor/OneDrive/Research Methods/subject-5211278.csv","legacy","Lentiform Loewenfeld","3.3.8","yes","yes","600bd7cfb6416f0113b04181","602110864497cf011d9c0822","0","f","NA","j","j","j","NA","f","769","NA","5409","8665","7622","NA","769","2","legacy","1024","2","48000","-16","task","5211278","even","NA","38638","46049","40640","95736","13328","29617","21995","96238","NA","95734","96238","95656","46049","97008","36815","95156","13326","72448","Lexical Decision Task","28","24703","30","yes","1024"
"3.174641193","0","3","ramb","non-word","93.54838709677419","93.54838709677419","827","827","black","no","legacy","legacy","legacy","0","uniform","1","undefined","undefined","undefined","1","f","0","0","0","0","30","0","0","0","30","NA","26","30","26","0","26","3","30","0","30","Fri Feb 19 14:27:39 2021","The main experiment item","yes","Lexical_Decision_Task.osexp","C:/Users/Eleanor/OneDrive/Research Methods","no","Andale Mono","no","18","no","white","no","yes","576","legacy","26","26","3","C:/Users/Eleanor/OneDrive/Research Methods/subject-5211278.csv","legacy","Lentiform Loewenfeld","3.3.8","yes","yes","600bd7cfb6416f0113b04181","602110864497cf011d9c0822","0","f","NA","j","j","j","NA","f","934","NA","5409","8665","7622","NA","934","2","legacy","1024","2","48000","-16","task","5211278","even","NA","38638","46049","40640","97612","13328","29617","21995","98114","NA","97610","98114","97534","46049","99049","36815","97034","13326","72448","Lexical Decision Task","29","25637","31","yes","1024"
"2.880623071","0","9","curp","non-word","93.75","93.75","825.5625","825.5625","black","no","legacy","legacy","legacy","0","uniform","1","undefined","undefined","undefined","1","f","0","0","0","0","31","0","0","0","31","NA","27","31","27","0","27","3","31","0","31","Fri Feb 19 14:27:39 2021","The main experiment item","yes","Lexical_Decision_Task.osexp","C:/Users/Eleanor/OneDrive/Research Methods","no","Andale Mono","no","18","no","white","no","yes","576","legacy","27","27","3","C:/Users/Eleanor/OneDrive/Research Methods/subject-5211278.csv","legacy","Lentiform Loewenfeld","3.3.8","yes","yes","600bd7cfb6416f0113b04181","602110864497cf011d9c0822","0","f","NA","j","j","j","NA","f","781","NA","5409","8665","7622","NA","781","2","legacy","1024","2","48000","-16","task","5211278","even","NA","38638","46049","40640","99669","13328","29617","21995","100171","NA","99667","100171","99592","46049","100952","36815","99092","13326","72448","Lexical Decision Task","30","26418","32","yes","1024"
"2.794720352","0","9","koot","non-word","93.93939393939394","93.93939393939394","856.060606060606","856.060606060606","black","no","legacy","legacy","legacy","0","uniform","1","undefined","undefined","undefined","1","f","0","0","0","0","32","0","0","0","32","NA","28","32","28","0","28","3","32","0","32","Fri Feb 19 14:27:39 2021","The main experiment item","yes","Lexical_Decision_Task.osexp","C:/Users/Eleanor/OneDrive/Research Methods","no","Andale Mono","no","18","no","white","no","yes","576","legacy","28","28","3","C:/Users/Eleanor/OneDrive/Research Methods/subject-5211278.csv","legacy","Lentiform Loewenfeld","3.3.8","yes","yes","600bd7cfb6416f0113b04181","602110864497cf011d9c0822","0","f","NA","j","j","j","NA","f","1832","NA","5409","8665","7622","NA","1832","2","legacy","1024","2","48000","-16","task","5211278","even","NA","38638","46049","40640","101554","13328","29617","21995","102056","NA","101552","102056","101476","46049","103888","36815","100976","13326","72448","Lexical Decision Task","31","28250","33","yes","1024"
"3.003891166","8.05","2","frog","word","94.11764705882354","94.11764705882354","852.9411764705883","852.9411764705883","black","no","legacy","legacy","legacy","0","uniform","1","undefined","undefined","undefined","1","j","0","0","0","0","33","0","0","0","33","NA","29","33","29","0","29","3","33","0","33","Fri Feb 19 14:27:39 2021","The main experiment item","yes","Lexical_Decision_Task.osexp","C:/Users/Eleanor/OneDrive/Research Methods","no","Andale Mono","no","18","no","white","no","yes","576","legacy","29","29","3","C:/Users/Eleanor/OneDrive/Research Methods/subject-5211278.csv","legacy","Lentiform Loewenfeld","3.3.8","yes","yes","600bd7cfb6416f0113b04181","602110864497cf011d9c0822","0","j","NA","j","j","j","NA","j","750","NA","5409","8665","7622","NA","750","2","legacy","1024","2","48000","-16","task","5211278","even","NA","38638","46049","40640","104521","13328","29617","21995","105024","NA","104520","105025","104443","46049","105776","36815","103943","13326","72448","Lexical Decision Task","32","29000","34","yes","1024"
"3.374137706","10.21","4","tree","word","94.28571428571429","94.28571428571429","845.2571428571429","845.2571428571429","black","no","legacy","legacy","legacy","0","uniform","1","undefined","undefined","undefined","1","j","0","0","0","0","34","0","0","0","34","NA","30","34","30","0","30","3","34","0","34","Fri Feb 19 14:27:39 2021","The main experiment item","yes","Lexical_Decision_Task.osexp","C:/Users/Eleanor/OneDrive/Research Methods","no","Andale Mono","no","18","no","white","no","yes","576","legacy","30","30","3","C:/Users/Eleanor/OneDrive/Research Methods/subject-5211278.csv","legacy","Lentiform Loewenfeld","3.3.8","yes","yes","600bd7cfb6416f0113b04181","602110864497cf011d9c0822","0","j","NA","j","j","j","NA","j","584","NA","5409","8665","7622","NA","584","2","legacy","1024","2","48000","-16","task","5211278","even","NA","38638","46049","40640","106393","13328","29617","21995","106895","NA","106391","106895","106301","46049","107480","36815","105800","13326","72448","Lexical Decision Task","33","29584","35","yes","1024"
"2.920123326","7.43","4","duel","word","94.44444444444444","94.44444444444444","839.4444444444445","839.4444444444445","black","no","legacy","legacy","legacy","0","uniform","1","undefined","undefined","undefined","1","j","0","0","0","0","35","0","0","0","35","NA","31","35","31","0","31","3","35","0","35","Fri Feb 19 14:27:39 2021","The main experiment item","yes","Lexical_Decision_Task.osexp","C:/Users/Eleanor/OneDrive/Research Methods","no","Andale Mono","no","18","no","white","no","yes","576","legacy","31","31","3","C:/Users/Eleanor/OneDrive/Research Methods/subject-5211278.csv","legacy","Lentiform Loewenfeld","3.3.8","yes","yes","600bd7cfb6416f0113b04181","602110864497cf011d9c0822","0","j","NA","j","j","j","NA","j","636","NA","5409","8665","7622","NA","636","2","legacy","1024","2","48000","-16","task","5211278","even","NA","38638","46049","40640","108093","13328","29617","21995","108595","NA","108091","108595","108014","46049","109232","36815","107513","13326","72448","Lexical Decision Task","34","30220","36","yes","1024"
"3.120025233","0","2","nyst","non-word","94.5945945945946","94.5945945945946","833.3513513513514","833.3513513513514","black","no","legacy","legacy","legacy","0","uniform","1","undefined","undefined","undefined","1","f","0","0","0","0","36","0","0","0","36","NA","32","36","32","0","32","3","36","0","36","Fri Feb 19 14:27:39 2021","The main experiment item","yes","Lexical_Decision_Task.osexp","C:/Users/Eleanor/OneDrive/Research Methods","no","Andale Mono","no","18","no","white","no","yes","576","legacy","32","32","3","C:/Users/Eleanor/OneDrive/Research Methods/subject-5211278.csv","legacy","Lentiform Loewenfeld","3.3.8","yes","yes","600bd7cfb6416f0113b04181","602110864497cf011d9c0822","0","f","NA","j","j","j","NA","f","614","NA","5409","8665","7622","NA","614","2","legacy","1024","2","48000","-16","task","5211278","even","NA","38638","46049","40640","109836","13328","29617","21995","110338","NA","109834","110338","109758","46049","110953","36815","109258","13326","72448","Lexical Decision Task","35","30834","37","yes","1024"
"2.664011697","8.19","4","hawk","word","94.73684210526316","94.73684210526316","828.6842105263158","828.6842105263158","black","no","legacy","legacy","legacy","0","uniform","1","undefined","undefined","undefined","1","j","0","0","0","0","37","0","0","0","37","NA","33","37","33","0","33","3","37","0","37","Fri Feb 19 14:27:39 2021","The main experiment item","yes","Lexical_Decision_Task.osexp","C:/Users/Eleanor/OneDrive/Research Methods","no","Andale Mono","no","18","no","white","no","yes","576","legacy","33","33","3","C:/Users/Eleanor/OneDrive/Research Methods/subject-5211278.csv","legacy","Lentiform Loewenfeld","3.3.8","yes","yes","600bd7cfb6416f0113b04181","602110864497cf011d9c0822","0","j","NA","j","j","j","NA","j","656","NA","5409","8665","7622","NA","656","2","legacy","1024","2","48000","-16","task","5211278","even","NA","38638","46049","40640","111563","13328","29617","21995","112064","NA","111561","112064","111480","46049","112720","36815","110980","13326","72448","Lexical Decision Task","36","31490","38","yes","1024"
"2.693726949","5.08","3","swig","word","92.3076923076923","92.3076923076923","829.974358974359","829.974358974359","black","no","legacy","legacy","legacy","0","uniform","0","undefined","undefined","undefined","0","j","0","0","0","0","38","0","0","0","38","NA","34","38","34","0","34","3","38","0","38","Fri Feb 19 14:27:39 2021","The main experiment item","yes","Lexical_Decision_Task.osexp","C:/Users/Eleanor/OneDrive/Research Methods","no","Andale Mono","no","18","no","white","no","yes","576","legacy","34","34","3","C:/Users/Eleanor/OneDrive/Research Methods/subject-5211278.csv","legacy","Lentiform Loewenfeld","3.3.8","yes","yes","600bd7cfb6416f0113b04181","602110864497cf011d9c0822","0","f","NA","j","j","j","NA","f","879","NA","5409","8665","7622","NA","879","2","legacy","1024","2","48000","-16","task","5211278","even","NA","38638","46049","40640","113322","13328","29617","21995","113824","NA","113320","113824","113246","46049","114704","36815","112746","13326","72448","Lexical Decision Task","36","32369","39","yes","1024"
"3.2757719","0","5","slea","non-word","92.5","92.5","834.2","834.2","black","no","legacy","legacy","legacy","0","uniform","1","undefined","undefined","undefined","1","f","0","0","0","0","39","0","0","0","39","NA","35","39","35","0","35","3","39","0","39","Fri Feb 19 14:27:39 2021","The main experiment item","yes","Lexical_Decision_Task.osexp","C:/Users/Eleanor/OneDrive/Research Methods","no","Andale Mono","no","18","no","white","no","yes","576","legacy","35","35","3","C:/Users/Eleanor/OneDrive/Research Methods/subject-5211278.csv","legacy","Lentiform Loewenfeld","3.3.8","yes","yes","600bd7cfb6416f0113b04181","602110864497cf011d9c0822","0","f","NA","j","j","j","NA","f","999","NA","5409","8665","7622","NA","999","2","legacy","1024","2","48000","-16","task","5211278","even","NA","38638","46049","40640","116314","13328","29617","21995","116816","NA","116312","116816","116242","46049","117816","36815","112746","13326","114742","Lexical Decision Task","37","33368","40","yes","1024"
"3.064581521","5.51","6","cask","word","90.2439024390244","90.2439024390244","847.0487804878048","847.0487804878048","black","no","legacy","legacy","legacy","0","uniform","0","undefined","undefined","undefined","0","j","0","0","0","0","40","0","0","0","40","NA","36","40","36","0","36","3","40","0","40","Fri Feb 19 14:27:39 2021","The main experiment item","yes","Lexical_Decision_Task.osexp","C:/Users/Eleanor/OneDrive/Research Methods","no","Andale Mono","no","18","no","white","no","yes","576","legacy","36","36","3","C:/Users/Eleanor/OneDrive/Research Methods/subject-5211278.csv","legacy","Lentiform Loewenfeld","3.3.8","yes","yes","600bd7cfb6416f0113b04181","602110864497cf011d9c0822","0","f","NA","j","j","j","NA","f","1361","NA","5409","8665","7622","NA","1361","2","legacy","1024","2","48000","-16","task","5211278","even","NA","38638","46049","40640","118417","13328","29617","21995","118919","NA","118415","118919","118338","46049","120280","36815","117837","13326","114742","Lexical Decision Task","37","34729","41","yes","1024"
"3.252447662","9.67","9","boat","word","90.47619047619048","90.47619047619048","840.7142857142857","840.7142857142857","black","no","legacy","legacy","legacy","0","uniform","1","undefined","undefined","undefined","1","j","0","0","0","0","41","0","0","0","41","NA","37","41","37","0","37","3","41","0","41","Fri Feb 19 14:27:39 2021","The main experiment item","yes","Lexical_Decision_Task.osexp","C:/Users/Eleanor/OneDrive/Research Methods","no","Andale Mono","no","18","no","white","no","yes","576","legacy","37","37","3","C:/Users/Eleanor/OneDrive/Research Methods/subject-5211278.csv","legacy","Lentiform Loewenfeld","3.3.8","yes","yes","600bd7cfb6416f0113b04181","602110864497cf011d9c0822","0","j","NA","j","j","j","NA","j","581","NA","5409","8665","7622","NA","581","2","legacy","1024","2","48000","-16","task","5211278","even","NA","38638","46049","40640","121886","13328","29617","21995","122387","NA","121884","122387","121804","46049","122968","36815","117837","13326","120304","Lexical Decision Task","38","35310","42","yes","1024"
"3.488597715","0","9","nain","non-word","90.69767441860465","90.69767441860465","837.3255813953489","837.3255813953489","black","no","legacy","legacy","legacy","0","uniform","1","undefined","undefined","undefined","1","f","0","0","0","0","42","0","0","0","42","NA","38","42","38","0","38","3","42","0","42","Fri Feb 19 14:27:39 2021","The main experiment item","yes","Lexical_Decision_Task.osexp","C:/Users/Eleanor/OneDrive/Research Methods","no","Andale Mono","no","18","no","white","no","yes","576","legacy","38","38","3","C:/Users/Eleanor/OneDrive/Research Methods/subject-5211278.csv","legacy","Lentiform Loewenfeld","3.3.8","yes","yes","600bd7cfb6416f0113b04181","602110864497cf011d9c0822","0","f","NA","j","j","j","NA","f","695","NA","5409","8665","7622","NA","695","2","legacy","1024","2","48000","-16","task","5211278","even","NA","38638","46049","40640","123571","13328","29617","21995","124073","NA","123569","124073","123492","46049","124768","36815","122992","13326","120304","Lexical Decision Task","39","36005","43","yes","1024"
"3.16326079","0","5","parg","non-word","90.9090909090909","90.9090909090909","835.6363636363636","835.6363636363636","black","no","legacy","legacy","legacy","0","uniform","1","undefined","undefined","undefined","1","f","0","0","0","0","43","0","0","0","43","NA","39","43","39","0","39","3","43","0","43","Fri Feb 19 14:27:39 2021","The main experiment item","yes","Lexical_Decision_Task.osexp","C:/Users/Eleanor/OneDrive/Research Methods","no","Andale Mono","no","18","no","white","no","yes","576","legacy","39","39","3","C:/Users/Eleanor/OneDrive/Research Methods/subject-5211278.csv","legacy","Lentiform Loewenfeld","3.3.8","yes","yes","600bd7cfb6416f0113b04181","602110864497cf011d9c0822","0","f","NA","j","j","j","NA","f","763","NA","5409","8665","7622","NA","763","2","legacy","1024","2","48000","-16","task","5211278","even","NA","38638","46049","40640","125374","13328","29617","21995","125876","NA","125372","125876","125296","46049","126640","36815","124796","13326","120304","Lexical Decision Task","40","36768","44","yes","1024"
"2.771097306","0","9","jold","non-word","91.11111111111111","91.11111111111111","833.6888888888889","833.6888888888889","black","no","legacy","legacy","legacy","0","uniform","1","undefined","undefined","undefined","1","f","0","0","0","0","44","0","0","0","44","NA","40","44","40","0","40","3","44","0","44","Fri Feb 19 14:27:39 2021","The main experiment item","yes","Lexical_Decision_Task.osexp","C:/Users/Eleanor/OneDrive/Research Methods","no","Andale Mono","no","18","no","white","no","yes","576","legacy","40","40","3","C:/Users/Eleanor/OneDrive/Research Methods/subject-5211278.csv","legacy","Lentiform Loewenfeld","3.3.8","yes","yes","600bd7cfb6416f0113b04181","602110864497cf011d9c0822","0","f","NA","j","j","j","NA","f","748","NA","5409","8665","7622","NA","748","2","legacy","1024","2","48000","-16","task","5211278","even","NA","38638","46049","40640","127246","13328","29617","21995","127747","NA","127244","127747","127166","46049","128496","36815","126666","13326","120304","Lexical Decision Task","41","37516","45","yes","1024"
"3.374198258","0","8","vist","non-word","89.1304347826087","89.1304347826087","834.695652173913","834.695652173913","black","no","legacy","legacy","legacy","0","uniform","0","undefined","undefined","undefined","0","f","0","0","0","0","45","0","0","0","45","NA","41","45","41","0","41","3","45","0","45","Fri Feb 19 14:27:39 2021","The main experiment item","yes","Lexical_Decision_Task.osexp","C:/Users/Eleanor/OneDrive/Research Methods","no","Andale Mono","no","18","no","white","no","yes","576","legacy","41","41","3","C:/Users/Eleanor/OneDrive/Research Methods/subject-5211278.csv","legacy","Lentiform Loewenfeld","3.3.8","yes","yes","600bd7cfb6416f0113b04181","602110864497cf011d9c0822","0","j","NA","j","j","j","NA","j","880","NA","5409","8665","7622","NA","880","2","legacy","1024","2","48000","-16","task","5211278","even","NA","38638","46049","40640","129098","13328","29617","21995","129600","NA","129096","129600","129020","46049","130480","36815","128520","13326","120304","Lexical Decision Task","41","38396","46","yes","1024"
"2.67699827","0","6","hulf","non-word","89.36170212765957","89.36170212765957","832.8510638297872","832.8510638297872","black","no","legacy","legacy","legacy","0","uniform","1","undefined","undefined","undefined","1","f","0","0","0","0","46","0","0","0","46","NA","42","46","42","0","42","3","46","0","46","Fri Feb 19 14:27:39 2021","The main experiment item","yes","Lexical_Decision_Task.osexp","C:/Users/Eleanor/OneDrive/Research Methods","no","Andale Mono","no","18","no","white","no","yes","576","legacy","42","42","3","C:/Users/Eleanor/OneDrive/Research Methods/subject-5211278.csv","legacy","Lentiform Loewenfeld","3.3.8","yes","yes","600bd7cfb6416f0113b04181","602110864497cf011d9c0822","0","f","NA","j","j","j","NA","f","748","NA","5409","8665","7622","NA","748","2","legacy","1024","2","48000","-16","task","5211278","even","NA","38638","46049","40640","132086","13328","29617","21995","132587","NA","132084","132587","132004","46049","133336","36815","128520","13326","130504","Lexical Decision Task","42","39144","47","yes","1024"
"3.119255889","6.63","2","itch","word","89.58333333333333","89.58333333333333","827.8125","827.8125","black","no","legacy","legacy","legacy","0","uniform","1","undefined","undefined","undefined","1","j","0","0","0","0","47","0","0","0","47","NA","43","47","43","0","43","3","47","0","47","Fri Feb 19 14:27:39 2021","The main experiment item","yes","Lexical_Decision_Task.osexp","C:/Users/Eleanor/OneDrive/Research Methods","no","Andale Mono","no","18","no","white","no","yes","576","legacy","43","43","3","C:/Users/Eleanor/OneDrive/Research Methods/subject-5211278.csv","legacy","Lentiform Loewenfeld","3.3.8","yes","yes","600bd7cfb6416f0113b04181","602110864497cf011d9c0822","0","j","NA","j","j","j","NA","j","591","NA","5409","8665","7622","NA","591","2","legacy","1024","2","48000","-16","task","5211278","even","NA","38638","46049","40640","133929","13328","29617","21995","134432","NA","133928","134432","133853","46049","135024","36815","133353","13326","130504","Lexical Decision Task","43","39735","48","yes","1024"
"3.049218023","7.4","9","robe","word","89.79591836734694","89.79591836734694","824.0612244897959","824.0612244897959","black","no","legacy","legacy","legacy","0","uniform","1","undefined","undefined","undefined","1","j","0","0","0","0","48","0","0","0","48","NA","44","48","44","0","44","3","48","0","48","Fri Feb 19 14:27:39 2021","The main experiment item","yes","Lexical_Decision_Task.osexp","C:/Users/Eleanor/OneDrive/Research Methods","no","Andale Mono","no","18","no","white","no","yes","576","legacy","44","44","3","C:/Users/Eleanor/OneDrive/Research Methods/subject-5211278.csv","legacy","Lentiform Loewenfeld","3.3.8","yes","yes","600bd7cfb6416f0113b04181","602110864497cf011d9c0822","0","j","NA","j","j","j","NA","j","644","NA","5409","8665","7622","NA","644","2","legacy","1024","2","48000","-16","task","5211278","even","NA","38638","46049","40640","135621","13328","29617","21995","136123","NA","135620","136123","135545","46049","136768","36815","135045","13326","130504","Lexical Decision Task","44","40379","49","yes","1024"
"2.980911938","7.15","7","hoop","word","90","90","820.78","820.78","black","no","legacy","legacy","legacy","0","uniform","1","undefined","undefined","undefined","1","j","0","0","0","0","49","0","0","0","49","NA","45","49","45","0","45","3","49","0","49","Fri Feb 19 14:27:39 2021","The main experiment item","yes","Lexical_Decision_Task.osexp","C:/Users/Eleanor/OneDrive/Research Methods","no","Andale Mono","no","18","no","white","no","yes","576","legacy","45","45","3","C:/Users/Eleanor/OneDrive/Research Methods/subject-5211278.csv","legacy","Lentiform Loewenfeld","3.3.8","yes","yes","600bd7cfb6416f0113b04181","602110864497cf011d9c0822","0","j","NA","j","j","j","NA","j","660","NA","5409","8665","7622","NA","660","2","legacy","1024","2","48000","-16","task","5211278","even","NA","38638","46049","40640","137374","13328","29617","21995","137876","NA","137372","137876","137295","46049","138536","36815","136795","13326","130504","Lexical Decision Task","45","41039","50","yes","1024"
"2.8162413","0","5","nusk","non-word","90.19607843137256","90.19607843137256","817.2156862745098","817.2156862745098","black","no","legacy","legacy","legacy","0","uniform","1","undefined","undefined","undefined","1","f","0","0","0","0","50","0","0","0","50","NA","46","50","46","0","46","3","50","0","50","Fri Feb 19 14:27:39 2021","The main experiment item","yes","Lexical_Decision_Task.osexp","C:/Users/Eleanor/OneDrive/Research Methods","no","Andale Mono","no","18","no","white","no","yes","576","legacy","46","46","3","C:/Users/Eleanor/OneDrive/Research Methods/subject-5211278.csv","legacy","Lentiform Loewenfeld","3.3.8","yes","yes","600bd7cfb6416f0113b04181","602110864497cf011d9c0822","0","f","NA","j","j","j","NA","f","639","NA","5409","8665","7622","NA","639","2","legacy","1024","2","48000","-16","task","5211278","even","NA","38638","46049","40640","139139","13328","29617","21995","139641","NA","139138","139641","139059","46049","140280","36815","138559","13326","130504","Lexical Decision Task","46","41678","51","yes","1024"
"3.077974404","10.41","8","tool","word","90.38461538461539","90.38461538461539","812.7884615384615","812.7884615384615","black","no","legacy","legacy","legacy","0","uniform","1","undefined","undefined","undefined","1","j","0","0","0","0","51","0","0","0","51","NA","47","51","47","0","47","3","51","0","51","Fri Feb 19 14:27:39 2021","The main experiment item","yes","Lexical_Decision_Task.osexp","C:/Users/Eleanor/OneDrive/Research Methods","no","Andale Mono","no","18","no","white","no","yes","576","legacy","47","47","3","C:/Users/Eleanor/OneDrive/Research Methods/subject-5211278.csv","legacy","Lentiform Loewenfeld","3.3.8","yes","yes","600bd7cfb6416f0113b04181","602110864497cf011d9c0822","0","j","NA","j","j","j","NA","j","587","NA","5409","8665","7622","NA","587","2","legacy","1024","2","48000","-16","task","5211278","even","NA","38638","46049","40640","140878","13328","29617","21995","141380","NA","140876","141380","140804","46049","141968","36815","140304","13326","130504","Lexical Decision Task","47","42265","52","yes","1024"
"3.010582609","0","2","drod","non-word","90.56603773584905","90.56603773584905","808.1132075471698","808.1132075471698","black","no","legacy","legacy","legacy","0","uniform","1","undefined","undefined","undefined","1","f","0","0","0","0","52","0","0","0","52","NA","48","52","48","0","48","3","52","0","52","Fri Feb 19 14:27:39 2021","The main experiment item","yes","Lexical_Decision_Task.osexp","C:/Users/Eleanor/OneDrive/Research Methods","no","Andale Mono","no","18","no","white","no","yes","576","legacy","48","48","3","C:/Users/Eleanor/OneDrive/Research Methods/subject-5211278.csv","legacy","Lentiform Loewenfeld","3.3.8","yes","yes","600bd7cfb6416f0113b04181","602110864497cf011d9c0822","0","f","NA","j","j","j","NA","f","565","NA","5409","8665","7622","NA","565","2","legacy","1024","2","48000","-16","task","5211278","even","NA","38638","46049","40640","142572","13328","29617","21995","143074","NA","142570","143074","142495","46049","143640","36815","141995","13326","130504","Lexical Decision Task","48","42830","53","yes","1024"
"2.892836167","10.01","5","soft","word","90.74074074074075","90.74074074074075","803","803","black","no","legacy","legacy","legacy","0","uniform","1","undefined","undefined","undefined","1","j","0","0","0","0","53","0","0","0","53","NA","49","53","49","0","49","3","53","0","53","Fri Feb 19 14:27:39 2021","The main experiment item","yes","Lexical_Decision_Task.osexp","C:/Users/Eleanor/OneDrive/Research Methods","no","Andale Mono","no","18","no","white","no","yes","576","legacy","49","49","3","C:/Users/Eleanor/OneDrive/Research Methods/subject-5211278.csv","legacy","Lentiform Loewenfeld","3.3.8","yes","yes","600bd7cfb6416f0113b04181","602110864497cf011d9c0822","0","j","NA","j","j","j","NA","j","532","NA","5409","8665","7622","NA","532","2","legacy","1024","2","48000","-16","task","5211278","even","NA","38638","46049","40640","144245","13328","29617","21995","144747","NA","144243","144747","144165","46049","145280","36815","143665","13326","130504","Lexical Decision Task","49","43362","54","yes","1024"
"2.981215883","10.66","5","hair","word","90.9090909090909","90.9090909090909","802.4909090909091","802.4909090909091","black","no","legacy","legacy","legacy","0","uniform","1","undefined","undefined","undefined","1","j","0","0","0","0","54","0","0","0","54","0","50","54","50","0","50","3","54","0","54","Fri Feb 19 14:27:39 2021","The main experiment item","yes","Lexical_Decision_Task.osexp","C:/Users/Eleanor/OneDrive/Research Methods","no","Andale Mono","no","18","no","white","no","yes","576","legacy","50","50","3","C:/Users/Eleanor/OneDrive/Research Methods/subject-5211278.csv","legacy","Lentiform Loewenfeld","3.3.8","yes","yes","600bd7cfb6416f0113b04181","602110864497cf011d9c0822","0","j","NA","j","j","j","j","j","775","NA","5409","8665","7622","4942","775","2","legacy","1024","2","48000","-16","task","5211278","even","NA","38638","46049","40640","150858","13328","29617","21995","151360","145841","150856","151360","145803","46049","152136","36815","145303","13326","130504","Lexical Decision Task","50","44137","55","yes","1024"
"3.197740804","6.74","3","ache","word","91.07142857142857","91.07142857142857","800.8928571428571","800.8928571428571","black","no","legacy","legacy","legacy","0","uniform","1","undefined","undefined","undefined","1","j","0","0","0","0","55","0","0","0","55","0","51","55","51","0","51","3","55","0","55","Fri Feb 19 14:27:39 2021","The main experiment item","yes","Lexical_Decision_Task.osexp","C:/Users/Eleanor/OneDrive/Research Methods","no","Andale Mono","no","18","no","white","no","yes","576","legacy","51","51","3","C:/Users/Eleanor/OneDrive/Research Methods/subject-5211278.csv","legacy","Lentiform Loewenfeld","3.3.8","yes","yes","600bd7cfb6416f0113b04181","602110864497cf011d9c0822","0","j","NA","j","j","j","j","j","713","NA","5409","8665","7622","4942","713","2","legacy","1024","2","48000","-16","task","5211278","even","NA","38638","46049","40640","152743","13328","29617","21995","153246","145841","152742","153246","152662","46049","153960","36815","152162","13326","130504","Lexical Decision Task","51","44850","56","yes","1024"
"3.195807436","0","6","stup","non-word","91.2280701754386","91.2280701754386","800.0701754385965","800.0701754385965","black","no","legacy","legacy","legacy","0","uniform","1","undefined","undefined","undefined","1","f","0","0","0","0","56","0","0","0","56","0","52","56","52","0","52","3","56","0","56","Fri Feb 19 14:27:39 2021","The main experiment item","yes","Lexical_Decision_Task.osexp","C:/Users/Eleanor/OneDrive/Research Methods","no","Andale Mono","no","18","no","white","no","yes","576","legacy","52","52","3","C:/Users/Eleanor/OneDrive/Research Methods/subject-5211278.csv","legacy","Lentiform Loewenfeld","3.3.8","yes","yes","600bd7cfb6416f0113b04181","602110864497cf011d9c0822","0","f","NA","j","j","j","j","f","754","NA","5409","8665","7622","4942","754","2","legacy","1024","2","48000","-16","task","5211278","even","NA","38638","46049","40640","154558","13328","29617","21995","155061","145841","154557","155061","154478","46049","155816","36815","153978","13326","130504","Lexical Decision Task","52","45604","57","yes","1024"
"3.082307743","9.68","8","camp","word","91.37931034482759","91.37931034482759","800.6551724137931","800.6551724137931","black","no","legacy","legacy","legacy","0","uniform","1","undefined","undefined","undefined","1","j","0","0","0","0","57","0","0","0","57","0","53","57","53","0","53","3","57","0","57","Fri Feb 19 14:27:39 2021","The main experiment item","yes","Lexical_Decision_Task.osexp","C:/Users/Eleanor/OneDrive/Research Methods","no","Andale Mono","no","18","no","white","no","yes","576","legacy","53","53","3","C:/Users/Eleanor/OneDrive/Research Methods/subject-5211278.csv","legacy","Lentiform Loewenfeld","3.3.8","yes","yes","600bd7cfb6416f0113b04181","602110864497cf011d9c0822","0","j","NA","j","j","j","j","j","834","NA","5409","8665","7622","4942","834","2","legacy","1024","2","48000","-16","task","5211278","even","NA","38638","46049","40640","156423","13328","29617","21995","156925","145841","156422","156925","156342","46049","157760","36815","155842","13326","130504","Lexical Decision Task","53","46438","58","yes","1024"
"2.899638141","0","3","hapt","non-word","91.52542372881356","91.52542372881356","798.8644067796611","798.8644067796611","black","no","legacy","legacy","legacy","0","uniform","1","undefined","undefined","undefined","1","f","0","0","0","0","58","0","0","0","58","0","54","58","54","0","54","3","58","0","58","Fri Feb 19 14:27:39 2021","The main experiment item","yes","Lexical_Decision_Task.osexp","C:/Users/Eleanor/OneDrive/Research Methods","no","Andale Mono","no","18","no","white","no","yes","576","legacy","54","54","3","C:/Users/Eleanor/OneDrive/Research Methods/subject-5211278.csv","legacy","Lentiform Loewenfeld","3.3.8","yes","yes","600bd7cfb6416f0113b04181","602110864497cf011d9c0822","0","f","NA","j","j","j","j","f","695","NA","5409","8665","7622","4942","695","2","legacy","1024","2","48000","-16","task","5211278","even","NA","38638","46049","40640","158369","13328","29617","21995","158871","145841","158367","158871","158286","46049","159567","36815","157786","13326","130504","Lexical Decision Task","54","47133","59","yes","1024"
"2.782472624","10.55","2","huge","word","91.66666666666667","91.66666666666667","796.2","796.2","black","no","legacy","legacy","legacy","0","uniform","1","undefined","undefined","undefined","1","j","0","0","0","0","59","0","0","0","59","0","55","59","55","0","55","3","59","0","59","Fri Feb 19 14:27:39 2021","The main experiment item","yes","Lexical_Decision_Task.osexp","C:/Users/Eleanor/OneDrive/Research Methods","no","Andale Mono","no","18","no","white","no","yes","576","legacy","55","55","3","C:/Users/Eleanor/OneDrive/Research Methods/subject-5211278.csv","legacy","Lentiform Loewenfeld","3.3.8","yes","yes","600bd7cfb6416f0113b04181","602110864497cf011d9c0822","0","j","NA","j","j","j","j","j","639","NA","5409","8665","7622","4942","639","2","legacy","1024","2","48000","-16","task","5211278","even","NA","38638","46049","40640","160218","13328","29617","21995","160720","145841","160216","160720","160141","46049","161360","36815","159641","13326","130504","Lexical Decision Task","55","47772","60","yes","1024"
"3.307211407","6.07","7","honk","word","91.80327868852459","91.80327868852459","795.3770491803278","795.3770491803278","black","no","legacy","legacy","legacy","0","uniform","1","undefined","undefined","undefined","1","j","0","0","0","0","60","0","0","0","60","0","56","60","56","0","56","3","60","0","60","Fri Feb 19 14:27:39 2021","The main experiment item","yes","Lexical_Decision_Task.osexp","C:/Users/Eleanor/OneDrive/Research Methods","no","Andale Mono","no","18","no","white","no","yes","576","legacy","56","56","3","C:/Users/Eleanor/OneDrive/Research Methods/subject-5211278.csv","legacy","Lentiform Loewenfeld","3.3.8","yes","yes","600bd7cfb6416f0113b04181","602110864497cf011d9c0822","0","j","NA","j","j","j","j","j","746","NA","5409","8665","7622","4942","746","2","legacy","1024","2","48000","-16","task","5211278","even","NA","38638","46049","40640","161967","13328","29617","21995","162469","145841","161965","162469","161886","46049","163216","36815","161386","13326","130504","Lexical Decision Task","56","48518","61","yes","1024"
"2.875447132","0","9","jelt","non-word","91.93548387096774","91.93548387096774","792.241935483871","792.241935483871","black","no","legacy","legacy","legacy","0","uniform","1","undefined","undefined","undefined","1","f","0","0","0","0","61","0","0","0","61","0","57","61","57","0","57","3","61","0","61","Fri Feb 19 14:27:39 2021","The main experiment item","yes","Lexical_Decision_Task.osexp","C:/Users/Eleanor/OneDrive/Research Methods","no","Andale Mono","no","18","no","white","no","yes","576","legacy","57","57","3","C:/Users/Eleanor/OneDrive/Research Methods/subject-5211278.csv","legacy","Lentiform Loewenfeld","3.3.8","yes","yes","600bd7cfb6416f0113b04181","602110864497cf011d9c0822","0","f","NA","j","j","j","j","f","601","NA","5409","8665","7622","4942","601","2","legacy","1024","2","48000","-16","task","5211278","even","NA","38638","46049","40640","163816","13328","29617","21995","164318","145841","163815","164318","163741","46049","164920","36815","163241","13326","130504","Lexical Decision Task","57","49119","62","yes","1024"
"2.972357144","0","5","dasp","non-word","90.47619047619048","90.47619047619048","790.6984126984127","790.6984126984127","black","no","legacy","legacy","legacy","0","uniform","0","undefined","undefined","undefined","0","f","0","0","0","0","62","0","0","0","62","0","58","62","58","0","58","3","62","0","62","Fri Feb 19 14:27:39 2021","The main experiment item","yes","Lexical_Decision_Task.osexp","C:/Users/Eleanor/OneDrive/Research Methods","no","Andale Mono","no","18","no","white","no","yes","576","legacy","58","58","3","C:/Users/Eleanor/OneDrive/Research Methods/subject-5211278.csv","legacy","Lentiform Loewenfeld","3.3.8","yes","yes","600bd7cfb6416f0113b04181","602110864497cf011d9c0822","0","j","NA","j","j","j","j","j","695","NA","5409","8665","7622","4942","695","2","legacy","1024","2","48000","-16","task","5211278","even","NA","38638","46049","40640","165529","13328","29617","21995","166031","145841","165528","166031","165453","46049","166727","36815","164953","13326","130504","Lexical Decision Task","57","49814","63","yes","1024"
"2.813801082","5.47","7","nook","word","89.0625","89.0625","788.640625","788.640625","black","no","legacy","legacy","legacy","0","uniform","0","undefined","undefined","undefined","0","j","0","0","0","0","63","0","0","0","63","0","59","63","59","0","59","3","63","0","63","Fri Feb 19 14:27:39 2021","The main experiment item","yes","Lexical_Decision_Task.osexp","C:/Users/Eleanor/OneDrive/Research Methods","no","Andale Mono","no","18","no","white","no","yes","576","legacy","59","59","3","C:/Users/Eleanor/OneDrive/Research Methods/subject-5211278.csv","legacy","Lentiform Loewenfeld","3.3.8","yes","yes","600bd7cfb6416f0113b04181","602110864497cf011d9c0822","0","f","NA","j","j","j","j","f","659","NA","5409","8665","7622","4942","659","2","legacy","1024","2","48000","-16","task","5211278","even","NA","38638","46049","40640","168334","13328","29617","21995","168836","145841","168332","168836","168252","46049","169496","36815","164953","13326","166752","Lexical Decision Task","57","50473","64","yes","1024"
"2.937852093","0","7","bamp","non-word","89.23076923076923","89.23076923076923","789.5230769230769","789.5230769230769","black","no","legacy","legacy","legacy","0","uniform","1","undefined","undefined","undefined","1","f","0","0","0","0","64","0","0","0","64","0","60","64","60","0","60","3","64","0","64","Fri Feb 19 14:27:39 2021","The main experiment item","yes","Lexical_Decision_Task.osexp","C:/Users/Eleanor/OneDrive/Research Methods","no","Andale Mono","no","18","no","white","no","yes","576","legacy","60","60","3","C:/Users/Eleanor/OneDrive/Research Methods/subject-5211278.csv","legacy","Lentiform Loewenfeld","3.3.8","yes","yes","600bd7cfb6416f0113b04181","602110864497cf011d9c0822","0","f","NA","j","j","j","j","f","846","NA","5409","8665","7622","4942","846","2","legacy","1024","2","48000","-16","task","5211278","even","NA","38638","46049","40640","171115","13328","29617","21995","171617","145841","171113","171617","171031","46049","172464","36815","164953","13326","169531","Lexical Decision Task","58","51319","65","yes","1024"
"2.778633532","0","3","jurp","non-word","89.39393939393939","89.39393939393939","786.4848484848485","786.4848484848485","black","no","legacy","legacy","legacy","0","uniform","1","undefined","undefined","undefined","1","f","0","0","0","0","65","0","0","0","65","0","61","65","61","0","61","3","65","0","65","Fri Feb 19 14:27:39 2021","The main experiment item","yes","Lexical_Decision_Task.osexp","C:/Users/Eleanor/OneDrive/Research Methods","no","Andale Mono","no","18","no","white","no","yes","576","legacy","61","61","3","C:/Users/Eleanor/OneDrive/Research Methods/subject-5211278.csv","legacy","Lentiform Loewenfeld","3.3.8","yes","yes","600bd7cfb6416f0113b04181","602110864497cf011d9c0822","0","f","NA","j","j","j","j","f","589","NA","5409","8665","7622","4942","589","2","legacy","1024","2","48000","-16","task","5211278","even","NA","38638","46049","40640","173059","13328","29617","21995","173562","145841","173058","173562","172985","46049","174152","36815","172485","13326","169531","Lexical Decision Task","59","51908","66","yes","1024"
"3.225825991","0","7","talm","non-word","89.55223880597015","89.55223880597015","784.2985074626865","784.2985074626865","black","no","legacy","legacy","legacy","0","uniform","1","undefined","undefined","undefined","1","f","0","0","0","0","66","0","0","0","66","0","62","66","62","0","62","3","66","0","66","Fri Feb 19 14:27:39 2021","The main experiment item","yes","Lexical_Decision_Task.osexp","C:/Users/Eleanor/OneDrive/Research Methods","no","Andale Mono","no","18","no","white","no","yes","576","legacy","62","62","3","C:/Users/Eleanor/OneDrive/Research Methods/subject-5211278.csv","legacy","Lentiform Loewenfeld","3.3.8","yes","yes","600bd7cfb6416f0113b04181","602110864497cf011d9c0822","0","f","NA","j","j","j","j","f","640","NA","5409","8665","7622","4942","640","2","legacy","1024","2","48000","-16","task","5211278","even","NA","38638","46049","40640","174760","13328","29617","21995","175262","145841","174758","175262","174681","46049","175903","36815","174180","13326","169531","Lexical Decision Task","60","52548","67","yes","1024"
"3.218535505","7.85","7","goat","word","89.70588235294117","89.70588235294117","782.3382352941177","782.3382352941177","black","no","legacy","legacy","legacy","0","uniform","1","undefined","undefined","undefined","1","j","0","0","0","0","67","0","0","0","67","0","63","67","63","0","63","3","67","0","67","Fri Feb 19 14:27:39 2021","The main experiment item","yes","Lexical_Decision_Task.osexp","C:/Users/Eleanor/OneDrive/Research Methods","no","Andale Mono","no","18","no","white","no","yes","576","legacy","63","63","3","C:/Users/Eleanor/OneDrive/Research Methods/subject-5211278.csv","legacy","Lentiform Loewenfeld","3.3.8","yes","yes","600bd7cfb6416f0113b04181","602110864497cf011d9c0822","0","j","NA","j","j","j","j","j","651","NA","5409","8665","7622","4942","651","2","legacy","1024","2","48000","-16","task","5211278","even","NA","38638","46049","40640","176501","13328","29617","21995","177003","145841","176499","177003","176422","46049","177655","36815","175922","13326","169531","Lexical Decision Task","61","53199","68","yes","1024"
"3.363486562","6.93","9","lush","word","89.85507246376811","89.85507246376811","779.3913043478261","779.3913043478261","black","no","legacy","legacy","legacy","0","uniform","1","undefined","undefined","undefined","1","j","0","0","0","0","68","0","0","0","68","0","64","68","64","0","64","3","68","0","68","Fri Feb 19 14:27:39 2021","The main experiment item","yes","Lexical_Decision_Task.osexp","C:/Users/Eleanor/OneDrive/Research Methods","no","Andale Mono","no","18","no","white","no","yes","576","legacy","64","64","3","C:/Users/Eleanor/OneDrive/Research Methods/subject-5211278.csv","legacy","Lentiform Loewenfeld","3.3.8","yes","yes","600bd7cfb6416f0113b04181","602110864497cf011d9c0822","0","j","NA","j","j","j","j","j","579","NA","5409","8665","7622","4942","579","2","legacy","1024","2","48000","-16","task","5211278","even","NA","38638","46049","40640","178261","13328","29617","21995","178764","145841","178260","178764","178182","46049","179344","36815","177682","13326","169531","Lexical Decision Task","62","53778","69","yes","1024"
"3.067193647","6.73","6","raft","word","90","90","783.9428571428572","783.9428571428572","black","no","legacy","legacy","legacy","0","uniform","1","undefined","undefined","undefined","1","j","0","0","0","0","69","0","0","0","69","0","65","69","65","0","65","3","69","0","69","Fri Feb 19 14:27:39 2021","The main experiment item","yes","Lexical_Decision_Task.osexp","C:/Users/Eleanor/OneDrive/Research Methods","no","Andale Mono","no","18","no","white","no","yes","576","legacy","65","65","3","C:/Users/Eleanor/OneDrive/Research Methods/subject-5211278.csv","legacy","Lentiform Loewenfeld","3.3.8","yes","yes","600bd7cfb6416f0113b04181","602110864497cf011d9c0822","0","j","NA","j","j","j","j","j","1098","NA","5409","8665","7622","4942","1098","2","legacy","1024","2","48000","-16","task","5211278","even","NA","38638","46049","40640","179943","13328","29617","21995","180445","145841","179941","180445","179864","46049","181544","36815","179364","13326","169531","Lexical Decision Task","63","54876","70","yes","1024"
"3.15462682","0","6","noal","non-word","90.14084507042253","90.14084507042253","787.3943661971831","787.3943661971831","black","no","legacy","legacy","legacy","0","uniform","1","undefined","undefined","undefined","1","f","0","0","0","0","70","0","0","0","70","0","66","70","66","0","66","3","70","0","70","Fri Feb 19 14:27:39 2021","The main experiment item","yes","Lexical_Decision_Task.osexp","C:/Users/Eleanor/OneDrive/Research Methods","no","Andale Mono","no","18","no","white","no","yes","576","legacy","66","66","3","C:/Users/Eleanor/OneDrive/Research Methods/subject-5211278.csv","legacy","Lentiform Loewenfeld","3.3.8","yes","yes","600bd7cfb6416f0113b04181","602110864497cf011d9c0822","0","f","NA","j","j","j","j","f","1029","NA","5409","8665","7622","4942","1029","2","legacy","1024","2","48000","-16","task","5211278","even","NA","38638","46049","40640","182147","13328","29617","21995","182649","145841","182145","182649","182071","46049","183679","36815","181571","13326","169531","Lexical Decision Task","64","55905","71","yes","1024"
"3.133964479","0","8","graw","non-word","90.27777777777777","90.27777777777777","785.4583333333334","785.4583333333334","black","no","legacy","legacy","legacy","0","uniform","1","undefined","undefined","undefined","1","f","0","0","0","0","71","0","0","0","71","0","67","71","67","0","67","3","71","0","71","Fri Feb 19 14:27:39 2021","The main experiment item","yes","Lexical_Decision_Task.osexp","C:/Users/Eleanor/OneDrive/Research Methods","no","Andale Mono","no","18","no","white","no","yes","576","legacy","67","67","3","C:/Users/Eleanor/OneDrive/Research Methods/subject-5211278.csv","legacy","Lentiform Loewenfeld","3.3.8","yes","yes","600bd7cfb6416f0113b04181","602110864497cf011d9c0822","0","f","NA","j","j","j","j","f","648","NA","5409","8665","7622","4942","648","2","legacy","1024","2","48000","-16","task","5211278","even","NA","38638","46049","40640","184281","13328","29617","21995","184783","145841","184279","184783","184205","46049","185432","36815","183705","13326","169531","Lexical Decision Task","65","56553","72","yes","1024"
"3.353210739","0","9","reet","non-word","90.41095890410959","90.41095890410959","783.2328767123288","783.2328767123288","black","no","legacy","legacy","legacy","0","uniform","1","undefined","undefined","undefined","1","f","0","0","0","0","72","0","0","0","72","0","68","72","68","0","68","3","72","0","72","Fri Feb 19 14:27:39 2021","The main experiment item","yes","Lexical_Decision_Task.osexp","C:/Users/Eleanor/OneDrive/Research Methods","no","Andale Mono","no","18","no","white","no","yes","576","legacy","68","68","3","C:/Users/Eleanor/OneDrive/Research Methods/subject-5211278.csv","legacy","Lentiform Loewenfeld","3.3.8","yes","yes","600bd7cfb6416f0113b04181","602110864497cf011d9c0822","0","f","NA","j","j","j","j","f","623","NA","5409","8665","7622","4942","623","2","legacy","1024","2","48000","-16","task","5211278","even","NA","38638","46049","40640","186034","13328","29617","21995","186536","145841","186033","186536","185956","46049","187160","36815","185455","13326","169531","Lexical Decision Task","66","57176","73","yes","1024"
"2.972819734","0","4","scew","non-word","90.54054054054055","90.54054054054055","782.2162162162163","782.2162162162163","black","no","legacy","legacy","legacy","0","uniform","1","undefined","undefined","undefined","1","f","0","0","0","0","73","0","0","0","73","0","69","73","69","0","69","3","73","0","73","Fri Feb 19 14:27:39 2021","The main experiment item","yes","Lexical_Decision_Task.osexp","C:/Users/Eleanor/OneDrive/Research Methods","no","Andale Mono","no","18","no","white","no","yes","576","legacy","69","69","3","C:/Users/Eleanor/OneDrive/Research Methods/subject-5211278.csv","legacy","Lentiform Loewenfeld","3.3.8","yes","yes","600bd7cfb6416f0113b04181","602110864497cf011d9c0822","0","f","NA","j","j","j","j","f","708","NA","5409","8665","7622","4942","708","2","legacy","1024","2","48000","-16","task","5211278","even","NA","38638","46049","40640","187757","13328","29617","21995","188259","145841","187755","188259","187682","46049","188968","36815","187182","13326","169531","Lexical Decision Task","67","57884","74","yes","1024"
"2.845304797","0","6","buct","non-word","90.66666666666667","90.66666666666667","780.8666666666667","780.8666666666667","black","no","legacy","legacy","legacy","0","uniform","1","undefined","undefined","undefined","1","f","0","0","0","0","74","0","0","0","74","0","70","74","70","0","70","3","74","0","74","Fri Feb 19 14:27:39 2021","The main experiment item","yes","Lexical_Decision_Task.osexp","C:/Users/Eleanor/OneDrive/Research Methods","no","Andale Mono","no","18","no","white","no","yes","576","legacy","70","70","3","C:/Users/Eleanor/OneDrive/Research Methods/subject-5211278.csv","legacy","Lentiform Loewenfeld","3.3.8","yes","yes","600bd7cfb6416f0113b04181","602110864497cf011d9c0822","0","f","NA","j","j","j","j","f","681","NA","5409","8665","7622","4942","681","2","legacy","1024","2","48000","-16","task","5211278","even","NA","38638","46049","40640","189575","13328","29617","21995","190077","145841","189574","190077","189495","46049","190759","36815","188995","13326","169531","Lexical Decision Task","68","58565","75","yes","1024"
"3.028977705","0","7","frow","non-word","90.78947368421052","90.78947368421052","779.1184210526316","779.1184210526316","black","no","legacy","legacy","legacy","0","uniform","1","undefined","undefined","undefined","1","f","0","0","0","0","75","0","0","0","75","0","71","75","71","0","71","3","75","0","75","Fri Feb 19 14:27:39 2021","The main experiment item","yes","Lexical_Decision_Task.osexp","C:/Users/Eleanor/OneDrive/Research Methods","no","Andale Mono","no","18","no","white","no","yes","576","legacy","71","71","3","C:/Users/Eleanor/OneDrive/Research Methods/subject-5211278.csv","legacy","Lentiform Loewenfeld","3.3.8","yes","yes","600bd7cfb6416f0113b04181","602110864497cf011d9c0822","0","f","NA","j","j","j","j","f","648","NA","5409","8665","7622","4942","648","2","legacy","1024","2","48000","-16","task","5211278","even","NA","38638","46049","40640","191368","13328","29617","21995","191870","145841","191366","191870","191287","46049","192519","36815","190787","13326","169531","Lexical Decision Task","69","59213","76","yes","1024"
"3.149629599","0","2","cleb","non-word","90.9090909090909","90.9090909090909","778.0909090909091","778.0909090909091","black","no","legacy","legacy","legacy","0","uniform","1","undefined","undefined","undefined","1","f","0","0","0","0","76","0","0","0","76","0","72","76","72","0","72","3","76","0","76","Fri Feb 19 14:27:39 2021","The main experiment item","yes","Lexical_Decision_Task.osexp","C:/Users/Eleanor/OneDrive/Research Methods","no","Andale Mono","no","18","no","white","no","yes","576","legacy","72","72","3","C:/Users/Eleanor/OneDrive/Research Methods/subject-5211278.csv","legacy","Lentiform Loewenfeld","3.3.8","yes","yes","600bd7cfb6416f0113b04181","602110864497cf011d9c0822","0","f","NA","j","j","j","j","f","700","NA","5409","8665","7622","4942","700","2","legacy","1024","2","48000","-16","task","5211278","even","NA","38638","46049","40640","193125","13328","29617","21995","193627","145841","193123","193627","193046","46049","194328","36815","192546","13326","169531","Lexical Decision Task","70","59913","77","yes","1024"
"2.64476673","0","5","moft","non-word","91.02564102564102","91.02564102564102","776.8076923076923","776.8076923076923","black","no","legacy","legacy","legacy","0","uniform","1","undefined","undefined","undefined","1","f","0","0","0","0","77","0","0","0","77","0","73","77","73","0","73","3","77","0","77","Fri Feb 19 14:27:39 2021","The main experiment item","yes","Lexical_Decision_Task.osexp","C:/Users/Eleanor/OneDrive/Research Methods","no","Andale Mono","no","18","no","white","no","yes","576","legacy","73","73","3","C:/Users/Eleanor/OneDrive/Research Methods/subject-5211278.csv","legacy","Lentiform Loewenfeld","3.3.8","yes","yes","600bd7cfb6416f0113b04181","602110864497cf011d9c0822","0","f","NA","j","j","j","j","f","678","NA","5409","8665","7622","4942","678","2","legacy","1024","2","48000","-16","task","5211278","even","NA","38638","46049","40640","194931","13328","29617","21995","195433","145841","194929","195433","194855","46049","196112","36815","194355","13326","169531","Lexical Decision Task","71","60591","78","yes","1024"
"3.066077331","0","7","vorn","non-word","91.13924050632912","91.13924050632912","774.5316455696203","774.5316455696203","black","no","legacy","legacy","legacy","0","uniform","1","undefined","undefined","undefined","1","f","0","0","0","0","78","0","0","0","78","0","74","78","74","0","74","3","78","0","78","Fri Feb 19 14:27:39 2021","The main experiment item","yes","Lexical_Decision_Task.osexp","C:/Users/Eleanor/OneDrive/Research Methods","no","Andale Mono","no","18","no","white","no","yes","576","legacy","74","74","3","C:/Users/Eleanor/OneDrive/Research Methods/subject-5211278.csv","legacy","Lentiform Loewenfeld","3.3.8","yes","yes","600bd7cfb6416f0113b04181","602110864497cf011d9c0822","0","f","NA","j","j","j","j","f","597","NA","5409","8665","7622","4942","597","2","legacy","1024","2","48000","-16","task","5211278","even","NA","38638","46049","40640","196715","13328","29617","21995","197217","145841","196714","197217","196637","46049","197815","36815","196137","13326","169531","Lexical Decision Task","72","61188","79","yes","1024"
"3.531734309","0","6","lerd","non-word","91.25","91.25","772.6","772.6","black","no","legacy","legacy","legacy","0","uniform","1","undefined","undefined","undefined","1","f","0","0","0","0","79","0","0","0","79","0","75","79","75","0","75","3","79","0","79","Fri Feb 19 14:27:39 2021","The main experiment item","yes","Lexical_Decision_Task.osexp","C:/Users/Eleanor/OneDrive/Research Methods","no","Andale Mono","no","18","no","white","no","yes","576","legacy","75","75","3","C:/Users/Eleanor/OneDrive/Research Methods/subject-5211278.csv","legacy","Lentiform Loewenfeld","3.3.8","yes","yes","600bd7cfb6416f0113b04181","602110864497cf011d9c0822","0","f","NA","j","j","j","j","f","620","NA","5409","8665","7622","4942","620","2","legacy","1024","2","48000","-16","task","5211278","even","NA","38638","46049","40640","198420","13328","29617","21995","198922","145841","198418","198922","198340","46049","199543","36815","197840","13326","169531","Lexical Decision Task","73","61808","80","yes","1024"
"2.7084209","0","8","vump","non-word","91.35802469135803","91.35802469135803","771.2469135802469","771.2469135802469","black","no","legacy","legacy","legacy","0","uniform","1","undefined","undefined","undefined","1","f","0","0","0","0","80","0","0","0","80","0","76","80","76","0","76","3","80","0","80","Fri Feb 19 14:27:39 2021","The main experiment item","yes","Lexical_Decision_Task.osexp","C:/Users/Eleanor/OneDrive/Research Methods","no","Andale Mono","no","18","no","white","no","yes","576","legacy","76","76","3","C:/Users/Eleanor/OneDrive/Research Methods/subject-5211278.csv","legacy","Lentiform Loewenfeld","3.3.8","yes","yes","600bd7cfb6416f0113b04181","602110864497cf011d9c0822","0","f","NA","j","j","j","j","f","663","NA","5409","8665","7622","4942","663","2","legacy","1024","2","48000","-16","task","5211278","even","NA","38638","46049","40640","200144","13328","29617","21995","200647","145841","200143","200647","200070","46049","201311","36815","199570","13326","169531","Lexical Decision Task","74","62471","81","yes","1024"
"3.100255637","0","6","brax","non-word","90.2439024390244","90.2439024390244","775.0975609756098","775.0975609756098","black","no","legacy","legacy","legacy","0","uniform","0","undefined","undefined","undefined","0","f","0","0","0","0","81","0","0","0","81","0","77","81","77","0","77","3","81","0","81","Fri Feb 19 14:27:39 2021","The main experiment item","yes","Lexical_Decision_Task.osexp","C:/Users/Eleanor/OneDrive/Research Methods","no","Andale Mono","no","18","no","white","no","yes","576","legacy","77","77","3","C:/Users/Eleanor/OneDrive/Research Methods/subject-5211278.csv","legacy","Lentiform Loewenfeld","3.3.8","yes","yes","600bd7cfb6416f0113b04181","602110864497cf011d9c0822","0","j","NA","j","j","j","j","j","1087","NA","5409","8665","7622","4942","1087","2","legacy","1024","2","48000","-16","task","5211278","even","NA","38638","46049","40640","201922","13328","29617","21995","202424","145841","201920","202424","201836","46049","203512","36815","201336","13326","169531","Lexical Decision Task","74","63558","82","yes","1024"
"3.440331212","7.35","6","stew","word","90.36144578313252","90.36144578313252","773.6987951807229","773.6987951807229","black","no","legacy","legacy","legacy","0","uniform","1","undefined","undefined","undefined","1","j","0","0","0","0","82","0","0","0","82","0","78","82","78","0","78","3","82","0","82","Fri Feb 19 14:27:39 2021","The main experiment item","yes","Lexical_Decision_Task.osexp","C:/Users/Eleanor/OneDrive/Research Methods","no","Andale Mono","no","18","no","white","no","yes","576","legacy","78","78","3","C:/Users/Eleanor/OneDrive/Research Methods/subject-5211278.csv","legacy","Lentiform Loewenfeld","3.3.8","yes","yes","600bd7cfb6416f0113b04181","602110864497cf011d9c0822","0","j","NA","j","j","j","j","j","659","NA","5409","8665","7622","4942","659","2","legacy","1024","2","48000","-16","task","5211278","even","NA","38638","46049","40640","205118","13328","29617","21995","205620","145841","205116","205620","205038","46049","206280","36815","201336","13326","203538","Lexical Decision Task","75","64217","83","yes","1024"
"2.897810299","0","5","glur","non-word","90.47619047619048","90.47619047619048","774.0357142857143","774.0357142857143","black","no","legacy","legacy","legacy","0","uniform","1","undefined","undefined","undefined","1","f","0","0","0","0","83","0","0","0","83","0","79","83","79","0","79","3","83","0","83","Fri Feb 19 14:27:39 2021","The main experiment item","yes","Lexical_Decision_Task.osexp","C:/Users/Eleanor/OneDrive/Research Methods","no","Andale Mono","no","18","no","white","no","yes","576","legacy","79","79","3","C:/Users/Eleanor/OneDrive/Research Methods/subject-5211278.csv","legacy","Lentiform Loewenfeld","3.3.8","yes","yes","600bd7cfb6416f0113b04181","602110864497cf011d9c0822","0","f","NA","j","j","j","j","f","802","NA","5409","8665","7622","4942","802","2","legacy","1024","2","48000","-16","task","5211278","even","NA","38638","46049","40640","206895","13328","29617","21995","207396","145841","206893","207396","206805","46049","208199","36815","206305","13326","203538","Lexical Decision Task","76","65019","84","yes","1024"
"2.755364069","7.72","2","hoax","word","90.58823529411765","90.58823529411765","773.3764705882353","773.3764705882353","black","no","legacy","legacy","legacy","0","uniform","1","undefined","undefined","undefined","1","j","0","0","0","0","84","0","0","0","84","0","80","84","80","0","80","3","84","0","84","Fri Feb 19 14:27:39 2021","The main experiment item","yes","Lexical_Decision_Task.osexp","C:/Users/Eleanor/OneDrive/Research Methods","no","Andale Mono","no","18","no","white","no","yes","576","legacy","80","80","3","C:/Users/Eleanor/OneDrive/Research Methods/subject-5211278.csv","legacy","Lentiform Loewenfeld","3.3.8","yes","yes","600bd7cfb6416f0113b04181","602110864497cf011d9c0822","0","j","NA","j","j","j","j","j","718","NA","5409","8665","7622","4942","718","2","legacy","1024","2","48000","-16","task","5211278","even","NA","38638","46049","40640","208802","13328","29617","21995","209304","145841","208801","209304","208723","46049","210023","36815","208223","13326","203538","Lexical Decision Task","77","65737","85","yes","1024"
"2.719886232","7.98","2","quiz","word","90.69767441860465","90.69767441860465","771.2209302325581","771.2209302325581","black","no","legacy","legacy","legacy","0","uniform","1","undefined","undefined","undefined","1","j","0","0","0","0","85","0","0","0","85","0","81","85","81","0","81","3","85","0","85","Fri Feb 19 14:27:39 2021","The main experiment item","yes","Lexical_Decision_Task.osexp","C:/Users/Eleanor/OneDrive/Research Methods","no","Andale Mono","no","18","no","white","no","yes","576","legacy","81","81","3","C:/Users/Eleanor/OneDrive/Research Methods/subject-5211278.csv","legacy","Lentiform Loewenfeld","3.3.8","yes","yes","600bd7cfb6416f0113b04181","602110864497cf011d9c0822","0","j","NA","j","j","j","j","j","588","NA","5409","8665","7622","4942","588","2","legacy","1024","2","48000","-16","task","5211278","even","NA","38638","46049","40640","210628","13328","29617","21995","211130","145841","210626","211130","210547","46049","211719","36815","210047","13326","203538","Lexical Decision Task","78","66325","86","yes","1024"
"3.208172527","10.27","7","deck","word","90.80459770114942","90.80459770114942","768.9540229885057","768.9540229885057","black","no","legacy","legacy","legacy","0","uniform","1","undefined","undefined","undefined","1","j","0","0","0","0","86","0","0","0","86","0","82","86","82","0","82","3","86","0","86","Fri Feb 19 14:27:39 2021","The main experiment item","yes","Lexical_Decision_Task.osexp","C:/Users/Eleanor/OneDrive/Research Methods","no","Andale Mono","no","18","no","white","no","yes","576","legacy","82","82","3","C:/Users/Eleanor/OneDrive/Research Methods/subject-5211278.csv","legacy","Lentiform Loewenfeld","3.3.8","yes","yes","600bd7cfb6416f0113b04181","602110864497cf011d9c0822","0","j","NA","j","j","j","j","j","574","NA","5409","8665","7622","4942","574","2","legacy","1024","2","48000","-16","task","5211278","even","NA","38638","46049","40640","212322","13328","29617","21995","212824","145841","212321","212824","212245","46049","213399","36815","211745","13326","203538","Lexical Decision Task","79","66899","87","yes","1024"
"2.990042563","6.64","9","plow","word","90.9090909090909","90.9090909090909","771.9659090909091","771.9659090909091","black","no","legacy","legacy","legacy","0","uniform","1","undefined","undefined","undefined","1","j","0","0","0","0","87","0","0","0","87","0","83","87","83","0","83","3","87","0","87","Fri Feb 19 14:27:39 2021","The main experiment item","yes","Lexical_Decision_Task.osexp","C:/Users/Eleanor/OneDrive/Research Methods","no","Andale Mono","no","18","no","white","no","yes","576","legacy","83","83","3","C:/Users/Eleanor/OneDrive/Research Methods/subject-5211278.csv","legacy","Lentiform Loewenfeld","3.3.8","yes","yes","600bd7cfb6416f0113b04181","602110864497cf011d9c0822","0","j","NA","j","j","j","j","j","1034","NA","5409","8665","7622","4942","1034","2","legacy","1024","2","48000","-16","task","5211278","even","NA","38638","46049","40640","214006","13328","29617","21995","214508","145841","214004","214508","213922","46049","215544","36815","213422","13326","203538","Lexical Decision Task","80","67933","88","yes","1024"
"2.983324025","9.56","2","debt","word","91.01123595505618","91.01123595505618","768.9887640449438","768.9887640449438","black","no","legacy","legacy","legacy","0","uniform","1","undefined","undefined","undefined","1","j","0","0","0","0","88","0","0","0","88","0","84","88","84","0","84","3","88","0","88","Fri Feb 19 14:27:39 2021","The main experiment item","yes","Lexical_Decision_Task.osexp","C:/Users/Eleanor/OneDrive/Research Methods","no","Andale Mono","no","18","no","white","no","yes","576","legacy","84","84","3","C:/Users/Eleanor/OneDrive/Research Methods/subject-5211278.csv","legacy","Lentiform Loewenfeld","3.3.8","yes","yes","600bd7cfb6416f0113b04181","602110864497cf011d9c0822","0","j","NA","j","j","j","j","j","507","NA","5409","8665","7622","4942","507","2","legacy","1024","2","48000","-16","task","5211278","even","NA","38638","46049","40640","216157","13328","29617","21995","216659","145841","216156","216659","216079","46049","217168","36815","215579","13326","203538","Lexical Decision Task","81","68440","89","yes","1024"
"2.698387659","6.66","7","skid","word","91.11111111111111","91.11111111111111","769.3222222222222","769.3222222222222","black","no","legacy","legacy","legacy","0","uniform","1","undefined","undefined","undefined","1","j","0","0","0","0","89","0","0","0","89","0","85","89","85","0","85","3","89","0","89","Fri Feb 19 14:27:39 2021","The main experiment item","yes","Lexical_Decision_Task.osexp","C:/Users/Eleanor/OneDrive/Research Methods","no","Andale Mono","no","18","no","white","no","yes","576","legacy","85","85","3","C:/Users/Eleanor/OneDrive/Research Methods/subject-5211278.csv","legacy","Lentiform Loewenfeld","3.3.8","yes","yes","600bd7cfb6416f0113b04181","602110864497cf011d9c0822","0","j","NA","j","j","j","j","j","799","NA","5409","8665","7622","4942","799","2","legacy","1024","2","48000","-16","task","5211278","even","NA","38638","46049","40640","217769","13328","29617","21995","218271","145841","217768","218271","217689","46049","219071","36815","217189","13326","203538","Lexical Decision Task","82","69239","90","yes","1024"
"3.492014979","0","9","yine","non-word","91.20879120879121","91.20879120879121","768.6043956043956","768.6043956043956","black","no","legacy","legacy","legacy","0","uniform","1","undefined","undefined","undefined","1","f","0","0","0","0","90","0","0","0","90","0","86","90","86","0","86","3","90","0","90","Fri Feb 19 14:27:39 2021","The main experiment item","yes","Lexical_Decision_Task.osexp","C:/Users/Eleanor/OneDrive/Research Methods","no","Andale Mono","no","18","no","white","no","yes","576","legacy","86","86","3","C:/Users/Eleanor/OneDrive/Research Methods/subject-5211278.csv","legacy","Lentiform Loewenfeld","3.3.8","yes","yes","600bd7cfb6416f0113b04181","602110864497cf011d9c0822","0","f","NA","j","j","j","j","f","704","NA","5409","8665","7622","4942","704","2","legacy","1024","2","48000","-16","task","5211278","even","NA","38638","46049","40640","219688","13328","29617","21995","220190","145841","219686","220190","219606","46049","220895","36815","219106","13326","203538","Lexical Decision Task","83","69943","91","yes","1024"
"3.1430148","7.92","8","bald","word","91.30434782608695","91.30434782608695","767.3586956521739","767.3586956521739","black","no","legacy","legacy","legacy","0","uniform","1","undefined","undefined","undefined","1","j","0","0","0","0","91","0","0","0","91","0","87","91","87","0","87","3","91","0","91","Fri Feb 19 14:27:39 2021","The main experiment item","yes","Lexical_Decision_Task.osexp","C:/Users/Eleanor/OneDrive/Research Methods","no","Andale Mono","no","18","no","white","no","yes","576","legacy","87","87","3","C:/Users/Eleanor/OneDrive/Research Methods/subject-5211278.csv","legacy","Lentiform Loewenfeld","3.3.8","yes","yes","600bd7cfb6416f0113b04181","602110864497cf011d9c0822","0","j","NA","j","j","j","j","j","654","NA","5409","8665","7622","4942","654","2","legacy","1024","2","48000","-16","task","5211278","even","NA","38638","46049","40640","221498","13328","29617","21995","222000","145841","221496","222000","221419","46049","222655","36815","220919","13326","203538","Lexical Decision Task","84","70597","92","yes","1024"
"2.793790385","5.67","9","swab","word","91.39784946236558","91.39784946236558","765.494623655914","765.494623655914","black","no","legacy","legacy","legacy","0","uniform","1","undefined","undefined","undefined","1","j","0","0","0","0","92","0","0","0","92","0","88","92","88","0","88","3","92","0","92","Fri Feb 19 14:27:39 2021","The main experiment item","yes","Lexical_Decision_Task.osexp","C:/Users/Eleanor/OneDrive/Research Methods","no","Andale Mono","no","18","no","white","no","yes","576","legacy","88","88","3","C:/Users/Eleanor/OneDrive/Research Methods/subject-5211278.csv","legacy","Lentiform Loewenfeld","3.3.8","yes","yes","600bd7cfb6416f0113b04181","602110864497cf011d9c0822","0","j","NA","j","j","j","j","j","594","NA","5409","8665","7622","4942","594","2","legacy","1024","2","48000","-16","task","5211278","even","NA","38638","46049","40640","223263","13328","29617","21995","223765","145841","223261","223765","223180","46049","224360","36815","222680","13326","203538","Lexical Decision Task","85","71191","93","yes","1024"
"2.696356389","0","1","pizz","non-word","91.48936170212765","91.48936170212765","766.3829787234042","766.3829787234042","black","no","legacy","legacy","legacy","0","uniform","1","undefined","undefined","undefined","1","f","0","0","0","0","93","0","0","0","93","0","89","93","89","0","89","3","93","0","93","Fri Feb 19 14:27:39 2021","The main experiment item","yes","Lexical_Decision_Task.osexp","C:/Users/Eleanor/OneDrive/Research Methods","no","Andale Mono","no","18","no","white","no","yes","576","legacy","89","89","3","C:/Users/Eleanor/OneDrive/Research Methods/subject-5211278.csv","legacy","Lentiform Loewenfeld","3.3.8","yes","yes","600bd7cfb6416f0113b04181","602110864497cf011d9c0822","0","f","NA","j","j","j","j","f","849","NA","5409","8665","7622","4942","849","2","legacy","1024","2","48000","-16","task","5211278","even","NA","38638","46049","40640","224975","13328","29617","21995","225477","145841","224973","225477","224887","46049","226327","36815","224387","13326","203538","Lexical Decision Task","86","72040","94","yes","1024"
"3.366547468","0","6","plat","non-word","91.57894736842105","91.57894736842105","771.0105263157894","771.0105263157894","black","no","legacy","legacy","legacy","0","uniform","1","undefined","undefined","undefined","1","f","0","0","0","0","94","0","0","0","94","0","90","94","90","0","90","3","94","0","94","Fri Feb 19 14:27:39 2021","The main experiment item","yes","Lexical_Decision_Task.osexp","C:/Users/Eleanor/OneDrive/Research Methods","no","Andale Mono","no","18","no","white","no","yes","576","legacy","90","90","3","C:/Users/Eleanor/OneDrive/Research Methods/subject-5211278.csv","legacy","Lentiform Loewenfeld","3.3.8","yes","yes","600bd7cfb6416f0113b04181","602110864497cf011d9c0822","0","f","NA","j","j","j","j","f","1206","NA","5409","8665","7622","4942","1206","2","legacy","1024","2","48000","-16","task","5211278","even","NA","38638","46049","40640","226930","13328","29617","21995","227432","145841","226928","227432","226852","46049","228639","36815","226352","13326","203538","Lexical Decision Task","87","73246","95","yes","1024"
"2.803231716","5.26","3","kiln","word","90.625","90.625","771.7395833333334","771.7395833333334","black","no","legacy","legacy","legacy","0","uniform","0","undefined","undefined","undefined","0","j","0","0","0","0","95","0","0","0","95","0","91","95","91","0","91","3","95","0","95","Fri Feb 19 14:27:39 2021","The main experiment item","yes","Lexical_Decision_Task.osexp","C:/Users/Eleanor/OneDrive/Research Methods","no","Andale Mono","no","18","no","white","no","yes","576","legacy","91","91","3","C:/Users/Eleanor/OneDrive/Research Methods/subject-5211278.csv","legacy","Lentiform Loewenfeld","3.3.8","yes","yes","600bd7cfb6416f0113b04181","602110864497cf011d9c0822","0","f","NA","j","j","j","j","f","841","NA","5409","8665","7622","4942","841","2","legacy","1024","2","48000","-16","task","5211278","even","NA","38638","46049","40640","229239","13328","29617","21995","229741","145841","229237","229741","229161","46049","230584","36815","228661","13326","203538","Lexical Decision Task","87","74087","96","yes","1024"
"3.303771854","0","9","dath","non-word","90.72164948453609","90.72164948453609","771.1752577319587","771.1752577319587","black","no","legacy","legacy","legacy","0","uniform","1","undefined","undefined","undefined","1","f","0","0","0","0","96","0","0","0","96","0","92","96","92","0","92","3","96","0","96","Fri Feb 19 14:27:39 2021","The main experiment item","yes","Lexical_Decision_Task.osexp","C:/Users/Eleanor/OneDrive/Research Methods","no","Andale Mono","no","18","no","white","no","yes","576","legacy","92","92","3","C:/Users/Eleanor/OneDrive/Research Methods/subject-5211278.csv","legacy","Lentiform Loewenfeld","3.3.8","yes","yes","600bd7cfb6416f0113b04181","602110864497cf011d9c0822","0","f","NA","j","j","j","j","f","717","NA","5409","8665","7622","4942","717","2","legacy","1024","2","48000","-16","task","5211278","even","NA","38638","46049","40640","232195","13328","29617","21995","232697","145841","232193","232697","232111","46049","233416","36815","228661","13326","230611","Lexical Decision Task","88","74804","97","yes","1024"
"2.807758206","6.25","4","hurl","word","90.81632653061224","90.81632653061224","771.7857142857143","771.7857142857143","black","no","legacy","legacy","legacy","0","uniform","1","undefined","undefined","undefined","1","j","0","0","0","0","97","0","0","0","97","0","93","97","93","0","93","3","97","0","97","Fri Feb 19 14:27:39 2021","The main experiment item","yes","Lexical_Decision_Task.osexp","C:/Users/Eleanor/OneDrive/Research Methods","no","Andale Mono","no","18","no","white","no","yes","576","legacy","93","93","3","C:/Users/Eleanor/OneDrive/Research Methods/subject-5211278.csv","legacy","Lentiform Loewenfeld","3.3.8","yes","yes","600bd7cfb6416f0113b04181","602110864497cf011d9c0822","0","j","NA","j","j","j","j","j","831","NA","5409","8665","7622","4942","831","2","legacy","1024","2","48000","-16","task","5211278","even","NA","38638","46049","40640","234025","13328","29617","21995","234527","145841","234023","234527","233936","46049","235359","36815","233436","13326","230611","Lexical Decision Task","89","75635","98","yes","1024"
