"Log_BG","Log_Freq_HAL","Ortho_N","Stimulus","Type","acc","accuracy","average_response_time","avg_rt","background","bidi","canvas_backend","clock_backend","color_backend","compensation","coordinates","correct","correct_Experimental_intro","correct_Introduction","correct_Practice_intro","correct_experimenter_kb","correct_response","count_End_Of_Experiment","count_End_Of_Practice","count_Experimental_Loop","count_Experimental_intro","count_Fixation","count_Introduction","count_Practice_Loop","count_Practice_intro","count_Stimulus","count_block_break_feedback","count_experimental_sequence","count_experimenter_kb","count_increment_trial_count","count_init_trial_count","count_logger","count_practice_sequence","count_right","count_task","count_wrong","datetime","description","disable_garbage_collection","experiment_file","experiment_path","font_bold","font_family","font_italic","font_size","font_underline","foreground","form_clicks","fullscreen","height","keyboard_backend","live_row","live_row_Experimental_Loop","live_row_Practice_Loop","logfile","mouse_backend","opensesame_codename","opensesame_version","osf_always_upload_data","osf_always_upload_experiment","osf_datanode_id","osf_id","repeat_cycle","response","response_End_Of_Experiment","response_Experimental_intro","response_Introduction","response_Practice_intro","response_block_break_feedback","response_experimenter_kb","response_time","response_time_End_Of_Experiment","response_time_Experimental_intro","response_time_Introduction","response_time_Practice_intro","response_time_block_break_feedback","response_time_experimenter_kb","round_decimals","sampler_backend","sound_buf_size","sound_channels","sound_freq","sound_sample_size","start","subject_nr","subject_parity","time_End_Of_Experiment","time_End_Of_Practice","time_Experimental_Loop","time_Experimental_intro","time_Fixation","time_Introduction","time_Practice_Loop","time_Practice_intro","time_Stimulus","time_block_break_feedback","time_experimental_sequence","time_experimenter_kb","time_increment_trial_count","time_init_trial_count","time_logger","time_practice_sequence","time_right","time_task","time_wrong","title","total_correct","total_response_time","total_responses","uniform_coordinates","width"
"2.64476673","0","5","moft","non-word","100","100","1286.6","1286.6","black","no","legacy","legacy","legacy","0","uniform","1","undefined","undefined","undefined","1","f","0","0","0","0","4","0","0","0","4","NA","0","4","0","0","0","3","4","0","4","Fri Feb 19 11:43:35 2021","The main experiment item","yes","Lexical_Decision_Task.osexp","/Users/isabellewatts","no","Andale Mono","no","18","no","white","no","yes","576","legacy","0","0","3","/Users/isabellewatts/Documents/University/subject-5208496.csv","legacy","Lentiform Loewenfeld","3.3.7","yes","yes","600bd7cfb6416f0113b04181","602110864497cf011d9c0822","0","f","NA","space","space","space","NA","f","1212","NA","5284","38514","7848","NA","1212","2","legacy","1024","2","48000","-16","task","5208496","even","NA","63052","70342","65056","70377","7064","53447","45597","70879","NA","70375","70880","NA","70341","72093","60801","62518","6994","NA","Lexical Decision Task","5","6433","5","yes","1024"
"2.68604012","0","4","pumb","non-word","83.33333333333333","83.33333333333333","1219.3333333333333","1219.3333333333333","black","no","legacy","legacy","legacy","0","uniform","0","undefined","undefined","undefined","0","f","0","0","0","0","5","0","0","0","5","NA","1","5","1","0","1","3","5","0","5","Fri Feb 19 11:43:35 2021","The main experiment item","yes","Lexical_Decision_Task.osexp","/Users/isabellewatts","no","Andale Mono","no","18","no","white","no","yes","576","legacy","1","1","3","/Users/isabellewatts/Documents/University/subject-5208496.csv","legacy","Lentiform Loewenfeld","3.3.7","yes","yes","600bd7cfb6416f0113b04181","602110864497cf011d9c0822","0","j","NA","space","space","space","NA","j","883","NA","5284","38514","7848","NA","883","2","legacy","1024","2","48000","-16","task","5208496","even","NA","63052","70342","65056","72671","7064","53447","45597","73174","NA","72668","73174","72601","70341","74059","60801","72101","6994","NA","Lexical Decision Task","5","7316","6","yes","1024"
"2.893578687","8.69","3","surf","word","85.71428571428571","85.71428571428571","1328.4285714285713","1328.4285714285713","black","no","legacy","legacy","legacy","0","uniform","1","undefined","undefined","undefined","1","j","0","0","0","0","6","0","0","0","6","NA","2","6","2","0","2","3","6","0","6","Fri Feb 19 11:43:35 2021","The main experiment item","yes","Lexical_Decision_Task.osexp","/Users/isabellewatts","no","Andale Mono","no","18","no","white","no","yes","576","legacy","2","2","3","/Users/isabellewatts/Documents/University/subject-5208496.csv","legacy","Lentiform Loewenfeld","3.3.7","yes","yes","600bd7cfb6416f0113b04181","602110864497cf011d9c0822","0","j","NA","space","space","space","NA","j","1983","NA","5284","38514","7848","NA","1983","2","legacy","1024","2","48000","-16","task","5208496","even","NA","63052","70342","65056","75634","7064","53447","45597","76137","NA","75631","76137","75563","70341","78121","60801","72101","6994","74063","Lexical Decision Task","6","9299","7","yes","1024"
"3.307211407","6.07","7","honk","word","87.5","87.5","1263.125","1263.125","black","no","legacy","legacy","legacy","0","uniform","1","undefined","undefined","undefined","1","j","0","0","0","0","7","0","0","0","7","NA","3","7","3","0","3","3","7","0","7","Fri Feb 19 11:43:35 2021","The main experiment item","yes","Lexical_Decision_Task.osexp","/Users/isabellewatts","no","Andale Mono","no","18","no","white","no","yes","576","legacy","3","3","3","/Users/isabellewatts/Documents/University/subject-5208496.csv","legacy","Lentiform Loewenfeld","3.3.7","yes","yes","600bd7cfb6416f0113b04181","602110864497cf011d9c0822","0","j","NA","space","space","space","NA","j","806","NA","5284","38514","7848","NA","806","2","legacy","1024","2","48000","-16","task","5208496","even","NA","63052","70342","65056","78691","7064","53447","45597","79193","NA","78688","79193","78626","70341","80001","60801","78125","6994","74063","Lexical Decision Task","7","10105","8","yes","1024"
"2.838639236","0","4","furg","non-word","88.88888888888889","88.88888888888889","1207.4444444444443","1207.4444444444443","black","no","legacy","legacy","legacy","0","uniform","1","undefined","undefined","undefined","1","f","0","0","0","0","8","0","0","0","8","NA","4","8","4","0","4","3","8","0","8","Fri Feb 19 11:43:35 2021","The main experiment item","yes","Lexical_Decision_Task.osexp","/Users/isabellewatts","no","Andale Mono","no","18","no","white","no","yes","576","legacy","4","4","3","/Users/isabellewatts/Documents/University/subject-5208496.csv","legacy","Lentiform Loewenfeld","3.3.7","yes","yes","600bd7cfb6416f0113b04181","602110864497cf011d9c0822","0","f","NA","space","space","space","NA","f","762","NA","5284","38514","7848","NA","762","2","legacy","1024","2","48000","-16","task","5208496","even","NA","63052","70342","65056","80570","7064","53447","45597","81073","NA","80568","81073","80505","70341","81836","60801","80004","6994","74063","Lexical Decision Task","8","10867","9","yes","1024"
"3.230789326","5.38","5","prim","word","80","80","1386.8","1386.8","black","no","legacy","legacy","legacy","0","uniform","0","undefined","undefined","undefined","0","j","0","0","0","0","9","0","0","0","9","NA","5","9","5","0","5","3","9","0","9","Fri Feb 19 11:43:35 2021","The main experiment item","yes","Lexical_Decision_Task.osexp","/Users/isabellewatts","no","Andale Mono","no","18","no","white","no","yes","576","legacy","5","5","3","/Users/isabellewatts/Documents/University/subject-5208496.csv","legacy","Lentiform Loewenfeld","3.3.7","yes","yes","600bd7cfb6416f0113b04181","602110864497cf011d9c0822","0","None","NA","space","space","space","NA","None","3001","NA","5284","38514","7848","NA","3001","2","legacy","1024","2","48000","-16","task","5208496","even","NA","63052","70342","65056","82410","7064","53447","45597","82912","NA","82405","82912","82340","70341","85913","60801","81840","6994","74063","Lexical Decision Task","8","13868","10","yes","1024"
"3.316948329","0","1","besc","non-word","81.81818181818181","81.81818181818181","1339.7272727272727","1339.7272727272727","black","no","legacy","legacy","legacy","0","uniform","1","undefined","undefined","undefined","1","f","0","0","0","0","10","0","0","0","10","NA","6","10","6","0","6","3","10","0","10","Fri Feb 19 11:43:35 2021","The main experiment item","yes","Lexical_Decision_Task.osexp","/Users/isabellewatts","no","Andale Mono","no","18","no","white","no","yes","576","legacy","6","6","3","/Users/isabellewatts/Documents/University/subject-5208496.csv","legacy","Lentiform Loewenfeld","3.3.7","yes","yes","600bd7cfb6416f0113b04181","602110864497cf011d9c0822","0","f","NA","space","space","space","NA","f","869","NA","5284","38514","7848","NA","869","2","legacy","1024","2","48000","-16","task","5208496","even","NA","63052","70342","65056","87483","7064","53447","45597","87985","NA","87480","87985","87417","70341","88855","60801","81840","6994","85917","Lexical Decision Task","9","14737","11","yes","1024"
"3.100255637","0","6","brax","non-word","83.33333333333333","83.33333333333333","1283.6666666666667","1283.6666666666667","black","no","legacy","legacy","legacy","0","uniform","1","undefined","undefined","undefined","1","f","0","0","0","0","11","0","0","0","11","NA","7","11","7","0","7","3","11","0","11","Fri Feb 19 11:43:35 2021","The main experiment item","yes","Lexical_Decision_Task.osexp","/Users/isabellewatts","no","Andale Mono","no","18","no","white","no","yes","576","legacy","7","7","3","/Users/isabellewatts/Documents/University/subject-5208496.csv","legacy","Lentiform Loewenfeld","3.3.7","yes","yes","600bd7cfb6416f0113b04181","602110864497cf011d9c0822","0","f","NA","space","space","space","NA","f","667","NA","5284","38514","7848","NA","667","2","legacy","1024","2","48000","-16","task","5208496","even","NA","63052","70342","65056","89426","7064","53447","45597","89929","NA","89423","89929","89359","70341","90597","60801","88859","6994","85917","Lexical Decision Task","10","15404","12","yes","1024"
"2.897810299","0","5","glur","non-word","84.61538461538461","84.61538461538461","1265.3846153846155","1265.3846153846155","black","no","legacy","legacy","legacy","0","uniform","1","undefined","undefined","undefined","1","f","0","0","0","0","12","0","0","0","12","NA","8","12","8","0","8","3","12","0","12","Fri Feb 19 11:43:35 2021","The main experiment item","yes","Lexical_Decision_Task.osexp","/Users/isabellewatts","no","Andale Mono","no","18","no","white","no","yes","576","legacy","8","8","3","/Users/isabellewatts/Documents/University/subject-5208496.csv","legacy","Lentiform Loewenfeld","3.3.7","yes","yes","600bd7cfb6416f0113b04181","602110864497cf011d9c0822","0","f","NA","space","space","space","NA","f","1046","NA","5284","38514","7848","NA","1046","2","legacy","1024","2","48000","-16","task","5208496","even","NA","63052","70342","65056","91166","7064","53447","45597","91669","NA","91163","91669","91101","70341","92716","60801","90601","6994","85917","Lexical Decision Task","11","16450","13","yes","1024"
"2.807758206","6.25","4","hurl","word","85.71428571428571","85.71428571428571","1239.5","1239.5","black","no","legacy","legacy","legacy","0","uniform","1","undefined","undefined","undefined","1","j","0","0","0","0","13","0","0","0","13","NA","9","13","9","0","9","3","13","0","13","Fri Feb 19 11:43:35 2021","The main experiment item","yes","Lexical_Decision_Task.osexp","/Users/isabellewatts","no","Andale Mono","no","18","no","white","no","yes","576","legacy","9","9","3","/Users/isabellewatts/Documents/University/subject-5208496.csv","legacy","Lentiform Loewenfeld","3.3.7","yes","yes","600bd7cfb6416f0113b04181","602110864497cf011d9c0822","0","j","NA","space","space","space","NA","j","903","NA","5284","38514","7848","NA","903","2","legacy","1024","2","48000","-16","task","5208496","even","NA","63052","70342","65056","93284","7064","53447","45597","93787","NA","93282","93788","93220","70341","94693","60801","92720","6994","85917","Lexical Decision Task","12","17353","14","yes","1024"
"3.133964479","0","8","graw","non-word","80","80","1226.0666666666666","1226.0666666666666","black","no","legacy","legacy","legacy","0","uniform","0","undefined","undefined","undefined","0","f","0","0","0","0","14","0","0","0","14","NA","10","14","10","0","10","3","14","0","14","Fri Feb 19 11:43:35 2021","The main experiment item","yes","Lexical_Decision_Task.osexp","/Users/isabellewatts","no","Andale Mono","no","18","no","white","no","yes","576","legacy","10","10","3","/Users/isabellewatts/Documents/University/subject-5208496.csv","legacy","Lentiform Loewenfeld","3.3.7","yes","yes","600bd7cfb6416f0113b04181","602110864497cf011d9c0822","0","j","NA","space","space","space","NA","j","1038","NA","5284","38514","7848","NA","1038","2","legacy","1024","2","48000","-16","task","5208496","even","NA","63052","70342","65056","95262","7064","53447","45597","95765","NA","95260","95766","95196","70341","96806","60801","94696","6994","85917","Lexical Decision Task","12","18391","15","yes","1024"
"2.812467698","0","7","hafe","non-word","81.25","81.25","1191.3125","1191.3125","black","no","legacy","legacy","legacy","0","uniform","1","undefined","undefined","undefined","1","f","0","0","0","0","15","0","0","0","15","NA","11","15","11","0","11","3","15","0","15","Fri Feb 19 11:43:35 2021","The main experiment item","yes","Lexical_Decision_Task.osexp","/Users/isabellewatts","no","Andale Mono","no","18","no","white","no","yes","576","legacy","11","11","3","/Users/isabellewatts/Documents/University/subject-5208496.csv","legacy","Lentiform Loewenfeld","3.3.7","yes","yes","600bd7cfb6416f0113b04181","602110864497cf011d9c0822","0","f","NA","space","space","space","NA","f","670","NA","5284","38514","7848","NA","670","2","legacy","1024","2","48000","-16","task","5208496","even","NA","63052","70342","65056","98377","7064","53447","45597","98879","NA","98374","98879","98310","70341","99550","60801","94696","6994","96810","Lexical Decision Task","13","19061","16","yes","1024"
"2.899638141","0","3","hapt","non-word","82.3529411764706","82.3529411764706","1149.764705882353","1149.764705882353","black","no","legacy","legacy","legacy","0","uniform","1","undefined","undefined","undefined","1","f","0","0","0","0","16","0","0","0","16","NA","12","16","12","0","12","3","16","0","16","Fri Feb 19 11:43:35 2021","The main experiment item","yes","Lexical_Decision_Task.osexp","/Users/isabellewatts","no","Andale Mono","no","18","no","white","no","yes","576","legacy","12","12","3","/Users/isabellewatts/Documents/University/subject-5208496.csv","legacy","Lentiform Loewenfeld","3.3.7","yes","yes","600bd7cfb6416f0113b04181","602110864497cf011d9c0822","0","f","NA","space","space","space","NA","f","485","NA","5284","38514","7848","NA","485","2","legacy","1024","2","48000","-16","task","5208496","even","NA","63052","70342","65056","100123","7064","53447","45597","100626","NA","100120","100627","100054","70341","101113","60801","99554","6994","96810","Lexical Decision Task","14","19546","17","yes","1024"
"2.809559715","8.44","4","volt","word","83.33333333333333","83.33333333333333","1117.4444444444443","1117.4444444444443","black","no","legacy","legacy","legacy","0","uniform","1","undefined","undefined","undefined","1","j","0","0","0","0","17","0","0","0","17","NA","13","17","13","0","13","3","17","0","17","Fri Feb 19 11:43:35 2021","The main experiment item","yes","Lexical_Decision_Task.osexp","/Users/isabellewatts","no","Andale Mono","no","18","no","white","no","yes","576","legacy","13","13","3","/Users/isabellewatts/Documents/University/subject-5208496.csv","legacy","Lentiform Loewenfeld","3.3.7","yes","yes","600bd7cfb6416f0113b04181","602110864497cf011d9c0822","0","j","NA","space","space","space","NA","j","568","NA","5284","38514","7848","NA","568","2","legacy","1024","2","48000","-16","task","5208496","even","NA","63052","70342","65056","101684","7064","53447","45597","102188","NA","101681","102188","101617","70341","102758","60801","101117","6994","96810","Lexical Decision Task","15","20114","18","yes","1024"
"3.168400243","9.12","6","horn","word","84.21052631578948","84.21052631578948","1087.6842105263158","1087.6842105263158","black","no","legacy","legacy","legacy","0","uniform","1","undefined","undefined","undefined","1","j","0","0","0","0","18","0","0","0","18","NA","14","18","14","0","14","3","18","0","18","Fri Feb 19 11:43:35 2021","The main experiment item","yes","Lexical_Decision_Task.osexp","/Users/isabellewatts","no","Andale Mono","no","18","no","white","no","yes","576","legacy","14","14","3","/Users/isabellewatts/Documents/University/subject-5208496.csv","legacy","Lentiform Loewenfeld","3.3.7","yes","yes","600bd7cfb6416f0113b04181","602110864497cf011d9c0822","0","j","NA","space","space","space","NA","j","552","NA","5284","38514","7848","NA","552","2","legacy","1024","2","48000","-16","task","5208496","even","NA","63052","70342","65056","103329","7064","53447","45597","103832","NA","103326","103832","103262","70341","104385","60801","102762","6994","96810","Lexical Decision Task","16","20666","19","yes","1024"
"3.347850856","10.51","2","rich","word","85","85","1058.1","1058.1","black","no","legacy","legacy","legacy","0","uniform","1","undefined","undefined","undefined","1","j","0","0","0","0","19","0","0","0","19","NA","15","19","15","0","15","3","19","0","19","Fri Feb 19 11:43:35 2021","The main experiment item","yes","Lexical_Decision_Task.osexp","/Users/isabellewatts","no","Andale Mono","no","18","no","white","no","yes","576","legacy","15","15","3","/Users/isabellewatts/Documents/University/subject-5208496.csv","legacy","Lentiform Loewenfeld","3.3.7","yes","yes","600bd7cfb6416f0113b04181","602110864497cf011d9c0822","0","j","NA","space","space","space","NA","j","496","NA","5284","38514","7848","NA","496","2","legacy","1024","2","48000","-16","task","5208496","even","NA","63052","70342","65056","104960","7064","53447","45597","105462","NA","104957","105463","104890","70341","105960","60801","104390","6994","96810","Lexical Decision Task","17","21162","20","yes","1024"
"3.132473155","0","4","glim","non-word","80.95238095238095","80.95238095238095","1034.1904761904761","1034.1904761904761","black","no","legacy","legacy","legacy","0","uniform","0","undefined","undefined","undefined","0","f","0","0","0","0","20","0","0","0","20","NA","16","20","16","0","16","3","20","0","20","Fri Feb 19 11:43:35 2021","The main experiment item","yes","Lexical_Decision_Task.osexp","/Users/isabellewatts","no","Andale Mono","no","18","no","white","no","yes","576","legacy","16","16","3","/Users/isabellewatts/Documents/University/subject-5208496.csv","legacy","Lentiform Loewenfeld","3.3.7","yes","yes","600bd7cfb6416f0113b04181","602110864497cf011d9c0822","0","j","NA","space","space","space","NA","j","556","NA","5284","38514","7848","NA","556","2","legacy","1024","2","48000","-16","task","5208496","even","NA","63052","70342","65056","106533","7064","53447","45597","107035","NA","106530","107035","106464","70341","107592","60801","105964","6994","96810","Lexical Decision Task","17","21718","21","yes","1024"
"3.028977705","0","7","frow","non-word","77.27272727272727","77.27272727272727","1081.1818181818182","1081.1818181818182","black","no","legacy","legacy","legacy","0","uniform","0","undefined","undefined","undefined","0","f","0","0","0","0","21","0","0","0","21","NA","17","21","17","0","17","3","21","0","21","Fri Feb 19 11:43:35 2021","The main experiment item","yes","Lexical_Decision_Task.osexp","/Users/isabellewatts","no","Andale Mono","no","18","no","white","no","yes","576","legacy","17","17","3","/Users/isabellewatts/Documents/University/subject-5208496.csv","legacy","Lentiform Loewenfeld","3.3.7","yes","yes","600bd7cfb6416f0113b04181","602110864497cf011d9c0822","0","j","NA","space","space","space","NA","j","2068","NA","5284","38514","7848","NA","2068","2","legacy","1024","2","48000","-16","task","5208496","even","NA","63052","70342","65056","109163","7064","53447","45597","109665","NA","109160","109666","109096","70341","111735","60801","105964","6994","107596","Lexical Decision Task","17","23786","22","yes","1024"
"3.216517684","10.87","3","film","word","78.26086956521739","78.26086956521739","1074.2173913043478","1074.2173913043478","black","no","legacy","legacy","legacy","0","uniform","1","undefined","undefined","undefined","1","j","0","0","0","0","22","0","0","0","22","NA","18","22","18","0","18","3","22","0","22","Fri Feb 19 11:43:35 2021","The main experiment item","yes","Lexical_Decision_Task.osexp","/Users/isabellewatts","no","Andale Mono","no","18","no","white","no","yes","576","legacy","18","18","3","/Users/isabellewatts/Documents/University/subject-5208496.csv","legacy","Lentiform Loewenfeld","3.3.7","yes","yes","600bd7cfb6416f0113b04181","602110864497cf011d9c0822","0","j","NA","space","space","space","NA","j","921","NA","5284","38514","7848","NA","921","2","legacy","1024","2","48000","-16","task","5208496","even","NA","63052","70342","65056","113307","7064","53447","45597","113809","NA","113304","113809","113239","70341","114731","60801","105964","6994","111739","Lexical Decision Task","18","24707","23","yes","1024"
"2.755364069","7.72","2","hoax","word","79.16666666666667","79.16666666666667","1061.7916666666667","1061.7916666666667","black","no","legacy","legacy","legacy","0","uniform","1","undefined","undefined","undefined","1","j","0","0","0","0","23","0","0","0","23","NA","19","23","19","0","19","3","23","0","23","Fri Feb 19 11:43:35 2021","The main experiment item","yes","Lexical_Decision_Task.osexp","/Users/isabellewatts","no","Andale Mono","no","18","no","white","no","yes","576","legacy","19","19","3","/Users/isabellewatts/Documents/University/subject-5208496.csv","legacy","Lentiform Loewenfeld","3.3.7","yes","yes","600bd7cfb6416f0113b04181","602110864497cf011d9c0822","0","j","NA","space","space","space","NA","j","776","NA","5284","38514","7848","NA","776","2","legacy","1024","2","48000","-16","task","5208496","even","NA","63052","70342","65056","115302","7064","53447","45597","115804","NA","115300","115804","115235","70341","116582","60801","114735","6994","111739","Lexical Decision Task","19","25483","24","yes","1024"
"2.979548375","8.71","4","soup","word","80","80","1043.32","1043.32","black","no","legacy","legacy","legacy","0","uniform","1","undefined","undefined","undefined","1","j","0","0","0","0","24","0","0","0","24","NA","20","24","20","0","20","3","24","0","24","Fri Feb 19 11:43:35 2021","The main experiment item","yes","Lexical_Decision_Task.osexp","/Users/isabellewatts","no","Andale Mono","no","18","no","white","no","yes","576","legacy","20","20","3","/Users/isabellewatts/Documents/University/subject-5208496.csv","legacy","Lentiform Loewenfeld","3.3.7","yes","yes","600bd7cfb6416f0113b04181","602110864497cf011d9c0822","0","j","NA","space","space","space","NA","j","600","NA","5284","38514","7848","NA","600","2","legacy","1024","2","48000","-16","task","5208496","even","NA","63052","70342","65056","117156","7064","53447","45597","117658","NA","117154","117658","117087","70341","118259","60801","116587","6994","111739","Lexical Decision Task","20","26083","25","yes","1024"
"3.064581521","5.51","6","cask","word","76.92307692307692","76.92307692307692","1051.576923076923","1051.576923076923","black","no","legacy","legacy","legacy","0","uniform","0","undefined","undefined","undefined","0","j","0","0","0","0","25","0","0","0","25","NA","21","25","21","0","21","3","25","0","25","Fri Feb 19 11:43:35 2021","The main experiment item","yes","Lexical_Decision_Task.osexp","/Users/isabellewatts","no","Andale Mono","no","18","no","white","no","yes","576","legacy","21","21","3","/Users/isabellewatts/Documents/University/subject-5208496.csv","legacy","Lentiform Loewenfeld","3.3.7","yes","yes","600bd7cfb6416f0113b04181","602110864497cf011d9c0822","0","f","NA","space","space","space","NA","f","1258","NA","5284","38514","7848","NA","1258","2","legacy","1024","2","48000","-16","task","5208496","even","NA","63052","70342","65056","118827","7064","53447","45597","119330","NA","118823","119330","118764","70341","120589","60801","118264","6994","111739","Lexical Decision Task","20","27341","26","yes","1024"
"2.873320602","0","4","lurg","non-word","77.77777777777777","77.77777777777777","1048.0740740740741","1048.0740740740741","black","no","legacy","legacy","legacy","0","uniform","1","undefined","undefined","undefined","1","f","0","0","0","0","26","0","0","0","26","NA","22","26","22","0","22","3","26","0","26","Fri Feb 19 11:43:35 2021","The main experiment item","yes","Lexical_Decision_Task.osexp","/Users/isabellewatts","no","Andale Mono","no","18","no","white","no","yes","576","legacy","22","22","3","/Users/isabellewatts/Documents/University/subject-5208496.csv","legacy","Lentiform Loewenfeld","3.3.7","yes","yes","600bd7cfb6416f0113b04181","602110864497cf011d9c0822","0","f","NA","space","space","space","NA","f","957","NA","5284","38514","7848","NA","957","2","legacy","1024","2","48000","-16","task","5208496","even","NA","63052","70342","65056","122162","7064","53447","45597","122664","NA","122159","122664","122094","70341","123622","60801","118264","6994","120594","Lexical Decision Task","21","28298","27","yes","1024"
"2.744553742","0","2","nawk","non-word","78.57142857142857","78.57142857142857","1036.25","1036.25","black","no","legacy","legacy","legacy","0","uniform","1","undefined","undefined","undefined","1","f","0","0","0","0","27","0","0","0","27","NA","23","27","23","0","23","3","27","0","27","Fri Feb 19 11:43:35 2021","The main experiment item","yes","Lexical_Decision_Task.osexp","/Users/isabellewatts","no","Andale Mono","no","18","no","white","no","yes","576","legacy","23","23","3","/Users/isabellewatts/Documents/University/subject-5208496.csv","legacy","Lentiform Loewenfeld","3.3.7","yes","yes","600bd7cfb6416f0113b04181","602110864497cf011d9c0822","0","f","NA","space","space","space","NA","f","717","NA","5284","38514","7848","NA","717","2","legacy","1024","2","48000","-16","task","5208496","even","NA","63052","70342","65056","124193","7064","53447","45597","124696","NA","124190","124696","124126","70341","125415","60801","123626","6994","120594","Lexical Decision Task","22","29015","28","yes","1024"
"3.374137706","10.21","4","tree","word","79.3103448275862","79.3103448275862","1041.0344827586207","1041.0344827586207","black","no","legacy","legacy","legacy","0","uniform","1","undefined","undefined","undefined","1","j","0","0","0","0","28","0","0","0","28","NA","24","28","24","0","24","3","28","0","28","Fri Feb 19 11:43:35 2021","The main experiment item","yes","Lexical_Decision_Task.osexp","/Users/isabellewatts","no","Andale Mono","no","18","no","white","no","yes","576","legacy","24","24","3","/Users/isabellewatts/Documents/University/subject-5208496.csv","legacy","Lentiform Loewenfeld","3.3.7","yes","yes","600bd7cfb6416f0113b04181","602110864497cf011d9c0822","0","j","NA","space","space","space","NA","j","1175","NA","5284","38514","7848","NA","1175","2","legacy","1024","2","48000","-16","task","5208496","even","NA","63052","70342","65056","125985","7064","53447","45597","126489","NA","125983","126489","125919","70341","127666","60801","125419","6994","120594","Lexical Decision Task","23","30190","29","yes","1024"
"3.067070856","9.39","3","loud","word","80","80","1023.3333333333334","1023.3333333333334","black","no","legacy","legacy","legacy","0","uniform","1","undefined","undefined","undefined","1","j","0","0","0","0","29","0","0","0","29","NA","25","29","25","0","25","3","29","0","29","Fri Feb 19 11:43:35 2021","The main experiment item","yes","Lexical_Decision_Task.osexp","/Users/isabellewatts","no","Andale Mono","no","18","no","white","no","yes","576","legacy","25","25","3","/Users/isabellewatts/Documents/University/subject-5208496.csv","legacy","Lentiform Loewenfeld","3.3.7","yes","yes","600bd7cfb6416f0113b04181","602110864497cf011d9c0822","0","j","NA","space","space","space","NA","j","510","NA","5284","38514","7848","NA","510","2","legacy","1024","2","48000","-16","task","5208496","even","NA","63052","70342","65056","128238","7064","53447","45597","128740","NA","128235","128740","128170","70341","129251","60801","127670","6994","120594","Lexical Decision Task","24","30700","30","yes","1024"
"3.137775856","7.39","5","comb","word","80.64516129032258","80.64516129032258","1008.516129032258","1008.516129032258","black","no","legacy","legacy","legacy","0","uniform","1","undefined","undefined","undefined","1","j","0","0","0","0","30","0","0","0","30","NA","26","30","26","0","26","3","30","0","30","Fri Feb 19 11:43:35 2021","The main experiment item","yes","Lexical_Decision_Task.osexp","/Users/isabellewatts","no","Andale Mono","no","18","no","white","no","yes","576","legacy","26","26","3","/Users/isabellewatts/Documents/University/subject-5208496.csv","legacy","Lentiform Loewenfeld","3.3.7","yes","yes","600bd7cfb6416f0113b04181","602110864497cf011d9c0822","0","j","NA","space","space","space","NA","j","564","NA","5284","38514","7848","NA","564","2","legacy","1024","2","48000","-16","task","5208496","even","NA","63052","70342","65056","129823","7064","53447","45597","130325","NA","129819","130326","129754","70341","130892","60801","129254","6994","120594","Lexical Decision Task","25","31264","31","yes","1024"
"3.195807436","0","6","stup","non-word","81.25","81.25","1004.875","1004.875","black","no","legacy","legacy","legacy","0","uniform","1","undefined","undefined","undefined","1","f","0","0","0","0","31","0","0","0","31","NA","27","31","27","0","27","3","31","0","31","Fri Feb 19 11:43:35 2021","The main experiment item","yes","Lexical_Decision_Task.osexp","/Users/isabellewatts","no","Andale Mono","no","18","no","white","no","yes","576","legacy","27","27","3","/Users/isabellewatts/Documents/University/subject-5208496.csv","legacy","Lentiform Loewenfeld","3.3.7","yes","yes","600bd7cfb6416f0113b04181","602110864497cf011d9c0822","0","f","NA","space","space","space","NA","f","892","NA","5284","38514","7848","NA","892","2","legacy","1024","2","48000","-16","task","5208496","even","NA","63052","70342","65056","131461","7064","53447","45597","131963","NA","131458","131963","131395","70341","132856","60801","130895","6994","120594","Lexical Decision Task","26","32156","32","yes","1024"
"2.696356389","0","1","pizz","non-word","81.81818181818181","81.81818181818181","1012.8181818181819","1012.8181818181819","black","no","legacy","legacy","legacy","0","uniform","1","undefined","undefined","undefined","1","f","0","0","0","0","32","0","0","0","32","NA","28","32","28","0","28","3","32","0","32","Fri Feb 19 11:43:35 2021","The main experiment item","yes","Lexical_Decision_Task.osexp","/Users/isabellewatts","no","Andale Mono","no","18","no","white","no","yes","576","legacy","28","28","3","/Users/isabellewatts/Documents/University/subject-5208496.csv","legacy","Lentiform Loewenfeld","3.3.7","yes","yes","600bd7cfb6416f0113b04181","602110864497cf011d9c0822","0","f","NA","space","space","space","NA","f","1267","NA","5284","38514","7848","NA","1267","2","legacy","1024","2","48000","-16","task","5208496","even","NA","63052","70342","65056","133426","7064","53447","45597","133930","NA","133423","133930","133360","70341","135199","60801","132860","6994","120594","Lexical Decision Task","27","33423","33","yes","1024"
"2.839898939","8.99","6","soap","word","82.3529411764706","82.3529411764706","1008.7647058823529","1008.7647058823529","black","no","legacy","legacy","legacy","0","uniform","1","undefined","undefined","undefined","1","j","0","0","0","0","33","0","0","0","33","NA","29","33","29","0","29","3","33","0","33","Fri Feb 19 11:43:35 2021","The main experiment item","yes","Lexical_Decision_Task.osexp","/Users/isabellewatts","no","Andale Mono","no","18","no","white","no","yes","576","legacy","29","29","3","/Users/isabellewatts/Documents/University/subject-5208496.csv","legacy","Lentiform Loewenfeld","3.3.7","yes","yes","600bd7cfb6416f0113b04181","602110864497cf011d9c0822","0","j","NA","space","space","space","NA","j","875","NA","5284","38514","7848","NA","875","2","legacy","1024","2","48000","-16","task","5208496","even","NA","63052","70342","65056","135768","7064","53447","45597","136270","NA","135765","136270","135702","70341","137147","60801","135202","6994","120594","Lexical Decision Task","28","34298","34","yes","1024"
"3.174641193","0","3","ramb","non-word","82.85714285714286","82.85714285714286","1013.4857142857143","1013.4857142857143","black","no","legacy","legacy","legacy","0","uniform","1","undefined","undefined","undefined","1","f","0","0","0","0","34","0","0","0","34","NA","30","34","30","0","30","3","34","0","34","Fri Feb 19 11:43:35 2021","The main experiment item","yes","Lexical_Decision_Task.osexp","/Users/isabellewatts","no","Andale Mono","no","18","no","white","no","yes","576","legacy","30","30","3","/Users/isabellewatts/Documents/University/subject-5208496.csv","legacy","Lentiform Loewenfeld","3.3.7","yes","yes","600bd7cfb6416f0113b04181","602110864497cf011d9c0822","0","f","NA","space","space","space","NA","f","1174","NA","5284","38514","7848","NA","1174","2","legacy","1024","2","48000","-16","task","5208496","even","NA","63052","70342","65056","137716","7064","53447","45597","138218","NA","137713","138218","137651","70341","139393","60801","137151","6994","120594","Lexical Decision Task","29","35472","35","yes","1024"
"3.088136089","8.32","9","worm","word","83.33333333333333","83.33333333333333","1017.25","1017.25","black","no","legacy","legacy","legacy","0","uniform","1","undefined","undefined","undefined","1","j","0","0","0","0","35","0","0","0","35","NA","31","35","31","0","31","3","35","0","35","Fri Feb 19 11:43:35 2021","The main experiment item","yes","Lexical_Decision_Task.osexp","/Users/isabellewatts","no","Andale Mono","no","18","no","white","no","yes","576","legacy","31","31","3","/Users/isabellewatts/Documents/University/subject-5208496.csv","legacy","Lentiform Loewenfeld","3.3.7","yes","yes","600bd7cfb6416f0113b04181","602110864497cf011d9c0822","0","j","NA","space","space","space","NA","j","1149","NA","5284","38514","7848","NA","1149","2","legacy","1024","2","48000","-16","task","5208496","even","NA","63052","70342","65056","139962","7064","53447","45597","140464","NA","139959","140464","139897","70341","141615","60801","139397","6994","120594","Lexical Decision Task","30","36621","36","yes","1024"
"3.14849993","10.75","7","hour","word","83.78378378378379","83.78378378378379","1009.5135135135135","1009.5135135135135","black","no","legacy","legacy","legacy","0","uniform","1","undefined","undefined","undefined","1","j","0","0","0","0","36","0","0","0","36","NA","32","36","32","0","32","3","36","0","36","Fri Feb 19 11:43:35 2021","The main experiment item","yes","Lexical_Decision_Task.osexp","/Users/isabellewatts","no","Andale Mono","no","18","no","white","no","yes","576","legacy","32","32","3","/Users/isabellewatts/Documents/University/subject-5208496.csv","legacy","Lentiform Loewenfeld","3.3.7","yes","yes","600bd7cfb6416f0113b04181","602110864497cf011d9c0822","0","j","NA","space","space","space","NA","j","731","NA","5284","38514","7848","NA","731","2","legacy","1024","2","48000","-16","task","5208496","even","NA","63052","70342","65056","142186","7064","53447","45597","142689","NA","142182","142690","142119","70341","143423","60801","141618","6994","120594","Lexical Decision Task","31","37352","37","yes","1024"
"3.149629599","0","2","cleb","non-word","81.57894736842105","81.57894736842105","997.8421052631579","997.8421052631579","black","no","legacy","legacy","legacy","0","uniform","0","undefined","undefined","undefined","0","f","0","0","0","0","37","0","0","0","37","NA","33","37","33","0","33","3","37","0","37","Fri Feb 19 11:43:35 2021","The main experiment item","yes","Lexical_Decision_Task.osexp","/Users/isabellewatts","no","Andale Mono","no","18","no","white","no","yes","576","legacy","33","33","3","/Users/isabellewatts/Documents/University/subject-5208496.csv","legacy","Lentiform Loewenfeld","3.3.7","yes","yes","600bd7cfb6416f0113b04181","602110864497cf011d9c0822","0","j","NA","space","space","space","NA","j","566","NA","5284","38514","7848","NA","566","2","legacy","1024","2","48000","-16","task","5208496","even","NA","63052","70342","65056","143995","7064","53447","45597","144498","NA","143993","144499","143927","70341","145067","60801","143427","6994","120594","Lexical Decision Task","31","37918","38","yes","1024"
"3.039414119","0","9","meep","non-word","82.05128205128206","82.05128205128206","1010.6410256410256","1010.6410256410256","black","no","legacy","legacy","legacy","0","uniform","1","undefined","undefined","undefined","1","f","0","0","0","0","38","0","0","0","38","NA","34","38","34","0","34","3","38","0","38","Fri Feb 19 11:43:35 2021","The main experiment item","yes","Lexical_Decision_Task.osexp","/Users/isabellewatts","no","Andale Mono","no","18","no","white","no","yes","576","legacy","34","34","3","/Users/isabellewatts/Documents/University/subject-5208496.csv","legacy","Lentiform Loewenfeld","3.3.7","yes","yes","600bd7cfb6416f0113b04181","602110864497cf011d9c0822","0","f","NA","space","space","space","NA","f","1497","NA","5284","38514","7848","NA","1497","2","legacy","1024","2","48000","-16","task","5208496","even","NA","63052","70342","65056","146644","7064","53447","45597","147147","NA","146641","147147","146571","70341","148645","60801","143427","6994","145071","Lexical Decision Task","32","39415","39","yes","1024"
"2.782472624","10.55","2","huge","word","80","80","1002.125","1002.125","black","no","legacy","legacy","legacy","0","uniform","0","undefined","undefined","undefined","0","j","0","0","0","0","39","0","0","0","39","NA","35","39","35","0","35","3","39","0","39","Fri Feb 19 11:43:35 2021","The main experiment item","yes","Lexical_Decision_Task.osexp","/Users/isabellewatts","no","Andale Mono","no","18","no","white","no","yes","576","legacy","35","35","3","/Users/isabellewatts/Documents/University/subject-5208496.csv","legacy","Lentiform Loewenfeld","3.3.7","yes","yes","600bd7cfb6416f0113b04181","602110864497cf011d9c0822","0","f","NA","space","space","space","NA","f","670","NA","5284","38514","7848","NA","670","2","legacy","1024","2","48000","-16","task","5208496","even","NA","63052","70342","65056","149218","7064","53447","45597","149720","NA","149215","149720","149151","70341","150391","60801","148651","6994","145071","Lexical Decision Task","32","40085","40","yes","1024"
"3.248054965","7.86","5","glow","word","80.48780487804878","80.48780487804878","1003.4146341463414","1003.4146341463414","black","no","legacy","legacy","legacy","0","uniform","1","undefined","undefined","undefined","1","j","0","0","0","0","40","0","0","0","40","NA","36","40","36","0","36","3","40","0","40","Fri Feb 19 11:43:35 2021","The main experiment item","yes","Lexical_Decision_Task.osexp","/Users/isabellewatts","no","Andale Mono","no","18","no","white","no","yes","576","legacy","36","36","3","/Users/isabellewatts/Documents/University/subject-5208496.csv","legacy","Lentiform Loewenfeld","3.3.7","yes","yes","600bd7cfb6416f0113b04181","602110864497cf011d9c0822","0","j","NA","space","space","space","NA","j","1055","NA","5284","38514","7848","NA","1055","2","legacy","1024","2","48000","-16","task","5208496","even","NA","63052","70342","65056","151965","7064","53447","45597","152468","NA","151962","152468","151895","70341","153524","60801","148651","6994","150395","Lexical Decision Task","33","41140","41","yes","1024"
"2.972819734","0","4","scew","non-word","78.57142857142857","78.57142857142857","1004.0238095238095","1004.0238095238095","black","no","legacy","legacy","legacy","0","uniform","0","undefined","undefined","undefined","0","f","0","0","0","0","41","0","0","0","41","NA","37","41","37","0","37","3","41","0","41","Fri Feb 19 11:43:35 2021","The main experiment item","yes","Lexical_Decision_Task.osexp","/Users/isabellewatts","no","Andale Mono","no","18","no","white","no","yes","576","legacy","37","37","3","/Users/isabellewatts/Documents/University/subject-5208496.csv","legacy","Lentiform Loewenfeld","3.3.7","yes","yes","600bd7cfb6416f0113b04181","602110864497cf011d9c0822","0","j","NA","space","space","space","NA","j","1029","NA","5284","38514","7848","NA","1029","2","legacy","1024","2","48000","-16","task","5208496","even","NA","63052","70342","65056","154097","7064","53447","45597","154599","NA","154094","154599","154028","70341","155629","60801","153528","6994","150395","Lexical Decision Task","33","42169","42","yes","1024"
"2.794720352","0","9","koot","non-word","79.06976744186046","79.06976744186046","1003.0697674418604","1003.0697674418604","black","no","legacy","legacy","legacy","0","uniform","1","undefined","undefined","undefined","1","f","0","0","0","0","42","0","0","0","42","NA","38","42","38","0","38","3","42","0","42","Fri Feb 19 11:43:35 2021","The main experiment item","yes","Lexical_Decision_Task.osexp","/Users/isabellewatts","no","Andale Mono","no","18","no","white","no","yes","576","legacy","38","38","3","/Users/isabellewatts/Documents/University/subject-5208496.csv","legacy","Lentiform Loewenfeld","3.3.7","yes","yes","600bd7cfb6416f0113b04181","602110864497cf011d9c0822","0","f","NA","space","space","space","NA","f","963","NA","5284","38514","7848","NA","963","2","legacy","1024","2","48000","-16","task","5208496","even","NA","63052","70342","65056","157206","7064","53447","45597","157708","NA","157203","157709","157133","70341","158674","60801","153528","6994","155633","Lexical Decision Task","34","43132","43","yes","1024"
"3.197740804","6.74","3","ache","word","77.27272727272727","77.27272727272727","998.0227272727273","998.0227272727273","black","no","legacy","legacy","legacy","0","uniform","0","undefined","undefined","undefined","0","j","0","0","0","0","43","0","0","0","43","NA","39","43","39","0","39","3","43","0","43","Fri Feb 19 11:43:35 2021","The main experiment item","yes","Lexical_Decision_Task.osexp","/Users/isabellewatts","no","Andale Mono","no","18","no","white","no","yes","576","legacy","39","39","3","/Users/isabellewatts/Documents/University/subject-5208496.csv","legacy","Lentiform Loewenfeld","3.3.7","yes","yes","600bd7cfb6416f0113b04181","602110864497cf011d9c0822","0","f","NA","space","space","space","NA","f","781","NA","5284","38514","7848","NA","781","2","legacy","1024","2","48000","-16","task","5208496","even","NA","63052","70342","65056","159246","7064","53447","45597","159750","NA","159243","159750","159178","70341","160533","60801","158678","6994","155633","Lexical Decision Task","34","43913","44","yes","1024"
"3.366547468","0","6","plat","non-word","77.77777777777777","77.77777777777777","998.4666666666667","998.4666666666667","black","no","legacy","legacy","legacy","0","uniform","1","undefined","undefined","undefined","1","f","0","0","0","0","44","0","0","0","44","NA","40","44","40","0","40","3","44","0","44","Fri Feb 19 11:43:35 2021","The main experiment item","yes","Lexical_Decision_Task.osexp","/Users/isabellewatts","no","Andale Mono","no","18","no","white","no","yes","576","legacy","40","40","3","/Users/isabellewatts/Documents/University/subject-5208496.csv","legacy","Lentiform Loewenfeld","3.3.7","yes","yes","600bd7cfb6416f0113b04181","602110864497cf011d9c0822","0","f","NA","space","space","space","NA","f","1018","NA","5284","38514","7848","NA","1018","2","legacy","1024","2","48000","-16","task","5208496","even","NA","63052","70342","65056","162118","7064","53447","45597","162620","NA","162115","162620","162038","70341","163639","60801","158678","6994","160538","Lexical Decision Task","35","44931","45","yes","1024"
"3.259832699","0","9","flar","non-word","78.26086956521739","78.26086956521739","998.1739130434783","998.1739130434783","black","no","legacy","legacy","legacy","0","uniform","1","undefined","undefined","undefined","1","f","0","0","0","0","45","0","0","0","45","NA","41","45","41","0","41","3","45","0","45","Fri Feb 19 11:43:35 2021","The main experiment item","yes","Lexical_Decision_Task.osexp","/Users/isabellewatts","no","Andale Mono","no","18","no","white","no","yes","576","legacy","41","41","3","/Users/isabellewatts/Documents/University/subject-5208496.csv","legacy","Lentiform Loewenfeld","3.3.7","yes","yes","600bd7cfb6416f0113b04181","602110864497cf011d9c0822","0","f","NA","space","space","space","NA","f","985","NA","5284","38514","7848","NA","985","2","legacy","1024","2","48000","-16","task","5208496","even","NA","63052","70342","65056","164213","7064","53447","45597","164715","NA","164209","164715","164144","70341","165702","60801","163643","6994","160538","Lexical Decision Task","36","45916","46","yes","1024"
"2.899092422","7.27","6","snag","word","76.59574468085107","76.59574468085107","1040.7659574468084","1040.7659574468084","black","no","legacy","legacy","legacy","0","uniform","0","undefined","undefined","undefined","0","j","0","0","0","0","46","0","0","0","46","NA","42","46","42","0","42","3","46","0","46","Fri Feb 19 11:43:35 2021","The main experiment item","yes","Lexical_Decision_Task.osexp","/Users/isabellewatts","no","Andale Mono","no","18","no","white","no","yes","576","legacy","42","42","3","/Users/isabellewatts/Documents/University/subject-5208496.csv","legacy","Lentiform Loewenfeld","3.3.7","yes","yes","600bd7cfb6416f0113b04181","602110864497cf011d9c0822","0","None","NA","space","space","space","NA","None","3000","NA","5284","38514","7848","NA","3000","2","legacy","1024","2","48000","-16","task","5208496","even","NA","63052","70342","65056","166276","7064","53447","45597","166779","NA","166273","166779","166205","70341","169779","60801","165705","6994","160538","Lexical Decision Task","36","48916","47","yes","1024"
"3.121778632","0","9","sark","non-word","77.08333333333333","77.08333333333333","1035.9583333333333","1035.9583333333333","black","no","legacy","legacy","legacy","0","uniform","1","undefined","undefined","undefined","1","f","0","0","0","0","47","0","0","0","47","NA","43","47","43","0","43","3","47","0","47","Fri Feb 19 11:43:35 2021","The main experiment item","yes","Lexical_Decision_Task.osexp","/Users/isabellewatts","no","Andale Mono","no","18","no","white","no","yes","576","legacy","43","43","3","/Users/isabellewatts/Documents/University/subject-5208496.csv","legacy","Lentiform Loewenfeld","3.3.7","yes","yes","600bd7cfb6416f0113b04181","602110864497cf011d9c0822","0","f","NA","space","space","space","NA","f","810","NA","5284","38514","7848","NA","810","2","legacy","1024","2","48000","-16","task","5208496","even","NA","63052","70342","65056","171351","7064","53447","45597","171853","NA","171348","171853","171283","70341","172664","60801","165705","6994","169783","Lexical Decision Task","37","49726","48","yes","1024"
"3.037294994","8.64","7","roof","word","75.51020408163265","75.51020408163265","1026.4285714285713","1026.4285714285713","black","no","legacy","legacy","legacy","0","uniform","0","undefined","undefined","undefined","0","j","0","0","0","0","48","0","0","0","48","NA","44","48","44","0","44","3","48","0","48","Fri Feb 19 11:43:35 2021","The main experiment item","yes","Lexical_Decision_Task.osexp","/Users/isabellewatts","no","Andale Mono","no","18","no","white","no","yes","576","legacy","44","44","3","/Users/isabellewatts/Documents/University/subject-5208496.csv","legacy","Lentiform Loewenfeld","3.3.7","yes","yes","600bd7cfb6416f0113b04181","602110864497cf011d9c0822","0","f","NA","space","space","space","NA","f","569","NA","5284","38514","7848","NA","569","2","legacy","1024","2","48000","-16","task","5208496","even","NA","63052","70342","65056","173240","7064","53447","45597","173742","NA","173236","173743","173170","70341","174314","60801","172669","6994","169783","Lexical Decision Task","37","50295","49","yes","1024"
"3.031408464","0","7","drow","non-word","74","74","1026.28","1026.28","black","no","legacy","legacy","legacy","0","uniform","0","undefined","undefined","undefined","0","f","0","0","0","0","49","0","0","0","49","NA","45","49","45","0","45","3","49","0","49","Fri Feb 19 11:43:35 2021","The main experiment item","yes","Lexical_Decision_Task.osexp","/Users/isabellewatts","no","Andale Mono","no","18","no","white","no","yes","576","legacy","45","45","3","/Users/isabellewatts/Documents/University/subject-5208496.csv","legacy","Lentiform Loewenfeld","3.3.7","yes","yes","600bd7cfb6416f0113b04181","602110864497cf011d9c0822","0","j","NA","space","space","space","NA","j","1019","NA","5284","38514","7848","NA","1019","2","legacy","1024","2","48000","-16","task","5208496","even","NA","63052","70342","65056","175888","7064","53447","45597","176390","NA","175885","176391","175818","70341","177412","60801","172669","6994","174317","Lexical Decision Task","37","51314","50","yes","1024"
"3.145920145","8.51","8","flew","word","74.50980392156863","74.50980392156863","1024.686274509804","1024.686274509804","black","no","legacy","legacy","legacy","0","uniform","1","undefined","undefined","undefined","1","j","0","0","0","0","50","0","0","0","50","NA","46","50","46","0","46","3","50","0","50","Fri Feb 19 11:43:35 2021","The main experiment item","yes","Lexical_Decision_Task.osexp","/Users/isabellewatts","no","Andale Mono","no","18","no","white","no","yes","576","legacy","46","46","3","/Users/isabellewatts/Documents/University/subject-5208496.csv","legacy","Lentiform Loewenfeld","3.3.7","yes","yes","600bd7cfb6416f0113b04181","602110864497cf011d9c0822","0","j","NA","space","space","space","NA","j","945","NA","5284","38514","7848","NA","945","2","legacy","1024","2","48000","-16","task","5208496","even","NA","63052","70342","65056","178988","7064","53447","45597","179490","NA","178985","179491","178916","70341","180438","60801","172669","6994","177416","Lexical Decision Task","38","52259","51","yes","1024"
"3.082307743","9.68","8","camp","word","75","75","1019.2307692307693","1019.2307692307693","black","no","legacy","legacy","legacy","0","uniform","1","undefined","undefined","undefined","1","j","0","0","0","0","51","0","0","0","51","NA","47","51","47","0","47","3","51","0","51","Fri Feb 19 11:43:35 2021","The main experiment item","yes","Lexical_Decision_Task.osexp","/Users/isabellewatts","no","Andale Mono","no","18","no","white","no","yes","576","legacy","47","47","3","/Users/isabellewatts/Documents/University/subject-5208496.csv","legacy","Lentiform Loewenfeld","3.3.7","yes","yes","600bd7cfb6416f0113b04181","602110864497cf011d9c0822","0","j","NA","space","space","space","NA","j","741","NA","5284","38514","7848","NA","741","2","legacy","1024","2","48000","-16","task","5208496","even","NA","63052","70342","65056","181014","7064","53447","45597","181516","NA","181012","181516","180942","70341","182258","60801","180442","6994","177416","Lexical Decision Task","39","53000","52","yes","1024"
"3.049218023","7.4","9","robe","word","75.47169811320755","75.47169811320755","1016.5094339622641","1016.5094339622641","black","no","legacy","legacy","legacy","0","uniform","1","undefined","undefined","undefined","1","j","0","0","0","0","52","0","0","0","52","NA","48","52","48","0","48","3","52","0","52","Fri Feb 19 11:43:35 2021","The main experiment item","yes","Lexical_Decision_Task.osexp","/Users/isabellewatts","no","Andale Mono","no","18","no","white","no","yes","576","legacy","48","48","3","/Users/isabellewatts/Documents/University/subject-5208496.csv","legacy","Lentiform Loewenfeld","3.3.7","yes","yes","600bd7cfb6416f0113b04181","602110864497cf011d9c0822","0","j","NA","space","space","space","NA","j","875","NA","5284","38514","7848","NA","875","2","legacy","1024","2","48000","-16","task","5208496","even","NA","63052","70342","65056","182834","7064","53447","45597","183337","NA","182831","183337","182763","70341","184213","60801","182262","6994","177416","Lexical Decision Task","40","53875","53","yes","1024"
"3.119255889","6.63","2","itch","word","75.92592592592592","75.92592592592592","1013.1481481481482","1013.1481481481482","black","no","legacy","legacy","legacy","0","uniform","1","undefined","undefined","undefined","1","j","0","0","0","0","53","0","0","0","53","NA","49","53","49","0","49","3","53","0","53","Fri Feb 19 11:43:35 2021","The main experiment item","yes","Lexical_Decision_Task.osexp","/Users/isabellewatts","no","Andale Mono","no","18","no","white","no","yes","576","legacy","49","49","3","/Users/isabellewatts/Documents/University/subject-5208496.csv","legacy","Lentiform Loewenfeld","3.3.7","yes","yes","600bd7cfb6416f0113b04181","602110864497cf011d9c0822","0","j","NA","space","space","space","NA","j","835","NA","5284","38514","7848","NA","835","2","legacy","1024","2","48000","-16","task","5208496","even","NA","63052","70342","65056","184784","7064","53447","45597","185286","NA","184781","185286","184717","70341","186122","60801","184217","6994","177416","Lexical Decision Task","41","54710","54","yes","1024"
"2.980306438","0","7","slun","non-word","76.36363636363636","76.36363636363636","1038.709090909091","1038.709090909091","black","no","legacy","legacy","legacy","0","uniform","1","undefined","undefined","undefined","1","f","0","0","0","0","54","0","0","0","54","0","50","54","50","0","50","3","54","0","54","Fri Feb 19 11:43:35 2021","The main experiment item","yes","Lexical_Decision_Task.osexp","/Users/isabellewatts","no","Andale Mono","no","18","no","white","no","yes","576","legacy","50","50","3","/Users/isabellewatts/Documents/University/subject-5208496.csv","legacy","Lentiform Loewenfeld","3.3.7","yes","yes","600bd7cfb6416f0113b04181","602110864497cf011d9c0822","0","f","NA","space","space","space","space","f","2419","NA","5284","38514","7848","12696","2419","2","legacy","1024","2","48000","-16","task","5208496","even","NA","63052","70342","65056","199419","7064","53447","45597","199921","186660","199416","199922","186627","70341","202342","60801","186127","6994","177416","Lexical Decision Task","42","57129","55","yes","1024"
"2.708989954","9.28","9","bowl","word","76.78571428571429","76.78571428571429","1039.392857142857","1039.392857142857","black","no","legacy","legacy","legacy","0","uniform","1","undefined","undefined","undefined","1","j","0","0","0","0","55","0","0","0","55","0","51","55","51","0","51","3","55","0","55","Fri Feb 19 11:43:35 2021","The main experiment item","yes","Lexical_Decision_Task.osexp","/Users/isabellewatts","no","Andale Mono","no","18","no","white","no","yes","576","legacy","51","51","3","/Users/isabellewatts/Documents/University/subject-5208496.csv","legacy","Lentiform Loewenfeld","3.3.7","yes","yes","600bd7cfb6416f0113b04181","602110864497cf011d9c0822","0","j","NA","space","space","space","space","j","1077","NA","5284","38514","7848","12696","1077","2","legacy","1024","2","48000","-16","task","5208496","even","NA","63052","70342","65056","202910","7064","53447","45597","203412","186660","202908","203412","202846","70341","204491","60801","202346","6994","177416","Lexical Decision Task","43","58206","56","yes","1024"
"2.884795364","0","6","flob","non-word","77.19298245614036","77.19298245614036","1034.9122807017543","1034.9122807017543","black","no","legacy","legacy","legacy","0","uniform","1","undefined","undefined","undefined","1","f","0","0","0","0","56","0","0","0","56","0","52","56","52","0","52","3","56","0","56","Fri Feb 19 11:43:35 2021","The main experiment item","yes","Lexical_Decision_Task.osexp","/Users/isabellewatts","no","Andale Mono","no","18","no","white","no","yes","576","legacy","52","52","3","/Users/isabellewatts/Documents/University/subject-5208496.csv","legacy","Lentiform Loewenfeld","3.3.7","yes","yes","600bd7cfb6416f0113b04181","602110864497cf011d9c0822","0","f","NA","space","space","space","space","f","784","NA","5284","38514","7848","12696","784","2","legacy","1024","2","48000","-16","task","5208496","even","NA","63052","70342","65056","205062","7064","53447","45597","205564","186660","205059","205564","204995","70341","206349","60801","204495","6994","177416","Lexical Decision Task","44","58990","57","yes","1024"
"2.952953801","0","8","clax","non-word","77.58620689655173","77.58620689655173","1030.5344827586207","1030.5344827586207","black","no","legacy","legacy","legacy","0","uniform","1","undefined","undefined","undefined","1","f","0","0","0","0","57","0","0","0","57","0","53","57","53","0","53","3","57","0","57","Fri Feb 19 11:43:35 2021","The main experiment item","yes","Lexical_Decision_Task.osexp","/Users/isabellewatts","no","Andale Mono","no","18","no","white","no","yes","576","legacy","53","53","3","/Users/isabellewatts/Documents/University/subject-5208496.csv","legacy","Lentiform Loewenfeld","3.3.7","yes","yes","600bd7cfb6416f0113b04181","602110864497cf011d9c0822","0","f","NA","space","space","space","space","f","781","NA","5284","38514","7848","12696","781","2","legacy","1024","2","48000","-16","task","5208496","even","NA","63052","70342","65056","206920","7064","53447","45597","207423","186660","206917","207423","206853","70341","208205","60801","206353","6994","177416","Lexical Decision Task","45","59771","58","yes","1024"
"2.907588697","8.91","9","mood","word","77.96610169491525","77.96610169491525","1022.1864406779661","1022.1864406779661","black","no","legacy","legacy","legacy","0","uniform","1","undefined","undefined","undefined","1","j","0","0","0","0","58","0","0","0","58","0","54","58","54","0","54","3","58","0","58","Fri Feb 19 11:43:35 2021","The main experiment item","yes","Lexical_Decision_Task.osexp","/Users/isabellewatts","no","Andale Mono","no","18","no","white","no","yes","576","legacy","54","54","3","/Users/isabellewatts/Documents/University/subject-5208496.csv","legacy","Lentiform Loewenfeld","3.3.7","yes","yes","600bd7cfb6416f0113b04181","602110864497cf011d9c0822","0","j","NA","space","space","space","space","j","538","NA","5284","38514","7848","12696","538","2","legacy","1024","2","48000","-16","task","5208496","even","NA","63052","70342","65056","208777","7064","53447","45597","209279","186660","208774","209279","208709","70341","209819","60801","208209","6994","177416","Lexical Decision Task","46","60309","59","yes","1024"
"2.986323777","10.85","8","ship","word","78.33333333333333","78.33333333333333","1018.0666666666667","1018.0666666666667","black","no","legacy","legacy","legacy","0","uniform","1","undefined","undefined","undefined","1","j","0","0","0","0","59","0","0","0","59","0","55","59","55","0","55","3","59","0","59","Fri Feb 19 11:43:35 2021","The main experiment item","yes","Lexical_Decision_Task.osexp","/Users/isabellewatts","no","Andale Mono","no","18","no","white","no","yes","576","legacy","55","55","3","/Users/isabellewatts/Documents/University/subject-5208496.csv","legacy","Lentiform Loewenfeld","3.3.7","yes","yes","600bd7cfb6416f0113b04181","602110864497cf011d9c0822","0","j","NA","space","space","space","space","j","775","NA","5284","38514","7848","12696","775","2","legacy","1024","2","48000","-16","task","5208496","even","NA","63052","70342","65056","210392","7064","53447","45597","210894","186660","210388","210894","210323","70341","211671","60801","209823","6994","177416","Lexical Decision Task","47","61084","60","yes","1024"
"2.843025032","0","9","pusk","non-word","78.68852459016394","78.68852459016394","1013.639344262295","1013.639344262295","black","no","legacy","legacy","legacy","0","uniform","1","undefined","undefined","undefined","1","f","0","0","0","0","60","0","0","0","60","0","56","60","56","0","56","3","60","0","60","Fri Feb 19 11:43:35 2021","The main experiment item","yes","Lexical_Decision_Task.osexp","/Users/isabellewatts","no","Andale Mono","no","18","no","white","no","yes","576","legacy","56","56","3","/Users/isabellewatts/Documents/University/subject-5208496.csv","legacy","Lentiform Loewenfeld","3.3.7","yes","yes","600bd7cfb6416f0113b04181","602110864497cf011d9c0822","0","f","NA","space","space","space","space","f","748","NA","5284","38514","7848","12696","748","2","legacy","1024","2","48000","-16","task","5208496","even","NA","63052","70342","65056","212243","7064","53447","45597","212745","186660","212240","212746","212175","70341","213495","60801","211675","6994","177416","Lexical Decision Task","48","61832","61","yes","1024"
"3.492014979","0","9","yine","non-word","77.41935483870968","77.41935483870968","1016.1935483870968","1016.1935483870968","black","no","legacy","legacy","legacy","0","uniform","0","undefined","undefined","undefined","0","f","0","0","0","0","61","0","0","0","61","0","57","61","57","0","57","3","61","0","61","Fri Feb 19 11:43:35 2021","The main experiment item","yes","Lexical_Decision_Task.osexp","/Users/isabellewatts","no","Andale Mono","no","18","no","white","no","yes","576","legacy","57","57","3","/Users/isabellewatts/Documents/University/subject-5208496.csv","legacy","Lentiform Loewenfeld","3.3.7","yes","yes","600bd7cfb6416f0113b04181","602110864497cf011d9c0822","0","j","NA","space","space","space","space","j","1172","NA","5284","38514","7848","12696","1172","2","legacy","1024","2","48000","-16","task","5208496","even","NA","63052","70342","65056","214064","7064","53447","45597","214568","186660","214061","214568","213999","70341","215742","60801","213499","6994","177416","Lexical Decision Task","48","63004","62","yes","1024"
"3.140404328","10.66","9","deep","word","77.77777777777777","77.77777777777777","1010.8888888888889","1010.8888888888889","black","no","legacy","legacy","legacy","0","uniform","1","undefined","undefined","undefined","1","j","0","0","0","0","62","0","0","0","62","0","58","62","58","0","58","3","62","0","62","Fri Feb 19 11:43:35 2021","The main experiment item","yes","Lexical_Decision_Task.osexp","/Users/isabellewatts","no","Andale Mono","no","18","no","white","no","yes","576","legacy","58","58","3","/Users/isabellewatts/Documents/University/subject-5208496.csv","legacy","Lentiform Loewenfeld","3.3.7","yes","yes","600bd7cfb6416f0113b04181","602110864497cf011d9c0822","0","j","NA","space","space","space","space","j","682","NA","5284","38514","7848","12696","682","2","legacy","1024","2","48000","-16","task","5208496","even","NA","63052","70342","65056","217314","7064","53447","45597","217817","186660","217312","217817","217246","70341","218500","60801","213499","6994","215746","Lexical Decision Task","49","63686","63","yes","1024"
"3.094121596","0","8","fode","non-word","78.125","78.125","1006.015625","1006.015625","black","no","legacy","legacy","legacy","0","uniform","1","undefined","undefined","undefined","1","f","0","0","0","0","63","0","0","0","63","0","59","63","59","0","59","3","63","0","63","Fri Feb 19 11:43:35 2021","The main experiment item","yes","Lexical_Decision_Task.osexp","/Users/isabellewatts","no","Andale Mono","no","18","no","white","no","yes","576","legacy","59","59","3","/Users/isabellewatts/Documents/University/subject-5208496.csv","legacy","Lentiform Loewenfeld","3.3.7","yes","yes","600bd7cfb6416f0113b04181","602110864497cf011d9c0822","0","f","NA","space","space","space","space","f","699","NA","5284","38514","7848","12696","699","2","legacy","1024","2","48000","-16","task","5208496","even","NA","63052","70342","65056","219072","7064","53447","45597","219574","186660","219069","219574","219004","70341","220275","60801","218504","6994","215746","Lexical Decision Task","50","64385","64","yes","1024"
"2.799799878","0","4","ciff","non-word","78.46153846153847","78.46153846153847","1008.6153846153846","1008.6153846153846","black","no","legacy","legacy","legacy","0","uniform","1","undefined","undefined","undefined","1","f","0","0","0","0","64","0","0","0","64","0","60","64","60","0","60","3","64","0","64","Fri Feb 19 11:43:35 2021","The main experiment item","yes","Lexical_Decision_Task.osexp","/Users/isabellewatts","no","Andale Mono","no","18","no","white","no","yes","576","legacy","60","60","3","/Users/isabellewatts/Documents/University/subject-5208496.csv","legacy","Lentiform Loewenfeld","3.3.7","yes","yes","600bd7cfb6416f0113b04181","602110864497cf011d9c0822","0","f","NA","space","space","space","space","f","1175","NA","5284","38514","7848","12696","1175","2","legacy","1024","2","48000","-16","task","5208496","even","NA","63052","70342","65056","220846","7064","53447","45597","221348","186660","220843","221348","220779","70341","222525","60801","220279","6994","215746","Lexical Decision Task","51","65560","65","yes","1024"
"3.474361976","5.24","6","veer","word","77.27272727272727","77.27272727272727","1005.3030303030303","1005.3030303030303","black","no","legacy","legacy","legacy","0","uniform","0","undefined","undefined","undefined","0","j","0","0","0","0","65","0","0","0","65","0","61","65","61","0","61","3","65","0","65","Fri Feb 19 11:43:35 2021","The main experiment item","yes","Lexical_Decision_Task.osexp","/Users/isabellewatts","no","Andale Mono","no","18","no","white","no","yes","576","legacy","61","61","3","/Users/isabellewatts/Documents/University/subject-5208496.csv","legacy","Lentiform Loewenfeld","3.3.7","yes","yes","600bd7cfb6416f0113b04181","602110864497cf011d9c0822","0","f","NA","space","space","space","space","f","790","NA","5284","38514","7848","12696","790","2","legacy","1024","2","48000","-16","task","5208496","even","NA","63052","70342","65056","223097","7064","53447","45597","223599","186660","223095","223599","223031","70341","224391","60801","222531","6994","215746","Lexical Decision Task","51","66350","66","yes","1024"
"3.531734309","0","6","lerd","non-word","76.11940298507463","76.11940298507463","1001.7014925373135","1001.7014925373135","black","no","legacy","legacy","legacy","0","uniform","0","undefined","undefined","undefined","0","f","0","0","0","0","66","0","0","0","66","0","62","66","62","0","62","3","66","0","66","Fri Feb 19 11:43:35 2021","The main experiment item","yes","Lexical_Decision_Task.osexp","/Users/isabellewatts","no","Andale Mono","no","18","no","white","no","yes","576","legacy","62","62","3","/Users/isabellewatts/Documents/University/subject-5208496.csv","legacy","Lentiform Loewenfeld","3.3.7","yes","yes","600bd7cfb6416f0113b04181","602110864497cf011d9c0822","0","j","NA","space","space","space","space","j","764","NA","5284","38514","7848","12696","764","2","legacy","1024","2","48000","-16","task","5208496","even","NA","63052","70342","65056","225965","7064","53447","45597","226469","186660","225963","226469","225896","70341","227234","60801","222531","6994","224396","Lexical Decision Task","51","67114","67","yes","1024"
"3.368162872","0","4","ferk","non-word","76.47058823529412","76.47058823529412","1008.0441176470588","1008.0441176470588","black","no","legacy","legacy","legacy","0","uniform","1","undefined","undefined","undefined","1","f","0","0","0","0","67","0","0","0","67","0","63","67","63","0","63","3","67","0","67","Fri Feb 19 11:43:35 2021","The main experiment item","yes","Lexical_Decision_Task.osexp","/Users/isabellewatts","no","Andale Mono","no","18","no","white","no","yes","576","legacy","63","63","3","/Users/isabellewatts/Documents/University/subject-5208496.csv","legacy","Lentiform Loewenfeld","3.3.7","yes","yes","600bd7cfb6416f0113b04181","602110864497cf011d9c0822","0","f","NA","space","space","space","space","f","1433","NA","5284","38514","7848","12696","1433","2","legacy","1024","2","48000","-16","task","5208496","even","NA","63052","70342","65056","228809","7064","53447","45597","229311","186660","228805","229311","228738","70341","230745","60801","222531","6994","227238","Lexical Decision Task","52","68547","68","yes","1024"
"3.120025233","0","2","nyst","non-word","76.81159420289855","76.81159420289855","1007.5507246376811","1007.5507246376811","black","no","legacy","legacy","legacy","0","uniform","1","undefined","undefined","undefined","1","f","0","0","0","0","68","0","0","0","68","0","64","68","64","0","64","3","68","0","68","Fri Feb 19 11:43:35 2021","The main experiment item","yes","Lexical_Decision_Task.osexp","/Users/isabellewatts","no","Andale Mono","no","18","no","white","no","yes","576","legacy","64","64","3","/Users/isabellewatts/Documents/University/subject-5208496.csv","legacy","Lentiform Loewenfeld","3.3.7","yes","yes","600bd7cfb6416f0113b04181","602110864497cf011d9c0822","0","f","NA","space","space","space","space","f","974","NA","5284","38514","7848","12696","974","2","legacy","1024","2","48000","-16","task","5208496","even","NA","63052","70342","65056","231317","7064","53447","45597","231819","186660","231314","231819","231250","70341","232794","60801","230750","6994","227238","Lexical Decision Task","53","69521","69","yes","1024"
"2.616654026","9.37","5","gift","word","77.14285714285714","77.14285714285714","1024.3285714285714","1024.3285714285714","black","no","legacy","legacy","legacy","0","uniform","1","undefined","undefined","undefined","1","j","0","0","0","0","69","0","0","0","69","0","65","69","65","0","65","3","69","0","69","Fri Feb 19 11:43:35 2021","The main experiment item","yes","Lexical_Decision_Task.osexp","/Users/isabellewatts","no","Andale Mono","no","18","no","white","no","yes","576","legacy","65","65","3","/Users/isabellewatts/Documents/University/subject-5208496.csv","legacy","Lentiform Loewenfeld","3.3.7","yes","yes","600bd7cfb6416f0113b04181","602110864497cf011d9c0822","0","j","NA","space","space","space","space","j","2182","NA","5284","38514","7848","12696","2182","2","legacy","1024","2","48000","-16","task","5208496","even","NA","63052","70342","65056","233364","7064","53447","45597","233867","186660","233362","233867","233298","70341","236050","60801","232798","6994","227238","Lexical Decision Task","54","71703","70","yes","1024"
"3.077974404","10.41","8","tool","word","77.46478873239437","77.46478873239437","1027.7323943661972","1027.7323943661972","black","no","legacy","legacy","legacy","0","uniform","1","undefined","undefined","undefined","1","j","0","0","0","0","70","0","0","0","70","0","66","70","66","0","66","3","70","0","70","Fri Feb 19 11:43:35 2021","The main experiment item","yes","Lexical_Decision_Task.osexp","/Users/isabellewatts","no","Andale Mono","no","18","no","white","no","yes","576","legacy","66","66","3","/Users/isabellewatts/Documents/University/subject-5208496.csv","legacy","Lentiform Loewenfeld","3.3.7","yes","yes","600bd7cfb6416f0113b04181","602110864497cf011d9c0822","0","j","NA","space","space","space","space","j","1266","NA","5284","38514","7848","12696","1266","2","legacy","1024","2","48000","-16","task","5208496","even","NA","63052","70342","65056","236619","7064","53447","45597","237121","186660","236616","237121","236555","70341","238389","60801","236054","6994","227238","Lexical Decision Task","55","72969","71","yes","1024"
"2.767650507","0","6","yolt","non-word","76.38888888888889","76.38888888888889","1023.4444444444445","1023.4444444444445","black","no","legacy","legacy","legacy","0","uniform","0","undefined","undefined","undefined","0","f","0","0","0","0","71","0","0","0","71","0","67","71","67","0","67","3","71","0","71","Fri Feb 19 11:43:35 2021","The main experiment item","yes","Lexical_Decision_Task.osexp","/Users/isabellewatts","no","Andale Mono","no","18","no","white","no","yes","576","legacy","67","67","3","/Users/isabellewatts/Documents/University/subject-5208496.csv","legacy","Lentiform Loewenfeld","3.3.7","yes","yes","600bd7cfb6416f0113b04181","602110864497cf011d9c0822","0","j","NA","space","space","space","space","j","719","NA","5284","38514","7848","12696","719","2","legacy","1024","2","48000","-16","task","5208496","even","NA","63052","70342","65056","238959","7064","53447","45597","239461","186660","238956","239461","238893","70341","240181","60801","238393","6994","227238","Lexical Decision Task","55","73688","72","yes","1024"
"3.165936429","0","7","leps","non-word","76.71232876712328","76.71232876712328","1018.4794520547945","1018.4794520547945","black","no","legacy","legacy","legacy","0","uniform","1","undefined","undefined","undefined","1","f","0","0","0","0","72","0","0","0","72","0","68","72","68","0","68","3","72","0","72","Fri Feb 19 11:43:35 2021","The main experiment item","yes","Lexical_Decision_Task.osexp","/Users/isabellewatts","no","Andale Mono","no","18","no","white","no","yes","576","legacy","68","68","3","/Users/isabellewatts/Documents/University/subject-5208496.csv","legacy","Lentiform Loewenfeld","3.3.7","yes","yes","600bd7cfb6416f0113b04181","602110864497cf011d9c0822","0","f","NA","space","space","space","space","f","661","NA","5284","38514","7848","12696","661","2","legacy","1024","2","48000","-16","task","5208496","even","NA","63052","70342","65056","241753","7064","53447","45597","242256","186660","241751","242257","241685","70341","242919","60801","238393","6994","240185","Lexical Decision Task","56","74349","73","yes","1024"
"2.895974732","6.65","5","sift","word","75.67567567567568","75.67567567567568","1045.2567567567567","1045.2567567567567","black","no","legacy","legacy","legacy","0","uniform","0","undefined","undefined","undefined","0","j","0","0","0","0","73","0","0","0","73","0","69","73","69","0","69","3","73","0","73","Fri Feb 19 11:43:35 2021","The main experiment item","yes","Lexical_Decision_Task.osexp","/Users/isabellewatts","no","Andale Mono","no","18","no","white","no","yes","576","legacy","69","69","3","/Users/isabellewatts/Documents/University/subject-5208496.csv","legacy","Lentiform Loewenfeld","3.3.7","yes","yes","600bd7cfb6416f0113b04181","602110864497cf011d9c0822","0","None","NA","space","space","space","space","None","3000","NA","5284","38514","7848","12696","3000","2","legacy","1024","2","48000","-16","task","5208496","even","NA","63052","70342","65056","243489","7064","53447","45597","243991","186660","243487","243991","243423","70341","246991","60801","242923","6994","240185","Lexical Decision Task","56","77349","74","yes","1024"
"3.481012421","8.34","5","teen","word","76","76","1042.9066666666668","1042.9066666666668","black","no","legacy","legacy","legacy","0","uniform","1","undefined","undefined","undefined","1","j","0","0","0","0","74","0","0","0","74","0","70","74","70","0","70","3","74","0","74","Fri Feb 19 11:43:35 2021","The main experiment item","yes","Lexical_Decision_Task.osexp","/Users/isabellewatts","no","Andale Mono","no","18","no","white","no","yes","576","legacy","70","70","3","/Users/isabellewatts/Documents/University/subject-5208496.csv","legacy","Lentiform Loewenfeld","3.3.7","yes","yes","600bd7cfb6416f0113b04181","602110864497cf011d9c0822","0","j","NA","space","space","space","space","j","869","NA","5284","38514","7848","12696","869","2","legacy","1024","2","48000","-16","task","5208496","even","NA","63052","70342","65056","248563","7064","53447","45597","249066","186660","248561","249066","248495","70341","249938","60801","242923","6994","246995","Lexical Decision Task","57","78218","75","yes","1024"
"3.159867847","5.98","5","brim","word","75","75","1063.4605263157894","1063.4605263157894","black","no","legacy","legacy","legacy","0","uniform","0","undefined","undefined","undefined","0","j","0","0","0","0","75","0","0","0","75","0","71","75","71","0","71","3","75","0","75","Fri Feb 19 11:43:35 2021","The main experiment item","yes","Lexical_Decision_Task.osexp","/Users/isabellewatts","no","Andale Mono","no","18","no","white","no","yes","576","legacy","71","71","3","/Users/isabellewatts/Documents/University/subject-5208496.csv","legacy","Lentiform Loewenfeld","3.3.7","yes","yes","600bd7cfb6416f0113b04181","602110864497cf011d9c0822","0","f","NA","space","space","space","space","f","2605","NA","5284","38514","7848","12696","2605","2","legacy","1024","2","48000","-16","task","5208496","even","NA","63052","70342","65056","250513","7064","53447","45597","251015","186660","250510","251015","250443","70341","253621","60801","249942","6994","246995","Lexical Decision Task","57","80823","76","yes","1024"
"2.9737419","7.69","7","claw","word","75.32467532467533","75.32467532467533","1057.2987012987012","1057.2987012987012","black","no","legacy","legacy","legacy","0","uniform","1","undefined","undefined","undefined","1","j","0","0","0","0","76","0","0","0","76","0","72","76","72","0","72","3","76","0","76","Fri Feb 19 11:43:35 2021","The main experiment item","yes","Lexical_Decision_Task.osexp","/Users/isabellewatts","no","Andale Mono","no","18","no","white","no","yes","576","legacy","72","72","3","/Users/isabellewatts/Documents/University/subject-5208496.csv","legacy","Lentiform Loewenfeld","3.3.7","yes","yes","600bd7cfb6416f0113b04181","602110864497cf011d9c0822","0","j","NA","space","space","space","space","j","589","NA","5284","38514","7848","12696","589","2","legacy","1024","2","48000","-16","task","5208496","even","NA","63052","70342","65056","255197","7064","53447","45597","255700","186660","255194","255700","255126","70341","256292","60801","249942","6994","253626","Lexical Decision Task","58","81412","77","yes","1024"
"3.311895072","0","9","gung","non-word","75.64102564102564","75.64102564102564","1059.320512820513","1059.320512820513","black","no","legacy","legacy","legacy","0","uniform","1","undefined","undefined","undefined","1","f","0","0","0","0","77","0","0","0","77","0","73","77","73","0","73","3","77","0","77","Fri Feb 19 11:43:35 2021","The main experiment item","yes","Lexical_Decision_Task.osexp","/Users/isabellewatts","no","Andale Mono","no","18","no","white","no","yes","576","legacy","73","73","3","/Users/isabellewatts/Documents/University/subject-5208496.csv","legacy","Lentiform Loewenfeld","3.3.7","yes","yes","600bd7cfb6416f0113b04181","602110864497cf011d9c0822","0","f","NA","space","space","space","space","f","1215","NA","5284","38514","7848","12696","1215","2","legacy","1024","2","48000","-16","task","5208496","even","NA","63052","70342","65056","256866","7064","53447","45597","257368","186660","256862","257368","256799","70341","258585","60801","256299","6994","253626","Lexical Decision Task","59","82627","78","yes","1024"
"2.778633532","0","3","jurp","non-word","75.9493670886076","75.9493670886076","1058.987341772152","1058.987341772152","black","no","legacy","legacy","legacy","0","uniform","1","undefined","undefined","undefined","1","f","0","0","0","0","78","0","0","0","78","0","74","78","74","0","74","3","78","0","78","Fri Feb 19 11:43:35 2021","The main experiment item","yes","Lexical_Decision_Task.osexp","/Users/isabellewatts","no","Andale Mono","no","18","no","white","no","yes","576","legacy","74","74","3","/Users/isabellewatts/Documents/University/subject-5208496.csv","legacy","Lentiform Loewenfeld","3.3.7","yes","yes","600bd7cfb6416f0113b04181","602110864497cf011d9c0822","0","f","NA","space","space","space","space","f","1033","NA","5284","38514","7848","12696","1033","2","legacy","1024","2","48000","-16","task","5208496","even","NA","63052","70342","65056","259156","7064","53447","45597","259658","186660","259153","259658","259089","70341","260692","60801","258589","6994","253626","Lexical Decision Task","60","83660","79","yes","1024"
"2.693726949","5.08","3","swig","word","76.25","76.25","1055.5125","1055.5125","black","no","legacy","legacy","legacy","0","uniform","1","undefined","undefined","undefined","1","j","0","0","0","0","79","0","0","0","79","0","75","79","75","0","75","3","79","0","79","Fri Feb 19 11:43:35 2021","The main experiment item","yes","Lexical_Decision_Task.osexp","/Users/isabellewatts","no","Andale Mono","no","18","no","white","no","yes","576","legacy","75","75","3","/Users/isabellewatts/Documents/University/subject-5208496.csv","legacy","Lentiform Loewenfeld","3.3.7","yes","yes","600bd7cfb6416f0113b04181","602110864497cf011d9c0822","0","j","NA","space","space","space","space","j","781","NA","5284","38514","7848","12696","781","2","legacy","1024","2","48000","-16","task","5208496","even","NA","63052","70342","65056","261264","7064","53447","45597","261767","186660","261261","261767","261196","70341","262549","60801","260696","6994","253626","Lexical Decision Task","61","84441","80","yes","1024"
"3.102203805","7.21","3","drip","word","76.54320987654322","76.54320987654322","1050.5432098765432","1050.5432098765432","black","no","legacy","legacy","legacy","0","uniform","1","undefined","undefined","undefined","1","j","0","0","0","0","80","0","0","0","80","0","76","80","76","0","76","3","80","0","80","Fri Feb 19 11:43:35 2021","The main experiment item","yes","Lexical_Decision_Task.osexp","/Users/isabellewatts","no","Andale Mono","no","18","no","white","no","yes","576","legacy","76","76","3","/Users/isabellewatts/Documents/University/subject-5208496.csv","legacy","Lentiform Loewenfeld","3.3.7","yes","yes","600bd7cfb6416f0113b04181","602110864497cf011d9c0822","0","j","NA","space","space","space","space","j","653","NA","5284","38514","7848","12696","653","2","legacy","1024","2","48000","-16","task","5208496","even","NA","63052","70342","65056","263122","7064","53447","45597","263624","186660","263119","263624","263053","70341","264278","60801","262553","6994","253626","Lexical Decision Task","62","85094","81","yes","1024"
"3.066077331","0","7","vorn","non-word","76.82926829268293","76.82926829268293","1053.9756097560976","1053.9756097560976","black","no","legacy","legacy","legacy","0","uniform","1","undefined","undefined","undefined","1","f","0","0","0","0","81","0","0","0","81","0","77","81","77","0","77","3","81","0","81","Fri Feb 19 11:43:35 2021","The main experiment item","yes","Lexical_Decision_Task.osexp","/Users/isabellewatts","no","Andale Mono","no","18","no","white","no","yes","576","legacy","77","77","3","/Users/isabellewatts/Documents/University/subject-5208496.csv","legacy","Lentiform Loewenfeld","3.3.7","yes","yes","600bd7cfb6416f0113b04181","602110864497cf011d9c0822","0","f","NA","space","space","space","space","f","1332","NA","5284","38514","7848","12696","1332","2","legacy","1024","2","48000","-16","task","5208496","even","NA","63052","70342","65056","264853","7064","53447","45597","265356","186660","264851","265356","264782","70341","266689","60801","264282","6994","253626","Lexical Decision Task","63","86426","82","yes","1024"
"3.282244367","0","6","fute","non-word","75.90361445783132","75.90361445783132","1051.3253012048192","1051.3253012048192","black","no","legacy","legacy","legacy","0","uniform","0","undefined","undefined","undefined","0","f","0","0","0","0","82","0","0","0","82","0","78","82","78","0","78","3","82","0","82","Fri Feb 19 11:43:35 2021","The main experiment item","yes","Lexical_Decision_Task.osexp","/Users/isabellewatts","no","Andale Mono","no","18","no","white","no","yes","576","legacy","78","78","3","/Users/isabellewatts/Documents/University/subject-5208496.csv","legacy","Lentiform Loewenfeld","3.3.7","yes","yes","600bd7cfb6416f0113b04181","602110864497cf011d9c0822","0","j","NA","space","space","space","space","j","834","NA","5284","38514","7848","12696","834","2","legacy","1024","2","48000","-16","task","5208496","even","NA","63052","70342","65056","267263","7064","53447","45597","267765","186660","267260","267765","267193","70341","268600","60801","266693","6994","253626","Lexical Decision Task","63","87260","83","yes","1024"
"2.898725182","0","7","turl","non-word","75","75","1047.9166666666667","1047.9166666666667","black","no","legacy","legacy","legacy","0","uniform","0","undefined","undefined","undefined","0","f","0","0","0","0","83","0","0","0","83","0","79","83","79","0","79","3","83","0","83","Fri Feb 19 11:43:35 2021","The main experiment item","yes","Lexical_Decision_Task.osexp","/Users/isabellewatts","no","Andale Mono","no","18","no","white","no","yes","576","legacy","79","79","3","/Users/isabellewatts/Documents/University/subject-5208496.csv","legacy","Lentiform Loewenfeld","3.3.7","yes","yes","600bd7cfb6416f0113b04181","602110864497cf011d9c0822","0","j","NA","space","space","space","space","j","765","NA","5284","38514","7848","12696","765","2","legacy","1024","2","48000","-16","task","5208496","even","NA","63052","70342","65056","270174","7064","53447","45597","270676","186660","270171","270676","270105","70341","271442","60801","266693","6994","268605","Lexical Decision Task","63","88025","84","yes","1024"
"3.068433376","8.09","2","bulb","word","75.29411764705883","75.29411764705883","1044.7176470588236","1044.7176470588236","black","no","legacy","legacy","legacy","0","uniform","1","undefined","undefined","undefined","1","j","0","0","0","0","84","0","0","0","84","0","80","84","80","0","80","3","84","0","84","Fri Feb 19 11:43:35 2021","The main experiment item","yes","Lexical_Decision_Task.osexp","/Users/isabellewatts","no","Andale Mono","no","18","no","white","no","yes","576","legacy","80","80","3","/Users/isabellewatts/Documents/University/subject-5208496.csv","legacy","Lentiform Loewenfeld","3.3.7","yes","yes","600bd7cfb6416f0113b04181","602110864497cf011d9c0822","0","j","NA","space","space","space","space","j","776","NA","5284","38514","7848","12696","776","2","legacy","1024","2","48000","-16","task","5208496","even","NA","63052","70342","65056","273017","7064","53447","45597","273519","186660","273014","273519","272946","70341","274296","60801","266693","6994","271446","Lexical Decision Task","64","88801","85","yes","1024"
"3.105055783","0","2","norp","non-word","75.5813953488372","75.5813953488372","1039.8953488372092","1039.8953488372092","black","no","legacy","legacy","legacy","0","uniform","1","undefined","undefined","undefined","1","f","0","0","0","0","85","0","0","0","85","0","81","85","81","0","81","3","85","0","85","Fri Feb 19 11:43:35 2021","The main experiment item","yes","Lexical_Decision_Task.osexp","/Users/isabellewatts","no","Andale Mono","no","18","no","white","no","yes","576","legacy","81","81","3","/Users/isabellewatts/Documents/University/subject-5208496.csv","legacy","Lentiform Loewenfeld","3.3.7","yes","yes","600bd7cfb6416f0113b04181","602110864497cf011d9c0822","0","f","NA","space","space","space","space","f","630","NA","5284","38514","7848","12696","630","2","legacy","1024","2","48000","-16","task","5208496","even","NA","63052","70342","65056","274870","7064","53447","45597","275372","186660","274867","275372","274800","70341","276004","60801","274300","6994","271446","Lexical Decision Task","65","89431","86","yes","1024"
"2.771097306","0","9","jold","non-word","75.86206896551724","75.86206896551724","1035.7586206896551","1035.7586206896551","black","no","legacy","legacy","legacy","0","uniform","1","undefined","undefined","undefined","1","f","0","0","0","0","86","0","0","0","86","0","82","86","82","0","82","3","86","0","86","Fri Feb 19 11:43:35 2021","The main experiment item","yes","Lexical_Decision_Task.osexp","/Users/isabellewatts","no","Andale Mono","no","18","no","white","no","yes","576","legacy","82","82","3","/Users/isabellewatts/Documents/University/subject-5208496.csv","legacy","Lentiform Loewenfeld","3.3.7","yes","yes","600bd7cfb6416f0113b04181","602110864497cf011d9c0822","0","f","NA","space","space","space","space","f","680","NA","5284","38514","7848","12696","680","2","legacy","1024","2","48000","-16","task","5208496","even","NA","63052","70342","65056","276574","7064","53447","45597","277077","186660","276572","277077","276507","70341","277759","60801","276007","6994","271446","Lexical Decision Task","66","90111","87","yes","1024"
"3.261341392","5.08","8","reek","word","75","75","1032.0795454545455","1032.0795454545455","black","no","legacy","legacy","legacy","0","uniform","0","undefined","undefined","undefined","0","j","0","0","0","0","87","0","0","0","87","0","83","87","83","0","83","3","87","0","87","Fri Feb 19 11:43:35 2021","The main experiment item","yes","Lexical_Decision_Task.osexp","/Users/isabellewatts","no","Andale Mono","no","18","no","white","no","yes","576","legacy","83","83","3","/Users/isabellewatts/Documents/University/subject-5208496.csv","legacy","Lentiform Loewenfeld","3.3.7","yes","yes","600bd7cfb6416f0113b04181","602110864497cf011d9c0822","0","f","NA","space","space","space","space","f","712","NA","5284","38514","7848","12696","712","2","legacy","1024","2","48000","-16","task","5208496","even","NA","63052","70342","65056","278332","7064","53447","45597","278834","186660","278328","278835","278262","70341","279548","60801","277762","6994","271446","Lexical Decision Task","66","90823","88","yes","1024"
"3.062080345","0","6","tomp","non-word","75.28089887640449","75.28089887640449","1035.258426966292","1035.258426966292","black","no","legacy","legacy","legacy","0","uniform","1","undefined","undefined","undefined","1","f","0","0","0","0","88","0","0","0","88","0","84","88","84","0","84","3","88","0","88","Fri Feb 19 11:43:35 2021","The main experiment item","yes","Lexical_Decision_Task.osexp","/Users/isabellewatts","no","Andale Mono","no","18","no","white","no","yes","576","legacy","84","84","3","/Users/isabellewatts/Documents/University/subject-5208496.csv","legacy","Lentiform Loewenfeld","3.3.7","yes","yes","600bd7cfb6416f0113b04181","602110864497cf011d9c0822","0","f","NA","space","space","space","space","f","1315","NA","5284","38514","7848","12696","1315","2","legacy","1024","2","48000","-16","task","5208496","even","NA","63052","70342","65056","281124","7064","53447","45597","281626","186660","281121","281627","281052","70341","282944","60801","277762","6994","279552","Lexical Decision Task","67","92138","89","yes","1024"
"3.303771854","0","9","dath","non-word","74.44444444444444","74.44444444444444","1057.088888888889","1057.088888888889","black","no","legacy","legacy","legacy","0","uniform","0","undefined","undefined","undefined","0","f","0","0","0","0","89","0","0","0","89","0","85","89","85","0","85","3","89","0","89","Fri Feb 19 11:43:35 2021","The main experiment item","yes","Lexical_Decision_Task.osexp","/Users/isabellewatts","no","Andale Mono","no","18","no","white","no","yes","576","legacy","85","85","3","/Users/isabellewatts/Documents/University/subject-5208496.csv","legacy","Lentiform Loewenfeld","3.3.7","yes","yes","600bd7cfb6416f0113b04181","602110864497cf011d9c0822","0","None","NA","space","space","space","space","None","3000","NA","5284","38514","7848","12696","3000","2","legacy","1024","2","48000","-16","task","5208496","even","NA","63052","70342","65056","283518","7064","53447","45597","284021","186660","283515","284022","283448","70341","287022","60801","282948","6994","279552","Lexical Decision Task","67","95138","90","yes","1024"
"2.696644658","5.78","2","yolk","word","73.62637362637362","73.62637362637362","1056.2307692307693","1056.2307692307693","black","no","legacy","legacy","legacy","0","uniform","0","undefined","undefined","undefined","0","j","0","0","0","0","90","0","0","0","90","0","86","90","86","0","86","3","90","0","90","Fri Feb 19 11:43:35 2021","The main experiment item","yes","Lexical_Decision_Task.osexp","/Users/isabellewatts","no","Andale Mono","no","18","no","white","no","yes","576","legacy","86","86","3","/Users/isabellewatts/Documents/University/subject-5208496.csv","legacy","Lentiform Loewenfeld","3.3.7","yes","yes","600bd7cfb6416f0113b04181","602110864497cf011d9c0822","0","f","NA","space","space","space","space","f","979","NA","5284","38514","7848","12696","979","2","legacy","1024","2","48000","-16","task","5208496","even","NA","63052","70342","65056","288599","7064","53447","45597","289101","186660","288595","289101","288528","70341","290081","60801","282948","6994","287028","Lexical Decision Task","67","96117","91","yes","1024"
"3.20996159","0","4","clee","non-word","72.82608695652173","72.82608695652173","1077.358695652174","1077.358695652174","black","no","legacy","legacy","legacy","0","uniform","0","undefined","undefined","undefined","0","f","0","0","0","0","91","0","0","0","91","0","87","91","87","0","87","3","91","0","91","Fri Feb 19 11:43:35 2021","The main experiment item","yes","Lexical_Decision_Task.osexp","/Users/isabellewatts","no","Andale Mono","no","18","no","white","no","yes","576","legacy","87","87","3","/Users/isabellewatts/Documents/University/subject-5208496.csv","legacy","Lentiform Loewenfeld","3.3.7","yes","yes","600bd7cfb6416f0113b04181","602110864497cf011d9c0822","0","None","NA","space","space","space","space","None","3000","NA","5284","38514","7848","12696","3000","2","legacy","1024","2","48000","-16","task","5208496","even","NA","63052","70342","65056","291656","7064","53447","45597","292158","186660","291653","292159","291586","70341","295160","60801","282948","6994","290085","Lexical Decision Task","67","99117","92","yes","1024"
"2.67699827","0","6","hulf","non-word","73.11827956989248","73.11827956989248","1075.3763440860216","1075.3763440860216","black","no","legacy","legacy","legacy","0","uniform","1","undefined","undefined","undefined","1","f","0","0","0","0","92","0","0","0","92","0","88","92","88","0","88","3","92","0","92","Fri Feb 19 11:43:35 2021","The main experiment item","yes","Lexical_Decision_Task.osexp","/Users/isabellewatts","no","Andale Mono","no","18","no","white","no","yes","576","legacy","88","88","3","/Users/isabellewatts/Documents/University/subject-5208496.csv","legacy","Lentiform Loewenfeld","3.3.7","yes","yes","600bd7cfb6416f0113b04181","602110864497cf011d9c0822","0","f","NA","space","space","space","space","f","893","NA","5284","38514","7848","12696","893","2","legacy","1024","2","48000","-16","task","5208496","even","NA","63052","70342","65056","296733","7064","53447","45597","297236","186660","296729","297236","296664","70341","298132","60801","282948","6994","295164","Lexical Decision Task","68","100010","93","yes","1024"
"3.153104174","10.89","6","door","word","73.40425531914893","73.40425531914893","1071.031914893617","1071.031914893617","black","no","legacy","legacy","legacy","0","uniform","1","undefined","undefined","undefined","1","j","0","0","0","0","93","0","0","0","93","0","89","93","89","0","89","3","93","0","93","Fri Feb 19 11:43:35 2021","The main experiment item","yes","Lexical_Decision_Task.osexp","/Users/isabellewatts","no","Andale Mono","no","18","no","white","no","yes","576","legacy","89","89","3","/Users/isabellewatts/Documents/University/subject-5208496.csv","legacy","Lentiform Loewenfeld","3.3.7","yes","yes","600bd7cfb6416f0113b04181","602110864497cf011d9c0822","0","j","NA","space","space","space","space","j","667","NA","5284","38514","7848","12696","667","2","legacy","1024","2","48000","-16","task","5208496","even","NA","63052","70342","65056","298704","7064","53447","45597","299207","186660","298702","299207","298639","70341","299876","60801","298139","6994","295164","Lexical Decision Task","69","100677","94","yes","1024"
"2.7084209","0","8","vump","non-word","73.6842105263158","73.6842105263158","1070.7578947368422","1070.7578947368422","black","no","legacy","legacy","legacy","0","uniform","1","undefined","undefined","undefined","1","f","0","0","0","0","94","0","0","0","94","0","90","94","90","0","90","3","94","0","94","Fri Feb 19 11:43:35 2021","The main experiment item","yes","Lexical_Decision_Task.osexp","/Users/isabellewatts","no","Andale Mono","no","18","no","white","no","yes","576","legacy","90","90","3","/Users/isabellewatts/Documents/University/subject-5208496.csv","legacy","Lentiform Loewenfeld","3.3.7","yes","yes","600bd7cfb6416f0113b04181","602110864497cf011d9c0822","0","f","NA","space","space","space","space","f","1045","NA","5284","38514","7848","12696","1045","2","legacy","1024","2","48000","-16","task","5208496","even","NA","63052","70342","65056","300446","7064","53447","45597","300949","186660","300443","300949","300380","70341","301996","60801","299880","6994","295164","Lexical Decision Task","70","101722","95","yes","1024"
"2.675164031","8.57","6","glue","word","73.95833333333333","73.95833333333333","1066.0104166666667","1066.0104166666667","black","no","legacy","legacy","legacy","0","uniform","1","undefined","undefined","undefined","1","j","0","0","0","0","95","0","0","0","95","0","91","95","91","0","91","3","95","0","95","Fri Feb 19 11:43:35 2021","The main experiment item","yes","Lexical_Decision_Task.osexp","/Users/isabellewatts","no","Andale Mono","no","18","no","white","no","yes","576","legacy","91","91","3","/Users/isabellewatts/Documents/University/subject-5208496.csv","legacy","Lentiform Loewenfeld","3.3.7","yes","yes","600bd7cfb6416f0113b04181","602110864497cf011d9c0822","0","j","NA","space","space","space","space","j","615","NA","5284","38514","7848","12696","615","2","legacy","1024","2","48000","-16","task","5208496","even","NA","63052","70342","65056","302567","7064","53447","45597","303069","186660","302564","303070","302500","70341","303688","60801","301999","6994","295164","Lexical Decision Task","71","102337","96","yes","1024"
"2.990042563","6.64","9","plow","word","74.22680412371135","74.22680412371135","1068.0309278350514","1068.0309278350514","black","no","legacy","legacy","legacy","0","uniform","1","undefined","undefined","undefined","1","j","0","0","0","0","96","0","0","0","96","0","92","96","92","0","92","3","96","0","96","Fri Feb 19 11:43:35 2021","The main experiment item","yes","Lexical_Decision_Task.osexp","/Users/isabellewatts","no","Andale Mono","no","18","no","white","no","yes","576","legacy","92","92","3","/Users/isabellewatts/Documents/University/subject-5208496.csv","legacy","Lentiform Loewenfeld","3.3.7","yes","yes","600bd7cfb6416f0113b04181","602110864497cf011d9c0822","0","j","NA","space","space","space","space","j","1262","NA","5284","38514","7848","12696","1262","2","legacy","1024","2","48000","-16","task","5208496","even","NA","63052","70342","65056","304258","7064","53447","45597","304762","186660","304255","304762","304191","70341","306026","60801","303691","6994","295164","Lexical Decision Task","72","103599","97","yes","1024"
"3.443783828","7.65","3","verb","word","74.48979591836735","74.48979591836735","1062.5408163265306","1062.5408163265306","black","no","legacy","legacy","legacy","0","uniform","1","undefined","undefined","undefined","1","j","0","0","0","0","97","0","0","0","97","0","93","97","93","0","93","3","97","0","97","Fri Feb 19 11:43:35 2021","The main experiment item","yes","Lexical_Decision_Task.osexp","/Users/isabellewatts","no","Andale Mono","no","18","no","white","no","yes","576","legacy","93","93","3","/Users/isabellewatts/Documents/University/subject-5208496.csv","legacy","Lentiform Loewenfeld","3.3.7","yes","yes","600bd7cfb6416f0113b04181","602110864497cf011d9c0822","0","j","NA","space","space","space","space","j","530","NA","5284","38514","7848","12696","530","2","legacy","1024","2","48000","-16","task","5208496","even","NA","63052","70342","65056","306597","7064","53447","45597","307100","186660","306594","307100","306530","70341","307631","60801","306030","6994","295164","Lexical Decision Task","73","104129","98","yes","1024"
"2.75025376","10.2","6","jump","word","74.74747474747475","74.74747474747475","1056.878787878788","1056.878787878788","black","no","legacy","legacy","legacy","0","uniform","1","undefined","undefined","undefined","1","j","0","0","0","0","98","0","0","0","98","0","94","98","94","0","94","3","98","0","98","Fri Feb 19 11:43:35 2021","The main experiment item","yes","Lexical_Decision_Task.osexp","/Users/isabellewatts","no","Andale Mono","no","18","no","white","no","yes","576","legacy","94","94","3","/Users/isabellewatts/Documents/University/subject-5208496.csv","legacy","Lentiform Loewenfeld","3.3.7","yes","yes","600bd7cfb6416f0113b04181","602110864497cf011d9c0822","0","j","NA","space","space","space","space","j","502","NA","5284","38514","7848","12696","502","2","legacy","1024","2","48000","-16","task","5208496","even","NA","63052","70342","65056","308204","7064","53447","45597","308707","186660","308202","308708","308135","70341","309212","60801","307635","6994","295164","Lexical Decision Task","74","104631","99","yes","1024"
