"Log_BG","Log_Freq_HAL","Ortho_N","Stimulus","Type","acc","accuracy","average_response_time","avg_rt","background","bidi","canvas_backend","clock_backend","color_backend","compensation","coordinates","correct","correct_Experimental_intro","correct_Introduction","correct_Practice_intro","correct_experimenter_kb","correct_response","count_End_Of_Experiment","count_End_Of_Practice","count_Experimental_Loop","count_Experimental_intro","count_Fixation","count_Introduction","count_Practice_Loop","count_Practice_intro","count_Stimulus","count_block_break_feedback","count_experimental_sequence","count_experimenter_kb","count_increment_trial_count","count_init_trial_count","count_logger","count_practice_sequence","count_right","count_task","count_wrong","datetime","description","disable_garbage_collection","experiment_file","experiment_path","font_bold","font_family","font_italic","font_size","font_underline","foreground","form_clicks","fullscreen","height","keyboard_backend","live_row","live_row_Experimental_Loop","live_row_Practice_Loop","logfile","mouse_backend","opensesame_codename","opensesame_version","osf_always_upload_data","osf_always_upload_experiment","osf_datanode_id","osf_id","repeat_cycle","response","response_End_Of_Experiment","response_Experimental_intro","response_Introduction","response_Practice_intro","response_block_break_feedback","response_experimenter_kb","response_time","response_time_End_Of_Experiment","response_time_Experimental_intro","response_time_Introduction","response_time_Practice_intro","response_time_block_break_feedback","response_time_experimenter_kb","round_decimals","sampler_backend","sound_buf_size","sound_channels","sound_freq","sound_sample_size","start","subject_nr","subject_parity","time_End_Of_Experiment","time_End_Of_Practice","time_Experimental_Loop","time_Experimental_intro","time_Fixation","time_Introduction","time_Practice_Loop","time_Practice_intro","time_Stimulus","time_block_break_feedback","time_experimental_sequence","time_experimenter_kb","time_increment_trial_count","time_init_trial_count","time_logger","time_practice_sequence","time_right","time_task","time_wrong","title","total_correct","total_response_time","total_responses","uniform_coordinates","width"
"2.767650507","0","6","yolt","non-word","80","80","1887","1887","black","no","legacy","legacy","legacy","0","uniform","1","undefined","undefined","undefined","1","f","0","0","0","0","4","0","0","0","4","NA","0","4","0","0","0","3","4","0","4","02/23/21 16:56:14","The main experiment item","yes","Lexical_Decision_Task.osexp","C:/Users/s5100727","no","Andale Mono","no","18","no","white","no","yes","576","legacy","0","0","3","C:/Users/s5100727/subject-5100727.csv","legacy","Kafkaesque Koffka","3.2.4","yes","yes","600bd7cfb6416f0113b04181","602110864497cf011d9c0822","0","f","NA","space","space","space","NA","f","1068","NA","17167","31212","9493","NA","1068","2","legacy","1024","2","48000","-16","task","5100727","odd","NA","57272","76440","59273","76517","2656","43363","33870","77018","NA","76515","77018","NA","76440","78086","55100","56751","2649","47129","Lexical Decision Task","4","9435","5","yes","1024"
"3.153001286","8.7","5","palm","word","83.3333333333","83.3333333333","1666.33333333","1666.33333333","black","no","legacy","legacy","legacy","0","uniform","1","undefined","undefined","undefined","1","j","0","0","0","0","5","0","0","0","5","NA","1","5","1","0","1","3","5","0","5","02/23/21 16:56:14","The main experiment item","yes","Lexical_Decision_Task.osexp","C:/Users/s5100727","no","Andale Mono","no","18","no","white","no","yes","576","legacy","1","1","3","C:/Users/s5100727/subject-5100727.csv","legacy","Kafkaesque Koffka","3.2.4","yes","yes","600bd7cfb6416f0113b04181","602110864497cf011d9c0822","0","j","NA","space","space","space","NA","j","563","NA","17167","31212","9493","NA","563","2","legacy","1024","2","48000","-16","task","5100727","odd","NA","57272","76440","59273","78680","2656","43363","33870","79183","NA","78678","79183","78592","76440","79746","55100","78092","2649","47129","Lexical Decision Task","5","9998","6","yes","1024"
"3.382617311","0","4","pret","non-word","85.7142857143","85.7142857143","1597.57142857","1597.57142857","black","no","legacy","legacy","legacy","0","uniform","1","undefined","undefined","undefined","1","f","0","0","0","0","6","0","0","0","6","NA","2","6","2","0","2","3","6","0","6","02/23/21 16:56:14","The main experiment item","yes","Lexical_Decision_Task.osexp","C:/Users/s5100727","no","Andale Mono","no","18","no","white","no","yes","576","legacy","2","2","3","C:/Users/s5100727/subject-5100727.csv","legacy","Kafkaesque Koffka","3.2.4","yes","yes","600bd7cfb6416f0113b04181","602110864497cf011d9c0822","0","f","NA","space","space","space","NA","f","1185","NA","17167","31212","9493","NA","1185","2","legacy","1024","2","48000","-16","task","5100727","odd","NA","57272","76440","59273","80327","2656","43363","33870","80828","NA","80325","80828","80249","76440","82013","55100","79749","2649","47129","Lexical Decision Task","6","11183","7","yes","1024"
"2.809559715","8.44","4","volt","word","87.5","87.5","1488","1488","black","no","legacy","legacy","legacy","0","uniform","1","undefined","undefined","undefined","1","j","0","0","0","0","7","0","0","0","7","NA","3","7","3","0","3","3","7","0","7","02/23/21 16:56:14","The main experiment item","yes","Lexical_Decision_Task.osexp","C:/Users/s5100727","no","Andale Mono","no","18","no","white","no","yes","576","legacy","3","3","3","C:/Users/s5100727/subject-5100727.csv","legacy","Kafkaesque Koffka","3.2.4","yes","yes","600bd7cfb6416f0113b04181","602110864497cf011d9c0822","0","j","NA","space","space","space","NA","j","721","NA","17167","31212","9493","NA","721","2","legacy","1024","2","48000","-16","task","5100727","odd","NA","57272","76440","59273","82593","2656","43363","33870","83095","NA","82592","83095","82516","76440","83816","55100","82016","2649","47129","Lexical Decision Task","7","11904","8","yes","1024"
"3.090140555","5.81","8","pout","word","88.8888888889","88.8888888889","1417.66666667","1417.66666667","black","no","legacy","legacy","legacy","0","uniform","1","undefined","undefined","undefined","1","j","0","0","0","0","8","0","0","0","8","NA","4","8","4","0","4","3","8","0","8","02/23/21 16:56:14","The main experiment item","yes","Lexical_Decision_Task.osexp","C:/Users/s5100727","no","Andale Mono","no","18","no","white","no","yes","576","legacy","4","4","3","C:/Users/s5100727/subject-5100727.csv","legacy","Kafkaesque Koffka","3.2.4","yes","yes","600bd7cfb6416f0113b04181","602110864497cf011d9c0822","0","j","NA","space","space","space","NA","j","855","NA","17167","31212","9493","NA","855","2","legacy","1024","2","48000","-16","task","5100727","odd","NA","57272","76440","59273","84398","2656","43363","33870","84899","NA","84396","84899","84319","76440","85755","55100","83819","2649","47129","Lexical Decision Task","8","12759","9","yes","1024"
"3.082307743","9.68","8","camp","word","90","90","1346.2","1346.2","black","no","legacy","legacy","legacy","0","uniform","1","undefined","undefined","undefined","1","j","0","0","0","0","9","0","0","0","9","NA","5","9","5","0","5","3","9","0","9","02/23/21 16:56:14","The main experiment item","yes","Lexical_Decision_Task.osexp","C:/Users/s5100727","no","Andale Mono","no","18","no","white","no","yes","576","legacy","5","5","3","C:/Users/s5100727/subject-5100727.csv","legacy","Kafkaesque Koffka","3.2.4","yes","yes","600bd7cfb6416f0113b04181","602110864497cf011d9c0822","0","j","NA","space","space","space","NA","j","703","NA","17167","31212","9493","NA","703","2","legacy","1024","2","48000","-16","task","5100727","odd","NA","57272","76440","59273","86337","2656","43363","33870","86839","NA","86335","86840","86257","76440","87543","55100","85757","2649","47129","Lexical Decision Task","9","13462","10","yes","1024"
"2.838639236","0","4","furg","non-word","90.9090909091","90.9090909091","1308.45454545","1308.45454545","black","no","legacy","legacy","legacy","0","uniform","1","undefined","undefined","undefined","1","f","0","0","0","0","10","0","0","0","10","NA","6","10","6","0","6","3","10","0","10","02/23/21 16:56:14","The main experiment item","yes","Lexical_Decision_Task.osexp","C:/Users/s5100727","no","Andale Mono","no","18","no","white","no","yes","576","legacy","6","6","3","C:/Users/s5100727/subject-5100727.csv","legacy","Kafkaesque Koffka","3.2.4","yes","yes","600bd7cfb6416f0113b04181","602110864497cf011d9c0822","0","f","NA","space","space","space","NA","f","931","NA","17167","31212","9493","NA","931","2","legacy","1024","2","48000","-16","task","5100727","odd","NA","57272","76440","59273","88125","2656","43363","33870","88626","NA","88123","88626","88046","76440","89557","55100","87546","2649","47129","Lexical Decision Task","10","14393","11","yes","1024"
"3.225825991","0","7","talm","non-word","91.6666666667","91.6666666667","1279.08333333","1279.08333333","black","no","legacy","legacy","legacy","0","uniform","1","undefined","undefined","undefined","1","f","0","0","0","0","11","0","0","0","11","NA","7","11","7","0","7","3","11","0","11","02/23/21 16:56:14","The main experiment item","yes","Lexical_Decision_Task.osexp","C:/Users/s5100727","no","Andale Mono","no","18","no","white","no","yes","576","legacy","7","7","3","C:/Users/s5100727/subject-5100727.csv","legacy","Kafkaesque Koffka","3.2.4","yes","yes","600bd7cfb6416f0113b04181","602110864497cf011d9c0822","0","f","NA","space","space","space","NA","f","956","NA","17167","31212","9493","NA","956","2","legacy","1024","2","48000","-16","task","5100727","odd","NA","57272","76440","59273","90138","2656","43363","33870","90639","NA","90137","90639","90060","76440","91596","55100","89560","2649","47129","Lexical Decision Task","11","15349","12","yes","1024"
"2.782472624","10.55","2","huge","word","92.3076923077","92.3076923077","1223.84615385","1223.84615385","black","no","legacy","legacy","legacy","0","uniform","1","undefined","undefined","undefined","1","j","0","0","0","0","12","0","0","0","12","NA","8","12","8","0","8","3","12","0","12","02/23/21 16:56:14","The main experiment item","yes","Lexical_Decision_Task.osexp","C:/Users/s5100727","no","Andale Mono","no","18","no","white","no","yes","576","legacy","8","8","3","C:/Users/s5100727/subject-5100727.csv","legacy","Kafkaesque Koffka","3.2.4","yes","yes","600bd7cfb6416f0113b04181","602110864497cf011d9c0822","0","j","NA","space","space","space","NA","j","561","NA","17167","31212","9493","NA","561","2","legacy","1024","2","48000","-16","task","5100727","odd","NA","57272","76440","59273","92177","2656","43363","33870","92678","NA","92175","92678","92098","76440","93239","55100","91598","2649","47129","Lexical Decision Task","12","15910","13","yes","1024"
"3.145920145","8.51","8","flew","word","92.8571428571","92.8571428571","1189.57142857","1189.57142857","black","no","legacy","legacy","legacy","0","uniform","1","undefined","undefined","undefined","1","j","0","0","0","0","13","0","0","0","13","NA","9","13","9","0","9","3","13","0","13","02/23/21 16:56:14","The main experiment item","yes","Lexical_Decision_Task.osexp","C:/Users/s5100727","no","Andale Mono","no","18","no","white","no","yes","576","legacy","9","9","3","C:/Users/s5100727/subject-5100727.csv","legacy","Kafkaesque Koffka","3.2.4","yes","yes","600bd7cfb6416f0113b04181","602110864497cf011d9c0822","0","j","NA","space","space","space","NA","j","744","NA","17167","31212","9493","NA","744","2","legacy","1024","2","48000","-16","task","5100727","odd","NA","57272","76440","59273","93852","2656","43363","33870","94353","NA","93850","94353","93742","76440","95098","55100","93242","2649","47129","Lexical Decision Task","13","16654","14","yes","1024"
"3.062080345","0","6","tomp","non-word","93.3333333333","93.3333333333","1170.06666667","1170.06666667","black","no","legacy","legacy","legacy","0","uniform","1","undefined","undefined","undefined","1","f","0","0","0","0","14","0","0","0","14","NA","10","14","10","0","10","3","14","0","14","02/23/21 16:56:14","The main experiment item","yes","Lexical_Decision_Task.osexp","C:/Users/s5100727","no","Andale Mono","no","18","no","white","no","yes","576","legacy","10","10","3","C:/Users/s5100727/subject-5100727.csv","legacy","Kafkaesque Koffka","3.2.4","yes","yes","600bd7cfb6416f0113b04181","602110864497cf011d9c0822","0","f","NA","space","space","space","NA","f","897","NA","17167","31212","9493","NA","897","2","legacy","1024","2","48000","-16","task","5100727","odd","NA","57272","76440","59273","95678","2656","43363","33870","96179","NA","95676","96179","95600","76440","97077","55100","95100","2649","47129","Lexical Decision Task","14","17551","15","yes","1024"
"2.842815106","7.86","8","lump","word","93.75","93.75","1139.3125","1139.3125","black","no","legacy","legacy","legacy","0","uniform","1","undefined","undefined","undefined","1","j","0","0","0","0","15","0","0","0","15","NA","11","15","11","0","11","3","15","0","15","02/23/21 16:56:14","The main experiment item","yes","Lexical_Decision_Task.osexp","C:/Users/s5100727","no","Andale Mono","no","18","no","white","no","yes","576","legacy","11","11","3","C:/Users/s5100727/subject-5100727.csv","legacy","Kafkaesque Koffka","3.2.4","yes","yes","600bd7cfb6416f0113b04181","602110864497cf011d9c0822","0","j","NA","space","space","space","NA","j","678","NA","17167","31212","9493","NA","678","2","legacy","1024","2","48000","-16","task","5100727","odd","NA","57272","76440","59273","97661","2656","43363","33870","98162","NA","97660","98162","97579","76440","98840","55100","97079","2649","47129","Lexical Decision Task","15","18229","16","yes","1024"
"3.137775856","7.39","5","comb","word","94.1176470588","94.1176470588","1112.64705882","1112.64705882","black","no","legacy","legacy","legacy","0","uniform","1","undefined","undefined","undefined","1","j","0","0","0","0","16","0","0","0","16","NA","12","16","12","0","12","3","16","0","16","02/23/21 16:56:14","The main experiment item","yes","Lexical_Decision_Task.osexp","C:/Users/s5100727","no","Andale Mono","no","18","no","white","no","yes","576","legacy","12","12","3","C:/Users/s5100727/subject-5100727.csv","legacy","Kafkaesque Koffka","3.2.4","yes","yes","600bd7cfb6416f0113b04181","602110864497cf011d9c0822","0","j","NA","space","space","space","NA","j","686","NA","17167","31212","9493","NA","686","2","legacy","1024","2","48000","-16","task","5100727","odd","NA","57272","76440","59273","99420","2656","43363","33870","99922","NA","99419","99922","99343","76440","100609","55100","98842","2649","47129","Lexical Decision Task","16","18915","17","yes","1024"
"2.709837904","6.85","8","skim","word","88.8888888889","88.8888888889","1080.33333333","1080.33333333","black","no","legacy","legacy","legacy","0","uniform","0","undefined","undefined","undefined","0","j","0","0","0","0","17","0","0","0","17","NA","13","17","13","0","13","3","17","0","17","02/23/21 16:56:14","The main experiment item","yes","Lexical_Decision_Task.osexp","C:/Users/s5100727","no","Andale Mono","no","18","no","white","no","yes","576","legacy","13","13","3","C:/Users/s5100727/subject-5100727.csv","legacy","Kafkaesque Koffka","3.2.4","yes","yes","600bd7cfb6416f0113b04181","602110864497cf011d9c0822","0","f","NA","space","space","space","NA","f","531","NA","17167","31212","9493","NA","531","2","legacy","1024","2","48000","-16","task","5100727","odd","NA","57272","76440","59273","101189","2656","43363","33870","101691","NA","101188","101691","101111","76440","102222","55100","100611","2649","47129","Lexical Decision Task","16","19446","18","yes","1024"
"2.920123326","7.43","4","duel","word","89.4736842105","89.4736842105","1087.26315789","1087.26315789","black","no","legacy","legacy","legacy","0","uniform","1","undefined","undefined","undefined","1","j","0","0","0","0","18","0","0","0","18","NA","14","18","14","0","14","3","18","0","18","02/23/21 16:56:14","The main experiment item","yes","Lexical_Decision_Task.osexp","C:/Users/s5100727","no","Andale Mono","no","18","no","white","no","yes","576","legacy","14","14","3","C:/Users/s5100727/subject-5100727.csv","legacy","Kafkaesque Koffka","3.2.4","yes","yes","600bd7cfb6416f0113b04181","602110864497cf011d9c0822","0","j","NA","space","space","space","NA","j","1212","NA","17167","31212","9493","NA","1212","2","legacy","1024","2","48000","-16","task","5100727","odd","NA","57272","76440","59273","103807","2656","43363","33870","104308","NA","103805","104308","103725","76440","105520","55100","100611","2649","102225","Lexical Decision Task","17","20658","19","yes","1024"
"2.839898939","8.99","6","soap","word","90","90","1066.95","1066.95","black","no","legacy","legacy","legacy","0","uniform","1","undefined","undefined","undefined","1","j","0","0","0","0","19","0","0","0","19","NA","15","19","15","0","15","3","19","0","19","02/23/21 16:56:14","The main experiment item","yes","Lexical_Decision_Task.osexp","C:/Users/s5100727","no","Andale Mono","no","18","no","white","no","yes","576","legacy","15","15","3","C:/Users/s5100727/subject-5100727.csv","legacy","Kafkaesque Koffka","3.2.4","yes","yes","600bd7cfb6416f0113b04181","602110864497cf011d9c0822","0","j","NA","space","space","space","NA","j","681","NA","17167","31212","9493","NA","681","2","legacy","1024","2","48000","-16","task","5100727","odd","NA","57272","76440","59273","106106","2656","43363","33870","106607","NA","106103","106607","106023","76440","107289","55100","105523","2649","102225","Lexical Decision Task","18","21339","20","yes","1024"
"3.259832699","0","9","flar","non-word","90.4761904762","90.4761904762","1074.71428571","1074.71428571","black","no","legacy","legacy","legacy","0","uniform","1","undefined","undefined","undefined","1","f","0","0","0","0","20","0","0","0","20","NA","16","20","16","0","16","3","20","0","20","02/23/21 16:56:14","The main experiment item","yes","Lexical_Decision_Task.osexp","C:/Users/s5100727","no","Andale Mono","no","18","no","white","no","yes","576","legacy","16","16","3","C:/Users/s5100727/subject-5100727.csv","legacy","Kafkaesque Koffka","3.2.4","yes","yes","600bd7cfb6416f0113b04181","602110864497cf011d9c0822","0","f","NA","space","space","space","NA","f","1230","NA","17167","31212","9493","NA","1230","2","legacy","1024","2","48000","-16","task","5100727","odd","NA","57272","76440","59273","107868","2656","43363","33870","108370","NA","107867","108370","107791","76440","109601","55100","107291","2649","102225","Lexical Decision Task","19","22569","21","yes","1024"
"3.1430148","7.92","8","bald","word","90.9090909091","90.9090909091","1055.68181818","1055.68181818","black","no","legacy","legacy","legacy","0","uniform","1","undefined","undefined","undefined","1","j","0","0","0","0","21","0","0","0","21","NA","17","21","17","0","17","3","21","0","21","02/23/21 16:56:14","The main experiment item","yes","Lexical_Decision_Task.osexp","C:/Users/s5100727","no","Andale Mono","no","18","no","white","no","yes","576","legacy","17","17","3","C:/Users/s5100727/subject-5100727.csv","legacy","Kafkaesque Koffka","3.2.4","yes","yes","600bd7cfb6416f0113b04181","602110864497cf011d9c0822","0","j","NA","space","space","space","NA","j","656","NA","17167","31212","9493","NA","656","2","legacy","1024","2","48000","-16","task","5100727","odd","NA","57272","76440","59273","110182","2656","43363","33870","110683","NA","110180","110683","110104","76440","111339","55100","109604","2649","102225","Lexical Decision Task","20","23225","22","yes","1024"
"2.708989954","9.28","9","bowl","word","91.3043478261","91.3043478261","1052.91304348","1052.91304348","black","no","legacy","legacy","legacy","0","uniform","1","undefined","undefined","undefined","1","j","0","0","0","0","22","0","0","0","22","NA","18","22","18","0","18","3","22","0","22","02/23/21 16:56:14","The main experiment item","yes","Lexical_Decision_Task.osexp","C:/Users/s5100727","no","Andale Mono","no","18","no","white","no","yes","576","legacy","18","18","3","C:/Users/s5100727/subject-5100727.csv","legacy","Kafkaesque Koffka","3.2.4","yes","yes","600bd7cfb6416f0113b04181","602110864497cf011d9c0822","0","j","NA","space","space","space","NA","j","992","NA","17167","31212","9493","NA","992","2","legacy","1024","2","48000","-16","task","5100727","odd","NA","57272","76440","59273","111921","2656","43363","33870","112423","NA","111919","112423","111842","76440","113415","55100","111341","2649","102225","Lexical Decision Task","21","24217","23","yes","1024"
"3.031812271","6.52","3","gulp","word","91.6666666667","91.6666666667","1036.5","1036.5","black","no","legacy","legacy","legacy","0","uniform","1","undefined","undefined","undefined","1","j","0","0","0","0","23","0","0","0","23","NA","19","23","19","0","19","3","23","0","23","02/23/21 16:56:14","The main experiment item","yes","Lexical_Decision_Task.osexp","C:/Users/s5100727","no","Andale Mono","no","18","no","white","no","yes","576","legacy","19","19","3","C:/Users/s5100727/subject-5100727.csv","legacy","Kafkaesque Koffka","3.2.4","yes","yes","600bd7cfb6416f0113b04181","602110864497cf011d9c0822","0","j","NA","space","space","space","NA","j","659","NA","17167","31212","9493","NA","659","2","legacy","1024","2","48000","-16","task","5100727","odd","NA","57272","76440","59273","113995","2656","43363","33870","114496","NA","113993","114496","113918","76440","115155","55100","113418","2649","102225","Lexical Decision Task","22","24876","24","yes","1024"
"3.121778632","0","9","sark","non-word","92","92","1026.08","1026.08","black","no","legacy","legacy","legacy","0","uniform","1","undefined","undefined","undefined","1","f","0","0","0","0","24","0","0","0","24","NA","20","24","20","0","20","3","24","0","24","02/23/21 16:56:14","The main experiment item","yes","Lexical_Decision_Task.osexp","C:/Users/s5100727","no","Andale Mono","no","18","no","white","no","yes","576","legacy","20","20","3","C:/Users/s5100727/subject-5100727.csv","legacy","Kafkaesque Koffka","3.2.4","yes","yes","600bd7cfb6416f0113b04181","602110864497cf011d9c0822","0","f","NA","space","space","space","NA","f","776","NA","17167","31212","9493","NA","776","2","legacy","1024","2","48000","-16","task","5100727","odd","NA","57272","76440","59273","115735","2656","43363","33870","116236","NA","115734","116236","115658","76440","117012","55100","115158","2649","102225","Lexical Decision Task","23","25652","25","yes","1024"
"3.443783828","7.65","3","verb","word","92.3076923077","92.3076923077","1016.38461538","1016.38461538","black","no","legacy","legacy","legacy","0","uniform","1","undefined","undefined","undefined","1","j","0","0","0","0","25","0","0","0","25","NA","21","25","21","0","21","3","25","0","25","02/23/21 16:56:14","The main experiment item","yes","Lexical_Decision_Task.osexp","C:/Users/s5100727","no","Andale Mono","no","18","no","white","no","yes","576","legacy","21","21","3","C:/Users/s5100727/subject-5100727.csv","legacy","Kafkaesque Koffka","3.2.4","yes","yes","600bd7cfb6416f0113b04181","602110864497cf011d9c0822","0","j","NA","space","space","space","NA","j","774","NA","17167","31212","9493","NA","774","2","legacy","1024","2","48000","-16","task","5100727","odd","NA","57272","76440","59273","117601","2656","43363","33870","118102","NA","117599","118102","117516","76440","118876","55100","117015","2649","102225","Lexical Decision Task","24","26426","26","yes","1024"
"3.374198258","0","8","vist","non-word","92.5925925926","92.5925925926","1015.48148148","1015.48148148","black","no","legacy","legacy","legacy","0","uniform","1","undefined","undefined","undefined","1","f","0","0","0","0","26","0","0","0","26","NA","22","26","22","0","22","3","26","0","26","02/23/21 16:56:14","The main experiment item","yes","Lexical_Decision_Task.osexp","C:/Users/s5100727","no","Andale Mono","no","18","no","white","no","yes","576","legacy","22","22","3","C:/Users/s5100727/subject-5100727.csv","legacy","Kafkaesque Koffka","3.2.4","yes","yes","600bd7cfb6416f0113b04181","602110864497cf011d9c0822","0","f","NA","space","space","space","NA","f","992","NA","17167","31212","9493","NA","992","2","legacy","1024","2","48000","-16","task","5100727","odd","NA","57272","76440","59273","119456","2656","43363","33870","119957","NA","119455","119957","119379","76440","120950","55100","118878","2649","102225","Lexical Decision Task","25","27418","27","yes","1024"
"2.86332286","6.71","2","feud","word","92.8571428571","92.8571428571","1009.17857143","1009.17857143","black","no","legacy","legacy","legacy","0","uniform","1","undefined","undefined","undefined","1","j","0","0","0","0","27","0","0","0","27","NA","23","27","23","0","23","3","27","0","27","02/23/21 16:56:14","The main experiment item","yes","Lexical_Decision_Task.osexp","C:/Users/s5100727","no","Andale Mono","no","18","no","white","no","yes","576","legacy","23","23","3","C:/Users/s5100727/subject-5100727.csv","legacy","Kafkaesque Koffka","3.2.4","yes","yes","600bd7cfb6416f0113b04181","602110864497cf011d9c0822","0","j","NA","space","space","space","NA","j","839","NA","17167","31212","9493","NA","839","2","legacy","1024","2","48000","-16","task","5100727","odd","NA","57272","76440","59273","121532","2656","43363","33870","122033","NA","121530","122033","121453","76440","122873","55100","120952","2649","102225","Lexical Decision Task","26","28257","28","yes","1024"
"3.133964479","0","8","graw","non-word","93.1034482759","93.1034482759","1005.65517241","1005.65517241","black","no","legacy","legacy","legacy","0","uniform","1","undefined","undefined","undefined","1","f","0","0","0","0","28","0","0","0","28","NA","24","28","24","0","24","3","28","0","28","02/23/21 16:56:14","The main experiment item","yes","Lexical_Decision_Task.osexp","C:/Users/s5100727","no","Andale Mono","no","18","no","white","no","yes","576","legacy","24","24","3","C:/Users/s5100727/subject-5100727.csv","legacy","Kafkaesque Koffka","3.2.4","yes","yes","600bd7cfb6416f0113b04181","602110864497cf011d9c0822","0","f","NA","space","space","space","NA","f","907","NA","17167","31212","9493","NA","907","2","legacy","1024","2","48000","-16","task","5100727","odd","NA","57272","76440","59273","123454","2656","43363","33870","123955","NA","123452","123955","123376","76440","124862","55100","122875","2649","102225","Lexical Decision Task","27","29164","29","yes","1024"
"2.706148589","0","4","hube","non-word","93.3333333333","93.3333333333","1002","1002","black","no","legacy","legacy","legacy","0","uniform","1","undefined","undefined","undefined","1","f","0","0","0","0","29","0","0","0","29","NA","25","29","25","0","25","3","29","0","29","02/23/21 16:56:14","The main experiment item","yes","Lexical_Decision_Task.osexp","C:/Users/s5100727","no","Andale Mono","no","18","no","white","no","yes","576","legacy","25","25","3","C:/Users/s5100727/subject-5100727.csv","legacy","Kafkaesque Koffka","3.2.4","yes","yes","600bd7cfb6416f0113b04181","602110864497cf011d9c0822","0","f","NA","space","space","space","NA","f","896","NA","17167","31212","9493","NA","896","2","legacy","1024","2","48000","-16","task","5100727","odd","NA","57272","76440","59273","125443","2656","43363","33870","125944","NA","125441","125944","125366","76440","126841","55100","124865","2649","102225","Lexical Decision Task","28","30060","30","yes","1024"
"3.216517684","10.87","3","film","word","93.5483870968","93.5483870968","992.419354839","992.419354839","black","no","legacy","legacy","legacy","0","uniform","1","undefined","undefined","undefined","1","j","0","0","0","0","30","0","0","0","30","NA","26","30","26","0","26","3","30","0","30","02/23/21 16:56:14","The main experiment item","yes","Lexical_Decision_Task.osexp","C:/Users/s5100727","no","Andale Mono","no","18","no","white","no","yes","576","legacy","26","26","3","C:/Users/s5100727/subject-5100727.csv","legacy","Kafkaesque Koffka","3.2.4","yes","yes","600bd7cfb6416f0113b04181","602110864497cf011d9c0822","0","j","NA","space","space","space","NA","j","705","NA","17167","31212","9493","NA","705","2","legacy","1024","2","48000","-16","task","5100727","odd","NA","57272","76440","59273","127421","2656","43363","33870","127924","NA","127419","127924","127344","76440","128630","55100","126844","2649","102225","Lexical Decision Task","29","30765","31","yes","1024"
"3.488597715","0","9","nain","non-word","90.625","90.625","981.09375","981.09375","black","no","legacy","legacy","legacy","0","uniform","0","undefined","undefined","undefined","0","f","0","0","0","0","31","0","0","0","31","NA","27","31","27","0","27","3","31","0","31","02/23/21 16:56:14","The main experiment item","yes","Lexical_Decision_Task.osexp","C:/Users/s5100727","no","Andale Mono","no","18","no","white","no","yes","576","legacy","27","27","3","C:/Users/s5100727/subject-5100727.csv","legacy","Kafkaesque Koffka","3.2.4","yes","yes","600bd7cfb6416f0113b04181","602110864497cf011d9c0822","0","j","NA","space","space","space","NA","j","630","NA","17167","31212","9493","NA","630","2","legacy","1024","2","48000","-16","task","5100727","odd","NA","57272","76440","59273","129211","2656","43363","33870","129712","NA","129209","129712","129132","76440","130343","55100","128632","2649","102225","Lexical Decision Task","29","31395","32","yes","1024"
"3.102203805","7.21","3","drip","word","90.9090909091","90.9090909091","973.606060606","973.606060606","black","no","legacy","legacy","legacy","0","uniform","1","undefined","undefined","undefined","1","j","0","0","0","0","32","0","0","0","32","NA","28","32","28","0","28","3","32","0","32","02/23/21 16:56:14","The main experiment item","yes","Lexical_Decision_Task.osexp","C:/Users/s5100727","no","Andale Mono","no","18","no","white","no","yes","576","legacy","28","28","3","C:/Users/s5100727/subject-5100727.csv","legacy","Kafkaesque Koffka","3.2.4","yes","yes","600bd7cfb6416f0113b04181","602110864497cf011d9c0822","0","j","NA","space","space","space","NA","j","734","NA","17167","31212","9493","NA","734","2","legacy","1024","2","48000","-16","task","5100727","odd","NA","57272","76440","59273","131926","2656","43363","33870","132427","NA","131924","132427","131846","76440","133161","55100","128632","2649","130345","Lexical Decision Task","30","32129","33","yes","1024"
"2.75025376","10.2","6","jump","word","91.1764705882","91.1764705882","971.382352941","971.382352941","black","no","legacy","legacy","legacy","0","uniform","1","undefined","undefined","undefined","1","j","0","0","0","0","33","0","0","0","33","NA","29","33","29","0","29","3","33","0","33","02/23/21 16:56:14","The main experiment item","yes","Lexical_Decision_Task.osexp","C:/Users/s5100727","no","Andale Mono","no","18","no","white","no","yes","576","legacy","29","29","3","C:/Users/s5100727/subject-5100727.csv","legacy","Kafkaesque Koffka","3.2.4","yes","yes","600bd7cfb6416f0113b04181","602110864497cf011d9c0822","0","j","NA","space","space","space","NA","j","898","NA","17167","31212","9493","NA","898","2","legacy","1024","2","48000","-16","task","5100727","odd","NA","57272","76440","59273","133741","2656","43363","33870","134242","NA","133739","134242","133664","76440","135140","55100","133164","2649","130345","Lexical Decision Task","31","33027","34","yes","1024"
"2.972357144","0","5","dasp","non-word","91.4285714286","91.4285714286","962.971428571","962.971428571","black","no","legacy","legacy","legacy","0","uniform","1","undefined","undefined","undefined","1","f","0","0","0","0","34","0","0","0","34","NA","30","34","30","0","30","3","34","0","34","02/23/21 16:56:14","The main experiment item","yes","Lexical_Decision_Task.osexp","C:/Users/s5100727","no","Andale Mono","no","18","no","white","no","yes","576","legacy","30","30","3","C:/Users/s5100727/subject-5100727.csv","legacy","Kafkaesque Koffka","3.2.4","yes","yes","600bd7cfb6416f0113b04181","602110864497cf011d9c0822","0","f","NA","space","space","space","NA","f","677","NA","17167","31212","9493","NA","677","2","legacy","1024","2","48000","-16","task","5100727","odd","NA","57272","76440","59273","135720","2656","43363","33870","136221","NA","135718","136222","135643","76440","136899","55100","135143","2649","130345","Lexical Decision Task","32","33704","35","yes","1024"
"3.263399331","0","8","cour","non-word","91.6666666667","91.6666666667","963.472222222","963.472222222","black","no","legacy","legacy","legacy","0","uniform","1","undefined","undefined","undefined","1","f","0","0","0","0","35","0","0","0","35","NA","31","35","31","0","31","3","35","0","35","02/23/21 16:56:14","The main experiment item","yes","Lexical_Decision_Task.osexp","C:/Users/s5100727","no","Andale Mono","no","18","no","white","no","yes","576","legacy","31","31","3","C:/Users/s5100727/subject-5100727.csv","legacy","Kafkaesque Koffka","3.2.4","yes","yes","600bd7cfb6416f0113b04181","602110864497cf011d9c0822","0","f","NA","space","space","space","NA","f","981","NA","17167","31212","9493","NA","981","2","legacy","1024","2","48000","-16","task","5100727","odd","NA","57272","76440","59273","137479","2656","43363","33870","137980","NA","137477","137980","137402","76440","138962","55100","136902","2649","130345","Lexical Decision Task","33","34685","36","yes","1024"
"2.695481676","0","7","goke","non-word","91.8918918919","91.8918918919","959.648648649","959.648648649","black","no","legacy","legacy","legacy","0","uniform","1","undefined","undefined","undefined","1","f","0","0","0","0","36","0","0","0","36","NA","32","36","32","0","32","3","36","0","36","02/23/21 16:56:14","The main experiment item","yes","Lexical_Decision_Task.osexp","C:/Users/s5100727","no","Andale Mono","no","18","no","white","no","yes","576","legacy","32","32","3","C:/Users/s5100727/subject-5100727.csv","legacy","Kafkaesque Koffka","3.2.4","yes","yes","600bd7cfb6416f0113b04181","602110864497cf011d9c0822","0","f","NA","space","space","space","NA","f","822","NA","17167","31212","9493","NA","822","2","legacy","1024","2","48000","-16","task","5100727","odd","NA","57272","76440","59273","139542","2656","43363","33870","140043","NA","139540","140043","139465","76440","140866","55100","138964","2649","130345","Lexical Decision Task","34","35507","37","yes","1024"
"2.693726949","5.08","3","swig","word","89.4736842105","89.4736842105","971.815789474","971.815789474","black","no","legacy","legacy","legacy","0","uniform","0","undefined","undefined","undefined","0","j","0","0","0","0","37","0","0","0","37","NA","33","37","33","0","33","3","37","0","37","02/23/21 16:56:14","The main experiment item","yes","Lexical_Decision_Task.osexp","C:/Users/s5100727","no","Andale Mono","no","18","no","white","no","yes","576","legacy","33","33","3","C:/Users/s5100727/subject-5100727.csv","legacy","Kafkaesque Koffka","3.2.4","yes","yes","600bd7cfb6416f0113b04181","602110864497cf011d9c0822","0","f","NA","space","space","space","NA","f","1422","NA","17167","31212","9493","NA","1422","2","legacy","1024","2","48000","-16","task","5100727","odd","NA","57272","76440","59273","141445","2656","43363","33870","141946","NA","141444","141946","141368","76440","143368","55100","140868","2649","130345","Lexical Decision Task","34","36929","38","yes","1024"
"3.156347201","0","8","lasp","non-word","89.7435897436","89.7435897436","971.743589744","971.743589744","black","no","legacy","legacy","legacy","0","uniform","1","undefined","undefined","undefined","1","f","0","0","0","0","38","0","0","0","38","NA","34","38","34","0","34","3","38","0","38","02/23/21 16:56:14","The main experiment item","yes","Lexical_Decision_Task.osexp","C:/Users/s5100727","no","Andale Mono","no","18","no","white","no","yes","576","legacy","34","34","3","C:/Users/s5100727/subject-5100727.csv","legacy","Kafkaesque Koffka","3.2.4","yes","yes","600bd7cfb6416f0113b04181","602110864497cf011d9c0822","0","f","NA","space","space","space","NA","f","969","NA","17167","31212","9493","NA","969","2","legacy","1024","2","48000","-16","task","5100727","odd","NA","57272","76440","59273","144954","2656","43363","33870","145457","NA","144952","145457","144872","76440","146427","55100","140868","2649","143372","Lexical Decision Task","35","37898","39","yes","1024"
"2.728085817","10.02","9","bike","word","90","90","964.325","964.325","black","no","legacy","legacy","legacy","0","uniform","1","undefined","undefined","undefined","1","j","0","0","0","0","39","0","0","0","39","NA","35","39","35","0","35","3","39","0","39","02/23/21 16:56:14","The main experiment item","yes","Lexical_Decision_Task.osexp","C:/Users/s5100727","no","Andale Mono","no","18","no","white","no","yes","576","legacy","35","35","3","C:/Users/s5100727/subject-5100727.csv","legacy","Kafkaesque Koffka","3.2.4","yes","yes","600bd7cfb6416f0113b04181","602110864497cf011d9c0822","0","j","NA","space","space","space","NA","j","675","NA","17167","31212","9493","NA","675","2","legacy","1024","2","48000","-16","task","5100727","odd","NA","57272","76440","59273","147006","2656","43363","33870","147509","NA","147004","147509","146929","76440","148185","55100","146429","2649","143372","Lexical Decision Task","36","38573","40","yes","1024"
"3.440331212","7.35","6","stew","word","87.8048780488","87.8048780488","960.682926829","960.682926829","black","no","legacy","legacy","legacy","0","uniform","0","undefined","undefined","undefined","0","j","0","0","0","0","40","0","0","0","40","NA","36","40","36","0","36","3","40","0","40","02/23/21 16:56:14","The main experiment item","yes","Lexical_Decision_Task.osexp","C:/Users/s5100727","no","Andale Mono","no","18","no","white","no","yes","576","legacy","36","36","3","C:/Users/s5100727/subject-5100727.csv","legacy","Kafkaesque Koffka","3.2.4","yes","yes","600bd7cfb6416f0113b04181","602110864497cf011d9c0822","0","f","NA","space","space","space","NA","f","815","NA","17167","31212","9493","NA","815","2","legacy","1024","2","48000","-16","task","5100727","odd","NA","57272","76440","59273","148765","2656","43363","33870","149267","NA","148763","149267","148688","76440","150083","55100","148188","2649","143372","Lexical Decision Task","36","39388","41","yes","1024"
"2.979548375","8.71","4","soup","word","88.0952380952","88.0952380952","952.547619048","952.547619048","black","no","legacy","legacy","legacy","0","uniform","1","undefined","undefined","undefined","1","j","0","0","0","0","41","0","0","0","41","NA","37","41","37","0","37","3","41","0","41","02/23/21 16:56:14","The main experiment item","yes","Lexical_Decision_Task.osexp","C:/Users/s5100727","no","Andale Mono","no","18","no","white","no","yes","576","legacy","37","37","3","C:/Users/s5100727/subject-5100727.csv","legacy","Kafkaesque Koffka","3.2.4","yes","yes","600bd7cfb6416f0113b04181","602110864497cf011d9c0822","0","j","NA","space","space","space","NA","j","619","NA","17167","31212","9493","NA","619","2","legacy","1024","2","48000","-16","task","5100727","odd","NA","57272","76440","59273","151664","2656","43363","33870","152165","NA","151663","152166","151586","76440","152786","55100","148188","2649","150085","Lexical Decision Task","37","40007","42","yes","1024"
"2.980306438","0","7","slun","non-word","88.3720930233","88.3720930233","946.837209302","946.837209302","black","no","legacy","legacy","legacy","0","uniform","1","undefined","undefined","undefined","1","f","0","0","0","0","42","0","0","0","42","NA","38","42","38","0","38","3","42","0","42","02/23/21 16:56:14","The main experiment item","yes","Lexical_Decision_Task.osexp","C:/Users/s5100727","no","Andale Mono","no","18","no","white","no","yes","576","legacy","38","38","3","C:/Users/s5100727/subject-5100727.csv","legacy","Kafkaesque Koffka","3.2.4","yes","yes","600bd7cfb6416f0113b04181","602110864497cf011d9c0822","0","f","NA","space","space","space","NA","f","707","NA","17167","31212","9493","NA","707","2","legacy","1024","2","48000","-16","task","5100727","odd","NA","57272","76440","59273","153367","2656","43363","33870","153869","NA","153365","153869","153289","76440","154577","55100","152788","2649","150085","Lexical Decision Task","38","40714","43","yes","1024"
"3.316948329","0","1","besc","non-word","88.6363636364","88.6363636364","944.318181818","944.318181818","black","no","legacy","legacy","legacy","0","uniform","1","undefined","undefined","undefined","1","f","0","0","0","0","43","0","0","0","43","NA","39","43","39","0","39","3","43","0","43","02/23/21 16:56:14","The main experiment item","yes","Lexical_Decision_Task.osexp","C:/Users/s5100727","no","Andale Mono","no","18","no","white","no","yes","576","legacy","39","39","3","C:/Users/s5100727/subject-5100727.csv","legacy","Kafkaesque Koffka","3.2.4","yes","yes","600bd7cfb6416f0113b04181","602110864497cf011d9c0822","0","f","NA","space","space","space","NA","f","836","NA","17167","31212","9493","NA","836","2","legacy","1024","2","48000","-16","task","5100727","odd","NA","57272","76440","59273","155156","2656","43363","33870","155657","NA","155154","155657","155079","76440","156494","55100","154579","2649","150085","Lexical Decision Task","39","41550","44","yes","1024"
"3.431095062","5.74","9","perk","word","88.8888888889","88.8888888889","943.8","943.8","black","no","legacy","legacy","legacy","0","uniform","1","undefined","undefined","undefined","1","j","0","0","0","0","44","0","0","0","44","NA","40","44","40","0","40","3","44","0","44","02/23/21 16:56:14","The main experiment item","yes","Lexical_Decision_Task.osexp","C:/Users/s5100727","no","Andale Mono","no","18","no","white","no","yes","576","legacy","40","40","3","C:/Users/s5100727/subject-5100727.csv","legacy","Kafkaesque Koffka","3.2.4","yes","yes","600bd7cfb6416f0113b04181","602110864497cf011d9c0822","0","j","NA","space","space","space","NA","j","921","NA","17167","31212","9493","NA","921","2","legacy","1024","2","48000","-16","task","5100727","odd","NA","57272","76440","59273","157074","2656","43363","33870","157576","NA","157073","157576","156997","76440","158497","55100","156497","2649","150085","Lexical Decision Task","40","42471","45","yes","1024"
"2.873320602","0","4","lurg","non-word","89.1304347826","89.1304347826","942.108695652","942.108695652","black","no","legacy","legacy","legacy","0","uniform","1","undefined","undefined","undefined","1","f","0","0","0","0","45","0","0","0","45","NA","41","45","41","0","41","3","45","0","45","02/23/21 16:56:14","The main experiment item","yes","Lexical_Decision_Task.osexp","C:/Users/s5100727","no","Andale Mono","no","18","no","white","no","yes","576","legacy","41","41","3","C:/Users/s5100727/subject-5100727.csv","legacy","Kafkaesque Koffka","3.2.4","yes","yes","600bd7cfb6416f0113b04181","602110864497cf011d9c0822","0","f","NA","space","space","space","NA","f","866","NA","17167","31212","9493","NA","866","2","legacy","1024","2","48000","-16","task","5100727","odd","NA","57272","76440","59273","159078","2656","43363","33870","159579","NA","159076","159579","159000","76440","160446","55100","158500","2649","150085","Lexical Decision Task","41","43337","46","yes","1024"
"3.299579929","0","2","flis","non-word","89.3617021277","89.3617021277","939.234042553","939.234042553","black","no","legacy","legacy","legacy","0","uniform","1","undefined","undefined","undefined","1","f","0","0","0","0","46","0","0","0","46","NA","42","46","42","0","42","3","46","0","46","02/23/21 16:56:14","The main experiment item","yes","Lexical_Decision_Task.osexp","C:/Users/s5100727","no","Andale Mono","no","18","no","white","no","yes","576","legacy","42","42","3","C:/Users/s5100727/subject-5100727.csv","legacy","Kafkaesque Koffka","3.2.4","yes","yes","600bd7cfb6416f0113b04181","602110864497cf011d9c0822","0","f","NA","space","space","space","NA","f","807","NA","17167","31212","9493","NA","807","2","legacy","1024","2","48000","-16","task","5100727","odd","NA","57272","76440","59273","161026","2656","43363","33870","161527","NA","161024","161527","160948","76440","162334","55100","160448","2649","150085","Lexical Decision Task","42","44144","47","yes","1024"
"2.703007489","8.37","3","pulp","word","89.5833333333","89.5833333333","937.520833333","937.520833333","black","no","legacy","legacy","legacy","0","uniform","1","undefined","undefined","undefined","1","j","0","0","0","0","47","0","0","0","47","NA","43","47","43","0","43","3","47","0","47","02/23/21 16:56:14","The main experiment item","yes","Lexical_Decision_Task.osexp","C:/Users/s5100727","no","Andale Mono","no","18","no","white","no","yes","576","legacy","43","43","3","C:/Users/s5100727/subject-5100727.csv","legacy","Kafkaesque Koffka","3.2.4","yes","yes","600bd7cfb6416f0113b04181","602110864497cf011d9c0822","0","j","NA","space","space","space","NA","j","857","NA","17167","31212","9493","NA","857","2","legacy","1024","2","48000","-16","task","5100727","odd","NA","57272","76440","59273","162916","2656","43363","33870","163418","NA","162914","163418","162838","76440","164276","55100","162338","2649","150085","Lexical Decision Task","43","45001","48","yes","1024"
"2.746890964","9.67","3","plug","word","89.7959183673","89.7959183673","930.857142857","930.857142857","black","no","legacy","legacy","legacy","0","uniform","1","undefined","undefined","undefined","1","j","0","0","0","0","48","0","0","0","48","NA","44","48","44","0","44","3","48","0","48","02/23/21 16:56:14","The main experiment item","yes","Lexical_Decision_Task.osexp","C:/Users/s5100727","no","Andale Mono","no","18","no","white","no","yes","576","legacy","44","44","3","C:/Users/s5100727/subject-5100727.csv","legacy","Kafkaesque Koffka","3.2.4","yes","yes","600bd7cfb6416f0113b04181","602110864497cf011d9c0822","0","j","NA","space","space","space","NA","j","611","NA","17167","31212","9493","NA","611","2","legacy","1024","2","48000","-16","task","5100727","odd","NA","57272","76440","59273","164857","2656","43363","33870","165358","NA","164855","165358","164780","76440","165969","55100","164279","2649","150085","Lexical Decision Task","44","45612","49","yes","1024"
"2.875447132","0","9","jelt","non-word","90","90","932.12","932.12","black","no","legacy","legacy","legacy","0","uniform","1","undefined","undefined","undefined","1","f","0","0","0","0","49","0","0","0","49","NA","45","49","45","0","45","3","49","0","49","02/23/21 16:56:14","The main experiment item","yes","Lexical_Decision_Task.osexp","C:/Users/s5100727","no","Andale Mono","no","18","no","white","no","yes","576","legacy","45","45","3","C:/Users/s5100727/subject-5100727.csv","legacy","Kafkaesque Koffka","3.2.4","yes","yes","600bd7cfb6416f0113b04181","602110864497cf011d9c0822","0","f","NA","space","space","space","NA","f","994","NA","17167","31212","9493","NA","994","2","legacy","1024","2","48000","-16","task","5100727","odd","NA","57272","76440","59273","166554","2656","43363","33870","167056","NA","166553","167056","166472","76440","168051","55100","165972","2649","150085","Lexical Decision Task","45","46606","50","yes","1024"
"3.495914186","0","4","peng","non-word","88.2352941176","88.2352941176","927.31372549","927.31372549","black","no","legacy","legacy","legacy","0","uniform","0","undefined","undefined","undefined","0","f","0","0","0","0","50","0","0","0","50","NA","46","50","46","0","46","3","50","0","50","02/23/21 16:56:14","The main experiment item","yes","Lexical_Decision_Task.osexp","C:/Users/s5100727","no","Andale Mono","no","18","no","white","no","yes","576","legacy","46","46","3","C:/Users/s5100727/subject-5100727.csv","legacy","Kafkaesque Koffka","3.2.4","yes","yes","600bd7cfb6416f0113b04181","602110864497cf011d9c0822","0","j","NA","space","space","space","NA","j","687","NA","17167","31212","9493","NA","687","2","legacy","1024","2","48000","-16","task","5100727","odd","NA","57272","76440","59273","168634","2656","43363","33870","169137","NA","168632","169137","168554","76440","169825","55100","168053","2649","150085","Lexical Decision Task","45","47293","51","yes","1024"
"2.845304797","0","6","buct","non-word","88.4615384615","88.4615384615","925.288461538","925.288461538","black","no","legacy","legacy","legacy","0","uniform","1","undefined","undefined","undefined","1","f","0","0","0","0","51","0","0","0","51","NA","47","51","47","0","47","3","51","0","51","02/23/21 16:56:14","The main experiment item","yes","Lexical_Decision_Task.osexp","C:/Users/s5100727","no","Andale Mono","no","18","no","white","no","yes","576","legacy","47","47","3","C:/Users/s5100727/subject-5100727.csv","legacy","Kafkaesque Koffka","3.2.4","yes","yes","600bd7cfb6416f0113b04181","602110864497cf011d9c0822","0","f","NA","space","space","space","NA","f","822","NA","17167","31212","9493","NA","822","2","legacy","1024","2","48000","-16","task","5100727","odd","NA","57272","76440","59273","171407","2656","43363","33870","171909","NA","171405","171910","171327","76440","172733","55100","168053","2649","169827","Lexical Decision Task","46","48115","52","yes","1024"
"3.076883066","0","8","mout","non-word","88.679245283","88.679245283","922.320754717","922.320754717","black","no","legacy","legacy","legacy","0","uniform","1","undefined","undefined","undefined","1","f","0","0","0","0","52","0","0","0","52","NA","48","52","48","0","48","3","52","0","52","02/23/21 16:56:14","The main experiment item","yes","Lexical_Decision_Task.osexp","C:/Users/s5100727","no","Andale Mono","no","18","no","white","no","yes","576","legacy","48","48","3","C:/Users/s5100727/subject-5100727.csv","legacy","Kafkaesque Koffka","3.2.4","yes","yes","600bd7cfb6416f0113b04181","602110864497cf011d9c0822","0","f","NA","space","space","space","NA","f","768","NA","17167","31212","9493","NA","768","2","legacy","1024","2","48000","-16","task","5100727","odd","NA","57272","76440","59273","173312","2656","43363","33870","173813","NA","173311","173813","173235","76440","174581","55100","172735","2649","169827","Lexical Decision Task","47","48883","53","yes","1024"
"2.95456409","0","4","taud","non-word","88.8888888889","88.8888888889","917.740740741","917.740740741","black","no","legacy","legacy","legacy","0","uniform","1","undefined","undefined","undefined","1","f","0","0","0","0","53","0","0","0","53","NA","49","53","49","0","49","3","53","0","53","02/23/21 16:56:14","The main experiment item","yes","Lexical_Decision_Task.osexp","C:/Users/s5100727","no","Andale Mono","no","18","no","white","no","yes","576","legacy","49","49","3","C:/Users/s5100727/subject-5100727.csv","legacy","Kafkaesque Koffka","3.2.4","yes","yes","600bd7cfb6416f0113b04181","602110864497cf011d9c0822","0","f","NA","space","space","space","NA","f","675","NA","17167","31212","9493","NA","675","2","legacy","1024","2","48000","-16","task","5100727","odd","NA","57272","76440","59273","175161","2656","43363","33870","175664","NA","175160","175664","175085","76440","176340","55100","174585","2649","169827","Lexical Decision Task","48","49558","54","yes","1024"
"2.67699827","0","6","hulf","non-word","89.0909090909","89.0909090909","913.672727273","913.672727273","black","no","legacy","legacy","legacy","0","uniform","1","undefined","undefined","undefined","1","f","0","0","0","0","54","0","0","0","54","0","50","54","50","0","50","3","54","0","54","02/23/21 16:56:14","The main experiment item","yes","Lexical_Decision_Task.osexp","C:/Users/s5100727","no","Andale Mono","no","18","no","white","no","yes","576","legacy","50","50","3","C:/Users/s5100727/subject-5100727.csv","legacy","Kafkaesque Koffka","3.2.4","yes","yes","600bd7cfb6416f0113b04181","602110864497cf011d9c0822","0","f","NA","space","space","space","space","f","694","NA","17167","31212","9493","22737","694","2","legacy","1024","2","48000","-16","task","5100727","odd","NA","57272","76440","59273","199711","2656","43363","33870","200213","176892","199710","200213","176842","76440","200908","55100","176342","2649","169827","Lexical Decision Task","49","50252","55","yes","1024"
"2.952953801","0","8","clax","non-word","89.2857142857","89.2857142857","917.714285714","917.714285714","black","no","legacy","legacy","legacy","0","uniform","1","undefined","undefined","undefined","1","f","0","0","0","0","55","0","0","0","55","0","51","55","51","0","51","3","55","0","55","02/23/21 16:56:14","The main experiment item","yes","Lexical_Decision_Task.osexp","C:/Users/s5100727","no","Andale Mono","no","18","no","white","no","yes","576","legacy","51","51","3","C:/Users/s5100727/subject-5100727.csv","legacy","Kafkaesque Koffka","3.2.4","yes","yes","600bd7cfb6416f0113b04181","602110864497cf011d9c0822","0","f","NA","space","space","space","space","f","1140","NA","17167","31212","9493","22737","1140","2","legacy","1024","2","48000","-16","task","5100727","odd","NA","57272","76440","59273","201490","2656","43363","33870","201991","176892","201489","201991","201410","76440","203132","55100","200910","2649","169827","Lexical Decision Task","50","51392","56","yes","1024"
"2.80048796","0","8","pife","non-word","89.4736842105","89.4736842105","914.631578947","914.631578947","black","no","legacy","legacy","legacy","0","uniform","1","undefined","undefined","undefined","1","f","0","0","0","0","56","0","0","0","56","0","52","56","52","0","52","3","56","0","56","02/23/21 16:56:14","The main experiment item","yes","Lexical_Decision_Task.osexp","C:/Users/s5100727","no","Andale Mono","no","18","no","white","no","yes","576","legacy","52","52","3","C:/Users/s5100727/subject-5100727.csv","legacy","Kafkaesque Koffka","3.2.4","yes","yes","600bd7cfb6416f0113b04181","602110864497cf011d9c0822","0","f","NA","space","space","space","space","f","742","NA","17167","31212","9493","22737","742","2","legacy","1024","2","48000","-16","task","5100727","odd","NA","57272","76440","59273","203715","2656","43363","33870","204216","176892","203713","204217","203635","76440","204960","55100","203134","2649","169827","Lexical Decision Task","51","52134","57","yes","1024"
"3.149629599","0","2","cleb","non-word","89.6551724138","89.6551724138","913.017241379","913.017241379","black","no","legacy","legacy","legacy","0","uniform","1","undefined","undefined","undefined","1","f","0","0","0","0","57","0","0","0","57","0","53","57","53","0","53","3","57","0","57","02/23/21 16:56:14","The main experiment item","yes","Lexical_Decision_Task.osexp","C:/Users/s5100727","no","Andale Mono","no","18","no","white","no","yes","576","legacy","53","53","3","C:/Users/s5100727/subject-5100727.csv","legacy","Kafkaesque Koffka","3.2.4","yes","yes","600bd7cfb6416f0113b04181","602110864497cf011d9c0822","0","f","NA","space","space","space","space","f","821","NA","17167","31212","9493","22737","821","2","legacy","1024","2","48000","-16","task","5100727","odd","NA","57272","76440","59273","205539","2656","43363","33870","206040","176892","205538","206041","205462","76440","206863","55100","204962","2649","169827","Lexical Decision Task","52","52955","58","yes","1024"
"2.668385917","5.48","4","twig","word","89.8305084746","89.8305084746","909.728813559","909.728813559","black","no","legacy","legacy","legacy","0","uniform","1","undefined","undefined","undefined","1","j","0","0","0","0","58","0","0","0","58","0","54","58","54","0","54","3","58","0","58","02/23/21 16:56:14","The main experiment item","yes","Lexical_Decision_Task.osexp","C:/Users/s5100727","no","Andale Mono","no","18","no","white","no","yes","576","legacy","54","54","3","C:/Users/s5100727/subject-5100727.csv","legacy","Kafkaesque Koffka","3.2.4","yes","yes","600bd7cfb6416f0113b04181","602110864497cf011d9c0822","0","j","NA","space","space","space","space","j","719","NA","17167","31212","9493","22737","719","2","legacy","1024","2","48000","-16","task","5100727","odd","NA","57272","76440","59273","207445","2656","43363","33870","207946","176892","207443","207946","207366","76440","208666","55100","206866","2649","169827","Lexical Decision Task","53","53674","59","yes","1024"
"3.274543461","7.46","7","scar","word","90","90","907.383333333","907.383333333","black","no","legacy","legacy","legacy","0","uniform","1","undefined","undefined","undefined","1","j","0","0","0","0","59","0","0","0","59","0","55","59","55","0","55","3","59","0","59","02/23/21 16:56:14","The main experiment item","yes","Lexical_Decision_Task.osexp","C:/Users/s5100727","no","Andale Mono","no","18","no","white","no","yes","576","legacy","55","55","3","C:/Users/s5100727/subject-5100727.csv","legacy","Kafkaesque Koffka","3.2.4","yes","yes","600bd7cfb6416f0113b04181","602110864497cf011d9c0822","0","j","NA","space","space","space","space","j","769","NA","17167","31212","9493","22737","769","2","legacy","1024","2","48000","-16","task","5100727","odd","NA","57272","76440","59273","209253","2656","43363","33870","209754","176892","209251","209755","209169","76440","210525","55100","208669","2649","169827","Lexical Decision Task","54","54443","60","yes","1024"
"2.986323777","10.85","8","ship","word","90.1639344262","90.1639344262","902.213114754","902.213114754","black","no","legacy","legacy","legacy","0","uniform","1","undefined","undefined","undefined","1","j","0","0","0","0","60","0","0","0","60","0","56","60","56","0","56","3","60","0","60","02/23/21 16:56:14","The main experiment item","yes","Lexical_Decision_Task.osexp","C:/Users/s5100727","no","Andale Mono","no","18","no","white","no","yes","576","legacy","56","56","3","C:/Users/s5100727/subject-5100727.csv","legacy","Kafkaesque Koffka","3.2.4","yes","yes","600bd7cfb6416f0113b04181","602110864497cf011d9c0822","0","j","NA","space","space","space","space","j","592","NA","17167","31212","9493","22737","592","2","legacy","1024","2","48000","-16","task","5100727","odd","NA","57272","76440","59273","211105","2656","43363","33870","211606","176892","211104","211606","211028","76440","212199","55100","210528","2649","169827","Lexical Decision Task","55","55035","61","yes","1024"
"3.159867847","5.98","5","brim","word","90.3225806452","90.3225806452","903.516129032","903.516129032","black","no","legacy","legacy","legacy","0","uniform","1","undefined","undefined","undefined","1","j","0","0","0","0","61","0","0","0","61","0","57","61","57","0","57","3","61","0","61","02/23/21 16:56:14","The main experiment item","yes","Lexical_Decision_Task.osexp","C:/Users/s5100727","no","Andale Mono","no","18","no","white","no","yes","576","legacy","57","57","3","C:/Users/s5100727/subject-5100727.csv","legacy","Kafkaesque Koffka","3.2.4","yes","yes","600bd7cfb6416f0113b04181","602110864497cf011d9c0822","0","j","NA","space","space","space","space","j","983","NA","17167","31212","9493","22737","983","2","legacy","1024","2","48000","-16","task","5100727","odd","NA","57272","76440","59273","212780","2656","43363","33870","213281","176892","212779","213281","212702","76440","214265","55100","212202","2649","169827","Lexical Decision Task","56","56018","62","yes","1024"
"3.2757719","0","5","slea","non-word","90.4761904762","90.4761904762","909.158730159","909.158730159","black","no","legacy","legacy","legacy","0","uniform","1","undefined","undefined","undefined","1","f","0","0","0","0","62","0","0","0","62","0","58","62","58","0","58","3","62","0","62","02/23/21 16:56:14","The main experiment item","yes","Lexical_Decision_Task.osexp","C:/Users/s5100727","no","Andale Mono","no","18","no","white","no","yes","576","legacy","58","58","3","C:/Users/s5100727/subject-5100727.csv","legacy","Kafkaesque Koffka","3.2.4","yes","yes","600bd7cfb6416f0113b04181","602110864497cf011d9c0822","0","f","NA","space","space","space","space","f","1259","NA","17167","31212","9493","22737","1259","2","legacy","1024","2","48000","-16","task","5100727","odd","NA","57272","76440","59273","214844","2656","43363","33870","215345","176892","214842","215345","214768","76440","216605","55100","214268","2649","169827","Lexical Decision Task","57","57277","63","yes","1024"
"3.302475237","0","7","leel","non-word","90.625","90.625","917.078125","917.078125","black","no","legacy","legacy","legacy","0","uniform","1","undefined","undefined","undefined","1","f","0","0","0","0","63","0","0","0","63","0","59","63","59","0","59","3","63","0","63","02/23/21 16:56:14","The main experiment item","yes","Lexical_Decision_Task.osexp","C:/Users/s5100727","no","Andale Mono","no","18","no","white","no","yes","576","legacy","59","59","3","C:/Users/s5100727/subject-5100727.csv","legacy","Kafkaesque Koffka","3.2.4","yes","yes","600bd7cfb6416f0113b04181","602110864497cf011d9c0822","0","f","NA","space","space","space","space","f","1416","NA","17167","31212","9493","22737","1416","2","legacy","1024","2","48000","-16","task","5100727","odd","NA","57272","76440","59273","217182","2656","43363","33870","217686","176892","217181","217686","217107","76440","219103","55100","216607","2649","169827","Lexical Decision Task","58","58693","64","yes","1024"
"3.353210739","0","9","reet","non-word","90.7692307692","90.7692307692","914.907692308","914.907692308","black","no","legacy","legacy","legacy","0","uniform","1","undefined","undefined","undefined","1","f","0","0","0","0","64","0","0","0","64","0","60","64","60","0","60","3","64","0","64","02/23/21 16:56:14","The main experiment item","yes","Lexical_Decision_Task.osexp","C:/Users/s5100727","no","Andale Mono","no","18","no","white","no","yes","576","legacy","60","60","3","C:/Users/s5100727/subject-5100727.csv","legacy","Kafkaesque Koffka","3.2.4","yes","yes","600bd7cfb6416f0113b04181","602110864497cf011d9c0822","0","f","NA","space","space","space","space","f","776","NA","17167","31212","9493","22737","776","2","legacy","1024","2","48000","-16","task","5100727","odd","NA","57272","76440","59273","219684","2656","43363","33870","220185","176892","219682","220185","219606","76440","220962","55100","219106","2649","169827","Lexical Decision Task","59","59469","65","yes","1024"
"3.460446784","0","5","dess","non-word","90.9090909091","90.9090909091","909.696969697","909.696969697","black","no","legacy","legacy","legacy","0","uniform","1","undefined","undefined","undefined","1","f","0","0","0","0","65","0","0","0","65","0","61","65","61","0","61","3","65","0","65","02/23/21 16:56:14","The main experiment item","yes","Lexical_Decision_Task.osexp","C:/Users/s5100727","no","Andale Mono","no","18","no","white","no","yes","576","legacy","61","61","3","C:/Users/s5100727/subject-5100727.csv","legacy","Kafkaesque Koffka","3.2.4","yes","yes","600bd7cfb6416f0113b04181","602110864497cf011d9c0822","0","f","NA","space","space","space","space","f","571","NA","17167","31212","9493","22737","571","2","legacy","1024","2","48000","-16","task","5100727","odd","NA","57272","76440","59273","221542","2656","43363","33870","222043","176892","221540","222043","221464","76440","222615","55100","220964","2649","169827","Lexical Decision Task","60","60040","66","yes","1024"
"3.307211407","6.07","7","honk","word","91.0447761194","91.0447761194","905.850746269","905.850746269","black","no","legacy","legacy","legacy","0","uniform","1","undefined","undefined","undefined","1","j","0","0","0","0","66","0","0","0","66","0","62","66","62","0","62","3","66","0","66","02/23/21 16:56:14","The main experiment item","yes","Lexical_Decision_Task.osexp","C:/Users/s5100727","no","Andale Mono","no","18","no","white","no","yes","576","legacy","62","62","3","C:/Users/s5100727/subject-5100727.csv","legacy","Kafkaesque Koffka","3.2.4","yes","yes","600bd7cfb6416f0113b04181","602110864497cf011d9c0822","0","j","NA","space","space","space","space","j","652","NA","17167","31212","9493","22737","652","2","legacy","1024","2","48000","-16","task","5100727","odd","NA","57272","76440","59273","223199","2656","43363","33870","223700","176892","223197","223700","223118","76440","224353","55100","222618","2649","169827","Lexical Decision Task","61","60692","67","yes","1024"
"2.843025032","0","9","pusk","non-word","91.1764705882","91.1764705882","902.191176471","902.191176471","black","no","legacy","legacy","legacy","0","uniform","1","undefined","undefined","undefined","1","f","0","0","0","0","67","0","0","0","67","0","63","67","63","0","63","3","67","0","67","02/23/21 16:56:14","The main experiment item","yes","Lexical_Decision_Task.osexp","C:/Users/s5100727","no","Andale Mono","no","18","no","white","no","yes","576","legacy","63","63","3","C:/Users/s5100727/subject-5100727.csv","legacy","Kafkaesque Koffka","3.2.4","yes","yes","600bd7cfb6416f0113b04181","602110864497cf011d9c0822","0","f","NA","space","space","space","space","f","657","NA","17167","31212","9493","22737","657","2","legacy","1024","2","48000","-16","task","5100727","odd","NA","57272","76440","59273","224934","2656","43363","33870","225435","176892","224932","225436","224856","76440","226094","55100","224356","2649","169827","Lexical Decision Task","62","61349","68","yes","1024"
"3.276537627","9.15","5","trap","word","91.3043478261","91.3043478261","910.130434783","910.130434783","black","no","legacy","legacy","legacy","0","uniform","1","undefined","undefined","undefined","1","j","0","0","0","0","68","0","0","0","68","0","64","68","64","0","64","3","68","0","68","02/23/21 16:56:14","The main experiment item","yes","Lexical_Decision_Task.osexp","C:/Users/s5100727","no","Andale Mono","no","18","no","white","no","yes","576","legacy","64","64","3","C:/Users/s5100727/subject-5100727.csv","legacy","Kafkaesque Koffka","3.2.4","yes","yes","600bd7cfb6416f0113b04181","602110864497cf011d9c0822","0","j","NA","space","space","space","space","j","1450","NA","17167","31212","9493","22737","1450","2","legacy","1024","2","48000","-16","task","5100727","odd","NA","57272","76440","59273","226673","2656","43363","33870","227174","176892","226672","227174","226596","76440","228625","55100","226096","2649","169827","Lexical Decision Task","63","62799","69","yes","1024"
"2.868644438","10.52","4","town","word","91.4285714286","91.4285714286","905.685714286","905.685714286","black","no","legacy","legacy","legacy","0","uniform","1","undefined","undefined","undefined","1","j","0","0","0","0","69","0","0","0","69","0","65","69","65","0","65","3","69","0","69","02/23/21 16:56:14","The main experiment item","yes","Lexical_Decision_Task.osexp","C:/Users/s5100727","no","Andale Mono","no","18","no","white","no","yes","576","legacy","65","65","3","C:/Users/s5100727/subject-5100727.csv","legacy","Kafkaesque Koffka","3.2.4","yes","yes","600bd7cfb6416f0113b04181","602110864497cf011d9c0822","0","j","NA","space","space","space","space","j","599","NA","17167","31212","9493","22737","599","2","legacy","1024","2","48000","-16","task","5100727","odd","NA","57272","76440","59273","229206","2656","43363","33870","229709","176892","229205","229709","229128","76440","230309","55100","228628","2649","169827","Lexical Decision Task","64","63398","70","yes","1024"
"3.131833513","7.66","4","limb","word","91.5492957746","91.5492957746","902.535211268","902.535211268","black","no","legacy","legacy","legacy","0","uniform","1","undefined","undefined","undefined","1","j","0","0","0","0","70","0","0","0","70","0","66","70","66","0","66","3","70","0","70","02/23/21 16:56:14","The main experiment item","yes","Lexical_Decision_Task.osexp","C:/Users/s5100727","no","Andale Mono","no","18","no","white","no","yes","576","legacy","66","66","3","C:/Users/s5100727/subject-5100727.csv","legacy","Kafkaesque Koffka","3.2.4","yes","yes","600bd7cfb6416f0113b04181","602110864497cf011d9c0822","0","j","NA","space","space","space","space","j","682","NA","17167","31212","9493","22737","682","2","legacy","1024","2","48000","-16","task","5100727","odd","NA","57272","76440","59273","230889","2656","43363","33870","231390","176892","230888","231390","230812","76440","232073","55100","230312","2649","169827","Lexical Decision Task","65","64080","71","yes","1024"
"2.664011697","8.19","4","hawk","word","91.6666666667","91.6666666667","900.375","900.375","black","no","legacy","legacy","legacy","0","uniform","1","undefined","undefined","undefined","1","j","0","0","0","0","71","0","0","0","71","0","67","71","67","0","67","3","71","0","71","02/23/21 16:56:14","The main experiment item","yes","Lexical_Decision_Task.osexp","C:/Users/s5100727","no","Andale Mono","no","18","no","white","no","yes","576","legacy","67","67","3","C:/Users/s5100727/subject-5100727.csv","legacy","Kafkaesque Koffka","3.2.4","yes","yes","600bd7cfb6416f0113b04181","602110864497cf011d9c0822","0","j","NA","space","space","space","space","j","747","NA","17167","31212","9493","22737","747","2","legacy","1024","2","48000","-16","task","5100727","odd","NA","57272","76440","59273","232652","2656","43363","33870","233153","176892","232651","233153","232575","76440","233901","55100","232075","2649","169827","Lexical Decision Task","66","64827","72","yes","1024"
"3.028977705","0","7","frow","non-word","91.7808219178","91.7808219178","899.095890411","899.095890411","black","no","legacy","legacy","legacy","0","uniform","1","undefined","undefined","undefined","1","f","0","0","0","0","72","0","0","0","72","0","68","72","68","0","68","3","72","0","72","02/23/21 16:56:14","The main experiment item","yes","Lexical_Decision_Task.osexp","C:/Users/s5100727","no","Andale Mono","no","18","no","white","no","yes","576","legacy","68","68","3","C:/Users/s5100727/subject-5100727.csv","legacy","Kafkaesque Koffka","3.2.4","yes","yes","600bd7cfb6416f0113b04181","602110864497cf011d9c0822","0","f","NA","space","space","space","space","f","807","NA","17167","31212","9493","22737","807","2","legacy","1024","2","48000","-16","task","5100727","odd","NA","57272","76440","59273","234480","2656","43363","33870","234982","176892","234479","234982","234404","76440","235790","55100","233903","2649","169827","Lexical Decision Task","67","65634","73","yes","1024"
"2.880623071","0","9","curp","non-word","91.8918918919","91.8918918919","896.878378378","896.878378378","black","no","legacy","legacy","legacy","0","uniform","1","undefined","undefined","undefined","1","f","0","0","0","0","73","0","0","0","73","0","69","73","69","0","69","3","73","0","73","02/23/21 16:56:14","The main experiment item","yes","Lexical_Decision_Task.osexp","C:/Users/s5100727","no","Andale Mono","no","18","no","white","no","yes","576","legacy","69","69","3","C:/Users/s5100727/subject-5100727.csv","legacy","Kafkaesque Koffka","3.2.4","yes","yes","600bd7cfb6416f0113b04181","602110864497cf011d9c0822","0","f","NA","space","space","space","space","f","735","NA","17167","31212","9493","22737","735","2","legacy","1024","2","48000","-16","task","5100727","odd","NA","57272","76440","59273","236373","2656","43363","33870","236874","176892","236372","236874","236293","76440","237610","55100","235793","2649","169827","Lexical Decision Task","68","66369","74","yes","1024"
"3.378276681","6.39","8","bran","word","90.6666666667","90.6666666667","893.746666667","893.746666667","black","no","legacy","legacy","legacy","0","uniform","0","undefined","undefined","undefined","0","j","0","0","0","0","74","0","0","0","74","0","70","74","70","0","70","3","74","0","74","02/23/21 16:56:14","The main experiment item","yes","Lexical_Decision_Task.osexp","C:/Users/s5100727","no","Andale Mono","no","18","no","white","no","yes","576","legacy","70","70","3","C:/Users/s5100727/subject-5100727.csv","legacy","Kafkaesque Koffka","3.2.4","yes","yes","600bd7cfb6416f0113b04181","602110864497cf011d9c0822","0","f","NA","space","space","space","space","f","662","NA","17167","31212","9493","22737","662","2","legacy","1024","2","48000","-16","task","5100727","odd","NA","57272","76440","59273","238193","2656","43363","33870","238694","176892","238191","238694","238113","76440","239356","55100","237613","2649","169827","Lexical Decision Task","68","67031","75","yes","1024"
"2.814027728","8.2","4","foam","word","90.7894736842","90.7894736842","891.447368421","891.447368421","black","no","legacy","legacy","legacy","0","uniform","1","undefined","undefined","undefined","1","j","0","0","0","0","75","0","0","0","75","0","71","75","71","0","71","3","75","0","75","02/23/21 16:56:14","The main experiment item","yes","Lexical_Decision_Task.osexp","C:/Users/s5100727","no","Andale Mono","no","18","no","white","no","yes","576","legacy","71","71","3","C:/Users/s5100727/subject-5100727.csv","legacy","Kafkaesque Koffka","3.2.4","yes","yes","600bd7cfb6416f0113b04181","602110864497cf011d9c0822","0","j","NA","space","space","space","space","j","719","NA","17167","31212","9493","22737","719","2","legacy","1024","2","48000","-16","task","5100727","odd","NA","57272","76440","59273","240937","2656","43363","33870","241439","176892","240936","241439","240859","76440","242159","55100","237613","2649","239359","Lexical Decision Task","69","67750","76","yes","1024"
"3.067193647","6.73","6","raft","word","90.9090909091","90.9090909091","888.506493506","888.506493506","black","no","legacy","legacy","legacy","0","uniform","1","undefined","undefined","undefined","1","j","0","0","0","0","76","0","0","0","76","0","72","76","72","0","72","3","76","0","76","02/23/21 16:56:14","The main experiment item","yes","Lexical_Decision_Task.osexp","C:/Users/s5100727","no","Andale Mono","no","18","no","white","no","yes","576","legacy","72","72","3","C:/Users/s5100727/subject-5100727.csv","legacy","Kafkaesque Koffka","3.2.4","yes","yes","600bd7cfb6416f0113b04181","602110864497cf011d9c0822","0","j","NA","space","space","space","space","j","665","NA","17167","31212","9493","22737","665","2","legacy","1024","2","48000","-16","task","5100727","odd","NA","57272","76440","59273","242739","2656","43363","33870","243242","176892","242738","243242","242662","76440","243908","55100","242162","2649","239359","Lexical Decision Task","70","68415","77","yes","1024"
"3.363486562","6.93","9","lush","word","91.0256410256","91.0256410256","883.974358974","883.974358974","black","no","legacy","legacy","legacy","0","uniform","1","undefined","undefined","undefined","1","j","0","0","0","0","77","0","0","0","77","0","73","77","73","0","73","3","77","0","77","02/23/21 16:56:14","The main experiment item","yes","Lexical_Decision_Task.osexp","C:/Users/s5100727","no","Andale Mono","no","18","no","white","no","yes","576","legacy","73","73","3","C:/Users/s5100727/subject-5100727.csv","legacy","Kafkaesque Koffka","3.2.4","yes","yes","600bd7cfb6416f0113b04181","602110864497cf011d9c0822","0","j","NA","space","space","space","space","j","535","NA","17167","31212","9493","22737","535","2","legacy","1024","2","48000","-16","task","5100727","odd","NA","57272","76440","59273","244488","2656","43363","33870","244989","176892","244487","244990","244410","76440","245526","55100","243910","2649","239359","Lexical Decision Task","71","68950","78","yes","1024"
"3.397302518","7.01","2","knit","word","91.1392405063","91.1392405063","880.303797468","880.303797468","black","no","legacy","legacy","legacy","0","uniform","1","undefined","undefined","undefined","1","j","0","0","0","0","78","0","0","0","78","0","74","78","74","0","74","3","78","0","78","02/23/21 16:56:14","The main experiment item","yes","Lexical_Decision_Task.osexp","C:/Users/s5100727","no","Andale Mono","no","18","no","white","no","yes","576","legacy","74","74","3","C:/Users/s5100727/subject-5100727.csv","legacy","Kafkaesque Koffka","3.2.4","yes","yes","600bd7cfb6416f0113b04181","602110864497cf011d9c0822","0","j","NA","space","space","space","space","j","594","NA","17167","31212","9493","22737","594","2","legacy","1024","2","48000","-16","task","5100727","odd","NA","57272","76440","59273","246107","2656","43363","33870","246608","176892","246105","246608","246029","76440","247202","55100","245529","2649","239359","Lexical Decision Task","72","69544","79","yes","1024"
"2.719886232","7.98","2","quiz","word","91.25","91.25","876.3","876.3","black","no","legacy","legacy","legacy","0","uniform","1","undefined","undefined","undefined","1","j","0","0","0","0","79","0","0","0","79","0","75","79","75","0","75","3","79","0","79","02/23/21 16:56:14","The main experiment item","yes","Lexical_Decision_Task.osexp","C:/Users/s5100727","no","Andale Mono","no","18","no","white","no","yes","576","legacy","75","75","3","C:/Users/s5100727/subject-5100727.csv","legacy","Kafkaesque Koffka","3.2.4","yes","yes","600bd7cfb6416f0113b04181","602110864497cf011d9c0822","0","j","NA","space","space","space","space","j","560","NA","17167","31212","9493","22737","560","2","legacy","1024","2","48000","-16","task","5100727","odd","NA","57272","76440","59273","247786","2656","43363","33870","248288","176892","247784","248288","247705","76440","248849","55100","247205","2649","239359","Lexical Decision Task","73","70104","80","yes","1024"
"2.714888338","0","3","brug","non-word","90.1234567901","90.1234567901","871.024691358","871.024691358","black","no","legacy","legacy","legacy","0","uniform","0","undefined","undefined","undefined","0","f","0","0","0","0","80","0","0","0","80","0","76","80","76","0","76","3","80","0","80","02/23/21 16:56:14","The main experiment item","yes","Lexical_Decision_Task.osexp","C:/Users/s5100727","no","Andale Mono","no","18","no","white","no","yes","576","legacy","76","76","3","C:/Users/s5100727/subject-5100727.csv","legacy","Kafkaesque Koffka","3.2.4","yes","yes","600bd7cfb6416f0113b04181","602110864497cf011d9c0822","0","j","NA","space","space","space","space","j","449","NA","17167","31212","9493","22737","449","2","legacy","1024","2","48000","-16","task","5100727","odd","NA","57272","76440","59273","249430","2656","43363","33870","249933","176892","249428","249933","249352","76440","250383","55100","248852","2649","239359","Lexical Decision Task","73","70553","81","yes","1024"
"3.134602053","0","8","jart","non-word","89.0243902439","89.0243902439","867.426829268","867.426829268","black","no","legacy","legacy","legacy","0","uniform","0","undefined","undefined","undefined","0","f","0","0","0","0","81","0","0","0","81","0","77","81","77","0","77","3","81","0","81","02/23/21 16:56:14","The main experiment item","yes","Lexical_Decision_Task.osexp","C:/Users/s5100727","no","Andale Mono","no","18","no","white","no","yes","576","legacy","77","77","3","C:/Users/s5100727/subject-5100727.csv","legacy","Kafkaesque Koffka","3.2.4","yes","yes","600bd7cfb6416f0113b04181","602110864497cf011d9c0822","0","j","NA","space","space","space","space","j","576","NA","17167","31212","9493","22737","576","2","legacy","1024","2","48000","-16","task","5100727","odd","NA","57272","76440","59273","251972","2656","43363","33870","252473","176892","251970","252473","251886","76440","253050","55100","248852","2649","250386","Lexical Decision Task","73","71129","82","yes","1024"
"3.15462682","0","6","noal","non-word","89.156626506","89.156626506","864.915662651","864.915662651","black","no","legacy","legacy","legacy","0","uniform","1","undefined","undefined","undefined","1","f","0","0","0","0","82","0","0","0","82","0","78","82","78","0","78","3","82","0","82","02/23/21 16:56:14","The main experiment item","yes","Lexical_Decision_Task.osexp","C:/Users/s5100727","no","Andale Mono","no","18","no","white","no","yes","576","legacy","78","78","3","C:/Users/s5100727/subject-5100727.csv","legacy","Kafkaesque Koffka","3.2.4","yes","yes","600bd7cfb6416f0113b04181","602110864497cf011d9c0822","0","f","NA","space","space","space","space","f","659","NA","17167","31212","9493","22737","659","2","legacy","1024","2","48000","-16","task","5100727","odd","NA","57272","76440","59273","254634","2656","43363","33870","255135","176892","254632","255135","254552","76440","255795","55100","248852","2649","253052","Lexical Decision Task","74","71788","83","yes","1024"
"3.091901331","0","9","nipe","non-word","89.2857142857","89.2857142857","863.380952381","863.380952381","black","no","legacy","legacy","legacy","0","uniform","1","undefined","undefined","undefined","1","f","0","0","0","0","83","0","0","0","83","0","79","83","79","0","79","3","83","0","83","02/23/21 16:56:14","The main experiment item","yes","Lexical_Decision_Task.osexp","C:/Users/s5100727","no","Andale Mono","no","18","no","white","no","yes","576","legacy","79","79","3","C:/Users/s5100727/subject-5100727.csv","legacy","Kafkaesque Koffka","3.2.4","yes","yes","600bd7cfb6416f0113b04181","602110864497cf011d9c0822","0","f","NA","space","space","space","space","f","736","NA","17167","31212","9493","22737","736","2","legacy","1024","2","48000","-16","task","5100727","odd","NA","57272","76440","59273","256374","2656","43363","33870","256875","176892","256373","256875","256297","76440","257612","55100","255797","2649","253052","Lexical Decision Task","75","72524","84","yes","1024"
"3.29439347","8.6","9","wand","word","89.4117647059","89.4117647059","866.952941176","866.952941176","black","no","legacy","legacy","legacy","0","uniform","1","undefined","undefined","undefined","1","j","0","0","0","0","84","0","0","0","84","0","80","84","80","0","80","3","84","0","84","02/23/21 16:56:14","The main experiment item","yes","Lexical_Decision_Task.osexp","C:/Users/s5100727","no","Andale Mono","no","18","no","white","no","yes","576","legacy","80","80","3","C:/Users/s5100727/subject-5100727.csv","legacy","Kafkaesque Koffka","3.2.4","yes","yes","600bd7cfb6416f0113b04181","602110864497cf011d9c0822","0","j","NA","space","space","space","space","j","1167","NA","17167","31212","9493","22737","1167","2","legacy","1024","2","48000","-16","task","5100727","odd","NA","57272","76440","59273","258195","2656","43363","33870","258696","176892","258193","258696","258114","76440","259864","55100","257614","2649","253052","Lexical Decision Task","76","73691","85","yes","1024"
"3.067070856","9.39","3","loud","word","89.5348837209","89.5348837209","864.581395349","864.581395349","black","no","legacy","legacy","legacy","0","uniform","1","undefined","undefined","undefined","1","j","0","0","0","0","85","0","0","0","85","0","81","85","81","0","81","3","85","0","85","02/23/21 16:56:14","The main experiment item","yes","Lexical_Decision_Task.osexp","C:/Users/s5100727","no","Andale Mono","no","18","no","white","no","yes","576","legacy","81","81","3","C:/Users/s5100727/subject-5100727.csv","legacy","Kafkaesque Koffka","3.2.4","yes","yes","600bd7cfb6416f0113b04181","602110864497cf011d9c0822","0","j","NA","space","space","space","space","j","663","NA","17167","31212","9493","22737","663","2","legacy","1024","2","48000","-16","task","5100727","odd","NA","57272","76440","59273","260443","2656","43363","33870","260944","176892","260441","260944","260367","76440","261608","55100","259867","2649","253052","Lexical Decision Task","77","74354","86","yes","1024"
"2.813801082","5.47","7","nook","word","89.6551724138","89.6551724138","862.770114943","862.770114943","black","no","legacy","legacy","legacy","0","uniform","1","undefined","undefined","undefined","1","j","0","0","0","0","86","0","0","0","86","0","82","86","82","0","82","3","86","0","86","02/23/21 16:56:14","The main experiment item","yes","Lexical_Decision_Task.osexp","C:/Users/s5100727","no","Andale Mono","no","18","no","white","no","yes","576","legacy","82","82","3","C:/Users/s5100727/subject-5100727.csv","legacy","Kafkaesque Koffka","3.2.4","yes","yes","600bd7cfb6416f0113b04181","602110864497cf011d9c0822","0","j","NA","space","space","space","space","j","707","NA","17167","31212","9493","22737","707","2","legacy","1024","2","48000","-16","task","5100727","odd","NA","57272","76440","59273","262188","2656","43363","33870","262689","176892","262186","262689","262111","76440","263397","55100","261611","2649","253052","Lexical Decision Task","78","75061","87","yes","1024"
"2.990042563","6.64","9","plow","word","89.7727272727","89.7727272727","860.397727273","860.397727273","black","no","legacy","legacy","legacy","0","uniform","1","undefined","undefined","undefined","1","j","0","0","0","0","87","0","0","0","87","0","83","87","83","0","83","3","87","0","87","02/23/21 16:56:14","The main experiment item","yes","Lexical_Decision_Task.osexp","C:/Users/s5100727","no","Andale Mono","no","18","no","white","no","yes","576","legacy","83","83","3","C:/Users/s5100727/subject-5100727.csv","legacy","Kafkaesque Koffka","3.2.4","yes","yes","600bd7cfb6416f0113b04181","602110864497cf011d9c0822","0","j","NA","space","space","space","space","j","654","NA","17167","31212","9493","22737","654","2","legacy","1024","2","48000","-16","task","5100727","odd","NA","57272","76440","59273","263977","2656","43363","33870","264478","176892","263975","264478","263899","76440","265133","55100","263399","2649","253052","Lexical Decision Task","79","75715","88","yes","1024"
"2.594027722","9.08","8","skip","word","89.8876404494","89.8876404494","857.494382022","857.494382022","black","no","legacy","legacy","legacy","0","uniform","1","undefined","undefined","undefined","1","j","0","0","0","0","88","0","0","0","88","0","84","88","84","0","84","3","88","0","88","02/23/21 16:56:14","The main experiment item","yes","Lexical_Decision_Task.osexp","C:/Users/s5100727","no","Andale Mono","no","18","no","white","no","yes","576","legacy","84","84","3","C:/Users/s5100727/subject-5100727.csv","legacy","Kafkaesque Koffka","3.2.4","yes","yes","600bd7cfb6416f0113b04181","602110864497cf011d9c0822","0","j","NA","space","space","space","space","j","602","NA","17167","31212","9493","22737","602","2","legacy","1024","2","48000","-16","task","5100727","odd","NA","57272","76440","59273","265714","2656","43363","33870","266215","176892","265713","266216","265636","76440","266819","55100","265136","2649","253052","Lexical Decision Task","80","76317","89","yes","1024"
"2.895974732","6.65","5","sift","word","88.8888888889","88.8888888889","855.488888889","855.488888889","black","no","legacy","legacy","legacy","0","uniform","0","undefined","undefined","undefined","0","j","0","0","0","0","89","0","0","0","89","0","85","89","85","0","85","3","89","0","89","02/23/21 16:56:14","The main experiment item","yes","Lexical_Decision_Task.osexp","C:/Users/s5100727","no","Andale Mono","no","18","no","white","no","yes","576","legacy","85","85","3","C:/Users/s5100727/subject-5100727.csv","legacy","Kafkaesque Koffka","3.2.4","yes","yes","600bd7cfb6416f0113b04181","602110864497cf011d9c0822","0","f","NA","space","space","space","space","f","677","NA","17167","31212","9493","22737","677","2","legacy","1024","2","48000","-16","task","5100727","odd","NA","57272","76440","59273","267398","2656","43363","33870","267900","176892","267397","267900","267321","76440","268578","55100","266821","2649","253052","Lexical Decision Task","80","76994","90","yes","1024"
"3.22685757","9.99","7","roll","word","89.010989011","89.010989011","847.516483516","847.516483516","black","no","legacy","legacy","legacy","0","uniform","1","undefined","undefined","undefined","1","j","0","0","0","0","90","0","0","0","90","0","86","90","86","0","86","3","90","0","90","02/23/21 16:56:14","The main experiment item","yes","Lexical_Decision_Task.osexp","C:/Users/s5100727","no","Andale Mono","no","18","no","white","no","yes","576","legacy","86","86","3","C:/Users/s5100727/subject-5100727.csv","legacy","Kafkaesque Koffka","3.2.4","yes","yes","600bd7cfb6416f0113b04181","602110864497cf011d9c0822","0","j","NA","space","space","space","space","j","130","NA","17167","31212","9493","22737","130","2","legacy","1024","2","48000","-16","task","5100727","odd","NA","57272","76440","59273","270163","2656","43363","33870","270664","176892","270162","270664","270081","76440","270795","55100","266821","2649","268581","Lexical Decision Task","81","77124","91","yes","1024"
"2.713490543","0","3","feps","non-word","89.1304347826","89.1304347826","847.77173913","847.77173913","black","no","legacy","legacy","legacy","0","uniform","1","undefined","undefined","undefined","1","f","0","0","0","0","91","0","0","0","91","0","87","91","87","0","87","3","91","0","91","02/23/21 16:56:14","The main experiment item","yes","Lexical_Decision_Task.osexp","C:/Users/s5100727","no","Andale Mono","no","18","no","white","no","yes","576","legacy","87","87","3","C:/Users/s5100727/subject-5100727.csv","legacy","Kafkaesque Koffka","3.2.4","yes","yes","600bd7cfb6416f0113b04181","602110864497cf011d9c0822","0","f","NA","space","space","space","space","f","871","NA","17167","31212","9493","22737","871","2","legacy","1024","2","48000","-16","task","5100727","odd","NA","57272","76440","59273","271375","2656","43363","33870","271877","176892","271374","271877","271298","76440","272749","55100","270797","2649","268581","Lexical Decision Task","82","77995","92","yes","1024"
"2.69019608","9.01","2","myth","word","89.247311828","89.247311828","845.193548387","845.193548387","black","no","legacy","legacy","legacy","0","uniform","1","undefined","undefined","undefined","1","j","0","0","0","0","92","0","0","0","92","0","88","92","88","0","88","3","92","0","92","02/23/21 16:56:14","The main experiment item","yes","Lexical_Decision_Task.osexp","C:/Users/s5100727","no","Andale Mono","no","18","no","white","no","yes","576","legacy","88","88","3","C:/Users/s5100727/subject-5100727.csv","legacy","Kafkaesque Koffka","3.2.4","yes","yes","600bd7cfb6416f0113b04181","602110864497cf011d9c0822","0","j","NA","space","space","space","space","j","608","NA","17167","31212","9493","22737","608","2","legacy","1024","2","48000","-16","task","5100727","odd","NA","57272","76440","59273","273329","2656","43363","33870","273830","176892","273328","273830","273251","76440","274439","55100","272751","2649","268581","Lexical Decision Task","83","78603","93","yes","1024"
"3.531734309","0","6","lerd","non-word","89.3617021277","89.3617021277","844.776595745","844.776595745","black","no","legacy","legacy","legacy","0","uniform","1","undefined","undefined","undefined","1","f","0","0","0","0","93","0","0","0","93","0","89","93","89","0","89","3","93","0","93","02/23/21 16:56:14","The main experiment item","yes","Lexical_Decision_Task.osexp","C:/Users/s5100727","no","Andale Mono","no","18","no","white","no","yes","576","legacy","89","89","3","C:/Users/s5100727/subject-5100727.csv","legacy","Kafkaesque Koffka","3.2.4","yes","yes","600bd7cfb6416f0113b04181","602110864497cf011d9c0822","0","f","NA","space","space","space","space","f","806","NA","17167","31212","9493","22737","806","2","legacy","1024","2","48000","-16","task","5100727","odd","NA","57272","76440","59273","275018","2656","43363","33870","275520","176892","275017","275520","274941","76440","276327","55100","274441","2649","268581","Lexical Decision Task","84","79409","94","yes","1024"
"3.274157849","0","8","leet","non-word","88.4210526316","88.4210526316","844.568421053","844.568421053","black","no","legacy","legacy","legacy","0","uniform","0","undefined","undefined","undefined","0","f","0","0","0","0","94","0","0","0","94","0","90","94","90","0","90","3","94","0","94","02/23/21 16:56:14","The main experiment item","yes","Lexical_Decision_Task.osexp","C:/Users/s5100727","no","Andale Mono","no","18","no","white","no","yes","576","legacy","90","90","3","C:/Users/s5100727/subject-5100727.csv","legacy","Kafkaesque Koffka","3.2.4","yes","yes","600bd7cfb6416f0113b04181","602110864497cf011d9c0822","0","j","NA","space","space","space","space","j","825","NA","17167","31212","9493","22737","825","2","legacy","1024","2","48000","-16","task","5100727","odd","NA","57272","76440","59273","276907","2656","43363","33870","277408","176892","276906","277408","276829","76440","278234","55100","276329","2649","268581","Lexical Decision Task","84","80234","95","yes","1024"
"3.368162872","0","4","ferk","non-word","87.5","87.5","842.708333333","842.708333333","black","no","legacy","legacy","legacy","0","uniform","0","undefined","undefined","undefined","0","f","0","0","0","0","95","0","0","0","95","0","91","95","91","0","91","3","95","0","95","02/23/21 16:56:14","The main experiment item","yes","Lexical_Decision_Task.osexp","C:/Users/s5100727","no","Andale Mono","no","18","no","white","no","yes","576","legacy","91","91","3","C:/Users/s5100727/subject-5100727.csv","legacy","Kafkaesque Koffka","3.2.4","yes","yes","600bd7cfb6416f0113b04181","602110864497cf011d9c0822","0","j","NA","space","space","space","space","j","666","NA","17167","31212","9493","22737","666","2","legacy","1024","2","48000","-16","task","5100727","odd","NA","57272","76440","59273","279817","2656","43363","33870","280318","176892","279815","280319","279737","76440","280986","55100","276329","2649","278237","Lexical Decision Task","84","80900","96","yes","1024"
"2.68604012","0","3","mulb","non-word","87.6288659794","87.6288659794","840.649484536","840.649484536","black","no","legacy","legacy","legacy","0","uniform","1","undefined","undefined","undefined","1","f","0","0","0","0","96","0","0","0","96","0","92","96","92","0","92","3","96","0","96","02/23/21 16:56:14","The main experiment item","yes","Lexical_Decision_Task.osexp","C:/Users/s5100727","no","Andale Mono","no","18","no","white","no","yes","576","legacy","92","92","3","C:/Users/s5100727/subject-5100727.csv","legacy","Kafkaesque Koffka","3.2.4","yes","yes","600bd7cfb6416f0113b04181","602110864497cf011d9c0822","0","f","NA","space","space","space","space","f","643","NA","17167","31212","9493","22737","643","2","legacy","1024","2","48000","-16","task","5100727","odd","NA","57272","76440","59273","282568","2656","43363","33870","283070","176892","282567","283070","282489","76440","283714","55100","276329","2649","280989","Lexical Decision Task","85","81543","97","yes","1024"
"2.893578687","8.69","3","surf","word","87.7551020408","87.7551020408","840.765306122","840.765306122","black","no","legacy","legacy","legacy","0","uniform","1","undefined","undefined","undefined","1","j","0","0","0","0","97","0","0","0","97","0","93","97","93","0","93","3","97","0","97","02/23/21 16:56:14","The main experiment item","yes","Lexical_Decision_Task.osexp","C:/Users/s5100727","no","Andale Mono","no","18","no","white","no","yes","576","legacy","93","93","3","C:/Users/s5100727/subject-5100727.csv","legacy","Kafkaesque Koffka","3.2.4","yes","yes","600bd7cfb6416f0113b04181","602110864497cf011d9c0822","0","j","NA","space","space","space","space","j","852","NA","17167","31212","9493","22737","852","2","legacy","1024","2","48000","-16","task","5100727","odd","NA","57272","76440","59273","284295","2656","43363","33870","284796","176892","284294","284796","284217","76440","285649","55100","283717","2649","280989","Lexical Decision Task","86","82395","98","yes","1024"
"2.794720352","0","9","koot","non-word","87.8787878788","87.8787878788","838.404040404","838.404040404","black","no","legacy","legacy","legacy","0","uniform","1","undefined","undefined","undefined","1","f","0","0","0","0","98","0","0","0","98","0","94","98","94","0","94","3","98","0","98","02/23/21 16:56:14","The main experiment item","yes","Lexical_Decision_Task.osexp","C:/Users/s5100727","no","Andale Mono","no","18","no","white","no","yes","576","legacy","94","94","3","C:/Users/s5100727/subject-5100727.csv","legacy","Kafkaesque Koffka","3.2.4","yes","yes","600bd7cfb6416f0113b04181","602110864497cf011d9c0822","0","f","NA","space","space","space","space","f","607","NA","17167","31212","9493","22737","607","2","legacy","1024","2","48000","-16","task","5100727","odd","NA","57272","76440","59273","286228","2656","43363","33870","286729","176892","286227","286729","286151","76440","287337","55100","285651","2649","280989","Lexical Decision Task","87","83002","99","yes","1024"
"2.675164031","8.57","6","glue","word","88","88","838.92","838.92","black","no","legacy","legacy","legacy","0","uniform","1","undefined","undefined","undefined","1","j","0","0","0","0","99","0","0","0","99","0","95","99","95","0","95","3","99","0","99","02/23/21 16:56:14","The main experiment item","yes","Lexical_Decision_Task.osexp","C:/Users/s5100727","no","Andale Mono","no","18","no","white","no","yes","576","legacy","95","95","3","C:/Users/s5100727/subject-5100727.csv","legacy","Kafkaesque Koffka","3.2.4","yes","yes","600bd7cfb6416f0113b04181","602110864497cf011d9c0822","0","j","NA","space","space","space","space","j","890","NA","17167","31212","9493","22737","890","2","legacy","1024","2","48000","-16","task","5100727","odd","NA","57272","76440","59273","287917","2656","43363","33870","288419","176892","287915","288419","287840","76440","289310","55100","287339","2649","280989","Lexical Decision Task","88","83892","100","yes","1024"
"2.771097306","0","9","jold","non-word","88.1188118812","88.1188118812","839.059405941","839.059405941","black","no","legacy","legacy","legacy","0","uniform","1","undefined","undefined","undefined","1","f","0","0","0","0","100","0","0","0","100","0","96","100","96","0","96","3","100","0","100","02/23/21 16:56:14","The main experiment item","yes","Lexical_Decision_Task.osexp","C:/Users/s5100727","no","Andale Mono","no","18","no","white","no","yes","576","legacy","96","96","3","C:/Users/s5100727/subject-5100727.csv","legacy","Kafkaesque Koffka","3.2.4","yes","yes","600bd7cfb6416f0113b04181","602110864497cf011d9c0822","0","f","NA","space","space","space","space","f","853","NA","17167","31212","9493","22737","853","2","legacy","1024","2","48000","-16","task","5100727","odd","NA","57272","76440","59273","289893","2656","43363","33870","290394","176892","289892","290394","289812","76440","291248","55100","289312","2649","280989","Lexical Decision Task","89","84745","101","yes","1024"
"2.996511672","0","7","hoil","non-word","88.2352941176","88.2352941176","838.823529412","838.823529412","black","no","legacy","legacy","legacy","0","uniform","1","undefined","undefined","undefined","1","f","0","0","0","0","101","0","0","0","101","0","97","101","97","0","97","3","101","0","101","02/23/21 16:56:14","The main experiment item","yes","Lexical_Decision_Task.osexp","C:/Users/s5100727","no","Andale Mono","no","18","no","white","no","yes","576","legacy","97","97","3","C:/Users/s5100727/subject-5100727.csv","legacy","Kafkaesque Koffka","3.2.4","yes","yes","600bd7cfb6416f0113b04181","602110864497cf011d9c0822","0","f","NA","space","space","space","space","f","815","NA","17167","31212","9493","22737","815","2","legacy","1024","2","48000","-16","task","5100727","odd","NA","57272","76440","59273","291829","2656","43363","33870","292330","176892","291827","292330","291751","76440","293146","55100","291251","2649","280989","Lexical Decision Task","90","85560","102","yes","1024"
"3.105055783","0","2","norp","non-word","88.3495145631","88.3495145631","837.291262136","837.291262136","black","no","legacy","legacy","legacy","0","uniform","1","undefined","undefined","undefined","1","f","0","0","0","0","102","0","0","0","102","0","98","102","98","0","98","3","102","0","102","02/23/21 16:56:14","The main experiment item","yes","Lexical_Decision_Task.osexp","C:/Users/s5100727","no","Andale Mono","no","18","no","white","no","yes","576","legacy","98","98","3","C:/Users/s5100727/subject-5100727.csv","legacy","Kafkaesque Koffka","3.2.4","yes","yes","600bd7cfb6416f0113b04181","602110864497cf011d9c0822","0","f","NA","space","space","space","space","f","681","NA","17167","31212","9493","22737","681","2","legacy","1024","2","48000","-16","task","5100727","odd","NA","57272","76440","59273","293727","2656","43363","33870","294228","176892","293725","294228","293649","76440","294910","55100","293149","2649","280989","Lexical Decision Task","91","86241","103","yes","1024"
"2.82129731","6.72","5","plum","word","88.4615384615","88.4615384615","835.403846154","835.403846154","black","no","legacy","legacy","legacy","0","uniform","1","undefined","undefined","undefined","1","j","0","0","0","0","103","0","0","0","103","0","99","103","99","0","99","3","103","0","103","02/23/21 16:56:14","The main experiment item","yes","Lexical_Decision_Task.osexp","C:/Users/s5100727","no","Andale Mono","no","18","no","white","no","yes","576","legacy","99","99","3","C:/Users/s5100727/subject-5100727.csv","legacy","Kafkaesque Koffka","3.2.4","yes","yes","600bd7cfb6416f0113b04181","602110864497cf011d9c0822","0","j","NA","space","space","space","space","j","641","NA","17167","31212","9493","22737","641","2","legacy","1024","2","48000","-16","task","5100727","odd","NA","57272","76440","59273","295501","2656","43363","33870","296002","176892","295499","296002","295412","76440","296644","55100","294912","2649","280989","Lexical Decision Task","92","86882","104","yes","1024"
