"Log_BG","Log_Freq_HAL","Ortho_N","Stimulus","Type","acc","accuracy","average_response_time","avg_rt","background","bidi","canvas_backend","clock_backend","color_backend","compensation","coordinates","correct","correct_Experimental_intro","correct_Introduction","correct_Practice_intro","correct_experimenter_kb","correct_response","count_End_Of_Experiment","count_End_Of_Practice","count_Experimental_Loop","count_Experimental_intro","count_Fixation","count_Introduction","count_Practice_Loop","count_Practice_intro","count_Stimulus","count_block_break_feedback","count_experimental_sequence","count_experimenter_kb","count_increment_trial_count","count_init_trial_count","count_logger","count_practice_sequence","count_right","count_task","count_wrong","datetime","description","disable_garbage_collection","experiment_file","experiment_path","font_bold","font_family","font_italic","font_size","font_underline","foreground","form_clicks","fullscreen","height","keyboard_backend","live_row","live_row_Experimental_Loop","live_row_Practice_Loop","logfile","mouse_backend","opensesame_codename","opensesame_version","osf_always_upload_data","osf_always_upload_experiment","osf_datanode_id","osf_id","repeat_cycle","response","response_End_Of_Experiment","response_Experimental_intro","response_Introduction","response_Practice_intro","response_block_break_feedback","response_experimenter_kb","response_time","response_time_End_Of_Experiment","response_time_Experimental_intro","response_time_Introduction","response_time_Practice_intro","response_time_block_break_feedback","response_time_experimenter_kb","round_decimals","sampler_backend","sound_buf_size","sound_channels","sound_freq","sound_sample_size","start","subject_nr","subject_parity","time_End_Of_Experiment","time_End_Of_Practice","time_Experimental_Loop","time_Experimental_intro","time_Fixation","time_Introduction","time_Practice_Loop","time_Practice_intro","time_Stimulus","time_block_break_feedback","time_experimental_sequence","time_experimenter_kb","time_increment_trial_count","time_init_trial_count","time_logger","time_practice_sequence","time_right","time_task","time_wrong","title","total_correct","total_response_time","total_responses","uniform_coordinates","width"
"2.771097306","0","9","jold","non-word","100","100","708","708","black","no","legacy","legacy","legacy","0","uniform","1","undefined","undefined","undefined","1","f","0","0","0","0","4","0","0","0","4","NA","0","4","0","0","0","3","4","0","4","Fri Feb 19 14:31:32 2021","The main experiment item","yes","Lexical_Decision_Task.osexp","E:/uni","no","Andale Mono","no","18","no","white","no","yes","576","legacy","0","0","3","E:/uni/subject-5201787.csv","legacy","Lentiform Loewenfeld","3.3.7","yes","yes","600bd7cfb6416f0113b04181","602110864497cf011d9c0822","0","f","NA","space","space","space","NA","f","799","NA","7678","23849","7281","NA","799","2","legacy","1024","2","48000","-16","task","5201787","odd","NA","40326","50005","42326","50033","2148","33281","25999","50534","NA","50032","50534","NA","50005","51333","38677","39810","2146","NA","Lexical Decision Task","5","3540","5","yes","1024"
"3.282244367","0","6","fute","non-word","100","100","721.5","721.5","black","no","legacy","legacy","legacy","0","uniform","1","undefined","undefined","undefined","1","f","0","0","0","0","5","0","0","0","5","NA","1","5","1","0","1","3","5","0","5","Fri Feb 19 14:31:32 2021","The main experiment item","yes","Lexical_Decision_Task.osexp","E:/uni","no","Andale Mono","no","18","no","white","no","yes","576","legacy","1","1","3","E:/uni/subject-5201787.csv","legacy","Lentiform Loewenfeld","3.3.7","yes","yes","600bd7cfb6416f0113b04181","602110864497cf011d9c0822","0","f","NA","space","space","space","NA","f","789","NA","7678","23849","7281","NA","789","2","legacy","1024","2","48000","-16","task","5201787","odd","NA","40326","50005","42326","51957","2148","33281","25999","52457","NA","51956","52458","51896","50005","53247","38677","51396","2146","NA","Lexical Decision Task","6","4329","6","yes","1024"
"2.899638141","0","3","hapt","non-word","85.71428571428571","85.71428571428571","754","754","black","no","legacy","legacy","legacy","0","uniform","0","undefined","undefined","undefined","0","f","0","0","0","0","6","0","0","0","6","NA","2","6","2","0","2","3","6","0","6","Fri Feb 19 14:31:32 2021","The main experiment item","yes","Lexical_Decision_Task.osexp","E:/uni","no","Andale Mono","no","18","no","white","no","yes","576","legacy","2","2","3","E:/uni/subject-5201787.csv","legacy","Lentiform Loewenfeld","3.3.7","yes","yes","600bd7cfb6416f0113b04181","602110864497cf011d9c0822","0","j","NA","space","space","space","NA","j","949","NA","7678","23849","7281","NA","949","2","legacy","1024","2","48000","-16","task","5201787","odd","NA","40326","50005","42326","53801","2148","33281","25999","54301","NA","53800","54302","53751","50005","55252","38677","53251","2146","NA","Lexical Decision Task","6","5278","7","yes","1024"
"3.20871002","7.15","8","cram","word","87.5","87.5","746.75","746.75","black","no","legacy","legacy","legacy","0","uniform","1","undefined","undefined","undefined","1","j","0","0","0","0","7","0","0","0","7","NA","3","7","3","0","3","3","7","0","7","Fri Feb 19 14:31:32 2021","The main experiment item","yes","Lexical_Decision_Task.osexp","E:/uni","no","Andale Mono","no","18","no","white","no","yes","576","legacy","3","3","3","E:/uni/subject-5201787.csv","legacy","Lentiform Loewenfeld","3.3.7","yes","yes","600bd7cfb6416f0113b04181","602110864497cf011d9c0822","0","j","NA","space","space","space","NA","j","696","NA","7678","23849","7281","NA","696","2","legacy","1024","2","48000","-16","task","5201787","odd","NA","40326","50005","42326","56800","2148","33281","25999","57300","NA","56799","57300","56755","50005","57997","38677","53251","2146","55255","Lexical Decision Task","7","5974","8","yes","1024"
"3.299579929","0","2","flis","non-word","88.88888888888889","88.88888888888889","733.6666666666666","733.6666666666666","black","no","legacy","legacy","legacy","0","uniform","1","undefined","undefined","undefined","1","f","0","0","0","0","8","0","0","0","8","NA","4","8","4","0","4","3","8","0","8","Fri Feb 19 14:31:32 2021","The main experiment item","yes","Lexical_Decision_Task.osexp","E:/uni","no","Andale Mono","no","18","no","white","no","yes","576","legacy","4","4","3","E:/uni/subject-5201787.csv","legacy","Lentiform Loewenfeld","3.3.7","yes","yes","600bd7cfb6416f0113b04181","602110864497cf011d9c0822","0","f","NA","space","space","space","NA","f","629","NA","7678","23849","7281","NA","629","2","legacy","1024","2","48000","-16","task","5201787","odd","NA","40326","50005","42326","58549","2148","33281","25999","59050","NA","58548","59050","58502","50005","59679","38677","58002","2146","55255","Lexical Decision Task","8","6603","9","yes","1024"
"2.594027722","9.08","8","skip","word","90","90","711.9","711.9","black","no","legacy","legacy","legacy","0","uniform","1","undefined","undefined","undefined","1","j","0","0","0","0","9","0","0","0","9","NA","5","9","5","0","5","3","9","0","9","Fri Feb 19 14:31:32 2021","The main experiment item","yes","Lexical_Decision_Task.osexp","E:/uni","no","Andale Mono","no","18","no","white","no","yes","576","legacy","5","5","3","E:/uni/subject-5201787.csv","legacy","Lentiform Loewenfeld","3.3.7","yes","yes","600bd7cfb6416f0113b04181","602110864497cf011d9c0822","0","j","NA","space","space","space","NA","j","516","NA","7678","23849","7281","NA","516","2","legacy","1024","2","48000","-16","task","5201787","odd","NA","40326","50005","42326","60228","2148","33281","25999","60729","NA","60227","60729","60184","50005","61245","38677","59683","2146","55255","Lexical Decision Task","9","7119","10","yes","1024"
"2.86332286","6.71","2","feud","word","90.9090909090909","90.9090909090909","716.1818181818181","716.1818181818181","black","no","legacy","legacy","legacy","0","uniform","1","undefined","undefined","undefined","1","j","0","0","0","0","10","0","0","0","10","NA","6","10","6","0","6","3","10","0","10","Fri Feb 19 14:31:32 2021","The main experiment item","yes","Lexical_Decision_Task.osexp","E:/uni","no","Andale Mono","no","18","no","white","no","yes","576","legacy","6","6","3","E:/uni/subject-5201787.csv","legacy","Lentiform Loewenfeld","3.3.7","yes","yes","600bd7cfb6416f0113b04181","602110864497cf011d9c0822","0","j","NA","space","space","space","NA","j","759","NA","7678","23849","7281","NA","759","2","legacy","1024","2","48000","-16","task","5201787","odd","NA","40326","50005","42326","61792","2148","33281","25999","62293","NA","61791","62293","61749","50005","63052","38677","61249","2146","55255","Lexical Decision Task","10","7878","11","yes","1024"
"2.782472624","10.55","2","huge","word","91.66666666666667","91.66666666666667","703.5","703.5","black","no","legacy","legacy","legacy","0","uniform","1","undefined","undefined","undefined","1","j","0","0","0","0","11","0","0","0","11","NA","7","11","7","0","7","3","11","0","11","Fri Feb 19 14:31:32 2021","The main experiment item","yes","Lexical_Decision_Task.osexp","E:/uni","no","Andale Mono","no","18","no","white","no","yes","576","legacy","7","7","3","E:/uni/subject-5201787.csv","legacy","Lentiform Loewenfeld","3.3.7","yes","yes","600bd7cfb6416f0113b04181","602110864497cf011d9c0822","0","j","NA","space","space","space","NA","j","564","NA","7678","23849","7281","NA","564","2","legacy","1024","2","48000","-16","task","5201787","odd","NA","40326","50005","42326","63601","2148","33281","25999","64102","NA","63600","64102","63556","50005","64666","38677","63056","2146","55255","Lexical Decision Task","11","8442","12","yes","1024"
"3.216517684","10.87","3","film","word","92.3076923076923","92.3076923076923","687.1538461538462","687.1538461538462","black","no","legacy","legacy","legacy","0","uniform","1","undefined","undefined","undefined","1","j","0","0","0","0","12","0","0","0","12","NA","8","12","8","0","8","3","12","0","12","Fri Feb 19 14:31:32 2021","The main experiment item","yes","Lexical_Decision_Task.osexp","E:/uni","no","Andale Mono","no","18","no","white","no","yes","576","legacy","8","8","3","E:/uni/subject-5201787.csv","legacy","Lentiform Loewenfeld","3.3.7","yes","yes","600bd7cfb6416f0113b04181","602110864497cf011d9c0822","0","j","NA","space","space","space","NA","j","491","NA","7678","23849","7281","NA","491","2","legacy","1024","2","48000","-16","task","5201787","odd","NA","40326","50005","42326","65213","2148","33281","25999","65714","NA","65212","65714","65170","50005","66206","38677","64670","2146","55255","Lexical Decision Task","12","8933","13","yes","1024"
"2.873320602","0","4","lurg","non-word","92.85714285714286","92.85714285714286","672.1428571428571","672.1428571428571","black","no","legacy","legacy","legacy","0","uniform","1","undefined","undefined","undefined","1","f","0","0","0","0","13","0","0","0","13","NA","9","13","9","0","9","3","13","0","13","Fri Feb 19 14:31:32 2021","The main experiment item","yes","Lexical_Decision_Task.osexp","E:/uni","no","Andale Mono","no","18","no","white","no","yes","576","legacy","9","9","3","E:/uni/subject-5201787.csv","legacy","Lentiform Loewenfeld","3.3.7","yes","yes","600bd7cfb6416f0113b04181","602110864497cf011d9c0822","0","f","NA","space","space","space","NA","f","477","NA","7678","23849","7281","NA","477","2","legacy","1024","2","48000","-16","task","5201787","odd","NA","40326","50005","42326","66755","2148","33281","25999","67256","NA","66754","67256","66710","50005","67734","38677","66210","2146","55255","Lexical Decision Task","13","9410","14","yes","1024"
"3.068433376","8.09","2","bulb","word","93.33333333333333","93.33333333333333","669.9333333333333","669.9333333333333","black","no","legacy","legacy","legacy","0","uniform","1","undefined","undefined","undefined","1","j","0","0","0","0","14","0","0","0","14","NA","10","14","10","0","10","3","14","0","14","Fri Feb 19 14:31:32 2021","The main experiment item","yes","Lexical_Decision_Task.osexp","E:/uni","no","Andale Mono","no","18","no","white","no","yes","576","legacy","10","10","3","E:/uni/subject-5201787.csv","legacy","Lentiform Loewenfeld","3.3.7","yes","yes","600bd7cfb6416f0113b04181","602110864497cf011d9c0822","0","j","NA","space","space","space","NA","j","639","NA","7678","23849","7281","NA","639","2","legacy","1024","2","48000","-16","task","5201787","odd","NA","40326","50005","42326","68278","2148","33281","25999","68778","NA","68277","68778","68238","50005","69418","38677","67738","2146","55255","Lexical Decision Task","14","10049","15","yes","1024"
"2.698100546","0","9","mulk","non-word","93.75","93.75","669.6875","669.6875","black","no","legacy","legacy","legacy","0","uniform","1","undefined","undefined","undefined","1","f","0","0","0","0","15","0","0","0","15","NA","11","15","11","0","11","3","15","0","15","Fri Feb 19 14:31:32 2021","The main experiment item","yes","Lexical_Decision_Task.osexp","E:/uni","no","Andale Mono","no","18","no","white","no","yes","576","legacy","11","11","3","E:/uni/subject-5201787.csv","legacy","Lentiform Loewenfeld","3.3.7","yes","yes","600bd7cfb6416f0113b04181","602110864497cf011d9c0822","0","f","NA","space","space","space","NA","f","666","NA","7678","23849","7281","NA","666","2","legacy","1024","2","48000","-16","task","5201787","odd","NA","40326","50005","42326","69966","2148","33281","25999","70467","NA","69965","70467","69922","50005","71134","38677","69422","2146","55255","Lexical Decision Task","15","10715","16","yes","1024"
"3.372543801","9.24","8","coat","word","94.11764705882354","94.11764705882354","660.4117647058823","660.4117647058823","black","no","legacy","legacy","legacy","0","uniform","1","undefined","undefined","undefined","1","j","0","0","0","0","16","0","0","0","16","NA","12","16","12","0","12","3","16","0","16","Fri Feb 19 14:31:32 2021","The main experiment item","yes","Lexical_Decision_Task.osexp","E:/uni","no","Andale Mono","no","18","no","white","no","yes","576","legacy","12","12","3","E:/uni/subject-5201787.csv","legacy","Lentiform Loewenfeld","3.3.7","yes","yes","600bd7cfb6416f0113b04181","602110864497cf011d9c0822","0","j","NA","space","space","space","NA","j","512","NA","7678","23849","7281","NA","512","2","legacy","1024","2","48000","-16","task","5201787","odd","NA","40326","50005","42326","71678","2148","33281","25999","72178","NA","71677","72178","71638","50005","72690","38677","71138","2146","55255","Lexical Decision Task","16","11227","17","yes","1024"
"2.64476673","0","5","moft","non-word","94.44444444444444","94.44444444444444","672","672","black","no","legacy","legacy","legacy","0","uniform","1","undefined","undefined","undefined","1","f","0","0","0","0","17","0","0","0","17","NA","13","17","13","0","13","3","17","0","17","Fri Feb 19 14:31:32 2021","The main experiment item","yes","Lexical_Decision_Task.osexp","E:/uni","no","Andale Mono","no","18","no","white","no","yes","576","legacy","13","13","3","E:/uni/subject-5201787.csv","legacy","Lentiform Loewenfeld","3.3.7","yes","yes","600bd7cfb6416f0113b04181","602110864497cf011d9c0822","0","f","NA","space","space","space","NA","f","869","NA","7678","23849","7281","NA","869","2","legacy","1024","2","48000","-16","task","5201787","odd","NA","40326","50005","42326","73239","2148","33281","25999","73739","NA","73238","73739","73194","50005","74608","38677","72694","2146","55255","Lexical Decision Task","17","12096","18","yes","1024"
"2.714888338","0","3","brug","non-word","94.73684210526316","94.73684210526316","678.2105263157895","678.2105263157895","black","no","legacy","legacy","legacy","0","uniform","1","undefined","undefined","undefined","1","f","0","0","0","0","18","0","0","0","18","NA","14","18","14","0","14","3","18","0","18","Fri Feb 19 14:31:32 2021","The main experiment item","yes","Lexical_Decision_Task.osexp","E:/uni","no","Andale Mono","no","18","no","white","no","yes","576","legacy","14","14","3","E:/uni/subject-5201787.csv","legacy","Lentiform Loewenfeld","3.3.7","yes","yes","600bd7cfb6416f0113b04181","602110864497cf011d9c0822","0","f","NA","space","space","space","NA","f","790","NA","7678","23849","7281","NA","790","2","legacy","1024","2","48000","-16","task","5201787","odd","NA","40326","50005","42326","75153","2148","33281","25999","75654","NA","75152","75654","75112","50005","76444","38677","74612","2146","55255","Lexical Decision Task","18","12886","19","yes","1024"
"3.225825991","0","7","talm","non-word","95","95","677.6","677.6","black","no","legacy","legacy","legacy","0","uniform","1","undefined","undefined","undefined","1","f","0","0","0","0","19","0","0","0","19","NA","15","19","15","0","15","3","19","0","19","Fri Feb 19 14:31:32 2021","The main experiment item","yes","Lexical_Decision_Task.osexp","E:/uni","no","Andale Mono","no","18","no","white","no","yes","576","legacy","15","15","3","E:/uni/subject-5201787.csv","legacy","Lentiform Loewenfeld","3.3.7","yes","yes","600bd7cfb6416f0113b04181","602110864497cf011d9c0822","0","f","NA","space","space","space","NA","f","666","NA","7678","23849","7281","NA","666","2","legacy","1024","2","48000","-16","task","5201787","odd","NA","40326","50005","42326","76989","2148","33281","25999","77490","NA","76988","77490","76948","50005","78156","38677","76448","2146","55255","Lexical Decision Task","19","13552","20","yes","1024"
"3.261341392","5.08","8","reek","word","95.23809523809524","95.23809523809524","671.8571428571429","671.8571428571429","black","no","legacy","legacy","legacy","0","uniform","1","undefined","undefined","undefined","1","j","0","0","0","0","20","0","0","0","20","NA","16","20","16","0","16","3","20","0","20","Fri Feb 19 14:31:32 2021","The main experiment item","yes","Lexical_Decision_Task.osexp","E:/uni","no","Andale Mono","no","18","no","white","no","yes","576","legacy","16","16","3","E:/uni/subject-5201787.csv","legacy","Lentiform Loewenfeld","3.3.7","yes","yes","600bd7cfb6416f0113b04181","602110864497cf011d9c0822","0","j","NA","space","space","space","NA","j","557","NA","7678","23849","7281","NA","557","2","legacy","1024","2","48000","-16","task","5201787","odd","NA","40326","50005","42326","78704","2148","33281","25999","79205","NA","78703","79205","78660","50005","79763","38677","78160","2146","55255","Lexical Decision Task","20","14109","21","yes","1024"
"3.102203805","7.21","3","drip","word","95.45454545454545","95.45454545454545","664.1363636363636","664.1363636363636","black","no","legacy","legacy","legacy","0","uniform","1","undefined","undefined","undefined","1","j","0","0","0","0","21","0","0","0","21","NA","17","21","17","0","17","3","21","0","21","Fri Feb 19 14:31:32 2021","The main experiment item","yes","Lexical_Decision_Task.osexp","E:/uni","no","Andale Mono","no","18","no","white","no","yes","576","legacy","17","17","3","E:/uni/subject-5201787.csv","legacy","Lentiform Loewenfeld","3.3.7","yes","yes","600bd7cfb6416f0113b04181","602110864497cf011d9c0822","0","j","NA","space","space","space","NA","j","502","NA","7678","23849","7281","NA","502","2","legacy","1024","2","48000","-16","task","5201787","odd","NA","40326","50005","42326","80308","2148","33281","25999","80808","NA","80307","80808","80266","50005","81310","38677","79766","2146","55255","Lexical Decision Task","21","14611","22","yes","1024"
"3.149629599","0","2","cleb","non-word","95.65217391304348","95.65217391304348","659.8260869565217","659.8260869565217","black","no","legacy","legacy","legacy","0","uniform","1","undefined","undefined","undefined","1","f","0","0","0","0","22","0","0","0","22","NA","18","22","18","0","18","3","22","0","22","Fri Feb 19 14:31:32 2021","The main experiment item","yes","Lexical_Decision_Task.osexp","E:/uni","no","Andale Mono","no","18","no","white","no","yes","576","legacy","18","18","3","E:/uni/subject-5201787.csv","legacy","Lentiform Loewenfeld","3.3.7","yes","yes","600bd7cfb6416f0113b04181","602110864497cf011d9c0822","0","f","NA","space","space","space","NA","f","565","NA","7678","23849","7281","NA","565","2","legacy","1024","2","48000","-16","task","5201787","odd","NA","40326","50005","42326","81856","2148","33281","25999","82357","NA","81855","82357","81814","50005","82922","38677","81314","2146","55255","Lexical Decision Task","22","15176","23","yes","1024"
"2.842815106","7.86","8","lump","word","95.83333333333333","95.83333333333333","657.6666666666666","657.6666666666666","black","no","legacy","legacy","legacy","0","uniform","1","undefined","undefined","undefined","1","j","0","0","0","0","23","0","0","0","23","NA","19","23","19","0","19","3","23","0","23","Fri Feb 19 14:31:32 2021","The main experiment item","yes","Lexical_Decision_Task.osexp","E:/uni","no","Andale Mono","no","18","no","white","no","yes","576","legacy","19","19","3","E:/uni/subject-5201787.csv","legacy","Lentiform Loewenfeld","3.3.7","yes","yes","600bd7cfb6416f0113b04181","602110864497cf011d9c0822","0","j","NA","space","space","space","NA","j","608","NA","7678","23849","7281","NA","608","2","legacy","1024","2","48000","-16","task","5201787","odd","NA","40326","50005","42326","83466","2148","33281","25999","83967","NA","83465","83967","83426","50005","84576","38677","82926","2146","55255","Lexical Decision Task","23","15784","24","yes","1024"
"3.195807436","0","6","stup","non-word","96","96","654.6","654.6","black","no","legacy","legacy","legacy","0","uniform","1","undefined","undefined","undefined","1","f","0","0","0","0","24","0","0","0","24","NA","20","24","20","0","20","3","24","0","24","Fri Feb 19 14:31:32 2021","The main experiment item","yes","Lexical_Decision_Task.osexp","E:/uni","no","Andale Mono","no","18","no","white","no","yes","576","legacy","20","20","3","E:/uni/subject-5201787.csv","legacy","Lentiform Loewenfeld","3.3.7","yes","yes","600bd7cfb6416f0113b04181","602110864497cf011d9c0822","0","f","NA","space","space","space","NA","f","581","NA","7678","23849","7281","NA","581","2","legacy","1024","2","48000","-16","task","5201787","odd","NA","40326","50005","42326","85134","2148","33281","25999","85635","NA","85133","85635","85091","50005","86216","38677","84591","2146","55255","Lexical Decision Task","24","16365","25","yes","1024"
"2.952953801","0","8","clax","non-word","96.15384615384616","96.15384615384616","649.7307692307693","649.7307692307693","black","no","legacy","legacy","legacy","0","uniform","1","undefined","undefined","undefined","1","f","0","0","0","0","25","0","0","0","25","NA","21","25","21","0","21","3","25","0","25","Fri Feb 19 14:31:32 2021","The main experiment item","yes","Lexical_Decision_Task.osexp","E:/uni","no","Andale Mono","no","18","no","white","no","yes","576","legacy","21","21","3","E:/uni/subject-5201787.csv","legacy","Lentiform Loewenfeld","3.3.7","yes","yes","600bd7cfb6416f0113b04181","602110864497cf011d9c0822","0","f","NA","space","space","space","NA","f","528","NA","7678","23849","7281","NA","528","2","legacy","1024","2","48000","-16","task","5201787","odd","NA","40326","50005","42326","86764","2148","33281","25999","87265","NA","86763","87265","86720","50005","87794","38677","86220","2146","55255","Lexical Decision Task","25","16893","26","yes","1024"
"3.374198258","0","8","vist","non-word","96.29629629629629","96.29629629629629","648.4074074074074","648.4074074074074","black","no","legacy","legacy","legacy","0","uniform","1","undefined","undefined","undefined","1","f","0","0","0","0","26","0","0","0","26","NA","22","26","22","0","22","3","26","0","26","Fri Feb 19 14:31:32 2021","The main experiment item","yes","Lexical_Decision_Task.osexp","E:/uni","no","Andale Mono","no","18","no","white","no","yes","576","legacy","22","22","3","E:/uni/subject-5201787.csv","legacy","Lentiform Loewenfeld","3.3.7","yes","yes","600bd7cfb6416f0113b04181","602110864497cf011d9c0822","0","f","NA","space","space","space","NA","f","614","NA","7678","23849","7281","NA","614","2","legacy","1024","2","48000","-16","task","5201787","odd","NA","40326","50005","42326","88338","2148","33281","25999","88839","NA","88337","88839","88298","50005","89454","38677","87798","2146","55255","Lexical Decision Task","26","17507","27","yes","1024"
"2.708989954","9.28","9","bowl","word","96.42857142857143","96.42857142857143","643.6071428571429","643.6071428571429","black","no","legacy","legacy","legacy","0","uniform","1","undefined","undefined","undefined","1","j","0","0","0","0","27","0","0","0","27","NA","23","27","23","0","23","3","27","0","27","Fri Feb 19 14:31:32 2021","The main experiment item","yes","Lexical_Decision_Task.osexp","E:/uni","no","Andale Mono","no","18","no","white","no","yes","576","legacy","23","23","3","E:/uni/subject-5201787.csv","legacy","Lentiform Loewenfeld","3.3.7","yes","yes","600bd7cfb6416f0113b04181","602110864497cf011d9c0822","0","j","NA","space","space","space","NA","j","514","NA","7678","23849","7281","NA","514","2","legacy","1024","2","48000","-16","task","5201787","odd","NA","40326","50005","42326","89998","2148","33281","25999","90498","NA","89997","90498","89958","50005","91012","38677","89458","2146","55255","Lexical Decision Task","27","18021","28","yes","1024"
"3.363486562","6.93","9","lush","word","93.10344827586206","93.10344827586206","637.4137931034483","637.4137931034483","black","no","legacy","legacy","legacy","0","uniform","0","undefined","undefined","undefined","0","j","0","0","0","0","28","0","0","0","28","NA","24","28","24","0","24","3","28","0","28","Fri Feb 19 14:31:32 2021","The main experiment item","yes","Lexical_Decision_Task.osexp","E:/uni","no","Andale Mono","no","18","no","white","no","yes","576","legacy","24","24","3","E:/uni/subject-5201787.csv","legacy","Lentiform Loewenfeld","3.3.7","yes","yes","600bd7cfb6416f0113b04181","602110864497cf011d9c0822","0","f","NA","space","space","space","NA","f","464","NA","7678","23849","7281","NA","464","2","legacy","1024","2","48000","-16","task","5201787","odd","NA","40326","50005","42326","91557","2148","33281","25999","92057","NA","91556","92058","91516","50005","92522","38677","91016","2146","55255","Lexical Decision Task","27","18485","29","yes","1024"
"2.8162413","0","5","nusk","non-word","93.33333333333333","93.33333333333333","643.8","643.8","black","no","legacy","legacy","legacy","0","uniform","1","undefined","undefined","undefined","1","f","0","0","0","0","29","0","0","0","29","NA","25","29","25","0","25","3","29","0","29","Fri Feb 19 14:31:32 2021","The main experiment item","yes","Lexical_Decision_Task.osexp","E:/uni","no","Andale Mono","no","18","no","white","no","yes","576","legacy","25","25","3","E:/uni/subject-5201787.csv","legacy","Lentiform Loewenfeld","3.3.7","yes","yes","600bd7cfb6416f0113b04181","602110864497cf011d9c0822","0","f","NA","space","space","space","NA","f","829","NA","7678","23849","7281","NA","829","2","legacy","1024","2","48000","-16","task","5201787","odd","NA","40326","50005","42326","94070","2148","33281","25999","94571","NA","94069","94571","94026","50005","95400","38677","91016","2146","92526","Lexical Decision Task","28","19314","30","yes","1024"
"3.105055783","0","2","norp","non-word","93.54838709677419","93.54838709677419","647.4516129032259","647.4516129032259","black","no","legacy","legacy","legacy","0","uniform","1","undefined","undefined","undefined","1","f","0","0","0","0","30","0","0","0","30","NA","26","30","26","0","26","3","30","0","30","Fri Feb 19 14:31:32 2021","The main experiment item","yes","Lexical_Decision_Task.osexp","E:/uni","no","Andale Mono","no","18","no","white","no","yes","576","legacy","26","26","3","E:/uni/subject-5201787.csv","legacy","Lentiform Loewenfeld","3.3.7","yes","yes","600bd7cfb6416f0113b04181","602110864497cf011d9c0822","0","f","NA","space","space","space","NA","f","757","NA","7678","23849","7281","NA","757","2","legacy","1024","2","48000","-16","task","5201787","odd","NA","40326","50005","42326","95959","2148","33281","25999","96460","NA","95958","96460","95913","50005","97218","38677","95413","2146","92526","Lexical Decision Task","29","20071","31","yes","1024"
"3.067193647","6.73","6","raft","word","93.75","93.75","644.71875","644.71875","black","no","legacy","legacy","legacy","0","uniform","1","undefined","undefined","undefined","1","j","0","0","0","0","31","0","0","0","31","NA","27","31","27","0","27","3","31","0","31","Fri Feb 19 14:31:32 2021","The main experiment item","yes","Lexical_Decision_Task.osexp","E:/uni","no","Andale Mono","no","18","no","white","no","yes","576","legacy","27","27","3","E:/uni/subject-5201787.csv","legacy","Lentiform Loewenfeld","3.3.7","yes","yes","600bd7cfb6416f0113b04181","602110864497cf011d9c0822","0","j","NA","space","space","space","NA","j","560","NA","7678","23849","7281","NA","560","2","legacy","1024","2","48000","-16","task","5201787","odd","NA","40326","50005","42326","97767","2148","33281","25999","98267","NA","97766","98268","97722","50005","98828","38677","97222","2146","92526","Lexical Decision Task","30","20631","32","yes","1024"
"3.431095062","5.74","9","perk","word","93.93939393939394","93.93939393939394","642.5757575757576","642.5757575757576","black","no","legacy","legacy","legacy","0","uniform","1","undefined","undefined","undefined","1","j","0","0","0","0","32","0","0","0","32","NA","28","32","28","0","28","3","32","0","32","Fri Feb 19 14:31:32 2021","The main experiment item","yes","Lexical_Decision_Task.osexp","E:/uni","no","Andale Mono","no","18","no","white","no","yes","576","legacy","28","28","3","E:/uni/subject-5201787.csv","legacy","Lentiform Loewenfeld","3.3.7","yes","yes","600bd7cfb6416f0113b04181","602110864497cf011d9c0822","0","j","NA","space","space","space","NA","j","574","NA","7678","23849","7281","NA","574","2","legacy","1024","2","48000","-16","task","5201787","odd","NA","40326","50005","42326","99372","2148","33281","25999","99874","NA","99372","99874","99332","50005","100448","38677","98832","2146","92526","Lexical Decision Task","31","21205","33","yes","1024"
"2.6599162","0","2","saff","non-word","94.11764705882354","94.11764705882354","639.6470588235294","639.6470588235294","black","no","legacy","legacy","legacy","0","uniform","1","undefined","undefined","undefined","1","f","0","0","0","0","33","0","0","0","33","NA","29","33","29","0","29","3","33","0","33","Fri Feb 19 14:31:32 2021","The main experiment item","yes","Lexical_Decision_Task.osexp","E:/uni","no","Andale Mono","no","18","no","white","no","yes","576","legacy","29","29","3","E:/uni/subject-5201787.csv","legacy","Lentiform Loewenfeld","3.3.7","yes","yes","600bd7cfb6416f0113b04181","602110864497cf011d9c0822","0","f","NA","space","space","space","NA","f","543","NA","7678","23849","7281","NA","543","2","legacy","1024","2","48000","-16","task","5201787","odd","NA","40326","50005","42326","100997","2148","33281","25999","101497","NA","100996","101497","100952","50005","102040","38677","100452","2146","92526","Lexical Decision Task","32","21748","34","yes","1024"
"3.474361976","5.24","6","veer","word","91.42857142857143","91.42857142857143","643.9714285714285","643.9714285714285","black","no","legacy","legacy","legacy","0","uniform","0","undefined","undefined","undefined","0","j","0","0","0","0","34","0","0","0","34","NA","30","34","30","0","30","3","34","0","34","Fri Feb 19 14:31:32 2021","The main experiment item","yes","Lexical_Decision_Task.osexp","E:/uni","no","Andale Mono","no","18","no","white","no","yes","576","legacy","30","30","3","E:/uni/subject-5201787.csv","legacy","Lentiform Loewenfeld","3.3.7","yes","yes","600bd7cfb6416f0113b04181","602110864497cf011d9c0822","0","f","NA","space","space","space","NA","f","791","NA","7678","23849","7281","NA","791","2","legacy","1024","2","48000","-16","task","5201787","odd","NA","40326","50005","42326","102587","2148","33281","25999","103087","NA","102586","103087","102544","50005","103879","38677","102044","2146","92526","Lexical Decision Task","32","22539","35","yes","1024"
"2.793790385","5.67","9","swab","word","91.66666666666667","91.66666666666667","644.75","644.75","black","no","legacy","legacy","legacy","0","uniform","1","undefined","undefined","undefined","1","j","0","0","0","0","35","0","0","0","35","NA","31","35","31","0","31","3","35","0","35","Fri Feb 19 14:31:32 2021","The main experiment item","yes","Lexical_Decision_Task.osexp","E:/uni","no","Andale Mono","no","18","no","white","no","yes","576","legacy","31","31","3","E:/uni/subject-5201787.csv","legacy","Lentiform Loewenfeld","3.3.7","yes","yes","600bd7cfb6416f0113b04181","602110864497cf011d9c0822","0","j","NA","space","space","space","NA","j","672","NA","7678","23849","7281","NA","672","2","legacy","1024","2","48000","-16","task","5201787","odd","NA","40326","50005","42326","105423","2148","33281","25999","105924","NA","105421","105924","105382","50005","106597","38677","102044","2146","103882","Lexical Decision Task","33","23211","36","yes","1024"
"2.784379519","0","2","snaf","non-word","91.89189189189189","91.89189189189189","642.2972972972973","642.2972972972973","black","no","legacy","legacy","legacy","0","uniform","1","undefined","undefined","undefined","1","f","0","0","0","0","36","0","0","0","36","NA","32","36","32","0","32","3","36","0","36","Fri Feb 19 14:31:32 2021","The main experiment item","yes","Lexical_Decision_Task.osexp","E:/uni","no","Andale Mono","no","18","no","white","no","yes","576","legacy","32","32","3","E:/uni/subject-5201787.csv","legacy","Lentiform Loewenfeld","3.3.7","yes","yes","600bd7cfb6416f0113b04181","602110864497cf011d9c0822","0","f","NA","space","space","space","NA","f","554","NA","7678","23849","7281","NA","554","2","legacy","1024","2","48000","-16","task","5201787","odd","NA","40326","50005","42326","107149","2148","33281","25999","107649","NA","107148","107649","107101","50005","108203","38677","106601","2146","103882","Lexical Decision Task","34","23765","37","yes","1024"
"3.121778632","0","9","sark","non-word","92.10526315789474","92.10526315789474","646.6315789473684","646.6315789473684","black","no","legacy","legacy","legacy","0","uniform","1","undefined","undefined","undefined","1","f","0","0","0","0","37","0","0","0","37","NA","33","37","33","0","33","3","37","0","37","Fri Feb 19 14:31:32 2021","The main experiment item","yes","Lexical_Decision_Task.osexp","E:/uni","no","Andale Mono","no","18","no","white","no","yes","576","legacy","33","33","3","E:/uni/subject-5201787.csv","legacy","Lentiform Loewenfeld","3.3.7","yes","yes","600bd7cfb6416f0113b04181","602110864497cf011d9c0822","0","f","NA","space","space","space","NA","f","807","NA","7678","23849","7281","NA","807","2","legacy","1024","2","48000","-16","task","5201787","odd","NA","40326","50005","42326","108747","2148","33281","25999","109247","NA","108746","109247","108707","50005","110055","38677","108207","2146","103882","Lexical Decision Task","35","24572","38","yes","1024"
"2.695481676","0","7","goke","non-word","92.3076923076923","92.3076923076923","661.8205128205128","661.8205128205128","black","no","legacy","legacy","legacy","0","uniform","1","undefined","undefined","undefined","1","f","0","0","0","0","38","0","0","0","38","NA","34","38","34","0","34","3","38","0","38","Fri Feb 19 14:31:32 2021","The main experiment item","yes","Lexical_Decision_Task.osexp","E:/uni","no","Andale Mono","no","18","no","white","no","yes","576","legacy","34","34","3","E:/uni/subject-5201787.csv","legacy","Lentiform Loewenfeld","3.3.7","yes","yes","600bd7cfb6416f0113b04181","602110864497cf011d9c0822","0","f","NA","space","space","space","NA","f","1239","NA","7678","23849","7281","NA","1239","2","legacy","1024","2","48000","-16","task","5201787","odd","NA","40326","50005","42326","110603","2148","33281","25999","111104","NA","110602","111104","110559","50005","112343","38677","110059","2146","103882","Lexical Decision Task","36","25811","39","yes","1024"
"2.972819734","0","4","scew","non-word","92.5","92.5","692.275","692.275","black","no","legacy","legacy","legacy","0","uniform","1","undefined","undefined","undefined","1","f","0","0","0","0","39","0","0","0","39","NA","35","39","35","0","35","3","39","0","39","Fri Feb 19 14:31:32 2021","The main experiment item","yes","Lexical_Decision_Task.osexp","E:/uni","no","Andale Mono","no","18","no","white","no","yes","576","legacy","35","35","3","E:/uni/subject-5201787.csv","legacy","Lentiform Loewenfeld","3.3.7","yes","yes","600bd7cfb6416f0113b04181","602110864497cf011d9c0822","0","f","NA","space","space","space","NA","f","1880","NA","7678","23849","7281","NA","1880","2","legacy","1024","2","48000","-16","task","5201787","odd","NA","40326","50005","42326","112887","2148","33281","25999","113387","NA","112886","113387","112847","50005","115267","38677","112347","2146","103882","Lexical Decision Task","37","27691","40","yes","1024"
"2.868644438","10.52","4","town","word","92.6829268292683","92.6829268292683","688.8048780487804","688.8048780487804","black","no","legacy","legacy","legacy","0","uniform","1","undefined","undefined","undefined","1","j","0","0","0","0","40","0","0","0","40","NA","36","40","36","0","36","3","40","0","40","Fri Feb 19 14:31:32 2021","The main experiment item","yes","Lexical_Decision_Task.osexp","E:/uni","no","Andale Mono","no","18","no","white","no","yes","576","legacy","36","36","3","E:/uni/subject-5201787.csv","legacy","Lentiform Loewenfeld","3.3.7","yes","yes","600bd7cfb6416f0113b04181","602110864497cf011d9c0822","0","j","NA","space","space","space","NA","j","550","NA","7678","23849","7281","NA","550","2","legacy","1024","2","48000","-16","task","5201787","odd","NA","40326","50005","42326","115818","2148","33281","25999","116319","NA","115817","116319","115771","50005","116869","38677","115271","2146","103882","Lexical Decision Task","38","28241","41","yes","1024"
"3.090140555","5.81","8","pout","word","92.85714285714286","92.85714285714286","687.6190476190476","687.6190476190476","black","no","legacy","legacy","legacy","0","uniform","1","undefined","undefined","undefined","1","j","0","0","0","0","41","0","0","0","41","NA","37","41","37","0","37","3","41","0","41","Fri Feb 19 14:31:32 2021","The main experiment item","yes","Lexical_Decision_Task.osexp","E:/uni","no","Andale Mono","no","18","no","white","no","yes","576","legacy","37","37","3","E:/uni/subject-5201787.csv","legacy","Lentiform Loewenfeld","3.3.7","yes","yes","600bd7cfb6416f0113b04181","602110864497cf011d9c0822","0","j","NA","space","space","space","NA","j","639","NA","7678","23849","7281","NA","639","2","legacy","1024","2","48000","-16","task","5201787","odd","NA","40326","50005","42326","117417","2148","33281","25999","117918","NA","117416","117918","117376","50005","118557","38677","116876","2146","103882","Lexical Decision Task","39","28880","42","yes","1024"
"3.347850856","10.51","2","rich","word","93.02325581395348","93.02325581395348","682.0232558139535","682.0232558139535","black","no","legacy","legacy","legacy","0","uniform","1","undefined","undefined","undefined","1","j","0","0","0","0","42","0","0","0","42","NA","38","42","38","0","38","3","42","0","42","Fri Feb 19 14:31:32 2021","The main experiment item","yes","Lexical_Decision_Task.osexp","E:/uni","no","Andale Mono","no","18","no","white","no","yes","576","legacy","38","38","3","E:/uni/subject-5201787.csv","legacy","Lentiform Loewenfeld","3.3.7","yes","yes","600bd7cfb6416f0113b04181","602110864497cf011d9c0822","0","j","NA","space","space","space","NA","j","447","NA","7678","23849","7281","NA","447","2","legacy","1024","2","48000","-16","task","5201787","odd","NA","40326","50005","42326","119110","2148","33281","25999","119611","NA","119109","119611","119062","50005","120059","38677","118562","2146","103882","Lexical Decision Task","40","29327","43","yes","1024"
"2.696356389","0","1","pizz","non-word","93.18181818181819","93.18181818181819","684.6363636363636","684.6363636363636","black","no","legacy","legacy","legacy","0","uniform","1","undefined","undefined","undefined","1","f","0","0","0","0","43","0","0","0","43","NA","39","43","39","0","39","3","43","0","43","Fri Feb 19 14:31:32 2021","The main experiment item","yes","Lexical_Decision_Task.osexp","E:/uni","no","Andale Mono","no","18","no","white","no","yes","576","legacy","39","39","3","E:/uni/subject-5201787.csv","legacy","Lentiform Loewenfeld","3.3.7","yes","yes","600bd7cfb6416f0113b04181","602110864497cf011d9c0822","0","f","NA","space","space","space","NA","f","797","NA","7678","23849","7281","NA","797","2","legacy","1024","2","48000","-16","task","5201787","odd","NA","40326","50005","42326","120605","2148","33281","25999","121106","NA","120604","121106","120563","50005","121903","38677","120063","2146","103882","Lexical Decision Task","41","30124","44","yes","1024"
"3.16326079","0","5","parg","non-word","93.33333333333333","93.33333333333333","685.5555555555555","685.5555555555555","black","no","legacy","legacy","legacy","0","uniform","1","undefined","undefined","undefined","1","f","0","0","0","0","44","0","0","0","44","NA","40","44","40","0","40","3","44","0","44","Fri Feb 19 14:31:32 2021","The main experiment item","yes","Lexical_Decision_Task.osexp","E:/uni","no","Andale Mono","no","18","no","white","no","yes","576","legacy","40","40","3","E:/uni/subject-5201787.csv","legacy","Lentiform Loewenfeld","3.3.7","yes","yes","600bd7cfb6416f0113b04181","602110864497cf011d9c0822","0","f","NA","space","space","space","NA","f","726","NA","7678","23849","7281","NA","726","2","legacy","1024","2","48000","-16","task","5201787","odd","NA","40326","50005","42326","122448","2148","33281","25999","122948","NA","122447","122948","122407","50005","123675","38677","121907","2146","103882","Lexical Decision Task","42","30850","45","yes","1024"
"2.813801082","5.47","7","nook","word","93.47826086956522","93.47826086956522","688.2173913043479","688.2173913043479","black","no","legacy","legacy","legacy","0","uniform","1","undefined","undefined","undefined","1","j","0","0","0","0","45","0","0","0","45","NA","41","45","41","0","41","3","45","0","45","Fri Feb 19 14:31:32 2021","The main experiment item","yes","Lexical_Decision_Task.osexp","E:/uni","no","Andale Mono","no","18","no","white","no","yes","576","legacy","41","41","3","E:/uni/subject-5201787.csv","legacy","Lentiform Loewenfeld","3.3.7","yes","yes","600bd7cfb6416f0113b04181","602110864497cf011d9c0822","0","j","NA","space","space","space","NA","j","808","NA","7678","23849","7281","NA","808","2","legacy","1024","2","48000","-16","task","5201787","odd","NA","40326","50005","42326","124220","2148","33281","25999","124721","NA","124219","124721","124179","50005","125529","38677","123679","2146","103882","Lexical Decision Task","43","31658","46","yes","1024"
"2.755364069","7.72","2","hoax","word","93.61702127659575","93.61702127659575","688.5957446808511","688.5957446808511","black","no","legacy","legacy","legacy","0","uniform","1","undefined","undefined","undefined","1","j","0","0","0","0","46","0","0","0","46","NA","42","46","42","0","42","3","46","0","46","Fri Feb 19 14:31:32 2021","The main experiment item","yes","Lexical_Decision_Task.osexp","E:/uni","no","Andale Mono","no","18","no","white","no","yes","576","legacy","42","42","3","E:/uni/subject-5201787.csv","legacy","Lentiform Loewenfeld","3.3.7","yes","yes","600bd7cfb6416f0113b04181","602110864497cf011d9c0822","0","j","NA","space","space","space","NA","j","706","NA","7678","23849","7281","NA","706","2","legacy","1024","2","48000","-16","task","5201787","odd","NA","40326","50005","42326","126080","2148","33281","25999","126581","NA","126079","126581","126033","50005","127288","38677","125533","2146","103882","Lexical Decision Task","44","32364","47","yes","1024"
"2.68604012","0","3","mulb","non-word","93.75","93.75","687.5833333333334","687.5833333333334","black","no","legacy","legacy","legacy","0","uniform","1","undefined","undefined","undefined","1","f","0","0","0","0","47","0","0","0","47","NA","43","47","43","0","43","3","47","0","47","Fri Feb 19 14:31:32 2021","The main experiment item","yes","Lexical_Decision_Task.osexp","E:/uni","no","Andale Mono","no","18","no","white","no","yes","576","legacy","43","43","3","E:/uni/subject-5201787.csv","legacy","Lentiform Loewenfeld","3.3.7","yes","yes","600bd7cfb6416f0113b04181","602110864497cf011d9c0822","0","f","NA","space","space","space","NA","f","640","NA","7678","23849","7281","NA","640","2","legacy","1024","2","48000","-16","task","5201787","odd","NA","40326","50005","42326","127834","2148","33281","25999","128335","NA","127833","128335","127791","50005","128976","38677","127291","2146","103882","Lexical Decision Task","45","33004","48","yes","1024"
"2.966923697","5.4","2","fume","word","93.87755102040816","93.87755102040816","687.1224489795918","687.1224489795918","black","no","legacy","legacy","legacy","0","uniform","1","undefined","undefined","undefined","1","j","0","0","0","0","48","0","0","0","48","NA","44","48","44","0","44","3","48","0","48","Fri Feb 19 14:31:32 2021","The main experiment item","yes","Lexical_Decision_Task.osexp","E:/uni","no","Andale Mono","no","18","no","white","no","yes","576","legacy","44","44","3","E:/uni/subject-5201787.csv","legacy","Lentiform Loewenfeld","3.3.7","yes","yes","600bd7cfb6416f0113b04181","602110864497cf011d9c0822","0","j","NA","space","space","space","NA","j","665","NA","7678","23849","7281","NA","665","2","legacy","1024","2","48000","-16","task","5201787","odd","NA","40326","50005","42326","129527","2148","33281","25999","130027","NA","129526","130027","129480","50005","130693","38677","128980","2146","103882","Lexical Decision Task","46","33669","49","yes","1024"
"2.807758206","6.25","4","hurl","word","94","94","689.94","689.94","black","no","legacy","legacy","legacy","0","uniform","1","undefined","undefined","undefined","1","j","0","0","0","0","49","0","0","0","49","NA","45","49","45","0","45","3","49","0","49","Fri Feb 19 14:31:32 2021","The main experiment item","yes","Lexical_Decision_Task.osexp","E:/uni","no","Andale Mono","no","18","no","white","no","yes","576","legacy","45","45","3","E:/uni/subject-5201787.csv","legacy","Lentiform Loewenfeld","3.3.7","yes","yes","600bd7cfb6416f0113b04181","602110864497cf011d9c0822","0","j","NA","space","space","space","NA","j","828","NA","7678","23849","7281","NA","828","2","legacy","1024","2","48000","-16","task","5201787","odd","NA","40326","50005","42326","131237","2148","33281","25999","131739","NA","131236","131739","131197","50005","132567","38677","130697","2146","103882","Lexical Decision Task","47","34497","50","yes","1024"
"3.382617311","0","4","pret","non-word","94.11764705882354","94.11764705882354","688.6666666666666","688.6666666666666","black","no","legacy","legacy","legacy","0","uniform","1","undefined","undefined","undefined","1","f","0","0","0","0","50","0","0","0","50","NA","46","50","46","0","46","3","50","0","50","Fri Feb 19 14:31:32 2021","The main experiment item","yes","Lexical_Decision_Task.osexp","E:/uni","no","Andale Mono","no","18","no","white","no","yes","576","legacy","46","46","3","E:/uni/subject-5201787.csv","legacy","Lentiform Loewenfeld","3.3.7","yes","yes","600bd7cfb6416f0113b04181","602110864497cf011d9c0822","0","f","NA","space","space","space","NA","f","625","NA","7678","23849","7281","NA","625","2","legacy","1024","2","48000","-16","task","5201787","odd","NA","40326","50005","42326","133119","2148","33281","25999","133620","NA","133118","133620","133071","50005","134245","38677","132571","2146","103882","Lexical Decision Task","48","35122","51","yes","1024"
"3.168400243","9.12","6","horn","word","94.23076923076923","94.23076923076923","684.75","684.75","black","no","legacy","legacy","legacy","0","uniform","1","undefined","undefined","undefined","1","j","0","0","0","0","51","0","0","0","51","NA","47","51","47","0","47","3","51","0","51","Fri Feb 19 14:31:32 2021","The main experiment item","yes","Lexical_Decision_Task.osexp","E:/uni","no","Andale Mono","no","18","no","white","no","yes","576","legacy","47","47","3","E:/uni/subject-5201787.csv","legacy","Lentiform Loewenfeld","3.3.7","yes","yes","600bd7cfb6416f0113b04181","602110864497cf011d9c0822","0","j","NA","space","space","space","NA","j","485","NA","7678","23849","7281","NA","485","2","legacy","1024","2","48000","-16","task","5201787","odd","NA","40326","50005","42326","134789","2148","33281","25999","135290","NA","134788","135290","134749","50005","135776","38677","134249","2146","103882","Lexical Decision Task","49","35607","52","yes","1024"
"2.67699827","0","6","hulf","non-word","94.33962264150944","94.33962264150944","683.4528301886793","683.4528301886793","black","no","legacy","legacy","legacy","0","uniform","1","undefined","undefined","undefined","1","f","0","0","0","0","52","0","0","0","52","NA","48","52","48","0","48","3","52","0","52","Fri Feb 19 14:31:32 2021","The main experiment item","yes","Lexical_Decision_Task.osexp","E:/uni","no","Andale Mono","no","18","no","white","no","yes","576","legacy","48","48","3","E:/uni/subject-5201787.csv","legacy","Lentiform Loewenfeld","3.3.7","yes","yes","600bd7cfb6416f0113b04181","602110864497cf011d9c0822","0","f","NA","space","space","space","NA","f","616","NA","7678","23849","7281","NA","616","2","legacy","1024","2","48000","-16","task","5201787","odd","NA","40326","50005","42326","136326","2148","33281","25999","136827","NA","136325","136827","136279","50005","137444","38677","135779","2146","103882","Lexical Decision Task","50","36223","53","yes","1024"
"2.744553742","0","2","nawk","non-word","94.44444444444444","94.44444444444444","692.3518518518518","692.3518518518518","black","no","legacy","legacy","legacy","0","uniform","1","undefined","undefined","undefined","1","f","0","0","0","0","53","0","0","0","53","NA","49","53","49","0","49","3","53","0","53","Fri Feb 19 14:31:32 2021","The main experiment item","yes","Lexical_Decision_Task.osexp","E:/uni","no","Andale Mono","no","18","no","white","no","yes","576","legacy","49","49","3","E:/uni/subject-5201787.csv","legacy","Lentiform Loewenfeld","3.3.7","yes","yes","600bd7cfb6416f0113b04181","602110864497cf011d9c0822","0","f","NA","space","space","space","NA","f","1164","NA","7678","23849","7281","NA","1164","2","legacy","1024","2","48000","-16","task","5201787","odd","NA","40326","50005","42326","137989","2148","33281","25999","138490","NA","137988","138490","137948","50005","139655","38677","137448","2146","103882","Lexical Decision Task","51","37387","54","yes","1024"
"3.259832699","0","9","flar","non-word","94.54545454545455","94.54545454545455","695.1818181818181","695.1818181818181","black","no","legacy","legacy","legacy","0","uniform","1","undefined","undefined","undefined","1","f","0","0","0","0","54","0","0","0","54","0","50","54","50","0","50","3","54","0","54","Fri Feb 19 14:31:32 2021","The main experiment item","yes","Lexical_Decision_Task.osexp","E:/uni","no","Andale Mono","no","18","no","white","no","yes","576","legacy","50","50","3","E:/uni/subject-5201787.csv","legacy","Lentiform Loewenfeld","3.3.7","yes","yes","600bd7cfb6416f0113b04181","602110864497cf011d9c0822","0","f","NA","space","space","space","space","f","848","NA","7678","23849","7281","53361","848","2","legacy","1024","2","48000","-16","task","5201787","odd","NA","40326","50005","42326","193592","2148","33281","25999","194093","140188","193591","194093","140159","50005","194941","38677","139659","2146","103882","Lexical Decision Task","52","38235","55","yes","1024"
"3.276537627","9.15","5","trap","word","94.64285714285714","94.64285714285714","692","692","black","no","legacy","legacy","legacy","0","uniform","1","undefined","undefined","undefined","1","j","0","0","0","0","55","0","0","0","55","0","51","55","51","0","51","3","55","0","55","Fri Feb 19 14:31:32 2021","The main experiment item","yes","Lexical_Decision_Task.osexp","E:/uni","no","Andale Mono","no","18","no","white","no","yes","576","legacy","51","51","3","E:/uni/subject-5201787.csv","legacy","Lentiform Loewenfeld","3.3.7","yes","yes","600bd7cfb6416f0113b04181","602110864497cf011d9c0822","0","j","NA","space","space","space","space","j","517","NA","7678","23849","7281","53361","517","2","legacy","1024","2","48000","-16","task","5201787","odd","NA","40326","50005","42326","195486","2148","33281","25999","195987","140188","195485","195987","195445","50005","196505","38677","194945","2146","103882","Lexical Decision Task","53","38752","56","yes","1024"
"2.858136002","0","4","phip","non-word","94.73684210526316","94.73684210526316","690.3157894736842","690.3157894736842","black","no","legacy","legacy","legacy","0","uniform","1","undefined","undefined","undefined","1","f","0","0","0","0","56","0","0","0","56","0","52","56","52","0","52","3","56","0","56","Fri Feb 19 14:31:32 2021","The main experiment item","yes","Lexical_Decision_Task.osexp","E:/uni","no","Andale Mono","no","18","no","white","no","yes","576","legacy","52","52","3","E:/uni/subject-5201787.csv","legacy","Lentiform Loewenfeld","3.3.7","yes","yes","600bd7cfb6416f0113b04181","602110864497cf011d9c0822","0","f","NA","space","space","space","space","f","596","NA","7678","23849","7281","53361","596","2","legacy","1024","2","48000","-16","task","5201787","odd","NA","40326","50005","42326","197049","2148","33281","25999","197550","140188","197048","197550","197009","50005","198147","38677","196509","2146","103882","Lexical Decision Task","54","39348","57","yes","1024"
"2.693726949","5.08","3","swig","word","93.10344827586206","93.10344827586206","689.2931034482758","689.2931034482758","black","no","legacy","legacy","legacy","0","uniform","0","undefined","undefined","undefined","0","j","0","0","0","0","57","0","0","0","57","0","53","57","53","0","53","3","57","0","57","Fri Feb 19 14:31:32 2021","The main experiment item","yes","Lexical_Decision_Task.osexp","E:/uni","no","Andale Mono","no","18","no","white","no","yes","576","legacy","53","53","3","E:/uni/subject-5201787.csv","legacy","Lentiform Loewenfeld","3.3.7","yes","yes","600bd7cfb6416f0113b04181","602110864497cf011d9c0822","0","f","NA","space","space","space","space","f","631","NA","7678","23849","7281","53361","631","2","legacy","1024","2","48000","-16","task","5201787","odd","NA","40326","50005","42326","198692","2148","33281","25999","199193","140188","198691","199193","198651","50005","199825","38677","198151","2146","103882","Lexical Decision Task","54","39979","58","yes","1024"
"2.980306438","0","7","slun","non-word","93.22033898305085","93.22033898305085","688.0677966101695","688.0677966101695","black","no","legacy","legacy","legacy","0","uniform","1","undefined","undefined","undefined","1","f","0","0","0","0","58","0","0","0","58","0","54","58","54","0","54","3","58","0","58","Fri Feb 19 14:31:32 2021","The main experiment item","yes","Lexical_Decision_Task.osexp","E:/uni","no","Andale Mono","no","18","no","white","no","yes","576","legacy","54","54","3","E:/uni/subject-5201787.csv","legacy","Lentiform Loewenfeld","3.3.7","yes","yes","600bd7cfb6416f0113b04181","602110864497cf011d9c0822","0","f","NA","space","space","space","space","f","617","NA","7678","23849","7281","53361","617","2","legacy","1024","2","48000","-16","task","5201787","odd","NA","40326","50005","42326","201394","2148","33281","25999","201894","140188","201393","201894","201331","50005","202511","38677","198151","2146","199831","Lexical Decision Task","55","40596","59","yes","1024"
"3.20996159","0","4","clee","non-word","93.33333333333333","93.33333333333333","688.5833333333334","688.5833333333334","black","no","legacy","legacy","legacy","0","uniform","1","undefined","undefined","undefined","1","f","0","0","0","0","59","0","0","0","59","0","55","59","55","0","55","3","59","0","59","Fri Feb 19 14:31:32 2021","The main experiment item","yes","Lexical_Decision_Task.osexp","E:/uni","no","Andale Mono","no","18","no","white","no","yes","576","legacy","55","55","3","E:/uni/subject-5201787.csv","legacy","Lentiform Loewenfeld","3.3.7","yes","yes","600bd7cfb6416f0113b04181","602110864497cf011d9c0822","0","f","NA","space","space","space","space","f","719","NA","7678","23849","7281","53361","719","2","legacy","1024","2","48000","-16","task","5201787","odd","NA","40326","50005","42326","203058","2148","33281","25999","203559","140188","203057","203559","203015","50005","204279","38677","202515","2146","199831","Lexical Decision Task","56","41315","60","yes","1024"
"2.971428938","9.86","7","spot","word","93.44262295081967","93.44262295081967","684.8852459016393","684.8852459016393","black","no","legacy","legacy","legacy","0","uniform","1","undefined","undefined","undefined","1","j","0","0","0","0","60","0","0","0","60","0","56","60","56","0","56","3","60","0","60","Fri Feb 19 14:31:32 2021","The main experiment item","yes","Lexical_Decision_Task.osexp","E:/uni","no","Andale Mono","no","18","no","white","no","yes","576","legacy","56","56","3","E:/uni/subject-5201787.csv","legacy","Lentiform Loewenfeld","3.3.7","yes","yes","600bd7cfb6416f0113b04181","602110864497cf011d9c0822","0","j","NA","space","space","space","space","j","463","NA","7678","23849","7281","53361","463","2","legacy","1024","2","48000","-16","task","5201787","odd","NA","40326","50005","42326","204830","2148","33281","25999","205331","140188","204829","205331","204783","50005","205795","38677","204283","2146","199831","Lexical Decision Task","57","41778","61","yes","1024"
"2.838639236","0","4","furg","non-word","93.54838709677419","93.54838709677419","682.258064516129","682.258064516129","black","no","legacy","legacy","legacy","0","uniform","1","undefined","undefined","undefined","1","f","0","0","0","0","61","0","0","0","61","0","57","61","57","0","57","3","61","0","61","Fri Feb 19 14:31:32 2021","The main experiment item","yes","Lexical_Decision_Task.osexp","E:/uni","no","Andale Mono","no","18","no","white","no","yes","576","legacy","57","57","3","E:/uni/subject-5201787.csv","legacy","Lentiform Loewenfeld","3.3.7","yes","yes","600bd7cfb6416f0113b04181","602110864497cf011d9c0822","0","f","NA","space","space","space","space","f","522","NA","7678","23849","7281","53361","522","2","legacy","1024","2","48000","-16","task","5201787","odd","NA","40326","50005","42326","206339","2148","33281","25999","206841","140188","206338","206841","206299","50005","207364","38677","205799","2146","199831","Lexical Decision Task","58","42300","62","yes","1024"
"3.368162872","0","4","ferk","non-word","93.65079365079364","93.65079365079364","683.4603174603175","683.4603174603175","black","no","legacy","legacy","legacy","0","uniform","1","undefined","undefined","undefined","1","f","0","0","0","0","62","0","0","0","62","0","58","62","58","0","58","3","62","0","62","Fri Feb 19 14:31:32 2021","The main experiment item","yes","Lexical_Decision_Task.osexp","E:/uni","no","Andale Mono","no","18","no","white","no","yes","576","legacy","58","58","3","E:/uni/subject-5201787.csv","legacy","Lentiform Loewenfeld","3.3.7","yes","yes","600bd7cfb6416f0113b04181","602110864497cf011d9c0822","0","f","NA","space","space","space","space","f","758","NA","7678","23849","7281","53361","758","2","legacy","1024","2","48000","-16","task","5201787","odd","NA","40326","50005","42326","207915","2148","33281","25999","208416","140188","207914","208416","207868","50005","209175","38677","207368","2146","199831","Lexical Decision Task","59","43058","63","yes","1024"
"3.081107167","0","6","chot","non-word","93.75","93.75","682.53125","682.53125","black","no","legacy","legacy","legacy","0","uniform","1","undefined","undefined","undefined","1","f","0","0","0","0","63","0","0","0","63","0","59","63","59","0","59","3","63","0","63","Fri Feb 19 14:31:32 2021","The main experiment item","yes","Lexical_Decision_Task.osexp","E:/uni","no","Andale Mono","no","18","no","white","no","yes","576","legacy","59","59","3","E:/uni/subject-5201787.csv","legacy","Lentiform Loewenfeld","3.3.7","yes","yes","600bd7cfb6416f0113b04181","602110864497cf011d9c0822","0","f","NA","space","space","space","space","f","624","NA","7678","23849","7281","53361","624","2","legacy","1024","2","48000","-16","task","5201787","odd","NA","40326","50005","42326","209721","2148","33281","25999","210222","140188","209720","210222","209679","50005","210847","38677","209179","2146","199831","Lexical Decision Task","60","43682","64","yes","1024"
"3.168890155","0","6","thet","non-word","93.84615384615384","93.84615384615384","686.3076923076923","686.3076923076923","black","no","legacy","legacy","legacy","0","uniform","1","undefined","undefined","undefined","1","f","0","0","0","0","64","0","0","0","64","0","60","64","60","0","60","3","64","0","64","Fri Feb 19 14:31:32 2021","The main experiment item","yes","Lexical_Decision_Task.osexp","E:/uni","no","Andale Mono","no","18","no","white","no","yes","576","legacy","60","60","3","E:/uni/subject-5201787.csv","legacy","Lentiform Loewenfeld","3.3.7","yes","yes","600bd7cfb6416f0113b04181","602110864497cf011d9c0822","0","f","NA","space","space","space","space","f","928","NA","7678","23849","7281","53361","928","2","legacy","1024","2","48000","-16","task","5201787","odd","NA","40326","50005","42326","211393","2148","33281","25999","211894","140188","211392","211894","211351","50005","212823","38677","210851","2146","199831","Lexical Decision Task","61","44610","65","yes","1024"
"2.996511672","0","7","hoil","non-word","92.42424242424242","92.42424242424242","688.0909090909091","688.0909090909091","black","no","legacy","legacy","legacy","0","uniform","0","undefined","undefined","undefined","0","f","0","0","0","0","65","0","0","0","65","0","61","65","61","0","61","3","65","0","65","Fri Feb 19 14:31:32 2021","The main experiment item","yes","Lexical_Decision_Task.osexp","E:/uni","no","Andale Mono","no","18","no","white","no","yes","576","legacy","61","61","3","E:/uni/subject-5201787.csv","legacy","Lentiform Loewenfeld","3.3.7","yes","yes","600bd7cfb6416f0113b04181","602110864497cf011d9c0822","0","j","NA","space","space","space","space","j","804","NA","7678","23849","7281","53361","804","2","legacy","1024","2","48000","-16","task","5201787","odd","NA","40326","50005","42326","213368","2148","33281","25999","213868","140188","213367","213868","213327","50005","214673","38677","212827","2146","199831","Lexical Decision Task","61","45414","66","yes","1024"
"3.082307743","9.68","8","camp","word","92.53731343283582","92.53731343283582","686.0298507462686","686.0298507462686","black","no","legacy","legacy","legacy","0","uniform","1","undefined","undefined","undefined","1","j","0","0","0","0","66","0","0","0","66","0","62","66","62","0","62","3","66","0","66","Fri Feb 19 14:31:32 2021","The main experiment item","yes","Lexical_Decision_Task.osexp","E:/uni","no","Andale Mono","no","18","no","white","no","yes","576","legacy","62","62","3","E:/uni/subject-5201787.csv","legacy","Lentiform Loewenfeld","3.3.7","yes","yes","600bd7cfb6416f0113b04181","602110864497cf011d9c0822","0","j","NA","space","space","space","space","j","550","NA","7678","23849","7281","53361","550","2","legacy","1024","2","48000","-16","task","5201787","odd","NA","40326","50005","42326","216226","2148","33281","25999","216729","140188","216225","216729","216177","50005","217279","38677","212827","2146","214677","Lexical Decision Task","62","45964","67","yes","1024"
"2.75025376","10.2","6","jump","word","92.6470588235294","92.6470588235294","682.3970588235294","682.3970588235294","black","no","legacy","legacy","legacy","0","uniform","1","undefined","undefined","undefined","1","j","0","0","0","0","67","0","0","0","67","0","63","67","63","0","63","3","67","0","67","Fri Feb 19 14:31:32 2021","The main experiment item","yes","Lexical_Decision_Task.osexp","E:/uni","no","Andale Mono","no","18","no","white","no","yes","576","legacy","63","63","3","E:/uni/subject-5201787.csv","legacy","Lentiform Loewenfeld","3.3.7","yes","yes","600bd7cfb6416f0113b04181","602110864497cf011d9c0822","0","j","NA","space","space","space","space","j","439","NA","7678","23849","7281","53361","439","2","legacy","1024","2","48000","-16","task","5201787","odd","NA","40326","50005","42326","217824","2148","33281","25999","218325","140188","217823","218325","217784","50005","218765","38677","217283","2146","214677","Lexical Decision Task","63","46403","68","yes","1024"
"2.778633532","0","3","jurp","non-word","92.7536231884058","92.7536231884058","683","683","black","no","legacy","legacy","legacy","0","uniform","1","undefined","undefined","undefined","1","f","0","0","0","0","68","0","0","0","68","0","64","68","64","0","64","3","68","0","68","Fri Feb 19 14:31:32 2021","The main experiment item","yes","Lexical_Decision_Task.osexp","E:/uni","no","Andale Mono","no","18","no","white","no","yes","576","legacy","64","64","3","E:/uni/subject-5201787.csv","legacy","Lentiform Loewenfeld","3.3.7","yes","yes","600bd7cfb6416f0113b04181","602110864497cf011d9c0822","0","f","NA","space","space","space","space","f","724","NA","7678","23849","7281","53361","724","2","legacy","1024","2","48000","-16","task","5201787","odd","NA","40326","50005","42326","219310","2148","33281","25999","219810","140188","219309","219810","219269","50005","220535","38677","218769","2146","214677","Lexical Decision Task","64","47127","69","yes","1024"
"2.809559715","8.44","4","volt","word","92.85714285714286","92.85714285714286","682.4857142857143","682.4857142857143","black","no","legacy","legacy","legacy","0","uniform","1","undefined","undefined","undefined","1","j","0","0","0","0","69","0","0","0","69","0","65","69","65","0","65","3","69","0","69","Fri Feb 19 14:31:32 2021","The main experiment item","yes","Lexical_Decision_Task.osexp","E:/uni","no","Andale Mono","no","18","no","white","no","yes","576","legacy","65","65","3","E:/uni/subject-5201787.csv","legacy","Lentiform Loewenfeld","3.3.7","yes","yes","600bd7cfb6416f0113b04181","602110864497cf011d9c0822","0","j","NA","space","space","space","space","j","647","NA","7678","23849","7281","53361","647","2","legacy","1024","2","48000","-16","task","5201787","odd","NA","40326","50005","42326","221080","2148","33281","25999","221581","140188","221079","221581","221039","50005","222229","38677","220539","2146","214677","Lexical Decision Task","65","47774","70","yes","1024"
"2.875447132","0","9","jelt","non-word","92.95774647887323","92.95774647887323","681.5492957746479","681.5492957746479","black","no","legacy","legacy","legacy","0","uniform","1","undefined","undefined","undefined","1","f","0","0","0","0","70","0","0","0","70","0","66","70","66","0","66","3","70","0","70","Fri Feb 19 14:31:32 2021","The main experiment item","yes","Lexical_Decision_Task.osexp","E:/uni","no","Andale Mono","no","18","no","white","no","yes","576","legacy","66","66","3","E:/uni/subject-5201787.csv","legacy","Lentiform Loewenfeld","3.3.7","yes","yes","600bd7cfb6416f0113b04181","602110864497cf011d9c0822","0","f","NA","space","space","space","space","f","616","NA","7678","23849","7281","53361","616","2","legacy","1024","2","48000","-16","task","5201787","odd","NA","40326","50005","42326","222779","2148","33281","25999","223280","140188","222778","223280","222734","50005","223897","38677","222233","2146","214677","Lexical Decision Task","66","48390","71","yes","1024"
"2.767650507","0","6","yolt","non-word","93.05555555555556","93.05555555555556","684.7638888888889","684.7638888888889","black","no","legacy","legacy","legacy","0","uniform","1","undefined","undefined","undefined","1","f","0","0","0","0","71","0","0","0","71","0","67","71","67","0","67","3","71","0","71","Fri Feb 19 14:31:32 2021","The main experiment item","yes","Lexical_Decision_Task.osexp","E:/uni","no","Andale Mono","no","18","no","white","no","yes","576","legacy","67","67","3","E:/uni/subject-5201787.csv","legacy","Lentiform Loewenfeld","3.3.7","yes","yes","600bd7cfb6416f0113b04181","602110864497cf011d9c0822","0","f","NA","space","space","space","space","f","913","NA","7678","23849","7281","53361","913","2","legacy","1024","2","48000","-16","task","5201787","odd","NA","40326","50005","42326","224446","2148","33281","25999","224947","140188","224445","224947","224401","50005","225861","38677","223901","2146","214677","Lexical Decision Task","67","49303","72","yes","1024"
"2.893578687","8.69","3","surf","word","93.15068493150685","93.15068493150685","682.8630136986301","682.8630136986301","black","no","legacy","legacy","legacy","0","uniform","1","undefined","undefined","undefined","1","j","0","0","0","0","72","0","0","0","72","0","68","72","68","0","68","3","72","0","72","Fri Feb 19 14:31:32 2021","The main experiment item","yes","Lexical_Decision_Task.osexp","E:/uni","no","Andale Mono","no","18","no","white","no","yes","576","legacy","68","68","3","E:/uni/subject-5201787.csv","legacy","Lentiform Loewenfeld","3.3.7","yes","yes","600bd7cfb6416f0113b04181","602110864497cf011d9c0822","0","j","NA","space","space","space","space","j","546","NA","7678","23849","7281","53361","546","2","legacy","1024","2","48000","-16","task","5201787","odd","NA","40326","50005","42326","226406","2148","33281","25999","226909","140188","226405","226909","226365","50005","227455","38677","225865","2146","214677","Lexical Decision Task","68","49849","73","yes","1024"
"2.839898939","8.99","6","soap","word","93.24324324324324","93.24324324324324","680.2702702702703","680.2702702702703","black","no","legacy","legacy","legacy","0","uniform","1","undefined","undefined","undefined","1","j","0","0","0","0","73","0","0","0","73","0","69","73","69","0","69","3","73","0","73","Fri Feb 19 14:31:32 2021","The main experiment item","yes","Lexical_Decision_Task.osexp","E:/uni","no","Andale Mono","no","18","no","white","no","yes","576","legacy","69","69","3","E:/uni/subject-5201787.csv","legacy","Lentiform Loewenfeld","3.3.7","yes","yes","600bd7cfb6416f0113b04181","602110864497cf011d9c0822","0","j","NA","space","space","space","space","j","491","NA","7678","23849","7281","53361","491","2","legacy","1024","2","48000","-16","task","5201787","odd","NA","40326","50005","42326","228007","2148","33281","25999","228508","140188","228006","228508","227959","50005","228999","38677","227459","2146","214677","Lexical Decision Task","69","50340","74","yes","1024"
"3.316948329","0","1","besc","non-word","93.33333333333333","93.33333333333333","678.2","678.2","black","no","legacy","legacy","legacy","0","uniform","1","undefined","undefined","undefined","1","f","0","0","0","0","74","0","0","0","74","0","70","74","70","0","70","3","74","0","74","Fri Feb 19 14:31:32 2021","The main experiment item","yes","Lexical_Decision_Task.osexp","E:/uni","no","Andale Mono","no","18","no","white","no","yes","576","legacy","70","70","3","E:/uni/subject-5201787.csv","legacy","Lentiform Loewenfeld","3.3.7","yes","yes","600bd7cfb6416f0113b04181","602110864497cf011d9c0822","0","f","NA","space","space","space","space","f","525","NA","7678","23849","7281","53361","525","2","legacy","1024","2","48000","-16","task","5201787","odd","NA","40326","50005","42326","229546","2148","33281","25999","230047","140188","229545","230047","229505","50005","230573","38677","229005","2146","214677","Lexical Decision Task","70","50865","75","yes","1024"
"2.696644658","5.78","2","yolk","word","92.10526315789474","92.10526315789474","677.6842105263158","677.6842105263158","black","no","legacy","legacy","legacy","0","uniform","0","undefined","undefined","undefined","0","j","0","0","0","0","75","0","0","0","75","0","71","75","71","0","71","3","75","0","75","Fri Feb 19 14:31:32 2021","The main experiment item","yes","Lexical_Decision_Task.osexp","E:/uni","no","Andale Mono","no","18","no","white","no","yes","576","legacy","71","71","3","E:/uni/subject-5201787.csv","legacy","Lentiform Loewenfeld","3.3.7","yes","yes","600bd7cfb6416f0113b04181","602110864497cf011d9c0822","0","f","NA","space","space","space","space","f","639","NA","7678","23849","7281","53361","639","2","legacy","1024","2","48000","-16","task","5201787","odd","NA","40326","50005","42326","231128","2148","33281","25999","231632","140188","231127","231632","231077","50005","232271","38677","230577","2146","214677","Lexical Decision Task","70","51504","76","yes","1024"
"2.899092422","7.27","6","snag","word","90.9090909090909","90.9090909090909","677.025974025974","677.025974025974","black","no","legacy","legacy","legacy","0","uniform","0","undefined","undefined","undefined","0","j","0","0","0","0","76","0","0","0","76","0","72","76","72","0","72","3","76","0","76","Fri Feb 19 14:31:32 2021","The main experiment item","yes","Lexical_Decision_Task.osexp","E:/uni","no","Andale Mono","no","18","no","white","no","yes","576","legacy","72","72","3","E:/uni/subject-5201787.csv","legacy","Lentiform Loewenfeld","3.3.7","yes","yes","600bd7cfb6416f0113b04181","602110864497cf011d9c0822","0","f","NA","space","space","space","space","f","627","NA","7678","23849","7281","53361","627","2","legacy","1024","2","48000","-16","task","5201787","odd","NA","40326","50005","42326","233818","2148","33281","25999","234319","140188","233817","234319","233775","50005","234947","38677","230577","2146","232275","Lexical Decision Task","70","52131","77","yes","1024"
"3.1430148","7.92","8","bald","word","91.02564102564102","91.02564102564102","675.6025641025641","675.6025641025641","black","no","legacy","legacy","legacy","0","uniform","1","undefined","undefined","undefined","1","j","0","0","0","0","77","0","0","0","77","0","73","77","73","0","73","3","77","0","77","Fri Feb 19 14:31:32 2021","The main experiment item","yes","Lexical_Decision_Task.osexp","E:/uni","no","Andale Mono","no","18","no","white","no","yes","576","legacy","73","73","3","E:/uni/subject-5201787.csv","legacy","Lentiform Loewenfeld","3.3.7","yes","yes","600bd7cfb6416f0113b04181","602110864497cf011d9c0822","0","j","NA","space","space","space","space","j","566","NA","7678","23849","7281","53361","566","2","legacy","1024","2","48000","-16","task","5201787","odd","NA","40326","50005","42326","236493","2148","33281","25999","236994","140188","236492","236994","236451","50005","237561","38677","230577","2146","234951","Lexical Decision Task","71","52697","78","yes","1024"
"2.819763221","0","2","durp","non-word","89.87341772151899","89.87341772151899","685.2405063291139","685.2405063291139","black","no","legacy","legacy","legacy","0","uniform","0","undefined","undefined","undefined","0","f","0","0","0","0","78","0","0","0","78","0","74","78","74","0","74","3","78","0","78","Fri Feb 19 14:31:32 2021","The main experiment item","yes","Lexical_Decision_Task.osexp","E:/uni","no","Andale Mono","no","18","no","white","no","yes","576","legacy","74","74","3","E:/uni/subject-5201787.csv","legacy","Lentiform Loewenfeld","3.3.7","yes","yes","600bd7cfb6416f0113b04181","602110864497cf011d9c0822","0","j","NA","space","space","space","space","j","1437","NA","7678","23849","7281","53361","1437","2","legacy","1024","2","48000","-16","task","5201787","odd","NA","40326","50005","42326","238107","2148","33281","25999","238608","140188","238106","238608","238064","50005","240046","38677","237564","2146","234951","Lexical Decision Task","71","54134","79","yes","1024"
"3.218535505","7.85","7","goat","word","90","90","684.55","684.55","black","no","legacy","legacy","legacy","0","uniform","1","undefined","undefined","undefined","1","j","0","0","0","0","79","0","0","0","79","0","75","79","75","0","75","3","79","0","79","Fri Feb 19 14:31:32 2021","The main experiment item","yes","Lexical_Decision_Task.osexp","E:/uni","no","Andale Mono","no","18","no","white","no","yes","576","legacy","75","75","3","E:/uni/subject-5201787.csv","legacy","Lentiform Loewenfeld","3.3.7","yes","yes","600bd7cfb6416f0113b04181","602110864497cf011d9c0822","0","j","NA","space","space","space","space","j","630","NA","7678","23849","7281","53361","630","2","legacy","1024","2","48000","-16","task","5201787","odd","NA","40326","50005","42326","241595","2148","33281","25999","242096","140188","241594","242096","241550","50005","242726","38677","237564","2146","240050","Lexical Decision Task","72","54764","80","yes","1024"
"3.194328374","9.42","6","harm","word","90.12345679012346","90.12345679012346","683.2962962962963","683.2962962962963","black","no","legacy","legacy","legacy","0","uniform","1","undefined","undefined","undefined","1","j","0","0","0","0","80","0","0","0","80","0","76","80","76","0","76","3","80","0","80","Fri Feb 19 14:31:32 2021","The main experiment item","yes","Lexical_Decision_Task.osexp","E:/uni","no","Andale Mono","no","18","no","white","no","yes","576","legacy","76","76","3","E:/uni/subject-5201787.csv","legacy","Lentiform Loewenfeld","3.3.7","yes","yes","600bd7cfb6416f0113b04181","602110864497cf011d9c0822","0","j","NA","space","space","space","space","j","583","NA","7678","23849","7281","53361","583","2","legacy","1024","2","48000","-16","task","5201787","odd","NA","40326","50005","42326","243273","2148","33281","25999","243773","140188","243272","243773","243230","50005","244356","38677","242730","2146","240050","Lexical Decision Task","73","55347","81","yes","1024"
"3.274157849","0","8","leet","non-word","90.2439024390244","90.2439024390244","684.3780487804878","684.3780487804878","black","no","legacy","legacy","legacy","0","uniform","1","undefined","undefined","undefined","1","f","0","0","0","0","81","0","0","0","81","0","77","81","77","0","77","3","81","0","81","Fri Feb 19 14:31:32 2021","The main experiment item","yes","Lexical_Decision_Task.osexp","E:/uni","no","Andale Mono","no","18","no","white","no","yes","576","legacy","77","77","3","E:/uni/subject-5201787.csv","legacy","Lentiform Loewenfeld","3.3.7","yes","yes","600bd7cfb6416f0113b04181","602110864497cf011d9c0822","0","f","NA","space","space","space","space","f","772","NA","7678","23849","7281","53361","772","2","legacy","1024","2","48000","-16","task","5201787","odd","NA","40326","50005","42326","244904","2148","33281","25999","245405","140188","244903","245405","244861","50005","246178","38677","244360","2146","240050","Lexical Decision Task","74","56119","82","yes","1024"
"3.2757719","0","5","slea","non-word","90.36144578313252","90.36144578313252","685.6626506024096","685.6626506024096","black","no","legacy","legacy","legacy","0","uniform","1","undefined","undefined","undefined","1","f","0","0","0","0","82","0","0","0","82","0","78","82","78","0","78","3","82","0","82","Fri Feb 19 14:31:32 2021","The main experiment item","yes","Lexical_Decision_Task.osexp","E:/uni","no","Andale Mono","no","18","no","white","no","yes","576","legacy","78","78","3","E:/uni/subject-5201787.csv","legacy","Lentiform Loewenfeld","3.3.7","yes","yes","600bd7cfb6416f0113b04181","602110864497cf011d9c0822","0","f","NA","space","space","space","space","f","791","NA","7678","23849","7281","53361","791","2","legacy","1024","2","48000","-16","task","5201787","odd","NA","40326","50005","42326","246729","2148","33281","25999","247230","140188","246728","247231","246682","50005","248022","38677","246182","2146","240050","Lexical Decision Task","75","56910","83","yes","1024"
"3.156347201","0","8","lasp","non-word","90.47619047619048","90.47619047619048","686.202380952381","686.202380952381","black","no","legacy","legacy","legacy","0","uniform","1","undefined","undefined","undefined","1","f","0","0","0","0","83","0","0","0","83","0","79","83","79","0","79","3","83","0","83","Fri Feb 19 14:31:32 2021","The main experiment item","yes","Lexical_Decision_Task.osexp","E:/uni","no","Andale Mono","no","18","no","white","no","yes","576","legacy","79","79","3","E:/uni/subject-5201787.csv","legacy","Lentiform Loewenfeld","3.3.7","yes","yes","600bd7cfb6416f0113b04181","602110864497cf011d9c0822","0","f","NA","space","space","space","space","f","731","NA","7678","23849","7281","53361","731","2","legacy","1024","2","48000","-16","task","5201787","odd","NA","40326","50005","42326","248567","2148","33281","25999","249067","140188","248566","249067","248526","50005","249798","38677","248026","2146","240050","Lexical Decision Task","76","57641","84","yes","1024"
"2.981215883","10.66","5","hair","word","90.58823529411765","90.58823529411765","685.2588235294118","685.2588235294118","black","no","legacy","legacy","legacy","0","uniform","1","undefined","undefined","undefined","1","j","0","0","0","0","84","0","0","0","84","0","80","84","80","0","80","3","84","0","84","Fri Feb 19 14:31:32 2021","The main experiment item","yes","Lexical_Decision_Task.osexp","E:/uni","no","Andale Mono","no","18","no","white","no","yes","576","legacy","80","80","3","E:/uni/subject-5201787.csv","legacy","Lentiform Loewenfeld","3.3.7","yes","yes","600bd7cfb6416f0113b04181","602110864497cf011d9c0822","0","j","NA","space","space","space","space","j","606","NA","7678","23849","7281","53361","606","2","legacy","1024","2","48000","-16","task","5201787","odd","NA","40326","50005","42326","250347","2148","33281","25999","250847","140188","250345","250847","250302","50005","251454","38677","249802","2146","240050","Lexical Decision Task","77","58247","85","yes","1024"
"3.134602053","0","8","jart","non-word","90.69767441860465","90.69767441860465","684.7790697674419","684.7790697674419","black","no","legacy","legacy","legacy","0","uniform","1","undefined","undefined","undefined","1","f","0","0","0","0","85","0","0","0","85","0","81","85","81","0","81","3","85","0","85","Fri Feb 19 14:31:32 2021","The main experiment item","yes","Lexical_Decision_Task.osexp","E:/uni","no","Andale Mono","no","18","no","white","no","yes","576","legacy","81","81","3","E:/uni/subject-5201787.csv","legacy","Lentiform Loewenfeld","3.3.7","yes","yes","600bd7cfb6416f0113b04181","602110864497cf011d9c0822","0","f","NA","space","space","space","space","f","644","NA","7678","23849","7281","53361","644","2","legacy","1024","2","48000","-16","task","5201787","odd","NA","40326","50005","42326","252002","2148","33281","25999","252503","140188","252001","252503","251960","50005","253148","38677","251460","2146","240050","Lexical Decision Task","78","58891","86","yes","1024"
"2.895974732","6.65","5","sift","word","90.80459770114942","90.80459770114942","686.8965517241379","686.8965517241379","black","no","legacy","legacy","legacy","0","uniform","1","undefined","undefined","undefined","1","j","0","0","0","0","86","0","0","0","86","0","82","86","82","0","82","3","86","0","86","Fri Feb 19 14:31:32 2021","The main experiment item","yes","Lexical_Decision_Task.osexp","E:/uni","no","Andale Mono","no","18","no","white","no","yes","576","legacy","82","82","3","E:/uni/subject-5201787.csv","legacy","Lentiform Loewenfeld","3.3.7","yes","yes","600bd7cfb6416f0113b04181","602110864497cf011d9c0822","0","j","NA","space","space","space","space","j","869","NA","7678","23849","7281","53361","869","2","legacy","1024","2","48000","-16","task","5201787","odd","NA","40326","50005","42326","253700","2148","33281","25999","254201","140188","253698","254201","253652","50005","255070","38677","253152","2146","240050","Lexical Decision Task","79","59760","87","yes","1024"
"3.274543461","7.46","7","scar","word","90.9090909090909","90.9090909090909","685.1477272727273","685.1477272727273","black","no","legacy","legacy","legacy","0","uniform","1","undefined","undefined","undefined","1","j","0","0","0","0","87","0","0","0","87","0","83","87","83","0","83","3","87","0","87","Fri Feb 19 14:31:32 2021","The main experiment item","yes","Lexical_Decision_Task.osexp","E:/uni","no","Andale Mono","no","18","no","white","no","yes","576","legacy","83","83","3","E:/uni/subject-5201787.csv","legacy","Lentiform Loewenfeld","3.3.7","yes","yes","600bd7cfb6416f0113b04181","602110864497cf011d9c0822","0","j","NA","space","space","space","space","j","533","NA","7678","23849","7281","53361","533","2","legacy","1024","2","48000","-16","task","5201787","odd","NA","40326","50005","42326","255616","2148","33281","25999","256117","140188","255615","256117","255574","50005","256651","38677","255074","2146","240050","Lexical Decision Task","80","60293","88","yes","1024"
"2.953276337","6.32","4","thaw","word","89.88764044943821","89.88764044943821","685.314606741573","685.314606741573","black","no","legacy","legacy","legacy","0","uniform","0","undefined","undefined","undefined","0","j","0","0","0","0","88","0","0","0","88","0","84","88","84","0","84","3","88","0","88","Fri Feb 19 14:31:32 2021","The main experiment item","yes","Lexical_Decision_Task.osexp","E:/uni","no","Andale Mono","no","18","no","white","no","yes","576","legacy","84","84","3","E:/uni/subject-5201787.csv","legacy","Lentiform Loewenfeld","3.3.7","yes","yes","600bd7cfb6416f0113b04181","602110864497cf011d9c0822","0","f","NA","space","space","space","space","f","700","NA","7678","23849","7281","53361","700","2","legacy","1024","2","48000","-16","task","5201787","odd","NA","40326","50005","42326","257201","2148","33281","25999","257704","140188","257200","257704","257155","50005","258404","38677","256655","2146","240050","Lexical Decision Task","80","60993","89","yes","1024"
"2.920123326","7.43","4","duel","word","90","90","691.1111111111111","691.1111111111111","black","no","legacy","legacy","legacy","0","uniform","1","undefined","undefined","undefined","1","j","0","0","0","0","89","0","0","0","89","0","85","89","85","0","85","3","89","0","89","Fri Feb 19 14:31:32 2021","The main experiment item","yes","Lexical_Decision_Task.osexp","E:/uni","no","Andale Mono","no","18","no","white","no","yes","576","legacy","85","85","3","E:/uni/subject-5201787.csv","legacy","Lentiform Loewenfeld","3.3.7","yes","yes","600bd7cfb6416f0113b04181","602110864497cf011d9c0822","0","j","NA","space","space","space","space","j","1207","NA","7678","23849","7281","53361","1207","2","legacy","1024","2","48000","-16","task","5201787","odd","NA","40326","50005","42326","259967","2148","33281","25999","260467","140188","259966","260467","259908","50005","261674","38677","256655","2146","258408","Lexical Decision Task","81","62200","90","yes","1024"
"3.440331212","7.35","6","stew","word","90.10989010989012","90.10989010989012","690.2747252747253","690.2747252747253","black","no","legacy","legacy","legacy","0","uniform","1","undefined","undefined","undefined","1","j","0","0","0","0","90","0","0","0","90","0","86","90","86","0","86","3","90","0","90","Fri Feb 19 14:31:32 2021","The main experiment item","yes","Lexical_Decision_Task.osexp","E:/uni","no","Andale Mono","no","18","no","white","no","yes","576","legacy","86","86","3","E:/uni/subject-5201787.csv","legacy","Lentiform Loewenfeld","3.3.7","yes","yes","600bd7cfb6416f0113b04181","602110864497cf011d9c0822","0","j","NA","space","space","space","space","j","615","NA","7678","23849","7281","53361","615","2","legacy","1024","2","48000","-16","task","5201787","odd","NA","40326","50005","42326","262228","2148","33281","25999","262729","140188","262227","262729","262188","50005","263344","38677","261688","2146","258408","Lexical Decision Task","82","62815","91","yes","1024"
"2.980911938","7.15","7","hoop","word","90.21739130434783","90.21739130434783","688.9565217391304","688.9565217391304","black","no","legacy","legacy","legacy","0","uniform","1","undefined","undefined","undefined","1","j","0","0","0","0","91","0","0","0","91","0","87","91","87","0","87","3","91","0","91","Fri Feb 19 14:31:32 2021","The main experiment item","yes","Lexical_Decision_Task.osexp","E:/uni","no","Andale Mono","no","18","no","white","no","yes","576","legacy","87","87","3","E:/uni/subject-5201787.csv","legacy","Lentiform Loewenfeld","3.3.7","yes","yes","600bd7cfb6416f0113b04181","602110864497cf011d9c0822","0","j","NA","space","space","space","space","j","569","NA","7678","23849","7281","53361","569","2","legacy","1024","2","48000","-16","task","5201787","odd","NA","40326","50005","42326","263889","2148","33281","25999","264390","140188","263888","264390","263848","50005","264960","38677","263348","2146","258408","Lexical Decision Task","83","63384","92","yes","1024"
"3.269668578","0","7","trag","non-word","90.3225806451613","90.3225806451613","690.1182795698925","690.1182795698925","black","no","legacy","legacy","legacy","0","uniform","1","undefined","undefined","undefined","1","f","0","0","0","0","92","0","0","0","92","0","88","92","88","0","88","3","92","0","92","Fri Feb 19 14:31:32 2021","The main experiment item","yes","Lexical_Decision_Task.osexp","E:/uni","no","Andale Mono","no","18","no","white","no","yes","576","legacy","88","88","3","E:/uni/subject-5201787.csv","legacy","Lentiform Loewenfeld","3.3.7","yes","yes","600bd7cfb6416f0113b04181","602110864497cf011d9c0822","0","f","NA","space","space","space","space","f","797","NA","7678","23849","7281","53361","797","2","legacy","1024","2","48000","-16","task","5201787","odd","NA","40326","50005","42326","265506","2148","33281","25999","266007","140188","265505","266007","265464","50005","266804","38677","264964","2146","258408","Lexical Decision Task","84","64181","93","yes","1024"
"3.303771854","0","9","dath","non-word","90.42553191489361","90.42553191489361","690.7340425531914","690.7340425531914","black","no","legacy","legacy","legacy","0","uniform","1","undefined","undefined","undefined","1","f","0","0","0","0","93","0","0","0","93","0","89","93","89","0","89","3","93","0","93","Fri Feb 19 14:31:32 2021","The main experiment item","yes","Lexical_Decision_Task.osexp","E:/uni","no","Andale Mono","no","18","no","white","no","yes","576","legacy","89","89","3","E:/uni/subject-5201787.csv","legacy","Lentiform Loewenfeld","3.3.7","yes","yes","600bd7cfb6416f0113b04181","602110864497cf011d9c0822","0","f","NA","space","space","space","space","f","748","NA","7678","23849","7281","53361","748","2","legacy","1024","2","48000","-16","task","5201787","odd","NA","40326","50005","42326","267352","2148","33281","25999","267853","140188","267351","267853","267308","50005","268602","38677","266808","2146","258408","Lexical Decision Task","85","64929","94","yes","1024"
"3.460446784","0","5","dess","non-word","90.52631578947368","90.52631578947368","690.5578947368421","690.5578947368421","black","no","legacy","legacy","legacy","0","uniform","1","undefined","undefined","undefined","1","f","0","0","0","0","94","0","0","0","94","0","90","94","90","0","90","3","94","0","94","Fri Feb 19 14:31:32 2021","The main experiment item","yes","Lexical_Decision_Task.osexp","E:/uni","no","Andale Mono","no","18","no","white","no","yes","576","legacy","90","90","3","E:/uni/subject-5201787.csv","legacy","Lentiform Loewenfeld","3.3.7","yes","yes","600bd7cfb6416f0113b04181","602110864497cf011d9c0822","0","f","NA","space","space","space","space","f","674","NA","7678","23849","7281","53361","674","2","legacy","1024","2","48000","-16","task","5201787","odd","NA","40326","50005","42326","269153","2148","33281","25999","269654","140188","269152","269654","269106","50005","270328","38677","268606","2146","258408","Lexical Decision Task","86","65603","95","yes","1024"
"3.307211407","6.07","7","honk","word","90.625","90.625","692.4895833333334","692.4895833333334","black","no","legacy","legacy","legacy","0","uniform","1","undefined","undefined","undefined","1","j","0","0","0","0","95","0","0","0","95","0","91","95","91","0","91","3","95","0","95","Fri Feb 19 14:31:32 2021","The main experiment item","yes","Lexical_Decision_Task.osexp","E:/uni","no","Andale Mono","no","18","no","white","no","yes","576","legacy","91","91","3","E:/uni/subject-5201787.csv","legacy","Lentiform Loewenfeld","3.3.7","yes","yes","600bd7cfb6416f0113b04181","602110864497cf011d9c0822","0","j","NA","space","space","space","space","j","876","NA","7678","23849","7281","53361","876","2","legacy","1024","2","48000","-16","task","5201787","odd","NA","40326","50005","42326","270873","2148","33281","25999","271373","140188","270872","271373","270832","50005","272250","38677","270332","2146","258408","Lexical Decision Task","87","66479","96","yes","1024"
"3.378276681","6.39","8","bran","word","90.72164948453609","90.72164948453609","693.4948453608248","693.4948453608248","black","no","legacy","legacy","legacy","0","uniform","1","undefined","undefined","undefined","1","j","0","0","0","0","96","0","0","0","96","0","92","96","92","0","92","3","96","0","96","Fri Feb 19 14:31:32 2021","The main experiment item","yes","Lexical_Decision_Task.osexp","E:/uni","no","Andale Mono","no","18","no","white","no","yes","576","legacy","92","92","3","E:/uni/subject-5201787.csv","legacy","Lentiform Loewenfeld","3.3.7","yes","yes","600bd7cfb6416f0113b04181","602110864497cf011d9c0822","0","j","NA","space","space","space","space","j","790","NA","7678","23849","7281","53361","790","2","legacy","1024","2","48000","-16","task","5201787","odd","NA","40326","50005","42326","272796","2148","33281","25999","273297","140188","272795","273297","272755","50005","274088","38677","272255","2146","258408","Lexical Decision Task","88","67269","97","yes","1024"
"2.713490543","0","3","feps","non-word","90.81632653061224","90.81632653061224","692.3265306122449","692.3265306122449","black","no","legacy","legacy","legacy","0","uniform","1","undefined","undefined","undefined","1","f","0","0","0","0","97","0","0","0","97","0","93","97","93","0","93","3","97","0","97","Fri Feb 19 14:31:32 2021","The main experiment item","yes","Lexical_Decision_Task.osexp","E:/uni","no","Andale Mono","no","18","no","white","no","yes","576","legacy","93","93","3","E:/uni/subject-5201787.csv","legacy","Lentiform Loewenfeld","3.3.7","yes","yes","600bd7cfb6416f0113b04181","602110864497cf011d9c0822","0","f","NA","space","space","space","space","f","579","NA","7678","23849","7281","53361","579","2","legacy","1024","2","48000","-16","task","5201787","odd","NA","40326","50005","42326","274633","2148","33281","25999","275134","140188","274632","275134","274592","50005","275714","38677","274092","2146","258408","Lexical Decision Task","89","67848","98","yes","1024"
"2.746890964","9.67","3","plug","word","90.9090909090909","90.9090909090909","691.1111111111111","691.1111111111111","black","no","legacy","legacy","legacy","0","uniform","1","undefined","undefined","undefined","1","j","0","0","0","0","98","0","0","0","98","0","94","98","94","0","94","3","98","0","98","Fri Feb 19 14:31:32 2021","The main experiment item","yes","Lexical_Decision_Task.osexp","E:/uni","no","Andale Mono","no","18","no","white","no","yes","576","legacy","94","94","3","E:/uni/subject-5201787.csv","legacy","Lentiform Loewenfeld","3.3.7","yes","yes","600bd7cfb6416f0113b04181","602110864497cf011d9c0822","0","j","NA","space","space","space","space","j","572","NA","7678","23849","7281","53361","572","2","legacy","1024","2","48000","-16","task","5201787","odd","NA","40326","50005","42326","276258","2148","33281","25999","276759","140188","276257","276759","276218","50005","277332","38677","275718","2146","258408","Lexical Decision Task","90","68420","99","yes","1024"
"3.531734309","0","6","lerd","non-word","91","91","691.38","691.38","black","no","legacy","legacy","legacy","0","uniform","1","undefined","undefined","undefined","1","f","0","0","0","0","99","0","0","0","99","0","95","99","95","0","95","3","99","0","99","Fri Feb 19 14:31:32 2021","The main experiment item","yes","Lexical_Decision_Task.osexp","E:/uni","no","Andale Mono","no","18","no","white","no","yes","576","legacy","95","95","3","E:/uni/subject-5201787.csv","legacy","Lentiform Loewenfeld","3.3.7","yes","yes","600bd7cfb6416f0113b04181","602110864497cf011d9c0822","0","f","NA","space","space","space","space","f","718","NA","7678","23849","7281","53361","718","2","legacy","1024","2","48000","-16","task","5201787","odd","NA","40326","50005","42326","277877","2148","33281","25999","278377","140188","277876","278377","277836","50005","279096","38677","277336","2146","258408","Lexical Decision Task","91","69138","100","yes","1024"
"2.880623071","0","9","curp","non-word","91.08910891089108","91.08910891089108","693.7128712871287","693.7128712871287","black","no","legacy","legacy","legacy","0","uniform","1","undefined","undefined","undefined","1","f","0","0","0","0","100","0","0","0","100","0","96","100","96","0","96","3","100","0","100","Fri Feb 19 14:31:32 2021","The main experiment item","yes","Lexical_Decision_Task.osexp","E:/uni","no","Andale Mono","no","18","no","white","no","yes","576","legacy","96","96","3","E:/uni/subject-5201787.csv","legacy","Lentiform Loewenfeld","3.3.7","yes","yes","600bd7cfb6416f0113b04181","602110864497cf011d9c0822","0","f","NA","space","space","space","space","f","927","NA","7678","23849","7281","53361","927","2","legacy","1024","2","48000","-16","task","5201787","odd","NA","40326","50005","42326","279640","2148","33281","25999","280141","140188","279639","280141","279600","50005","281069","38677","279100","2146","258408","Lexical Decision Task","92","70065","101","yes","1024"
"3.037294994","8.64","7","roof","word","91.17647058823529","91.17647058823529","692.4117647058823","692.4117647058823","black","no","legacy","legacy","legacy","0","uniform","1","undefined","undefined","undefined","1","j","0","0","0","0","101","0","0","0","101","0","97","101","97","0","97","3","101","0","101","Fri Feb 19 14:31:32 2021","The main experiment item","yes","Lexical_Decision_Task.osexp","E:/uni","no","Andale Mono","no","18","no","white","no","yes","576","legacy","97","97","3","E:/uni/subject-5201787.csv","legacy","Lentiform Loewenfeld","3.3.7","yes","yes","600bd7cfb6416f0113b04181","602110864497cf011d9c0822","0","j","NA","space","space","space","space","j","561","NA","7678","23849","7281","53361","561","2","legacy","1024","2","48000","-16","task","5201787","odd","NA","40326","50005","42326","281616","2148","33281","25999","282117","140188","281615","282117","281573","50005","282679","38677","281073","2146","258408","Lexical Decision Task","93","70626","102","yes","1024"
"3.248054965","7.86","5","glow","word","91.2621359223301","91.2621359223301","690.504854368932","690.504854368932","black","no","legacy","legacy","legacy","0","uniform","1","undefined","undefined","undefined","1","j","0","0","0","0","102","0","0","0","102","0","98","102","98","0","98","3","102","0","102","Fri Feb 19 14:31:32 2021","The main experiment item","yes","Lexical_Decision_Task.osexp","E:/uni","no","Andale Mono","no","18","no","white","no","yes","576","legacy","98","98","3","E:/uni/subject-5201787.csv","legacy","Lentiform Loewenfeld","3.3.7","yes","yes","600bd7cfb6416f0113b04181","602110864497cf011d9c0822","0","j","NA","space","space","space","space","j","496","NA","7678","23849","7281","53361","496","2","legacy","1024","2","48000","-16","task","5201787","odd","NA","40326","50005","42326","283225","2148","33281","25999","283726","140188","283224","283726","283183","50005","284223","38677","282683","2146","258408","Lexical Decision Task","94","71122","103","yes","1024"
"2.706148589","0","4","hube","non-word","91.34615384615384","91.34615384615384","691.1826923076923","691.1826923076923","black","no","legacy","legacy","legacy","0","uniform","1","undefined","undefined","undefined","1","f","0","0","0","0","103","0","0","0","103","0","99","103","99","0","99","3","103","0","103","Fri Feb 19 14:31:32 2021","The main experiment item","yes","Lexical_Decision_Task.osexp","E:/uni","no","Andale Mono","no","18","no","white","no","yes","576","legacy","99","99","3","E:/uni/subject-5201787.csv","legacy","Lentiform Loewenfeld","3.3.7","yes","yes","600bd7cfb6416f0113b04181","602110864497cf011d9c0822","0","f","NA","space","space","space","space","f","761","NA","7678","23849","7281","53361","761","2","legacy","1024","2","48000","-16","task","5201787","odd","NA","40326","50005","42326","284767","2148","33281","25999","285267","140188","284766","285267","284727","50005","286029","38677","284227","2146","258408","Lexical Decision Task","95","71883","104","yes","1024"
