"Log_BG","Log_Freq_HAL","Ortho_N","Stimulus","Type","acc","accuracy","average_response_time","avg_rt","background","bidi","canvas_backend","clock_backend","color_backend","compensation","coordinates","correct","correct_Experimental_intro","correct_Introduction","correct_Practice_intro","correct_experimenter_kb","correct_response","count_End_Of_Experiment","count_End_Of_Practice","count_Experimental_Loop","count_Experimental_intro","count_Fixation","count_Introduction","count_Practice_Loop","count_Practice_intro","count_Stimulus","count_block_break_feedback","count_experimental_sequence","count_experimenter_kb","count_increment_trial_count","count_init_trial_count","count_logger","count_practice_sequence","count_right","count_task","count_wrong","datetime","description","disable_garbage_collection","experiment_file","experiment_path","font_bold","font_family","font_italic","font_size","font_underline","foreground","form_clicks","fullscreen","height","keyboard_backend","live_row","live_row_Experimental_Loop","live_row_Practice_Loop","logfile","mouse_backend","opensesame_codename","opensesame_version","osf_always_upload_data","osf_always_upload_experiment","osf_datanode_id","osf_id","repeat_cycle","response","response_End_Of_Experiment","response_Experimental_intro","response_Introduction","response_Practice_intro","response_block_break_feedback","response_experimenter_kb","response_time","response_time_End_Of_Experiment","response_time_Experimental_intro","response_time_Introduction","response_time_Practice_intro","response_time_block_break_feedback","response_time_experimenter_kb","round_decimals","sampler_backend","sound_buf_size","sound_channels","sound_freq","sound_sample_size","start","subject_nr","subject_parity","time_End_Of_Experiment","time_End_Of_Practice","time_Experimental_Loop","time_Experimental_intro","time_Fixation","time_Introduction","time_Practice_Loop","time_Practice_intro","time_Stimulus","time_block_break_feedback","time_experimental_sequence","time_experimenter_kb","time_increment_trial_count","time_init_trial_count","time_logger","time_practice_sequence","time_right","time_task","time_wrong","title","total_correct","total_response_time","total_responses","uniform_coordinates","width"
"3.302475237","0","7","leel","non-word","100","100","619.8","619.8","black","no","legacy","legacy","legacy","0","uniform","1","undefined","undefined","undefined","1","f","0","0","0","0","4","0","0","0","4","NA","0","4","0","0","0","3","4","0","4","Thu Feb 18 11:26:15 2021","The main experiment item","yes","Lexical_Decision_Task.osexp","/Users/sarahdrage","no","Andale Mono","no","18","no","white","no","yes","576","legacy","0","0","3","/Users/sarahdrage/subject-5211978.csv","legacy","Lentiform Loewenfeld","3.3.7","yes","yes","600bd7cfb6416f0113b04181","602110864497cf011d9c0822","0","f","NA","space","space","space","NA","f","569","NA","2549","12753","4190","NA","569","2","legacy","1024","2","48000","-16","task","5211978","even","NA","34473","39025","36476","39057","10598","27575","23380","39560","NA","39055","39560","NA","39025","40130","32853","33937","10521","NA","Lexical Decision Task","5","3099","5","yes","1024"
"3.225825991","0","7","talm","non-word","100","100","620.6666666666666","620.6666666666666","black","no","legacy","legacy","legacy","0","uniform","1","undefined","undefined","undefined","1","f","0","0","0","0","5","0","0","0","5","NA","1","5","1","0","1","3","5","0","5","Thu Feb 18 11:26:15 2021","The main experiment item","yes","Lexical_Decision_Task.osexp","/Users/sarahdrage","no","Andale Mono","no","18","no","white","no","yes","576","legacy","1","1","3","/Users/sarahdrage/subject-5211978.csv","legacy","Lentiform Loewenfeld","3.3.7","yes","yes","600bd7cfb6416f0113b04181","602110864497cf011d9c0822","0","f","NA","space","space","space","NA","f","625","NA","2549","12753","4190","NA","625","2","legacy","1024","2","48000","-16","task","5211978","even","NA","34473","39025","36476","40707","10598","27575","23380","41209","NA","40704","41210","40637","39025","41836","32853","40137","10521","NA","Lexical Decision Task","6","3724","6","yes","1024"
"3.081107167","0","6","chot","non-word","100","100","611.4285714285714","611.4285714285714","black","no","legacy","legacy","legacy","0","uniform","1","undefined","undefined","undefined","1","f","0","0","0","0","6","0","0","0","6","NA","2","6","2","0","2","3","6","0","6","Thu Feb 18 11:26:15 2021","The main experiment item","yes","Lexical_Decision_Task.osexp","/Users/sarahdrage","no","Andale Mono","no","18","no","white","no","yes","576","legacy","2","2","3","/Users/sarahdrage/subject-5211978.csv","legacy","Lentiform Loewenfeld","3.3.7","yes","yes","600bd7cfb6416f0113b04181","602110864497cf011d9c0822","0","f","NA","space","space","space","NA","f","556","NA","2549","12753","4190","NA","556","2","legacy","1024","2","48000","-16","task","5211978","even","NA","34473","39025","36476","42416","10598","27575","23380","42918","NA","42412","42918","42340","39025","43475","32853","41839","10521","NA","Lexical Decision Task","7","4280","7","yes","1024"
"3.062080345","0","6","tomp","non-word","100","100","595.5","595.5","black","no","legacy","legacy","legacy","0","uniform","1","undefined","undefined","undefined","1","f","0","0","0","0","7","0","0","0","7","NA","3","7","3","0","3","3","7","0","7","Thu Feb 18 11:26:15 2021","The main experiment item","yes","Lexical_Decision_Task.osexp","/Users/sarahdrage","no","Andale Mono","no","18","no","white","no","yes","576","legacy","3","3","3","/Users/sarahdrage/subject-5211978.csv","legacy","Lentiform Loewenfeld","3.3.7","yes","yes","600bd7cfb6416f0113b04181","602110864497cf011d9c0822","0","f","NA","space","space","space","NA","f","484","NA","2549","12753","4190","NA","484","2","legacy","1024","2","48000","-16","task","5211978","even","NA","34473","39025","36476","44048","10598","27575","23380","44551","NA","44045","44551","43979","39025","45035","32853","43479","10521","NA","Lexical Decision Task","8","4764","8","yes","1024"
"3.274157849","0","8","leet","non-word","100","100","587.8888888888889","587.8888888888889","black","no","legacy","legacy","legacy","0","uniform","1","undefined","undefined","undefined","1","f","0","0","0","0","8","0","0","0","8","NA","4","8","4","0","4","3","8","0","8","Thu Feb 18 11:26:15 2021","The main experiment item","yes","Lexical_Decision_Task.osexp","/Users/sarahdrage","no","Andale Mono","no","18","no","white","no","yes","576","legacy","4","4","3","/Users/sarahdrage/subject-5211978.csv","legacy","Lentiform Loewenfeld","3.3.7","yes","yes","600bd7cfb6416f0113b04181","602110864497cf011d9c0822","0","f","NA","space","space","space","NA","f","527","NA","2549","12753","4190","NA","527","2","legacy","1024","2","48000","-16","task","5211978","even","NA","34473","39025","36476","45608","10598","27575","23380","46110","NA","45605","46110","45540","39025","46638","32853","45039","10521","NA","Lexical Decision Task","9","5291","9","yes","1024"
"3.372543801","9.24","8","coat","word","100","100","571.1","571.1","black","no","legacy","legacy","legacy","0","uniform","1","undefined","undefined","undefined","1","j","0","0","0","0","9","0","0","0","9","NA","5","9","5","0","5","3","9","0","9","Thu Feb 18 11:26:15 2021","The main experiment item","yes","Lexical_Decision_Task.osexp","/Users/sarahdrage","no","Andale Mono","no","18","no","white","no","yes","576","legacy","5","5","3","/Users/sarahdrage/subject-5211978.csv","legacy","Lentiform Loewenfeld","3.3.7","yes","yes","600bd7cfb6416f0113b04181","602110864497cf011d9c0822","0","j","NA","space","space","space","NA","j","420","NA","2549","12753","4190","NA","420","2","legacy","1024","2","48000","-16","task","5211978","even","NA","34473","39025","36476","47207","10598","27575","23380","47710","NA","47204","47710","47142","39025","48130","32853","46642","10521","NA","Lexical Decision Task","10","5711","10","yes","1024"
"3.382617311","0","4","pret","non-word","100","100","566.3636363636364","566.3636363636364","black","no","legacy","legacy","legacy","0","uniform","1","undefined","undefined","undefined","1","f","0","0","0","0","10","0","0","0","10","NA","6","10","6","0","6","3","10","0","10","Thu Feb 18 11:26:15 2021","The main experiment item","yes","Lexical_Decision_Task.osexp","/Users/sarahdrage","no","Andale Mono","no","18","no","white","no","yes","576","legacy","6","6","3","/Users/sarahdrage/subject-5211978.csv","legacy","Lentiform Loewenfeld","3.3.7","yes","yes","600bd7cfb6416f0113b04181","602110864497cf011d9c0822","0","f","NA","space","space","space","NA","f","519","NA","2549","12753","4190","NA","519","2","legacy","1024","2","48000","-16","task","5211978","even","NA","34473","39025","36476","48700","10598","27575","23380","49202","NA","48697","49203","48635","39025","49723","32853","48135","10521","NA","Lexical Decision Task","11","6230","11","yes","1024"
"2.771097306","0","9","jold","non-word","100","100","572.0833333333334","572.0833333333334","black","no","legacy","legacy","legacy","0","uniform","1","undefined","undefined","undefined","1","f","0","0","0","0","11","0","0","0","11","NA","7","11","7","0","7","3","11","0","11","Thu Feb 18 11:26:15 2021","The main experiment item","yes","Lexical_Decision_Task.osexp","/Users/sarahdrage","no","Andale Mono","no","18","no","white","no","yes","576","legacy","7","7","3","/Users/sarahdrage/subject-5211978.csv","legacy","Lentiform Loewenfeld","3.3.7","yes","yes","600bd7cfb6416f0113b04181","602110864497cf011d9c0822","0","f","NA","space","space","space","NA","f","635","NA","2549","12753","4190","NA","635","2","legacy","1024","2","48000","-16","task","5211978","even","NA","34473","39025","36476","50291","10598","27575","23380","50793","NA","50288","50793","50227","39025","51429","32853","49727","10521","NA","Lexical Decision Task","12","6865","12","yes","1024"
"3.066077331","0","7","vorn","non-word","100","100","583.7692307692307","583.7692307692307","black","no","legacy","legacy","legacy","0","uniform","1","undefined","undefined","undefined","1","f","0","0","0","0","12","0","0","0","12","NA","8","12","8","0","8","3","12","0","12","Thu Feb 18 11:26:15 2021","The main experiment item","yes","Lexical_Decision_Task.osexp","/Users/sarahdrage","no","Andale Mono","no","18","no","white","no","yes","576","legacy","8","8","3","/Users/sarahdrage/subject-5211978.csv","legacy","Lentiform Loewenfeld","3.3.7","yes","yes","600bd7cfb6416f0113b04181","602110864497cf011d9c0822","0","f","NA","space","space","space","NA","f","724","NA","2549","12753","4190","NA","724","2","legacy","1024","2","48000","-16","task","5211978","even","NA","34473","39025","36476","51999","10598","27575","23380","52501","NA","51996","52502","51934","39025","53226","32853","51434","10521","NA","Lexical Decision Task","13","7589","13","yes","1024"
"3.366547468","0","6","plat","non-word","100","100","598.1428571428571","598.1428571428571","black","no","legacy","legacy","legacy","0","uniform","1","undefined","undefined","undefined","1","f","0","0","0","0","13","0","0","0","13","NA","9","13","9","0","9","3","13","0","13","Thu Feb 18 11:26:15 2021","The main experiment item","yes","Lexical_Decision_Task.osexp","/Users/sarahdrage","no","Andale Mono","no","18","no","white","no","yes","576","legacy","9","9","3","/Users/sarahdrage/subject-5211978.csv","legacy","Lentiform Loewenfeld","3.3.7","yes","yes","600bd7cfb6416f0113b04181","602110864497cf011d9c0822","0","f","NA","space","space","space","NA","f","785","NA","2549","12753","4190","NA","785","2","legacy","1024","2","48000","-16","task","5211978","even","NA","34473","39025","36476","53803","10598","27575","23380","54306","NA","53800","54306","53731","39025","55092","32853","53231","10521","NA","Lexical Decision Task","14","8374","14","yes","1024"
"3.363486562","6.93","9","lush","word","100","100","591.3333333333334","591.3333333333334","black","no","legacy","legacy","legacy","0","uniform","1","undefined","undefined","undefined","1","j","0","0","0","0","14","0","0","0","14","NA","10","14","10","0","10","3","14","0","14","Thu Feb 18 11:26:15 2021","The main experiment item","yes","Lexical_Decision_Task.osexp","/Users/sarahdrage","no","Andale Mono","no","18","no","white","no","yes","576","legacy","10","10","3","/Users/sarahdrage/subject-5211978.csv","legacy","Lentiform Loewenfeld","3.3.7","yes","yes","600bd7cfb6416f0113b04181","602110864497cf011d9c0822","0","j","NA","space","space","space","NA","j","496","NA","2549","12753","4190","NA","496","2","legacy","1024","2","48000","-16","task","5211978","even","NA","34473","39025","36476","55658","10598","27575","23380","56161","NA","55655","56161","55596","39025","56658","32853","55096","10521","NA","Lexical Decision Task","15","8870","15","yes","1024"
"2.794720352","0","9","koot","non-word","100","100","588.4375","588.4375","black","no","legacy","legacy","legacy","0","uniform","1","undefined","undefined","undefined","1","f","0","0","0","0","15","0","0","0","15","NA","11","15","11","0","11","3","15","0","15","Thu Feb 18 11:26:15 2021","The main experiment item","yes","Lexical_Decision_Task.osexp","/Users/sarahdrage","no","Andale Mono","no","18","no","white","no","yes","576","legacy","11","11","3","/Users/sarahdrage/subject-5211978.csv","legacy","Lentiform Loewenfeld","3.3.7","yes","yes","600bd7cfb6416f0113b04181","602110864497cf011d9c0822","0","f","NA","space","space","space","NA","f","545","NA","2549","12753","4190","NA","545","2","legacy","1024","2","48000","-16","task","5211978","even","NA","34473","39025","36476","57228","10598","27575","23380","57732","NA","57226","57732","57163","39025","58277","32853","56663","10521","NA","Lexical Decision Task","16","9415","16","yes","1024"
"2.907588697","8.91","9","mood","word","100","100","594.2352941176471","594.2352941176471","black","no","legacy","legacy","legacy","0","uniform","1","undefined","undefined","undefined","1","j","0","0","0","0","16","0","0","0","16","NA","12","16","12","0","12","3","16","0","16","Thu Feb 18 11:26:15 2021","The main experiment item","yes","Lexical_Decision_Task.osexp","/Users/sarahdrage","no","Andale Mono","no","18","no","white","no","yes","576","legacy","12","12","3","/Users/sarahdrage/subject-5211978.csv","legacy","Lentiform Loewenfeld","3.3.7","yes","yes","600bd7cfb6416f0113b04181","602110864497cf011d9c0822","0","j","NA","space","space","space","NA","j","687","NA","2549","12753","4190","NA","687","2","legacy","1024","2","48000","-16","task","5211978","even","NA","34473","39025","36476","58849","10598","27575","23380","59352","NA","58846","59353","58782","39025","60041","32853","58282","10521","NA","Lexical Decision Task","17","10102","17","yes","1024"
"2.845304797","0","6","buct","non-word","100","100","601.9444444444445","601.9444444444445","black","no","legacy","legacy","legacy","0","uniform","1","undefined","undefined","undefined","1","f","0","0","0","0","17","0","0","0","17","NA","13","17","13","0","13","3","17","0","17","Thu Feb 18 11:26:15 2021","The main experiment item","yes","Lexical_Decision_Task.osexp","/Users/sarahdrage","no","Andale Mono","no","18","no","white","no","yes","576","legacy","13","13","3","/Users/sarahdrage/subject-5211978.csv","legacy","Lentiform Loewenfeld","3.3.7","yes","yes","600bd7cfb6416f0113b04181","602110864497cf011d9c0822","0","f","NA","space","space","space","NA","f","733","NA","2549","12753","4190","NA","733","2","legacy","1024","2","48000","-16","task","5211978","even","NA","34473","39025","36476","60610","10598","27575","23380","61113","NA","60607","61113","60545","39025","61846","32853","60045","10521","NA","Lexical Decision Task","18","10835","18","yes","1024"
"2.68604012","0","3","mulb","non-word","100","100","594.3684210526316","594.3684210526316","black","no","legacy","legacy","legacy","0","uniform","1","undefined","undefined","undefined","1","f","0","0","0","0","18","0","0","0","18","NA","14","18","14","0","14","3","18","0","18","Thu Feb 18 11:26:15 2021","The main experiment item","yes","Lexical_Decision_Task.osexp","/Users/sarahdrage","no","Andale Mono","no","18","no","white","no","yes","576","legacy","14","14","3","/Users/sarahdrage/subject-5211978.csv","legacy","Lentiform Loewenfeld","3.3.7","yes","yes","600bd7cfb6416f0113b04181","602110864497cf011d9c0822","0","f","NA","space","space","space","NA","f","458","NA","2549","12753","4190","NA","458","2","legacy","1024","2","48000","-16","task","5211978","even","NA","34473","39025","36476","62414","10598","27575","23380","62917","NA","62411","62917","62349","39025","63376","32853","61849","10521","NA","Lexical Decision Task","19","11293","19","yes","1024"
"3.028977705","0","7","frow","non-word","100","100","584.75","584.75","black","no","legacy","legacy","legacy","0","uniform","1","undefined","undefined","undefined","1","f","0","0","0","0","19","0","0","0","19","NA","15","19","15","0","15","3","19","0","19","Thu Feb 18 11:26:15 2021","The main experiment item","yes","Lexical_Decision_Task.osexp","/Users/sarahdrage","no","Andale Mono","no","18","no","white","no","yes","576","legacy","15","15","3","/Users/sarahdrage/subject-5211978.csv","legacy","Lentiform Loewenfeld","3.3.7","yes","yes","600bd7cfb6416f0113b04181","602110864497cf011d9c0822","0","f","NA","space","space","space","NA","f","402","NA","2549","12753","4190","NA","402","2","legacy","1024","2","48000","-16","task","5211978","even","NA","34473","39025","36476","63945","10598","27575","23380","64448","NA","63942","64448","63881","39025","64851","32853","63381","10521","NA","Lexical Decision Task","20","11695","20","yes","1024"
"3.156347201","0","8","lasp","non-word","100","100","662.2380952380952","662.2380952380952","black","no","legacy","legacy","legacy","0","uniform","1","undefined","undefined","undefined","1","f","0","0","0","0","20","0","0","0","20","NA","16","20","16","0","16","3","20","0","20","Thu Feb 18 11:26:15 2021","The main experiment item","yes","Lexical_Decision_Task.osexp","/Users/sarahdrage","no","Andale Mono","no","18","no","white","no","yes","576","legacy","16","16","3","/Users/sarahdrage/subject-5211978.csv","legacy","Lentiform Loewenfeld","3.3.7","yes","yes","600bd7cfb6416f0113b04181","602110864497cf011d9c0822","0","f","NA","space","space","space","NA","f","2212","NA","2549","12753","4190","NA","2212","2","legacy","1024","2","48000","-16","task","5211978","even","NA","34473","39025","36476","65419","10598","27575","23380","65921","NA","65416","65921","65355","39025","68134","32853","64855","10521","NA","Lexical Decision Task","21","13907","21","yes","1024"
"3.303771854","0","9","dath","non-word","100","100","665","665","black","no","legacy","legacy","legacy","0","uniform","1","undefined","undefined","undefined","1","f","0","0","0","0","21","0","0","0","21","NA","17","21","17","0","17","3","21","0","21","Thu Feb 18 11:26:15 2021","The main experiment item","yes","Lexical_Decision_Task.osexp","/Users/sarahdrage","no","Andale Mono","no","18","no","white","no","yes","576","legacy","17","17","3","/Users/sarahdrage/subject-5211978.csv","legacy","Lentiform Loewenfeld","3.3.7","yes","yes","600bd7cfb6416f0113b04181","602110864497cf011d9c0822","0","f","NA","space","space","space","NA","f","723","NA","2549","12753","4190","NA","723","2","legacy","1024","2","48000","-16","task","5211978","even","NA","34473","39025","36476","68701","10598","27575","23380","69205","NA","68699","69205","68639","39025","69929","32853","68138","10521","NA","Lexical Decision Task","22","14630","22","yes","1024"
"3.474361976","5.24","6","veer","word","95.65217391304348","95.65217391304348","680.9130434782609","680.9130434782609","black","no","legacy","legacy","legacy","0","uniform","0","undefined","undefined","undefined","0","j","0","0","0","0","22","0","0","0","22","NA","18","22","18","0","18","3","22","0","22","Thu Feb 18 11:26:15 2021","The main experiment item","yes","Lexical_Decision_Task.osexp","/Users/sarahdrage","no","Andale Mono","no","18","no","white","no","yes","576","legacy","18","18","3","/Users/sarahdrage/subject-5211978.csv","legacy","Lentiform Loewenfeld","3.3.7","yes","yes","600bd7cfb6416f0113b04181","602110864497cf011d9c0822","0","f","NA","space","space","space","NA","f","1031","NA","2549","12753","4190","NA","1031","2","legacy","1024","2","48000","-16","task","5211978","even","NA","34473","39025","36476","70499","10598","27575","23380","71001","NA","70496","71002","70433","39025","72034","32853","69932","10521","NA","Lexical Decision Task","22","15661","23","yes","1024"
"3.15462682","0","6","noal","non-word","95.83333333333333","95.83333333333333","708.375","708.375","black","no","legacy","legacy","legacy","0","uniform","1","undefined","undefined","undefined","1","f","0","0","0","0","23","0","0","0","23","NA","19","23","19","0","19","3","23","0","23","Thu Feb 18 11:26:15 2021","The main experiment item","yes","Lexical_Decision_Task.osexp","/Users/sarahdrage","no","Andale Mono","no","18","no","white","no","yes","576","legacy","19","19","3","/Users/sarahdrage/subject-5211978.csv","legacy","Lentiform Loewenfeld","3.3.7","yes","yes","600bd7cfb6416f0113b04181","602110864497cf011d9c0822","0","f","NA","space","space","space","NA","f","1340","NA","2549","12753","4190","NA","1340","2","legacy","1024","2","48000","-16","task","5211978","even","NA","34473","39025","36476","73606","10598","27575","23380","74109","NA","73603","74109","73538","39025","75450","32853","69932","10521","72038","Lexical Decision Task","23","17001","24","yes","1024"
"2.6599162","0","2","saff","non-word","96","96","703.96","703.96","black","no","legacy","legacy","legacy","0","uniform","1","undefined","undefined","undefined","1","f","0","0","0","0","24","0","0","0","24","NA","20","24","20","0","20","3","24","0","24","Thu Feb 18 11:26:15 2021","The main experiment item","yes","Lexical_Decision_Task.osexp","/Users/sarahdrage","no","Andale Mono","no","18","no","white","no","yes","576","legacy","20","20","3","/Users/sarahdrage/subject-5211978.csv","legacy","Lentiform Loewenfeld","3.3.7","yes","yes","600bd7cfb6416f0113b04181","602110864497cf011d9c0822","0","f","NA","space","space","space","NA","f","598","NA","2549","12753","4190","NA","598","2","legacy","1024","2","48000","-16","task","5211978","even","NA","34473","39025","36476","76017","10598","27575","23380","76519","NA","76014","76520","75954","39025","77120","32853","75454","10521","72038","Lexical Decision Task","24","17599","25","yes","1024"
"2.858136002","0","4","phip","non-word","96.15384615384616","96.15384615384616","697.6923076923077","697.6923076923077","black","no","legacy","legacy","legacy","0","uniform","1","undefined","undefined","undefined","1","f","0","0","0","0","25","0","0","0","25","NA","21","25","21","0","21","3","25","0","25","Thu Feb 18 11:26:15 2021","The main experiment item","yes","Lexical_Decision_Task.osexp","/Users/sarahdrage","no","Andale Mono","no","18","no","white","no","yes","576","legacy","21","21","3","/Users/sarahdrage/subject-5211978.csv","legacy","Lentiform Loewenfeld","3.3.7","yes","yes","600bd7cfb6416f0113b04181","602110864497cf011d9c0822","0","f","NA","space","space","space","NA","f","541","NA","2549","12753","4190","NA","541","2","legacy","1024","2","48000","-16","task","5211978","even","NA","34473","39025","36476","77689","10598","27575","23380","78191","NA","77686","78191","77624","39025","78733","32853","77124","10521","72038","Lexical Decision Task","25","18140","26","yes","1024"
"2.706148589","0","4","hube","non-word","96.29629629629629","96.29629629629629","694.4814814814815","694.4814814814815","black","no","legacy","legacy","legacy","0","uniform","1","undefined","undefined","undefined","1","f","0","0","0","0","26","0","0","0","26","NA","22","26","22","0","22","3","26","0","26","Thu Feb 18 11:26:15 2021","The main experiment item","yes","Lexical_Decision_Task.osexp","/Users/sarahdrage","no","Andale Mono","no","18","no","white","no","yes","576","legacy","22","22","3","/Users/sarahdrage/subject-5211978.csv","legacy","Lentiform Loewenfeld","3.3.7","yes","yes","600bd7cfb6416f0113b04181","602110864497cf011d9c0822","0","f","NA","space","space","space","NA","f","611","NA","2549","12753","4190","NA","611","2","legacy","1024","2","48000","-16","task","5211978","even","NA","34473","39025","36476","79303","10598","27575","23380","79806","NA","79300","79806","79237","39025","80418","32853","78736","10521","72038","Lexical Decision Task","26","18751","27","yes","1024"
"3.159867847","5.98","5","brim","word","96.42857142857143","96.42857142857143","697.8571428571429","697.8571428571429","black","no","legacy","legacy","legacy","0","uniform","1","undefined","undefined","undefined","1","j","0","0","0","0","27","0","0","0","27","NA","23","27","23","0","23","3","27","0","27","Thu Feb 18 11:26:15 2021","The main experiment item","yes","Lexical_Decision_Task.osexp","/Users/sarahdrage","no","Andale Mono","no","18","no","white","no","yes","576","legacy","23","23","3","/Users/sarahdrage/subject-5211978.csv","legacy","Lentiform Loewenfeld","3.3.7","yes","yes","600bd7cfb6416f0113b04181","602110864497cf011d9c0822","0","j","NA","space","space","space","NA","j","789","NA","2549","12753","4190","NA","789","2","legacy","1024","2","48000","-16","task","5211978","even","NA","34473","39025","36476","80988","10598","27575","23380","81490","NA","80985","81490","80923","39025","82280","32853","80422","10521","72038","Lexical Decision Task","27","19540","28","yes","1024"
"3.197740804","6.74","3","ache","word","96.55172413793103","96.55172413793103","700.3103448275862","700.3103448275862","black","no","legacy","legacy","legacy","0","uniform","1","undefined","undefined","undefined","1","j","0","0","0","0","28","0","0","0","28","NA","24","28","24","0","24","3","28","0","28","Thu Feb 18 11:26:15 2021","The main experiment item","yes","Lexical_Decision_Task.osexp","/Users/sarahdrage","no","Andale Mono","no","18","no","white","no","yes","576","legacy","24","24","3","/Users/sarahdrage/subject-5211978.csv","legacy","Lentiform Loewenfeld","3.3.7","yes","yes","600bd7cfb6416f0113b04181","602110864497cf011d9c0822","0","j","NA","space","space","space","NA","j","769","NA","2549","12753","4190","NA","769","2","legacy","1024","2","48000","-16","task","5211978","even","NA","34473","39025","36476","82849","10598","27575","23380","83352","NA","82846","83352","82785","39025","84122","32853","82285","10521","72038","Lexical Decision Task","28","20309","29","yes","1024"
"3.003891166","8.05","2","frog","word","96.66666666666667","96.66666666666667","698.3333333333334","698.3333333333334","black","no","legacy","legacy","legacy","0","uniform","1","undefined","undefined","undefined","1","j","0","0","0","0","29","0","0","0","29","NA","25","29","25","0","25","3","29","0","29","Thu Feb 18 11:26:15 2021","The main experiment item","yes","Lexical_Decision_Task.osexp","/Users/sarahdrage","no","Andale Mono","no","18","no","white","no","yes","576","legacy","25","25","3","/Users/sarahdrage/subject-5211978.csv","legacy","Lentiform Loewenfeld","3.3.7","yes","yes","600bd7cfb6416f0113b04181","602110864497cf011d9c0822","0","j","NA","space","space","space","NA","j","641","NA","2549","12753","4190","NA","641","2","legacy","1024","2","48000","-16","task","5211978","even","NA","34473","39025","36476","84691","10598","27575","23380","85193","NA","84689","85193","84627","39025","85835","32853","84127","10521","72038","Lexical Decision Task","29","20950","30","yes","1024"
"2.793790385","5.67","9","swab","word","96.7741935483871","96.7741935483871","692.5483870967741","692.5483870967741","black","no","legacy","legacy","legacy","0","uniform","1","undefined","undefined","undefined","1","j","0","0","0","0","30","0","0","0","30","NA","26","30","26","0","26","3","30","0","30","Thu Feb 18 11:26:15 2021","The main experiment item","yes","Lexical_Decision_Task.osexp","/Users/sarahdrage","no","Andale Mono","no","18","no","white","no","yes","576","legacy","26","26","3","/Users/sarahdrage/subject-5211978.csv","legacy","Lentiform Loewenfeld","3.3.7","yes","yes","600bd7cfb6416f0113b04181","602110864497cf011d9c0822","0","j","NA","space","space","space","NA","j","519","NA","2549","12753","4190","NA","519","2","legacy","1024","2","48000","-16","task","5211978","even","NA","34473","39025","36476","86404","10598","27575","23380","86907","NA","86401","86907","86339","39025","87426","32853","85839","10521","72038","Lexical Decision Task","30","21469","31","yes","1024"
"2.75025376","10.2","6","jump","word","96.875","96.875","685.75","685.75","black","no","legacy","legacy","legacy","0","uniform","1","undefined","undefined","undefined","1","j","0","0","0","0","31","0","0","0","31","NA","27","31","27","0","27","3","31","0","31","Thu Feb 18 11:26:15 2021","The main experiment item","yes","Lexical_Decision_Task.osexp","/Users/sarahdrage","no","Andale Mono","no","18","no","white","no","yes","576","legacy","27","27","3","/Users/sarahdrage/subject-5211978.csv","legacy","Lentiform Loewenfeld","3.3.7","yes","yes","600bd7cfb6416f0113b04181","602110864497cf011d9c0822","0","j","NA","space","space","space","NA","j","475","NA","2549","12753","4190","NA","475","2","legacy","1024","2","48000","-16","task","5211978","even","NA","34473","39025","36476","87998","10598","27575","23380","88500","NA","87995","88500","87931","39025","88976","32853","87431","10521","72038","Lexical Decision Task","31","21944","32","yes","1024"
"2.728085817","10.02","9","bike","word","96.96969696969697","96.96969696969697","688.9090909090909","688.9090909090909","black","no","legacy","legacy","legacy","0","uniform","1","undefined","undefined","undefined","1","j","0","0","0","0","32","0","0","0","32","NA","28","32","28","0","28","3","32","0","32","Thu Feb 18 11:26:15 2021","The main experiment item","yes","Lexical_Decision_Task.osexp","/Users/sarahdrage","no","Andale Mono","no","18","no","white","no","yes","576","legacy","28","28","3","/Users/sarahdrage/subject-5211978.csv","legacy","Lentiform Loewenfeld","3.3.7","yes","yes","600bd7cfb6416f0113b04181","602110864497cf011d9c0822","0","j","NA","space","space","space","NA","j","790","NA","2549","12753","4190","NA","790","2","legacy","1024","2","48000","-16","task","5211978","even","NA","34473","39025","36476","89550","10598","27575","23380","90053","NA","89547","90053","89486","39025","90844","32853","88986","10521","72038","Lexical Decision Task","32","22734","33","yes","1024"
"3.531734309","0","6","lerd","non-word","97.05882352941177","97.05882352941177","686.9705882352941","686.9705882352941","black","no","legacy","legacy","legacy","0","uniform","1","undefined","undefined","undefined","1","f","0","0","0","0","33","0","0","0","33","NA","29","33","29","0","29","3","33","0","33","Thu Feb 18 11:26:15 2021","The main experiment item","yes","Lexical_Decision_Task.osexp","/Users/sarahdrage","no","Andale Mono","no","18","no","white","no","yes","576","legacy","29","29","3","/Users/sarahdrage/subject-5211978.csv","legacy","Lentiform Loewenfeld","3.3.7","yes","yes","600bd7cfb6416f0113b04181","602110864497cf011d9c0822","0","f","NA","space","space","space","NA","f","623","NA","2549","12753","4190","NA","623","2","legacy","1024","2","48000","-16","task","5211978","even","NA","34473","39025","36476","91413","10598","27575","23380","91917","NA","91411","91917","91348","39025","92541","32853","90848","10521","72038","Lexical Decision Task","33","23357","34","yes","1024"
"2.920123326","7.43","4","duel","word","97.14285714285714","97.14285714285714","684.9142857142857","684.9142857142857","black","no","legacy","legacy","legacy","0","uniform","1","undefined","undefined","undefined","1","j","0","0","0","0","34","0","0","0","34","NA","30","34","30","0","30","3","34","0","34","Thu Feb 18 11:26:15 2021","The main experiment item","yes","Lexical_Decision_Task.osexp","/Users/sarahdrage","no","Andale Mono","no","18","no","white","no","yes","576","legacy","30","30","3","/Users/sarahdrage/subject-5211978.csv","legacy","Lentiform Loewenfeld","3.3.7","yes","yes","600bd7cfb6416f0113b04181","602110864497cf011d9c0822","0","j","NA","space","space","space","NA","j","615","NA","2549","12753","4190","NA","615","2","legacy","1024","2","48000","-16","task","5211978","even","NA","34473","39025","36476","93111","10598","27575","23380","93614","NA","93108","93615","93045","39025","94231","32853","92545","10521","72038","Lexical Decision Task","34","23972","35","yes","1024"
"3.208172527","10.27","7","deck","word","97.22222222222223","97.22222222222223","682.75","682.75","black","no","legacy","legacy","legacy","0","uniform","1","undefined","undefined","undefined","1","j","0","0","0","0","35","0","0","0","35","NA","31","35","31","0","31","3","35","0","35","Thu Feb 18 11:26:15 2021","The main experiment item","yes","Lexical_Decision_Task.osexp","/Users/sarahdrage","no","Andale Mono","no","18","no","white","no","yes","576","legacy","31","31","3","/Users/sarahdrage/subject-5211978.csv","legacy","Lentiform Loewenfeld","3.3.7","yes","yes","600bd7cfb6416f0113b04181","602110864497cf011d9c0822","0","j","NA","space","space","space","NA","j","607","NA","2549","12753","4190","NA","607","2","legacy","1024","2","48000","-16","task","5211978","even","NA","34473","39025","36476","94800","10598","27575","23380","95304","NA","94798","95304","94735","39025","95912","32853","94235","10521","72038","Lexical Decision Task","35","24579","36","yes","1024"
"2.899638141","0","3","hapt","non-word","97.29729729729729","97.29729729729729","679.972972972973","679.972972972973","black","no","legacy","legacy","legacy","0","uniform","1","undefined","undefined","undefined","1","f","0","0","0","0","36","0","0","0","36","NA","32","36","32","0","32","3","36","0","36","Thu Feb 18 11:26:15 2021","The main experiment item","yes","Lexical_Decision_Task.osexp","/Users/sarahdrage","no","Andale Mono","no","18","no","white","no","yes","576","legacy","32","32","3","/Users/sarahdrage/subject-5211978.csv","legacy","Lentiform Loewenfeld","3.3.7","yes","yes","600bd7cfb6416f0113b04181","602110864497cf011d9c0822","0","f","NA","space","space","space","NA","f","580","NA","2549","12753","4190","NA","580","2","legacy","1024","2","48000","-16","task","5211978","even","NA","34473","39025","36476","96478","10598","27575","23380","96981","NA","96475","96981","96415","39025","97562","32853","95915","10521","72038","Lexical Decision Task","36","25159","37","yes","1024"
"3.20996159","0","4","clee","non-word","97.36842105263158","97.36842105263158","678.6842105263158","678.6842105263158","black","no","legacy","legacy","legacy","0","uniform","1","undefined","undefined","undefined","1","f","0","0","0","0","37","0","0","0","37","NA","33","37","33","0","33","3","37","0","37","Thu Feb 18 11:26:15 2021","The main experiment item","yes","Lexical_Decision_Task.osexp","/Users/sarahdrage","no","Andale Mono","no","18","no","white","no","yes","576","legacy","33","33","3","/Users/sarahdrage/subject-5211978.csv","legacy","Lentiform Loewenfeld","3.3.7","yes","yes","600bd7cfb6416f0113b04181","602110864497cf011d9c0822","0","f","NA","space","space","space","NA","f","631","NA","2549","12753","4190","NA","631","2","legacy","1024","2","48000","-16","task","5211978","even","NA","34473","39025","36476","98132","10598","27575","23380","98635","NA","98129","98635","98067","39025","99267","32853","97567","10521","72038","Lexical Decision Task","37","25790","38","yes","1024"
"3.208978517","10.33","4","fish","word","97.43589743589743","97.43589743589743","677.4615384615385","677.4615384615385","black","no","legacy","legacy","legacy","0","uniform","1","undefined","undefined","undefined","1","j","0","0","0","0","38","0","0","0","38","NA","34","38","34","0","34","3","38","0","38","Thu Feb 18 11:26:15 2021","The main experiment item","yes","Lexical_Decision_Task.osexp","/Users/sarahdrage","no","Andale Mono","no","18","no","white","no","yes","576","legacy","34","34","3","/Users/sarahdrage/subject-5211978.csv","legacy","Lentiform Loewenfeld","3.3.7","yes","yes","600bd7cfb6416f0113b04181","602110864497cf011d9c0822","0","j","NA","space","space","space","NA","j","631","NA","2549","12753","4190","NA","631","2","legacy","1024","2","48000","-16","task","5211978","even","NA","34473","39025","36476","99839","10598","27575","23380","100343","NA","99836","100343","99772","39025","100975","32853","99272","10521","72038","Lexical Decision Task","38","26421","39","yes","1024"
"3.374137706","10.21","4","tree","word","97.5","97.5","678.45","678.45","black","no","legacy","legacy","legacy","0","uniform","1","undefined","undefined","undefined","1","j","0","0","0","0","39","0","0","0","39","NA","35","39","35","0","35","3","39","0","39","Thu Feb 18 11:26:15 2021","The main experiment item","yes","Lexical_Decision_Task.osexp","/Users/sarahdrage","no","Andale Mono","no","18","no","white","no","yes","576","legacy","35","35","3","/Users/sarahdrage/subject-5211978.csv","legacy","Lentiform Loewenfeld","3.3.7","yes","yes","600bd7cfb6416f0113b04181","602110864497cf011d9c0822","0","j","NA","space","space","space","NA","j","717","NA","2549","12753","4190","NA","717","2","legacy","1024","2","48000","-16","task","5211978","even","NA","34473","39025","36476","101543","10598","27575","23380","102046","NA","101540","102046","101480","39025","102764","32853","100980","10521","72038","Lexical Decision Task","39","27138","40","yes","1024"
"2.767650507","0","6","yolt","non-word","97.5609756097561","97.5609756097561","675.9512195121952","675.9512195121952","black","no","legacy","legacy","legacy","0","uniform","1","undefined","undefined","undefined","1","f","0","0","0","0","40","0","0","0","40","NA","36","40","36","0","36","3","40","0","40","Thu Feb 18 11:26:15 2021","The main experiment item","yes","Lexical_Decision_Task.osexp","/Users/sarahdrage","no","Andale Mono","no","18","no","white","no","yes","576","legacy","36","36","3","/Users/sarahdrage/subject-5211978.csv","legacy","Lentiform Loewenfeld","3.3.7","yes","yes","600bd7cfb6416f0113b04181","602110864497cf011d9c0822","0","f","NA","space","space","space","NA","f","576","NA","2549","12753","4190","NA","576","2","legacy","1024","2","48000","-16","task","5211978","even","NA","34473","39025","36476","103333","10598","27575","23380","103835","NA","103331","103835","103269","39025","104412","32853","102769","10521","72038","Lexical Decision Task","40","27714","41","yes","1024"
"3.134602053","0","8","jart","non-word","97.61904761904762","97.61904761904762","675.547619047619","675.547619047619","black","no","legacy","legacy","legacy","0","uniform","1","undefined","undefined","undefined","1","f","0","0","0","0","41","0","0","0","41","NA","37","41","37","0","37","3","41","0","41","Thu Feb 18 11:26:15 2021","The main experiment item","yes","Lexical_Decision_Task.osexp","/Users/sarahdrage","no","Andale Mono","no","18","no","white","no","yes","576","legacy","37","37","3","/Users/sarahdrage/subject-5211978.csv","legacy","Lentiform Loewenfeld","3.3.7","yes","yes","600bd7cfb6416f0113b04181","602110864497cf011d9c0822","0","f","NA","space","space","space","NA","f","659","NA","2549","12753","4190","NA","659","2","legacy","1024","2","48000","-16","task","5211978","even","NA","34473","39025","36476","104977","10598","27575","23380","105480","NA","104975","105480","104916","39025","106140","32853","104416","10521","72038","Lexical Decision Task","41","28373","42","yes","1024"
"3.194328374","9.42","6","harm","word","97.67441860465117","97.67441860465117","672.7906976744187","672.7906976744187","black","no","legacy","legacy","legacy","0","uniform","1","undefined","undefined","undefined","1","j","0","0","0","0","42","0","0","0","42","NA","38","42","38","0","38","3","42","0","42","Thu Feb 18 11:26:15 2021","The main experiment item","yes","Lexical_Decision_Task.osexp","/Users/sarahdrage","no","Andale Mono","no","18","no","white","no","yes","576","legacy","38","38","3","/Users/sarahdrage/subject-5211978.csv","legacy","Lentiform Loewenfeld","3.3.7","yes","yes","600bd7cfb6416f0113b04181","602110864497cf011d9c0822","0","j","NA","space","space","space","NA","j","557","NA","2549","12753","4190","NA","557","2","legacy","1024","2","48000","-16","task","5211978","even","NA","34473","39025","36476","106707","10598","27575","23380","107210","NA","106704","107210","106644","39025","107768","32853","106144","10521","72038","Lexical Decision Task","42","28930","43","yes","1024"
"2.82129731","6.72","5","plum","word","97.72727272727273","97.72727272727273","671.6136363636364","671.6136363636364","black","no","legacy","legacy","legacy","0","uniform","1","undefined","undefined","undefined","1","j","0","0","0","0","43","0","0","0","43","NA","39","43","39","0","39","3","43","0","43","Thu Feb 18 11:26:15 2021","The main experiment item","yes","Lexical_Decision_Task.osexp","/Users/sarahdrage","no","Andale Mono","no","18","no","white","no","yes","576","legacy","39","39","3","/Users/sarahdrage/subject-5211978.csv","legacy","Lentiform Loewenfeld","3.3.7","yes","yes","600bd7cfb6416f0113b04181","602110864497cf011d9c0822","0","j","NA","space","space","space","NA","j","621","NA","2549","12753","4190","NA","621","2","legacy","1024","2","48000","-16","task","5211978","even","NA","34473","39025","36476","108334","10598","27575","23380","108836","NA","108331","108836","108272","39025","109457","32853","107772","10521","72038","Lexical Decision Task","43","29551","44","yes","1024"
"3.137775856","7.39","5","comb","word","97.77777777777777","97.77777777777777","670.6666666666666","670.6666666666666","black","no","legacy","legacy","legacy","0","uniform","1","undefined","undefined","undefined","1","j","0","0","0","0","44","0","0","0","44","NA","40","44","40","0","40","3","44","0","44","Thu Feb 18 11:26:15 2021","The main experiment item","yes","Lexical_Decision_Task.osexp","/Users/sarahdrage","no","Andale Mono","no","18","no","white","no","yes","576","legacy","40","40","3","/Users/sarahdrage/subject-5211978.csv","legacy","Lentiform Loewenfeld","3.3.7","yes","yes","600bd7cfb6416f0113b04181","602110864497cf011d9c0822","0","j","NA","space","space","space","NA","j","629","NA","2549","12753","4190","NA","629","2","legacy","1024","2","48000","-16","task","5211978","even","NA","34473","39025","36476","110025","10598","27575","23380","110529","NA","110023","110529","109961","39025","111159","32853","109461","10521","72038","Lexical Decision Task","44","30180","45","yes","1024"
"2.895974732","6.65","5","sift","word","97.82608695652173","97.82608695652173","671.4130434782609","671.4130434782609","black","no","legacy","legacy","legacy","0","uniform","1","undefined","undefined","undefined","1","j","0","0","0","0","45","0","0","0","45","NA","41","45","41","0","41","3","45","0","45","Thu Feb 18 11:26:15 2021","The main experiment item","yes","Lexical_Decision_Task.osexp","/Users/sarahdrage","no","Andale Mono","no","18","no","white","no","yes","576","legacy","41","41","3","/Users/sarahdrage/subject-5211978.csv","legacy","Lentiform Loewenfeld","3.3.7","yes","yes","600bd7cfb6416f0113b04181","602110864497cf011d9c0822","0","j","NA","space","space","space","NA","j","705","NA","2549","12753","4190","NA","705","2","legacy","1024","2","48000","-16","task","5211978","even","NA","34473","39025","36476","111727","10598","27575","23380","112230","NA","111725","112230","111664","39025","112936","32853","111164","10521","72038","Lexical Decision Task","45","30885","46","yes","1024"
"3.100255637","0","6","brax","non-word","97.87234042553192","97.87234042553192","670.7659574468086","670.7659574468086","black","no","legacy","legacy","legacy","0","uniform","1","undefined","undefined","undefined","1","f","0","0","0","0","46","0","0","0","46","NA","42","46","42","0","42","3","46","0","46","Thu Feb 18 11:26:15 2021","The main experiment item","yes","Lexical_Decision_Task.osexp","/Users/sarahdrage","no","Andale Mono","no","18","no","white","no","yes","576","legacy","42","42","3","/Users/sarahdrage/subject-5211978.csv","legacy","Lentiform Loewenfeld","3.3.7","yes","yes","600bd7cfb6416f0113b04181","602110864497cf011d9c0822","0","f","NA","space","space","space","NA","f","641","NA","2549","12753","4190","NA","641","2","legacy","1024","2","48000","-16","task","5211978","even","NA","34473","39025","36476","113505","10598","27575","23380","114008","NA","113502","114008","113440","39025","114650","32853","112940","10521","72038","Lexical Decision Task","46","31526","47","yes","1024"
"2.69019608","9.01","2","myth","word","97.91666666666667","97.91666666666667","666.4166666666666","666.4166666666666","black","no","legacy","legacy","legacy","0","uniform","1","undefined","undefined","undefined","1","j","0","0","0","0","47","0","0","0","47","NA","43","47","43","0","43","3","47","0","47","Thu Feb 18 11:26:15 2021","The main experiment item","yes","Lexical_Decision_Task.osexp","/Users/sarahdrage","no","Andale Mono","no","18","no","white","no","yes","576","legacy","43","43","3","/Users/sarahdrage/subject-5211978.csv","legacy","Lentiform Loewenfeld","3.3.7","yes","yes","600bd7cfb6416f0113b04181","602110864497cf011d9c0822","0","j","NA","space","space","space","NA","j","462","NA","2549","12753","4190","NA","462","2","legacy","1024","2","48000","-16","task","5211978","even","NA","34473","39025","36476","115216","10598","27575","23380","115719","NA","115213","115719","115154","39025","116182","32853","114653","10521","72038","Lexical Decision Task","47","31988","48","yes","1024"
"2.64476673","0","5","moft","non-word","97.95918367346938","97.95918367346938","666.6122448979592","666.6122448979592","black","no","legacy","legacy","legacy","0","uniform","1","undefined","undefined","undefined","1","f","0","0","0","0","48","0","0","0","48","NA","44","48","44","0","44","3","48","0","48","Thu Feb 18 11:26:15 2021","The main experiment item","yes","Lexical_Decision_Task.osexp","/Users/sarahdrage","no","Andale Mono","no","18","no","white","no","yes","576","legacy","44","44","3","/Users/sarahdrage/subject-5211978.csv","legacy","Lentiform Loewenfeld","3.3.7","yes","yes","600bd7cfb6416f0113b04181","602110864497cf011d9c0822","0","f","NA","space","space","space","NA","f","676","NA","2549","12753","4190","NA","676","2","legacy","1024","2","48000","-16","task","5211978","even","NA","34473","39025","36476","116747","10598","27575","23380","117250","NA","116745","117251","116686","39025","117928","32853","116186","10521","72038","Lexical Decision Task","48","32664","49","yes","1024"
"3.082307743","9.68","8","camp","word","98","98","668.72","668.72","black","no","legacy","legacy","legacy","0","uniform","1","undefined","undefined","undefined","1","j","0","0","0","0","49","0","0","0","49","NA","45","49","45","0","45","3","49","0","49","Thu Feb 18 11:26:15 2021","The main experiment item","yes","Lexical_Decision_Task.osexp","/Users/sarahdrage","no","Andale Mono","no","18","no","white","no","yes","576","legacy","45","45","3","/Users/sarahdrage/subject-5211978.csv","legacy","Lentiform Loewenfeld","3.3.7","yes","yes","600bd7cfb6416f0113b04181","602110864497cf011d9c0822","0","j","NA","space","space","space","NA","j","772","NA","2549","12753","4190","NA","772","2","legacy","1024","2","48000","-16","task","5211978","even","NA","34473","39025","36476","118495","10598","27575","23380","118998","NA","118493","118998","118432","39025","119771","32853","117932","10521","72038","Lexical Decision Task","49","33436","50","yes","1024"
"2.695481676","0","7","goke","non-word","98.03921568627452","98.03921568627452","671.9215686274509","671.9215686274509","black","no","legacy","legacy","legacy","0","uniform","1","undefined","undefined","undefined","1","f","0","0","0","0","50","0","0","0","50","NA","46","50","46","0","46","3","50","0","50","Thu Feb 18 11:26:15 2021","The main experiment item","yes","Lexical_Decision_Task.osexp","/Users/sarahdrage","no","Andale Mono","no","18","no","white","no","yes","576","legacy","46","46","3","/Users/sarahdrage/subject-5211978.csv","legacy","Lentiform Loewenfeld","3.3.7","yes","yes","600bd7cfb6416f0113b04181","602110864497cf011d9c0822","0","f","NA","space","space","space","NA","f","832","NA","2549","12753","4190","NA","832","2","legacy","1024","2","48000","-16","task","5211978","even","NA","34473","39025","36476","120336","10598","27575","23380","120838","NA","120333","120839","120275","39025","121672","32853","119775","10521","72038","Lexical Decision Task","50","34268","51","yes","1024"
"2.698100546","0","9","mulk","non-word","98.07692307692308","98.07692307692308","669.3653846153846","669.3653846153846","black","no","legacy","legacy","legacy","0","uniform","1","undefined","undefined","undefined","1","f","0","0","0","0","51","0","0","0","51","NA","47","51","47","0","47","3","51","0","51","Thu Feb 18 11:26:15 2021","The main experiment item","yes","Lexical_Decision_Task.osexp","/Users/sarahdrage","no","Andale Mono","no","18","no","white","no","yes","576","legacy","47","47","3","/Users/sarahdrage/subject-5211978.csv","legacy","Lentiform Loewenfeld","3.3.7","yes","yes","600bd7cfb6416f0113b04181","602110864497cf011d9c0822","0","f","NA","space","space","space","NA","f","539","NA","2549","12753","4190","NA","539","2","legacy","1024","2","48000","-16","task","5211978","even","NA","34473","39025","36476","122240","10598","27575","23380","122742","NA","122237","122743","122177","39025","123284","32853","121677","10521","72038","Lexical Decision Task","51","34807","52","yes","1024"
"3.495914186","0","4","peng","non-word","98.11320754716981","98.11320754716981","680.3207547169811","680.3207547169811","black","no","legacy","legacy","legacy","0","uniform","1","undefined","undefined","undefined","1","f","0","0","0","0","52","0","0","0","52","NA","48","52","48","0","48","3","52","0","52","Thu Feb 18 11:26:15 2021","The main experiment item","yes","Lexical_Decision_Task.osexp","/Users/sarahdrage","no","Andale Mono","no","18","no","white","no","yes","576","legacy","48","48","3","/Users/sarahdrage/subject-5211978.csv","legacy","Lentiform Loewenfeld","3.3.7","yes","yes","600bd7cfb6416f0113b04181","602110864497cf011d9c0822","0","f","NA","space","space","space","NA","f","1250","NA","2549","12753","4190","NA","1250","2","legacy","1024","2","48000","-16","task","5211978","even","NA","34473","39025","36476","123852","10598","27575","23380","124355","NA","123849","124355","123788","39025","125606","32853","123288","10521","72038","Lexical Decision Task","52","36057","53","yes","1024"
"3.259832699","0","9","flar","non-word","98.14814814814815","98.14814814814815","680.3518518518518","680.3518518518518","black","no","legacy","legacy","legacy","0","uniform","1","undefined","undefined","undefined","1","f","0","0","0","0","53","0","0","0","53","NA","49","53","49","0","49","3","53","0","53","Thu Feb 18 11:26:15 2021","The main experiment item","yes","Lexical_Decision_Task.osexp","/Users/sarahdrage","no","Andale Mono","no","18","no","white","no","yes","576","legacy","49","49","3","/Users/sarahdrage/subject-5211978.csv","legacy","Lentiform Loewenfeld","3.3.7","yes","yes","600bd7cfb6416f0113b04181","602110864497cf011d9c0822","0","f","NA","space","space","space","NA","f","682","NA","2549","12753","4190","NA","682","2","legacy","1024","2","48000","-16","task","5211978","even","NA","34473","39025","36476","126172","10598","27575","23380","126675","NA","126169","126676","126110","39025","127359","32853","125610","10521","72038","Lexical Decision Task","53","36739","54","yes","1024"
"2.807758206","6.25","4","hurl","word","98.18181818181819","98.18181818181819","678.5090909090909","678.5090909090909","black","no","legacy","legacy","legacy","0","uniform","1","undefined","undefined","undefined","1","j","0","0","0","0","54","0","0","0","54","0","50","54","50","0","50","3","54","0","54","Thu Feb 18 11:26:15 2021","The main experiment item","yes","Lexical_Decision_Task.osexp","/Users/sarahdrage","no","Andale Mono","no","18","no","white","no","yes","576","legacy","50","50","3","/Users/sarahdrage/subject-5211978.csv","legacy","Lentiform Loewenfeld","3.3.7","yes","yes","600bd7cfb6416f0113b04181","602110864497cf011d9c0822","0","j","NA","space","space","space","space","j","579","NA","2549","12753","4190","20855","579","2","legacy","1024","2","48000","-16","task","5211978","even","NA","34473","39025","36476","148813","10598","27575","23380","149316","127896","148810","149316","127864","39025","149896","32853","127364","10521","72038","Lexical Decision Task","54","37318","55","yes","1024"
"2.868644438","10.52","4","town","word","98.21428571428571","98.21428571428571","674.8571428571429","674.8571428571429","black","no","legacy","legacy","legacy","0","uniform","1","undefined","undefined","undefined","1","j","0","0","0","0","55","0","0","0","55","0","51","55","51","0","51","3","55","0","55","Thu Feb 18 11:26:15 2021","The main experiment item","yes","Lexical_Decision_Task.osexp","/Users/sarahdrage","no","Andale Mono","no","18","no","white","no","yes","576","legacy","51","51","3","/Users/sarahdrage/subject-5211978.csv","legacy","Lentiform Loewenfeld","3.3.7","yes","yes","600bd7cfb6416f0113b04181","602110864497cf011d9c0822","0","j","NA","space","space","space","space","j","474","NA","2549","12753","4190","20855","474","2","legacy","1024","2","48000","-16","task","5211978","even","NA","34473","39025","36476","150463","10598","27575","23380","150966","127896","150460","150966","150402","39025","151441","32853","149902","10521","72038","Lexical Decision Task","55","37792","56","yes","1024"
"3.090140555","5.81","8","pout","word","98.24561403508773","98.24561403508773","673.5263157894736","673.5263157894736","black","no","legacy","legacy","legacy","0","uniform","1","undefined","undefined","undefined","1","j","0","0","0","0","56","0","0","0","56","0","52","56","52","0","52","3","56","0","56","Thu Feb 18 11:26:15 2021","The main experiment item","yes","Lexical_Decision_Task.osexp","/Users/sarahdrage","no","Andale Mono","no","18","no","white","no","yes","576","legacy","52","52","3","/Users/sarahdrage/subject-5211978.csv","legacy","Lentiform Loewenfeld","3.3.7","yes","yes","600bd7cfb6416f0113b04181","602110864497cf011d9c0822","0","j","NA","space","space","space","space","j","599","NA","2549","12753","4190","20855","599","2","legacy","1024","2","48000","-16","task","5211978","even","NA","34473","39025","36476","152008","10598","27575","23380","152512","127896","152006","152512","151945","39025","153112","32853","151445","10521","72038","Lexical Decision Task","56","38391","57","yes","1024"
"2.778633532","0","3","jurp","non-word","98.27586206896552","98.27586206896552","673.5689655172414","673.5689655172414","black","no","legacy","legacy","legacy","0","uniform","1","undefined","undefined","undefined","1","f","0","0","0","0","57","0","0","0","57","0","53","57","53","0","53","3","57","0","57","Thu Feb 18 11:26:15 2021","The main experiment item","yes","Lexical_Decision_Task.osexp","/Users/sarahdrage","no","Andale Mono","no","18","no","white","no","yes","576","legacy","53","53","3","/Users/sarahdrage/subject-5211978.csv","legacy","Lentiform Loewenfeld","3.3.7","yes","yes","600bd7cfb6416f0113b04181","602110864497cf011d9c0822","0","f","NA","space","space","space","space","f","676","NA","2549","12753","4190","20855","676","2","legacy","1024","2","48000","-16","task","5211978","even","NA","34473","39025","36476","153677","10598","27575","23380","154180","127896","153674","154181","153616","39025","154858","32853","153116","10521","72038","Lexical Decision Task","57","39067","58","yes","1024"
"3.031812271","6.52","3","gulp","word","98.30508474576271","98.30508474576271","674.7118644067797","674.7118644067797","black","no","legacy","legacy","legacy","0","uniform","1","undefined","undefined","undefined","1","j","0","0","0","0","58","0","0","0","58","0","54","58","54","0","54","3","58","0","58","Thu Feb 18 11:26:15 2021","The main experiment item","yes","Lexical_Decision_Task.osexp","/Users/sarahdrage","no","Andale Mono","no","18","no","white","no","yes","576","legacy","54","54","3","/Users/sarahdrage/subject-5211978.csv","legacy","Lentiform Loewenfeld","3.3.7","yes","yes","600bd7cfb6416f0113b04181","602110864497cf011d9c0822","0","j","NA","space","space","space","space","j","741","NA","2549","12753","4190","20855","741","2","legacy","1024","2","48000","-16","task","5211978","even","NA","34473","39025","36476","155427","10598","27575","23380","155930","127896","155425","155930","155363","39025","156672","32853","154863","10521","72038","Lexical Decision Task","58","39808","59","yes","1024"
"3.043885998","0","9","gome","non-word","98.33333333333333","98.33333333333333","676.2333333333333","676.2333333333333","black","no","legacy","legacy","legacy","0","uniform","1","undefined","undefined","undefined","1","f","0","0","0","0","59","0","0","0","59","0","55","59","55","0","55","3","59","0","59","Thu Feb 18 11:26:15 2021","The main experiment item","yes","Lexical_Decision_Task.osexp","/Users/sarahdrage","no","Andale Mono","no","18","no","white","no","yes","576","legacy","55","55","3","/Users/sarahdrage/subject-5211978.csv","legacy","Lentiform Loewenfeld","3.3.7","yes","yes","600bd7cfb6416f0113b04181","602110864497cf011d9c0822","0","f","NA","space","space","space","space","f","766","NA","2549","12753","4190","20855","766","2","legacy","1024","2","48000","-16","task","5211978","even","NA","34473","39025","36476","157239","10598","27575","23380","157742","127896","157236","157742","157176","39025","158509","32853","156675","10521","72038","Lexical Decision Task","59","40574","60","yes","1024"
"2.709837904","6.85","8","skim","word","98.36065573770492","98.36065573770492","676.8032786885246","676.8032786885246","black","no","legacy","legacy","legacy","0","uniform","1","undefined","undefined","undefined","1","j","0","0","0","0","60","0","0","0","60","0","56","60","56","0","56","3","60","0","60","Thu Feb 18 11:26:15 2021","The main experiment item","yes","Lexical_Decision_Task.osexp","/Users/sarahdrage","no","Andale Mono","no","18","no","white","no","yes","576","legacy","56","56","3","/Users/sarahdrage/subject-5211978.csv","legacy","Lentiform Loewenfeld","3.3.7","yes","yes","600bd7cfb6416f0113b04181","602110864497cf011d9c0822","0","j","NA","space","space","space","space","j","711","NA","2549","12753","4190","20855","711","2","legacy","1024","2","48000","-16","task","5211978","even","NA","34473","39025","36476","159073","10598","27575","23380","159577","127896","159069","159577","159012","39025","160289","32853","158512","10521","72038","Lexical Decision Task","60","41285","61","yes","1024"
"3.299579929","0","2","flis","non-word","98.38709677419355","98.38709677419355","675.5322580645161","675.5322580645161","black","no","legacy","legacy","legacy","0","uniform","1","undefined","undefined","undefined","1","f","0","0","0","0","61","0","0","0","61","0","57","61","57","0","57","3","61","0","61","Thu Feb 18 11:26:15 2021","The main experiment item","yes","Lexical_Decision_Task.osexp","/Users/sarahdrage","no","Andale Mono","no","18","no","white","no","yes","576","legacy","57","57","3","/Users/sarahdrage/subject-5211978.csv","legacy","Lentiform Loewenfeld","3.3.7","yes","yes","600bd7cfb6416f0113b04181","602110864497cf011d9c0822","0","f","NA","space","space","space","space","f","598","NA","2549","12753","4190","20855","598","2","legacy","1024","2","48000","-16","task","5211978","even","NA","34473","39025","36476","160852","10598","27575","23380","161356","127896","160850","161356","160793","39025","161955","32853","160293","10521","72038","Lexical Decision Task","61","41883","62","yes","1024"
"2.746890964","9.67","3","plug","word","98.41269841269842","98.41269841269842","672.8571428571429","672.8571428571429","black","no","legacy","legacy","legacy","0","uniform","1","undefined","undefined","undefined","1","j","0","0","0","0","62","0","0","0","62","0","58","62","58","0","58","3","62","0","62","Thu Feb 18 11:26:15 2021","The main experiment item","yes","Lexical_Decision_Task.osexp","/Users/sarahdrage","no","Andale Mono","no","18","no","white","no","yes","576","legacy","58","58","3","/Users/sarahdrage/subject-5211978.csv","legacy","Lentiform Loewenfeld","3.3.7","yes","yes","600bd7cfb6416f0113b04181","602110864497cf011d9c0822","0","j","NA","space","space","space","space","j","507","NA","2549","12753","4190","20855","507","2","legacy","1024","2","48000","-16","task","5211978","even","NA","34473","39025","36476","162523","10598","27575","23380","163025","127896","162520","163025","162458","39025","163533","32853","161958","10521","72038","Lexical Decision Task","62","42390","63","yes","1024"
"3.209246849","0","7","slem","non-word","98.4375","98.4375","672.109375","672.109375","black","no","legacy","legacy","legacy","0","uniform","1","undefined","undefined","undefined","1","f","0","0","0","0","63","0","0","0","63","0","59","63","59","0","59","3","63","0","63","Thu Feb 18 11:26:15 2021","The main experiment item","yes","Lexical_Decision_Task.osexp","/Users/sarahdrage","no","Andale Mono","no","18","no","white","no","yes","576","legacy","59","59","3","/Users/sarahdrage/subject-5211978.csv","legacy","Lentiform Loewenfeld","3.3.7","yes","yes","600bd7cfb6416f0113b04181","602110864497cf011d9c0822","0","f","NA","space","space","space","space","f","625","NA","2549","12753","4190","20855","625","2","legacy","1024","2","48000","-16","task","5211978","even","NA","34473","39025","36476","164100","10598","27575","23380","164603","127896","164098","164604","164038","39025","165230","32853","163537","10521","72038","Lexical Decision Task","63","43015","64","yes","1024"
"3.431095062","5.74","9","perk","word","98.46153846153847","98.46153846153847","673.1846153846154","673.1846153846154","black","no","legacy","legacy","legacy","0","uniform","1","undefined","undefined","undefined","1","j","0","0","0","0","64","0","0","0","64","0","60","64","60","0","60","3","64","0","64","Thu Feb 18 11:26:15 2021","The main experiment item","yes","Lexical_Decision_Task.osexp","/Users/sarahdrage","no","Andale Mono","no","18","no","white","no","yes","576","legacy","60","60","3","/Users/sarahdrage/subject-5211978.csv","legacy","Lentiform Loewenfeld","3.3.7","yes","yes","600bd7cfb6416f0113b04181","602110864497cf011d9c0822","0","j","NA","space","space","space","space","j","742","NA","2549","12753","4190","20855","742","2","legacy","1024","2","48000","-16","task","5211978","even","NA","34473","39025","36476","165796","10598","27575","23380","166298","127896","165793","166298","165734","39025","167042","32853","165234","10521","72038","Lexical Decision Task","64","43757","65","yes","1024"
"2.990042563","6.64","9","plow","word","98.48484848484848","98.48484848484848","678.7424242424242","678.7424242424242","black","no","legacy","legacy","legacy","0","uniform","1","undefined","undefined","undefined","1","j","0","0","0","0","65","0","0","0","65","0","61","65","61","0","61","3","65","0","65","Thu Feb 18 11:26:15 2021","The main experiment item","yes","Lexical_Decision_Task.osexp","/Users/sarahdrage","no","Andale Mono","no","18","no","white","no","yes","576","legacy","61","61","3","/Users/sarahdrage/subject-5211978.csv","legacy","Lentiform Loewenfeld","3.3.7","yes","yes","600bd7cfb6416f0113b04181","602110864497cf011d9c0822","0","j","NA","space","space","space","space","j","1040","NA","2549","12753","4190","20855","1040","2","legacy","1024","2","48000","-16","task","5211978","even","NA","34473","39025","36476","167617","10598","27575","23380","168119","127896","167613","168120","167546","39025","169162","32853","167045","10521","72038","Lexical Decision Task","65","44797","66","yes","1024"
"3.488597715","0","9","nain","non-word","98.50746268656717","98.50746268656717","678.1343283582089","678.1343283582089","black","no","legacy","legacy","legacy","0","uniform","1","undefined","undefined","undefined","1","f","0","0","0","0","66","0","0","0","66","0","62","66","62","0","62","3","66","0","66","Thu Feb 18 11:26:15 2021","The main experiment item","yes","Lexical_Decision_Task.osexp","/Users/sarahdrage","no","Andale Mono","no","18","no","white","no","yes","576","legacy","62","62","3","/Users/sarahdrage/subject-5211978.csv","legacy","Lentiform Loewenfeld","3.3.7","yes","yes","600bd7cfb6416f0113b04181","602110864497cf011d9c0822","0","f","NA","space","space","space","space","f","638","NA","2549","12753","4190","20855","638","2","legacy","1024","2","48000","-16","task","5211978","even","NA","34473","39025","36476","169729","10598","27575","23380","170232","127896","169726","170232","169665","39025","170872","32853","169165","10521","72038","Lexical Decision Task","66","45435","67","yes","1024"
"2.698387659","6.66","7","skid","word","98.52941176470588","98.52941176470588","677.7205882352941","677.7205882352941","black","no","legacy","legacy","legacy","0","uniform","1","undefined","undefined","undefined","1","j","0","0","0","0","67","0","0","0","67","0","63","67","63","0","63","3","67","0","67","Thu Feb 18 11:26:15 2021","The main experiment item","yes","Lexical_Decision_Task.osexp","/Users/sarahdrage","no","Andale Mono","no","18","no","white","no","yes","576","legacy","63","63","3","/Users/sarahdrage/subject-5211978.csv","legacy","Lentiform Loewenfeld","3.3.7","yes","yes","600bd7cfb6416f0113b04181","602110864497cf011d9c0822","0","j","NA","space","space","space","space","j","650","NA","2549","12753","4190","20855","650","2","legacy","1024","2","48000","-16","task","5211978","even","NA","34473","39025","36476","171438","10598","27575","23380","171942","127896","171436","171942","171376","39025","172593","32853","170876","10521","72038","Lexical Decision Task","67","46085","68","yes","1024"
"2.839268497","0","8","maft","non-word","98.55072463768116","98.55072463768116","678.1449275362319","678.1449275362319","black","no","legacy","legacy","legacy","0","uniform","1","undefined","undefined","undefined","1","f","0","0","0","0","68","0","0","0","68","0","64","68","64","0","64","3","68","0","68","Thu Feb 18 11:26:15 2021","The main experiment item","yes","Lexical_Decision_Task.osexp","/Users/sarahdrage","no","Andale Mono","no","18","no","white","no","yes","576","legacy","64","64","3","/Users/sarahdrage/subject-5211978.csv","legacy","Lentiform Loewenfeld","3.3.7","yes","yes","600bd7cfb6416f0113b04181","602110864497cf011d9c0822","0","f","NA","space","space","space","space","f","707","NA","2549","12753","4190","20855","707","2","legacy","1024","2","48000","-16","task","5211978","even","NA","34473","39025","36476","173168","10598","27575","23380","173671","127896","173165","173671","173098","39025","174379","32853","172597","10521","72038","Lexical Decision Task","68","46792","69","yes","1024"
"3.261341392","5.08","8","reek","word","98.57142857142857","98.57142857142857","681.8857142857142","681.8857142857142","black","no","legacy","legacy","legacy","0","uniform","1","undefined","undefined","undefined","1","j","0","0","0","0","69","0","0","0","69","0","65","69","65","0","65","3","69","0","69","Thu Feb 18 11:26:15 2021","The main experiment item","yes","Lexical_Decision_Task.osexp","/Users/sarahdrage","no","Andale Mono","no","18","no","white","no","yes","576","legacy","65","65","3","/Users/sarahdrage/subject-5211978.csv","legacy","Lentiform Loewenfeld","3.3.7","yes","yes","600bd7cfb6416f0113b04181","602110864497cf011d9c0822","0","j","NA","space","space","space","space","j","940","NA","2549","12753","4190","20855","940","2","legacy","1024","2","48000","-16","task","5211978","even","NA","34473","39025","36476","174946","10598","27575","23380","175450","127896","174943","175450","174885","39025","176391","32853","174385","10521","72038","Lexical Decision Task","69","47732","70","yes","1024"
"3.068433376","8.09","2","bulb","word","98.59154929577464","98.59154929577464","679.6478873239437","679.6478873239437","black","no","legacy","legacy","legacy","0","uniform","1","undefined","undefined","undefined","1","j","0","0","0","0","70","0","0","0","70","0","66","70","66","0","66","3","70","0","70","Thu Feb 18 11:26:15 2021","The main experiment item","yes","Lexical_Decision_Task.osexp","/Users/sarahdrage","no","Andale Mono","no","18","no","white","no","yes","576","legacy","66","66","3","/Users/sarahdrage/subject-5211978.csv","legacy","Lentiform Loewenfeld","3.3.7","yes","yes","600bd7cfb6416f0113b04181","602110864497cf011d9c0822","0","j","NA","space","space","space","space","j","523","NA","2549","12753","4190","20855","523","2","legacy","1024","2","48000","-16","task","5211978","even","NA","34473","39025","36476","176956","10598","27575","23380","177459","127896","176954","177459","176895","39025","177983","32853","176395","10521","72038","Lexical Decision Task","70","48255","71","yes","1024"
"3.263399331","0","8","cour","non-word","98.61111111111111","98.61111111111111","679.875","679.875","black","no","legacy","legacy","legacy","0","uniform","1","undefined","undefined","undefined","1","f","0","0","0","0","71","0","0","0","71","0","67","71","67","0","67","3","71","0","71","Thu Feb 18 11:26:15 2021","The main experiment item","yes","Lexical_Decision_Task.osexp","/Users/sarahdrage","no","Andale Mono","no","18","no","white","no","yes","576","legacy","67","67","3","/Users/sarahdrage/subject-5211978.csv","legacy","Lentiform Loewenfeld","3.3.7","yes","yes","600bd7cfb6416f0113b04181","602110864497cf011d9c0822","0","f","NA","space","space","space","space","f","696","NA","2549","12753","4190","20855","696","2","legacy","1024","2","48000","-16","task","5211978","even","NA","34473","39025","36476","178549","10598","27575","23380","179052","127896","178546","179052","178487","39025","179749","32853","177987","10521","72038","Lexical Decision Task","71","48951","72","yes","1024"
"2.714888338","0","3","brug","non-word","98.63013698630137","98.63013698630137","681.5205479452055","681.5205479452055","black","no","legacy","legacy","legacy","0","uniform","1","undefined","undefined","undefined","1","f","0","0","0","0","72","0","0","0","72","0","68","72","68","0","68","3","72","0","72","Thu Feb 18 11:26:15 2021","The main experiment item","yes","Lexical_Decision_Task.osexp","/Users/sarahdrage","no","Andale Mono","no","18","no","white","no","yes","576","legacy","68","68","3","/Users/sarahdrage/subject-5211978.csv","legacy","Lentiform Loewenfeld","3.3.7","yes","yes","600bd7cfb6416f0113b04181","602110864497cf011d9c0822","0","f","NA","space","space","space","space","f","800","NA","2549","12753","4190","20855","800","2","legacy","1024","2","48000","-16","task","5211978","even","NA","34473","39025","36476","180314","10598","27575","23380","180817","127896","180311","180817","180252","39025","181618","32853","179752","10521","72038","Lexical Decision Task","72","49751","73","yes","1024"
"3.14849993","10.75","7","hour","word","98.64864864864865","98.64864864864865","679.472972972973","679.472972972973","black","no","legacy","legacy","legacy","0","uniform","1","undefined","undefined","undefined","1","j","0","0","0","0","73","0","0","0","73","0","69","73","69","0","69","3","73","0","73","Thu Feb 18 11:26:15 2021","The main experiment item","yes","Lexical_Decision_Task.osexp","/Users/sarahdrage","no","Andale Mono","no","18","no","white","no","yes","576","legacy","69","69","3","/Users/sarahdrage/subject-5211978.csv","legacy","Lentiform Loewenfeld","3.3.7","yes","yes","600bd7cfb6416f0113b04181","602110864497cf011d9c0822","0","j","NA","space","space","space","space","j","530","NA","2549","12753","4190","20855","530","2","legacy","1024","2","48000","-16","task","5211978","even","NA","34473","39025","36476","182185","10598","27575","23380","182687","127896","182182","182688","182122","39025","183219","32853","181622","10521","72038","Lexical Decision Task","73","50281","74","yes","1024"
"3.064581521","5.51","6","cask","word","97.33333333333333","97.33333333333333","683.08","683.08","black","no","legacy","legacy","legacy","0","uniform","0","undefined","undefined","undefined","0","j","0","0","0","0","74","0","0","0","74","0","70","74","70","0","70","3","74","0","74","Thu Feb 18 11:26:15 2021","The main experiment item","yes","Lexical_Decision_Task.osexp","/Users/sarahdrage","no","Andale Mono","no","18","no","white","no","yes","576","legacy","70","70","3","/Users/sarahdrage/subject-5211978.csv","legacy","Lentiform Loewenfeld","3.3.7","yes","yes","600bd7cfb6416f0113b04181","602110864497cf011d9c0822","0","f","NA","space","space","space","space","f","950","NA","2549","12753","4190","20855","950","2","legacy","1024","2","48000","-16","task","5211978","even","NA","34473","39025","36476","183787","10598","27575","23380","184289","127896","183784","184290","183724","39025","185241","32853","183224","10521","72038","Lexical Decision Task","73","51231","75","yes","1024"
"2.812467698","0","7","hafe","non-word","97.36842105263158","97.36842105263158","681.8815789473684","681.8815789473684","black","no","legacy","legacy","legacy","0","uniform","1","undefined","undefined","undefined","1","f","0","0","0","0","75","0","0","0","75","0","71","75","71","0","71","3","75","0","75","Thu Feb 18 11:26:15 2021","The main experiment item","yes","Lexical_Decision_Task.osexp","/Users/sarahdrage","no","Andale Mono","no","18","no","white","no","yes","576","legacy","71","71","3","/Users/sarahdrage/subject-5211978.csv","legacy","Lentiform Loewenfeld","3.3.7","yes","yes","600bd7cfb6416f0113b04181","602110864497cf011d9c0822","0","f","NA","space","space","space","space","f","592","NA","2549","12753","4190","20855","592","2","legacy","1024","2","48000","-16","task","5211978","even","NA","34473","39025","36476","186812","10598","27575","23380","187314","127896","186809","187315","186745","39025","187908","32853","183224","10521","185245","Lexical Decision Task","74","51823","76","yes","1024"
"2.986323777","10.85","8","ship","word","97.40259740259741","97.40259740259741","681.4415584415584","681.4415584415584","black","no","legacy","legacy","legacy","0","uniform","1","undefined","undefined","undefined","1","j","0","0","0","0","76","0","0","0","76","0","72","76","72","0","72","3","76","0","76","Thu Feb 18 11:26:15 2021","The main experiment item","yes","Lexical_Decision_Task.osexp","/Users/sarahdrage","no","Andale Mono","no","18","no","white","no","yes","576","legacy","72","72","3","/Users/sarahdrage/subject-5211978.csv","legacy","Lentiform Loewenfeld","3.3.7","yes","yes","600bd7cfb6416f0113b04181","602110864497cf011d9c0822","0","j","NA","space","space","space","space","j","648","NA","2549","12753","4190","20855","648","2","legacy","1024","2","48000","-16","task","5211978","even","NA","34473","39025","36476","188474","10598","27575","23380","188977","127896","188471","188977","188412","39025","189626","32853","187911","10521","185245","Lexical Decision Task","75","52471","77","yes","1024"
"2.67699827","0","6","hulf","non-word","97.43589743589743","97.43589743589743","681.1923076923077","681.1923076923077","black","no","legacy","legacy","legacy","0","uniform","1","undefined","undefined","undefined","1","f","0","0","0","0","77","0","0","0","77","0","73","77","73","0","73","3","77","0","77","Thu Feb 18 11:26:15 2021","The main experiment item","yes","Lexical_Decision_Task.osexp","/Users/sarahdrage","no","Andale Mono","no","18","no","white","no","yes","576","legacy","73","73","3","/Users/sarahdrage/subject-5211978.csv","legacy","Lentiform Loewenfeld","3.3.7","yes","yes","600bd7cfb6416f0113b04181","602110864497cf011d9c0822","0","f","NA","space","space","space","space","f","662","NA","2549","12753","4190","20855","662","2","legacy","1024","2","48000","-16","task","5211978","even","NA","34473","39025","36476","190194","10598","27575","23380","190696","127896","190191","190697","190131","39025","191361","32853","189630","10521","185245","Lexical Decision Task","76","53133","78","yes","1024"
"3.031408464","0","7","drow","non-word","97.46835443037975","97.46835443037975","685.4303797468355","685.4303797468355","black","no","legacy","legacy","legacy","0","uniform","1","undefined","undefined","undefined","1","f","0","0","0","0","78","0","0","0","78","0","74","78","74","0","74","3","78","0","78","Thu Feb 18 11:26:15 2021","The main experiment item","yes","Lexical_Decision_Task.osexp","/Users/sarahdrage","no","Andale Mono","no","18","no","white","no","yes","576","legacy","74","74","3","/Users/sarahdrage/subject-5211978.csv","legacy","Lentiform Loewenfeld","3.3.7","yes","yes","600bd7cfb6416f0113b04181","602110864497cf011d9c0822","0","f","NA","space","space","space","space","f","1016","NA","2549","12753","4190","20855","1016","2","legacy","1024","2","48000","-16","task","5211978","even","NA","34473","39025","36476","191939","10598","27575","23380","192442","127896","191936","192442","191876","39025","193459","32853","191376","10521","185245","Lexical Decision Task","77","54149","79","yes","1024"
"2.675164031","8.57","6","glue","word","97.5","97.5","683.1","683.1","black","no","legacy","legacy","legacy","0","uniform","1","undefined","undefined","undefined","1","j","0","0","0","0","79","0","0","0","79","0","75","79","75","0","75","3","79","0","79","Thu Feb 18 11:26:15 2021","The main experiment item","yes","Lexical_Decision_Task.osexp","/Users/sarahdrage","no","Andale Mono","no","18","no","white","no","yes","576","legacy","75","75","3","/Users/sarahdrage/subject-5211978.csv","legacy","Lentiform Loewenfeld","3.3.7","yes","yes","600bd7cfb6416f0113b04181","602110864497cf011d9c0822","0","j","NA","space","space","space","space","j","499","NA","2549","12753","4190","20855","499","2","legacy","1024","2","48000","-16","task","5211978","even","NA","34473","39025","36476","194028","10598","27575","23380","194531","127896","194025","194531","193963","39025","195032","32853","193463","10521","185245","Lexical Decision Task","78","54648","80","yes","1024"
"2.668385917","5.48","4","twig","word","97.53086419753086","97.53086419753086","680.7407407407408","680.7407407407408","black","no","legacy","legacy","legacy","0","uniform","1","undefined","undefined","undefined","1","j","0","0","0","0","80","0","0","0","80","0","76","80","76","0","76","3","80","0","80","Thu Feb 18 11:26:15 2021","The main experiment item","yes","Lexical_Decision_Task.osexp","/Users/sarahdrage","no","Andale Mono","no","18","no","white","no","yes","576","legacy","76","76","3","/Users/sarahdrage/subject-5211978.csv","legacy","Lentiform Loewenfeld","3.3.7","yes","yes","600bd7cfb6416f0113b04181","602110864497cf011d9c0822","0","j","NA","space","space","space","space","j","492","NA","2549","12753","4190","20855","492","2","legacy","1024","2","48000","-16","task","5211978","even","NA","34473","39025","36476","195600","10598","27575","23380","196102","127896","195597","196102","195537","39025","196595","32853","195037","10521","185245","Lexical Decision Task","79","55140","81","yes","1024"
"3.067193647","6.73","6","raft","word","97.5609756097561","97.5609756097561","681.9512195121952","681.9512195121952","black","no","legacy","legacy","legacy","0","uniform","1","undefined","undefined","undefined","1","j","0","0","0","0","81","0","0","0","81","0","77","81","77","0","77","3","81","0","81","Thu Feb 18 11:26:15 2021","The main experiment item","yes","Lexical_Decision_Task.osexp","/Users/sarahdrage","no","Andale Mono","no","18","no","white","no","yes","576","legacy","77","77","3","/Users/sarahdrage/subject-5211978.csv","legacy","Lentiform Loewenfeld","3.3.7","yes","yes","600bd7cfb6416f0113b04181","602110864497cf011d9c0822","0","j","NA","space","space","space","space","j","780","NA","2549","12753","4190","20855","780","2","legacy","1024","2","48000","-16","task","5211978","even","NA","34473","39025","36476","197165","10598","27575","23380","197668","127896","197163","197668","197099","39025","198449","32853","196599","10521","185245","Lexical Decision Task","80","55920","82","yes","1024"
"3.119255889","6.63","2","itch","word","97.59036144578313","97.59036144578313","680.4698795180723","680.4698795180723","black","no","legacy","legacy","legacy","0","uniform","1","undefined","undefined","undefined","1","j","0","0","0","0","82","0","0","0","82","0","78","82","78","0","78","3","82","0","82","Thu Feb 18 11:26:15 2021","The main experiment item","yes","Lexical_Decision_Task.osexp","/Users/sarahdrage","no","Andale Mono","no","18","no","white","no","yes","576","legacy","78","78","3","/Users/sarahdrage/subject-5211978.csv","legacy","Lentiform Loewenfeld","3.3.7","yes","yes","600bd7cfb6416f0113b04181","602110864497cf011d9c0822","0","j","NA","space","space","space","space","j","559","NA","2549","12753","4190","20855","559","2","legacy","1024","2","48000","-16","task","5211978","even","NA","34473","39025","36476","199014","10598","27575","23380","199517","127896","199011","199517","198952","39025","200077","32853","198452","10521","185245","Lexical Decision Task","81","56479","83","yes","1024"
"2.8162413","0","5","nusk","non-word","97.61904761904762","97.61904761904762","680.1428571428571","680.1428571428571","black","no","legacy","legacy","legacy","0","uniform","1","undefined","undefined","undefined","1","f","0","0","0","0","83","0","0","0","83","0","79","83","79","0","79","3","83","0","83","Thu Feb 18 11:26:15 2021","The main experiment item","yes","Lexical_Decision_Task.osexp","/Users/sarahdrage","no","Andale Mono","no","18","no","white","no","yes","576","legacy","79","79","3","/Users/sarahdrage/subject-5211978.csv","legacy","Lentiform Loewenfeld","3.3.7","yes","yes","600bd7cfb6416f0113b04181","602110864497cf011d9c0822","0","f","NA","space","space","space","space","f","653","NA","2549","12753","4190","20855","653","2","legacy","1024","2","48000","-16","task","5211978","even","NA","34473","39025","36476","200650","10598","27575","23380","201152","127896","200647","201153","200581","39025","201807","32853","200081","10521","185245","Lexical Decision Task","82","57132","84","yes","1024"
"3.077974404","10.41","8","tool","word","97.6470588235294","97.6470588235294","678.5882352941177","678.5882352941177","black","no","legacy","legacy","legacy","0","uniform","1","undefined","undefined","undefined","1","j","0","0","0","0","84","0","0","0","84","0","80","84","80","0","80","3","84","0","84","Thu Feb 18 11:26:15 2021","The main experiment item","yes","Lexical_Decision_Task.osexp","/Users/sarahdrage","no","Andale Mono","no","18","no","white","no","yes","576","legacy","80","80","3","/Users/sarahdrage/subject-5211978.csv","legacy","Lentiform Loewenfeld","3.3.7","yes","yes","600bd7cfb6416f0113b04181","602110864497cf011d9c0822","0","j","NA","space","space","space","space","j","548","NA","2549","12753","4190","20855","548","2","legacy","1024","2","48000","-16","task","5211978","even","NA","34473","39025","36476","202374","10598","27575","23380","202877","127896","202371","202877","202311","39025","203427","32853","201811","10521","185245","Lexical Decision Task","83","57680","85","yes","1024"
"3.16326079","0","5","parg","non-word","97.67441860465117","97.67441860465117","679.7906976744187","679.7906976744187","black","no","legacy","legacy","legacy","0","uniform","1","undefined","undefined","undefined","1","f","0","0","0","0","85","0","0","0","85","0","81","85","81","0","81","3","85","0","85","Thu Feb 18 11:26:15 2021","The main experiment item","yes","Lexical_Decision_Task.osexp","/Users/sarahdrage","no","Andale Mono","no","18","no","white","no","yes","576","legacy","81","81","3","/Users/sarahdrage/subject-5211978.csv","legacy","Lentiform Loewenfeld","3.3.7","yes","yes","600bd7cfb6416f0113b04181","602110864497cf011d9c0822","0","f","NA","space","space","space","space","f","782","NA","2549","12753","4190","20855","782","2","legacy","1024","2","48000","-16","task","5211978","even","NA","34473","39025","36476","203997","10598","27575","23380","204499","127896","203994","204499","203931","39025","205283","32853","203431","10521","185245","Lexical Decision Task","84","58462","86","yes","1024"
"2.839898939","8.99","6","soap","word","97.70114942528735","97.70114942528735","678.2528735632184","678.2528735632184","black","no","legacy","legacy","legacy","0","uniform","1","undefined","undefined","undefined","1","j","0","0","0","0","86","0","0","0","86","0","82","86","82","0","82","3","86","0","86","Thu Feb 18 11:26:15 2021","The main experiment item","yes","Lexical_Decision_Task.osexp","/Users/sarahdrage","no","Andale Mono","no","18","no","white","no","yes","576","legacy","82","82","3","/Users/sarahdrage/subject-5211978.csv","legacy","Lentiform Loewenfeld","3.3.7","yes","yes","600bd7cfb6416f0113b04181","602110864497cf011d9c0822","0","j","NA","space","space","space","space","j","546","NA","2549","12753","4190","20855","546","2","legacy","1024","2","48000","-16","task","5211978","even","NA","34473","39025","36476","205849","10598","27575","23380","206352","127896","205847","206352","205786","39025","206899","32853","205286","10521","185245","Lexical Decision Task","85","59008","87","yes","1024"
"3.076883066","0","8","mout","non-word","97.72727272727273","97.72727272727273","679.8295454545455","679.8295454545455","black","no","legacy","legacy","legacy","0","uniform","1","undefined","undefined","undefined","1","f","0","0","0","0","87","0","0","0","87","0","83","87","83","0","83","3","87","0","87","Thu Feb 18 11:26:15 2021","The main experiment item","yes","Lexical_Decision_Task.osexp","/Users/sarahdrage","no","Andale Mono","no","18","no","white","no","yes","576","legacy","83","83","3","/Users/sarahdrage/subject-5211978.csv","legacy","Lentiform Loewenfeld","3.3.7","yes","yes","600bd7cfb6416f0113b04181","602110864497cf011d9c0822","0","f","NA","space","space","space","space","f","817","NA","2549","12753","4190","20855","817","2","legacy","1024","2","48000","-16","task","5211978","even","NA","34473","39025","36476","207470","10598","27575","23380","207973","127896","207467","207973","207403","39025","208791","32853","206903","10521","185245","Lexical Decision Task","86","59825","88","yes","1024"
"2.979548375","8.71","4","soup","word","97.75280898876404","97.75280898876404","678.1685393258427","678.1685393258427","black","no","legacy","legacy","legacy","0","uniform","1","undefined","undefined","undefined","1","j","0","0","0","0","88","0","0","0","88","0","84","88","84","0","84","3","88","0","88","Thu Feb 18 11:26:15 2021","The main experiment item","yes","Lexical_Decision_Task.osexp","/Users/sarahdrage","no","Andale Mono","no","18","no","white","no","yes","576","legacy","84","84","3","/Users/sarahdrage/subject-5211978.csv","legacy","Lentiform Loewenfeld","3.3.7","yes","yes","600bd7cfb6416f0113b04181","602110864497cf011d9c0822","0","j","NA","space","space","space","space","j","532","NA","2549","12753","4190","20855","532","2","legacy","1024","2","48000","-16","task","5211978","even","NA","34473","39025","36476","209348","10598","27575","23380","209851","127896","209346","209851","209295","39025","210385","32853","208794","10521","185245","Lexical Decision Task","87","60357","89","yes","1024"
"2.873320602","0","4","lurg","non-word","97.77777777777777","97.77777777777777","677.5222222222222","677.5222222222222","black","no","legacy","legacy","legacy","0","uniform","1","undefined","undefined","undefined","1","f","0","0","0","0","89","0","0","0","89","0","85","89","85","0","85","3","89","0","89","Thu Feb 18 11:26:15 2021","The main experiment item","yes","Lexical_Decision_Task.osexp","/Users/sarahdrage","no","Andale Mono","no","18","no","white","no","yes","576","legacy","85","85","3","/Users/sarahdrage/subject-5211978.csv","legacy","Lentiform Loewenfeld","3.3.7","yes","yes","600bd7cfb6416f0113b04181","602110864497cf011d9c0822","0","f","NA","space","space","space","space","f","620","NA","2549","12753","4190","20855","620","2","legacy","1024","2","48000","-16","task","5211978","even","NA","34473","39025","36476","210952","10598","27575","23380","211454","127896","210949","211454","210889","39025","212075","32853","210389","10521","185245","Lexical Decision Task","88","60977","90","yes","1024"
"2.897810299","0","5","glur","non-word","97.8021978021978","97.8021978021978","678.9560439560439","678.9560439560439","black","no","legacy","legacy","legacy","0","uniform","1","undefined","undefined","undefined","1","f","0","0","0","0","90","0","0","0","90","0","86","90","86","0","86","3","90","0","90","Thu Feb 18 11:26:15 2021","The main experiment item","yes","Lexical_Decision_Task.osexp","/Users/sarahdrage","no","Andale Mono","no","18","no","white","no","yes","576","legacy","86","86","3","/Users/sarahdrage/subject-5211978.csv","legacy","Lentiform Loewenfeld","3.3.7","yes","yes","600bd7cfb6416f0113b04181","602110864497cf011d9c0822","0","f","NA","space","space","space","space","f","808","NA","2549","12753","4190","20855","808","2","legacy","1024","2","48000","-16","task","5211978","even","NA","34473","39025","36476","212642","10598","27575","23380","213146","127896","212639","213146","212580","39025","213955","32853","212080","10521","185245","Lexical Decision Task","89","61785","91","yes","1024"
"2.996511672","0","7","hoil","non-word","97.82608695652173","97.82608695652173","682.5326086956521","682.5326086956521","black","no","legacy","legacy","legacy","0","uniform","1","undefined","undefined","undefined","1","f","0","0","0","0","91","0","0","0","91","0","87","91","87","0","87","3","91","0","91","Thu Feb 18 11:26:15 2021","The main experiment item","yes","Lexical_Decision_Task.osexp","/Users/sarahdrage","no","Andale Mono","no","18","no","white","no","yes","576","legacy","87","87","3","/Users/sarahdrage/subject-5211978.csv","legacy","Lentiform Loewenfeld","3.3.7","yes","yes","600bd7cfb6416f0113b04181","602110864497cf011d9c0822","0","f","NA","space","space","space","space","f","1008","NA","2549","12753","4190","20855","1008","2","legacy","1024","2","48000","-16","task","5211978","even","NA","34473","39025","36476","214522","10598","27575","23380","215024","127896","214519","215025","214459","39025","216035","32853","213959","10521","185245","Lexical Decision Task","90","62793","92","yes","1024"
"2.880623071","0","9","curp","non-word","97.84946236559139","97.84946236559139","682.741935483871","682.741935483871","black","no","legacy","legacy","legacy","0","uniform","1","undefined","undefined","undefined","1","f","0","0","0","0","92","0","0","0","92","0","88","92","88","0","88","3","92","0","92","Thu Feb 18 11:26:15 2021","The main experiment item","yes","Lexical_Decision_Task.osexp","/Users/sarahdrage","no","Andale Mono","no","18","no","white","no","yes","576","legacy","88","88","3","/Users/sarahdrage/subject-5211978.csv","legacy","Lentiform Loewenfeld","3.3.7","yes","yes","600bd7cfb6416f0113b04181","602110864497cf011d9c0822","0","f","NA","space","space","space","space","f","702","NA","2549","12753","4190","20855","702","2","legacy","1024","2","48000","-16","task","5211978","even","NA","34473","39025","36476","216602","10598","27575","23380","217105","127896","216599","217105","216538","39025","217808","32853","216038","10521","185245","Lexical Decision Task","91","63495","93","yes","1024"
"3.132473155","0","4","glim","non-word","97.87234042553192","97.87234042553192","685.2340425531914","685.2340425531914","black","no","legacy","legacy","legacy","0","uniform","1","undefined","undefined","undefined","1","f","0","0","0","0","93","0","0","0","93","0","89","93","89","0","89","3","93","0","93","Thu Feb 18 11:26:15 2021","The main experiment item","yes","Lexical_Decision_Task.osexp","/Users/sarahdrage","no","Andale Mono","no","18","no","white","no","yes","576","legacy","89","89","3","/Users/sarahdrage/subject-5211978.csv","legacy","Lentiform Loewenfeld","3.3.7","yes","yes","600bd7cfb6416f0113b04181","602110864497cf011d9c0822","0","f","NA","space","space","space","space","f","917","NA","2549","12753","4190","20855","917","2","legacy","1024","2","48000","-16","task","5211978","even","NA","34473","39025","36476","218373","10598","27575","23380","218877","127896","218370","218877","218312","39025","219795","32853","217811","10521","185245","Lexical Decision Task","92","64412","94","yes","1024"
"3.153001286","8.7","5","palm","word","97.89473684210526","97.89473684210526","684.4315789473684","684.4315789473684","black","no","legacy","legacy","legacy","0","uniform","1","undefined","undefined","undefined","1","j","0","0","0","0","94","0","0","0","94","0","90","94","90","0","90","3","94","0","94","Thu Feb 18 11:26:15 2021","The main experiment item","yes","Lexical_Decision_Task.osexp","/Users/sarahdrage","no","Andale Mono","no","18","no","white","no","yes","576","legacy","90","90","3","/Users/sarahdrage/subject-5211978.csv","legacy","Lentiform Loewenfeld","3.3.7","yes","yes","600bd7cfb6416f0113b04181","602110864497cf011d9c0822","0","j","NA","space","space","space","space","j","609","NA","2549","12753","4190","20855","609","2","legacy","1024","2","48000","-16","task","5211978","even","NA","34473","39025","36476","220360","10598","27575","23380","220863","127896","220357","220863","220298","39025","221474","32853","219798","10521","185245","Lexical Decision Task","93","65021","95","yes","1024"
"2.952953801","0","8","clax","non-word","97.91666666666667","97.91666666666667","683.6770833333334","683.6770833333334","black","no","legacy","legacy","legacy","0","uniform","1","undefined","undefined","undefined","1","f","0","0","0","0","95","0","0","0","95","0","91","95","91","0","91","3","95","0","95","Thu Feb 18 11:26:15 2021","The main experiment item","yes","Lexical_Decision_Task.osexp","/Users/sarahdrage","no","Andale Mono","no","18","no","white","no","yes","576","legacy","91","91","3","/Users/sarahdrage/subject-5211978.csv","legacy","Lentiform Loewenfeld","3.3.7","yes","yes","600bd7cfb6416f0113b04181","602110864497cf011d9c0822","0","f","NA","space","space","space","space","f","612","NA","2549","12753","4190","20855","612","2","legacy","1024","2","48000","-16","task","5211978","even","NA","34473","39025","36476","222044","10598","27575","23380","222546","127896","222041","222547","221978","39025","223161","32853","221478","10521","185245","Lexical Decision Task","94","65633","96","yes","1024"
"3.384413096","10.15","3","glad","word","97.9381443298969","97.9381443298969","682.6082474226804","682.6082474226804","black","no","legacy","legacy","legacy","0","uniform","1","undefined","undefined","undefined","1","j","0","0","0","0","96","0","0","0","96","0","92","96","92","0","92","3","96","0","96","Thu Feb 18 11:26:15 2021","The main experiment item","yes","Lexical_Decision_Task.osexp","/Users/sarahdrage","no","Andale Mono","no","18","no","white","no","yes","576","legacy","92","92","3","/Users/sarahdrage/subject-5211978.csv","legacy","Lentiform Loewenfeld","3.3.7","yes","yes","600bd7cfb6416f0113b04181","602110864497cf011d9c0822","0","j","NA","space","space","space","space","j","580","NA","2549","12753","4190","20855","580","2","legacy","1024","2","48000","-16","task","5211978","even","NA","34473","39025","36476","223718","10598","27575","23380","224222","127896","223716","224222","223665","39025","224803","32853","223165","10521","185245","Lexical Decision Task","95","66213","97","yes","1024"
"3.133964479","0","8","graw","non-word","97.95918367346938","97.95918367346938","684.5816326530612","684.5816326530612","black","no","legacy","legacy","legacy","0","uniform","1","undefined","undefined","undefined","1","f","0","0","0","0","97","0","0","0","97","0","93","97","93","0","93","3","97","0","97","Thu Feb 18 11:26:15 2021","The main experiment item","yes","Lexical_Decision_Task.osexp","/Users/sarahdrage","no","Andale Mono","no","18","no","white","no","yes","576","legacy","93","93","3","/Users/sarahdrage/subject-5211978.csv","legacy","Lentiform Loewenfeld","3.3.7","yes","yes","600bd7cfb6416f0113b04181","602110864497cf011d9c0822","0","f","NA","space","space","space","space","f","876","NA","2549","12753","4190","20855","876","2","legacy","1024","2","48000","-16","task","5211978","even","NA","34473","39025","36476","225370","10598","27575","23380","225873","127896","225367","225873","225307","39025","226750","32853","224807","10521","185245","Lexical Decision Task","96","67089","98","yes","1024"
"2.821076612","0","4","lult","non-word","97.97979797979798","97.97979797979798","683.8282828282828","683.8282828282828","black","no","legacy","legacy","legacy","0","uniform","1","undefined","undefined","undefined","1","f","0","0","0","0","98","0","0","0","98","0","94","98","94","0","94","3","98","0","98","Thu Feb 18 11:26:15 2021","The main experiment item","yes","Lexical_Decision_Task.osexp","/Users/sarahdrage","no","Andale Mono","no","18","no","white","no","yes","576","legacy","94","94","3","/Users/sarahdrage/subject-5211978.csv","legacy","Lentiform Loewenfeld","3.3.7","yes","yes","600bd7cfb6416f0113b04181","602110864497cf011d9c0822","0","f","NA","space","space","space","space","f","610","NA","2549","12753","4190","20855","610","2","legacy","1024","2","48000","-16","task","5211978","even","NA","34473","39025","36476","227316","10598","27575","23380","227819","127896","227313","227819","227254","39025","228430","32853","226754","10521","185245","Lexical Decision Task","97","67699","99","yes","1024"
"3.316948329","0","1","besc","non-word","98","98","684.75","684.75","black","no","legacy","legacy","legacy","0","uniform","1","undefined","undefined","undefined","1","f","0","0","0","0","99","0","0","0","99","0","95","99","95","0","95","3","99","0","99","Thu Feb 18 11:26:15 2021","The main experiment item","yes","Lexical_Decision_Task.osexp","/Users/sarahdrage","no","Andale Mono","no","18","no","white","no","yes","576","legacy","95","95","3","/Users/sarahdrage/subject-5211978.csv","legacy","Lentiform Loewenfeld","3.3.7","yes","yes","600bd7cfb6416f0113b04181","602110864497cf011d9c0822","0","f","NA","space","space","space","space","f","776","NA","2549","12753","4190","20855","776","2","legacy","1024","2","48000","-16","task","5211978","even","NA","34473","39025","36476","228998","10598","27575","23380","229500","127896","228995","229501","228935","39025","230279","32853","228435","10521","185245","Lexical Decision Task","98","68475","100","yes","1024"
"2.664011697","8.19","4","hawk","word","98.01980198019803","98.01980198019803","684.8514851485148","684.8514851485148","black","no","legacy","legacy","legacy","0","uniform","1","undefined","undefined","undefined","1","j","0","0","0","0","100","0","0","0","100","0","96","100","96","0","96","3","100","0","100","Thu Feb 18 11:26:15 2021","The main experiment item","yes","Lexical_Decision_Task.osexp","/Users/sarahdrage","no","Andale Mono","no","18","no","white","no","yes","576","legacy","96","96","3","/Users/sarahdrage/subject-5211978.csv","legacy","Lentiform Loewenfeld","3.3.7","yes","yes","600bd7cfb6416f0113b04181","602110864497cf011d9c0822","0","j","NA","space","space","space","space","j","695","NA","2549","12753","4190","20855","695","2","legacy","1024","2","48000","-16","task","5211978","even","NA","34473","39025","36476","230847","10598","27575","23380","231350","127896","230845","231350","230784","39025","232046","32853","230284","10521","185245","Lexical Decision Task","99","69170","101","yes","1024"
"2.696644658","5.78","2","yolk","word","98.03921568627452","98.03921568627452","683.6862745098039","683.6862745098039","black","no","legacy","legacy","legacy","0","uniform","1","undefined","undefined","undefined","1","j","0","0","0","0","101","0","0","0","101","0","97","101","97","0","97","3","101","0","101","Thu Feb 18 11:26:15 2021","The main experiment item","yes","Lexical_Decision_Task.osexp","/Users/sarahdrage","no","Andale Mono","no","18","no","white","no","yes","576","legacy","97","97","3","/Users/sarahdrage/subject-5211978.csv","legacy","Lentiform Loewenfeld","3.3.7","yes","yes","600bd7cfb6416f0113b04181","602110864497cf011d9c0822","0","j","NA","space","space","space","space","j","566","NA","2549","12753","4190","20855","566","2","legacy","1024","2","48000","-16","task","5211978","even","NA","34473","39025","36476","232614","10598","27575","23380","233116","127896","232611","233116","232550","39025","233683","32853","232050","10521","185245","Lexical Decision Task","100","69736","102","yes","1024"
