"Log_BG","Log_Freq_HAL","Ortho_N","Stimulus","Type","acc","accuracy","average_response_time","avg_rt","background","bidi","canvas_backend","clock_backend","color_backend","compensation","coordinates","correct","correct_Experimental_intro","correct_Introduction","correct_Practice_intro","correct_experimenter_kb","correct_response","count_End_Of_Experiment","count_End_Of_Practice","count_Experimental_Loop","count_Experimental_intro","count_Fixation","count_Introduction","count_Practice_Loop","count_Practice_intro","count_Stimulus","count_block_break_feedback","count_experimental_sequence","count_experimenter_kb","count_increment_trial_count","count_init_trial_count","count_logger","count_practice_sequence","count_right","count_task","count_wrong","datetime","description","disable_garbage_collection","experiment_file","experiment_path","font_bold","font_family","font_italic","font_size","font_underline","foreground","form_clicks","fullscreen","height","keyboard_backend","live_row","live_row_Experimental_Loop","live_row_Practice_Loop","logfile","mouse_backend","opensesame_codename","opensesame_version","osf_always_upload_data","osf_always_upload_experiment","osf_datanode_id","osf_id","repeat_cycle","response","response_End_Of_Experiment","response_Experimental_intro","response_Introduction","response_Practice_intro","response_block_break_feedback","response_experimenter_kb","response_time","response_time_End_Of_Experiment","response_time_Experimental_intro","response_time_Introduction","response_time_Practice_intro","response_time_block_break_feedback","response_time_experimenter_kb","round_decimals","sampler_backend","sound_buf_size","sound_channels","sound_freq","sound_sample_size","start","subject_nr","subject_parity","time_End_Of_Experiment","time_End_Of_Practice","time_Experimental_Loop","time_Experimental_intro","time_Fixation","time_Introduction","time_Practice_Loop","time_Practice_intro","time_Stimulus","time_block_break_feedback","time_experimental_sequence","time_experimenter_kb","time_increment_trial_count","time_init_trial_count","time_logger","time_practice_sequence","time_right","time_task","time_wrong","title","total_correct","total_response_time","total_responses","uniform_coordinates","width"
"3.230789326","5.38","5","prim","word","80","80","925","925","black","no","legacy","legacy","legacy","0","uniform","0","undefined","undefined","undefined","0","j","0","0","0","0","4","0","0","0","4","NA","0","4","0","0","0","3","4","0","4","Wed Feb 17 11:19:14 2021","The main experiment item","yes","Lexical_Decision_Task.osexp","/Users/taaniasaeed/Desktop","no","Andale Mono","no","18","no","white","no","yes","576","legacy","0","0","3","/Users/taaniasaeed/Desktop/subject-5226163.csv","legacy","Lentiform Loewenfeld","3.3.7","yes","yes","600bd7cfb6416f0113b04181","602110864497cf011d9c0822","0","f","NA","y","space","y","NA","f","1154","NA","2739","19422","3632","NA","1154","2","legacy","1024","2","48000","-16","task","5226163","odd","NA","36650","41393","38653","41426","5801","28871","25238","41929","NA","41424","41929","NA","41393","43084","34926","36127","5790","NA","Lexical Decision Task","4","4625","5","yes","1024"
"3.382617311","0","4","pret","non-word","83.33333333333333","83.33333333333333","879.6666666666666","879.6666666666666","black","no","legacy","legacy","legacy","0","uniform","1","undefined","undefined","undefined","1","f","0","0","0","0","5","0","0","0","5","NA","1","5","1","0","1","3","5","0","5","Wed Feb 17 11:19:14 2021","The main experiment item","yes","Lexical_Decision_Task.osexp","/Users/taaniasaeed/Desktop","no","Andale Mono","no","18","no","white","no","yes","576","legacy","1","1","3","/Users/taaniasaeed/Desktop/subject-5226163.csv","legacy","Lentiform Loewenfeld","3.3.7","yes","yes","600bd7cfb6416f0113b04181","602110864497cf011d9c0822","0","f","NA","y","space","y","NA","f","653","NA","2739","19422","3632","NA","653","2","legacy","1024","2","48000","-16","task","5226163","odd","NA","36650","41393","38653","44635","5801","28871","25238","45136","NA","44633","45137","44591","41393","45791","34926","36127","5790","43091","Lexical Decision Task","5","5278","6","yes","1024"
"2.771097306","0","9","jold","non-word","85.71428571428571","85.71428571428571","885.4285714285714","885.4285714285714","black","no","legacy","legacy","legacy","0","uniform","1","undefined","undefined","undefined","1","f","0","0","0","0","6","0","0","0","6","NA","2","6","2","0","2","3","6","0","6","Wed Feb 17 11:19:14 2021","The main experiment item","yes","Lexical_Decision_Task.osexp","/Users/taaniasaeed/Desktop","no","Andale Mono","no","18","no","white","no","yes","576","legacy","2","2","3","/Users/taaniasaeed/Desktop/subject-5226163.csv","legacy","Lentiform Loewenfeld","3.3.7","yes","yes","600bd7cfb6416f0113b04181","602110864497cf011d9c0822","0","f","NA","y","space","y","NA","f","920","NA","2739","19422","3632","NA","920","2","legacy","1024","2","48000","-16","task","5226163","odd","NA","36650","41393","38653","46336","5801","28871","25238","46838","NA","46334","46838","46295","41393","47759","34926","45794","5790","43091","Lexical Decision Task","6","6198","7","yes","1024"
"3.121778632","0","9","sark","non-word","87.5","87.5","864.375","864.375","black","no","legacy","legacy","legacy","0","uniform","1","undefined","undefined","undefined","1","f","0","0","0","0","7","0","0","0","7","NA","3","7","3","0","3","3","7","0","7","Wed Feb 17 11:19:14 2021","The main experiment item","yes","Lexical_Decision_Task.osexp","/Users/taaniasaeed/Desktop","no","Andale Mono","no","18","no","white","no","yes","576","legacy","3","3","3","/Users/taaniasaeed/Desktop/subject-5226163.csv","legacy","Lentiform Loewenfeld","3.3.7","yes","yes","600bd7cfb6416f0113b04181","602110864497cf011d9c0822","0","f","NA","y","space","y","NA","f","717","NA","2739","19422","3632","NA","717","2","legacy","1024","2","48000","-16","task","5226163","odd","NA","36650","41393","38653","48304","5801","28871","25238","48806","NA","48302","48806","48263","41393","49524","34926","47763","5790","43091","Lexical Decision Task","7","6915","8","yes","1024"
"2.875447132","0","9","jelt","non-word","88.88888888888889","88.88888888888889","831.6666666666666","831.6666666666666","black","no","legacy","legacy","legacy","0","uniform","1","undefined","undefined","undefined","1","f","0","0","0","0","8","0","0","0","8","NA","4","8","4","0","4","3","8","0","8","Wed Feb 17 11:19:14 2021","The main experiment item","yes","Lexical_Decision_Task.osexp","/Users/taaniasaeed/Desktop","no","Andale Mono","no","18","no","white","no","yes","576","legacy","4","4","3","/Users/taaniasaeed/Desktop/subject-5226163.csv","legacy","Lentiform Loewenfeld","3.3.7","yes","yes","600bd7cfb6416f0113b04181","602110864497cf011d9c0822","0","f","NA","y","space","y","NA","f","570","NA","2739","19422","3632","NA","570","2","legacy","1024","2","48000","-16","task","5226163","odd","NA","36650","41393","38653","50078","5801","28871","25238","50579","NA","50075","50579","50027","41393","51150","34926","49527","5790","43091","Lexical Decision Task","8","7485","9","yes","1024"
"2.897810299","0","5","glur","non-word","90","90","811.5","811.5","black","no","legacy","legacy","legacy","0","uniform","1","undefined","undefined","undefined","1","f","0","0","0","0","9","0","0","0","9","NA","5","9","5","0","5","3","9","0","9","Wed Feb 17 11:19:14 2021","The main experiment item","yes","Lexical_Decision_Task.osexp","/Users/taaniasaeed/Desktop","no","Andale Mono","no","18","no","white","no","yes","576","legacy","5","5","3","/Users/taaniasaeed/Desktop/subject-5226163.csv","legacy","Lentiform Loewenfeld","3.3.7","yes","yes","600bd7cfb6416f0113b04181","602110864497cf011d9c0822","0","f","NA","y","space","y","NA","f","630","NA","2739","19422","3632","NA","630","2","legacy","1024","2","48000","-16","task","5226163","odd","NA","36650","41393","38653","51697","5801","28871","25238","52198","NA","51694","52199","51654","41393","52830","34926","51154","5790","43091","Lexical Decision Task","9","8115","10","yes","1024"
"3.067193647","6.73","6","raft","word","90.9090909090909","90.9090909090909","797.7272727272727","797.7272727272727","black","no","legacy","legacy","legacy","0","uniform","1","undefined","undefined","undefined","1","j","0","0","0","0","10","0","0","0","10","NA","6","10","6","0","6","3","10","0","10","Wed Feb 17 11:19:14 2021","The main experiment item","yes","Lexical_Decision_Task.osexp","/Users/taaniasaeed/Desktop","no","Andale Mono","no","18","no","white","no","yes","576","legacy","6","6","3","/Users/taaniasaeed/Desktop/subject-5226163.csv","legacy","Lentiform Loewenfeld","3.3.7","yes","yes","600bd7cfb6416f0113b04181","602110864497cf011d9c0822","0","j","NA","y","space","y","NA","j","660","NA","2739","19422","3632","NA","660","2","legacy","1024","2","48000","-16","task","5226163","odd","NA","36650","41393","38653","53386","5801","28871","25238","53888","NA","53384","53889","53334","41393","54549","34926","52834","5790","43091","Lexical Decision Task","10","8775","11","yes","1024"
"3.133964479","0","8","graw","non-word","91.66666666666667","91.66666666666667","814.6666666666666","814.6666666666666","black","no","legacy","legacy","legacy","0","uniform","1","undefined","undefined","undefined","1","f","0","0","0","0","11","0","0","0","11","NA","7","11","7","0","7","3","11","0","11","Wed Feb 17 11:19:14 2021","The main experiment item","yes","Lexical_Decision_Task.osexp","/Users/taaniasaeed/Desktop","no","Andale Mono","no","18","no","white","no","yes","576","legacy","7","7","3","/Users/taaniasaeed/Desktop/subject-5226163.csv","legacy","Lentiform Loewenfeld","3.3.7","yes","yes","600bd7cfb6416f0113b04181","602110864497cf011d9c0822","0","f","NA","y","space","y","NA","f","1001","NA","2739","19422","3632","NA","1001","2","legacy","1024","2","48000","-16","task","5226163","odd","NA","36650","41393","38653","55102","5801","28871","25238","55603","NA","55099","55604","55053","41393","56606","34926","54553","5790","43091","Lexical Decision Task","11","9776","12","yes","1024"
"2.708989954","9.28","9","bowl","word","92.3076923076923","92.3076923076923","791.7692307692307","791.7692307692307","black","no","legacy","legacy","legacy","0","uniform","1","undefined","undefined","undefined","1","j","0","0","0","0","12","0","0","0","12","NA","8","12","8","0","8","3","12","0","12","Wed Feb 17 11:19:14 2021","The main experiment item","yes","Lexical_Decision_Task.osexp","/Users/taaniasaeed/Desktop","no","Andale Mono","no","18","no","white","no","yes","576","legacy","8","8","3","/Users/taaniasaeed/Desktop/subject-5226163.csv","legacy","Lentiform Loewenfeld","3.3.7","yes","yes","600bd7cfb6416f0113b04181","602110864497cf011d9c0822","0","j","NA","y","space","y","NA","j","517","NA","2739","19422","3632","NA","517","2","legacy","1024","2","48000","-16","task","5226163","odd","NA","36650","41393","38653","57160","5801","28871","25238","57661","NA","57157","57662","57109","41393","58180","34926","56609","5790","43091","Lexical Decision Task","12","10293","13","yes","1024"
"3.705778213","0","6","stin","non-word","92.85714285714286","92.85714285714286","806.5714285714286","806.5714285714286","black","no","legacy","legacy","legacy","0","uniform","1","undefined","undefined","undefined","1","f","0","0","0","0","13","0","0","0","13","NA","9","13","9","0","9","3","13","0","13","Wed Feb 17 11:19:14 2021","The main experiment item","yes","Lexical_Decision_Task.osexp","/Users/taaniasaeed/Desktop","no","Andale Mono","no","18","no","white","no","yes","576","legacy","9","9","3","/Users/taaniasaeed/Desktop/subject-5226163.csv","legacy","Lentiform Loewenfeld","3.3.7","yes","yes","600bd7cfb6416f0113b04181","602110864497cf011d9c0822","0","f","NA","y","space","y","NA","f","999","NA","2739","19422","3632","NA","999","2","legacy","1024","2","48000","-16","task","5226163","odd","NA","36650","41393","38653","58730","5801","28871","25238","59233","NA","58728","59233","58684","41393","60233","34926","58184","5790","43091","Lexical Decision Task","13","11292","14","yes","1024"
"3.269668578","0","7","trag","non-word","93.33333333333333","93.33333333333333","804.2666666666667","804.2666666666667","black","no","legacy","legacy","legacy","0","uniform","1","undefined","undefined","undefined","1","f","0","0","0","0","14","0","0","0","14","NA","10","14","10","0","10","3","14","0","14","Wed Feb 17 11:19:14 2021","The main experiment item","yes","Lexical_Decision_Task.osexp","/Users/taaniasaeed/Desktop","no","Andale Mono","no","18","no","white","no","yes","576","legacy","10","10","3","/Users/taaniasaeed/Desktop/subject-5226163.csv","legacy","Lentiform Loewenfeld","3.3.7","yes","yes","600bd7cfb6416f0113b04181","602110864497cf011d9c0822","0","f","NA","y","space","y","NA","f","772","NA","2739","19422","3632","NA","772","2","legacy","1024","2","48000","-16","task","5226163","odd","NA","36650","41393","38653","60780","5801","28871","25238","61282","NA","60778","61282","60736","41393","62055","34926","60236","5790","43091","Lexical Decision Task","14","12064","15","yes","1024"
"3.495914186","0","4","peng","non-word","87.5","87.5","896.8125","896.8125","black","no","legacy","legacy","legacy","0","uniform","0","undefined","undefined","undefined","0","f","0","0","0","0","15","0","0","0","15","NA","11","15","11","0","11","3","15","0","15","Wed Feb 17 11:19:14 2021","The main experiment item","yes","Lexical_Decision_Task.osexp","/Users/taaniasaeed/Desktop","no","Andale Mono","no","18","no","white","no","yes","576","legacy","11","11","3","/Users/taaniasaeed/Desktop/subject-5226163.csv","legacy","Lentiform Loewenfeld","3.3.7","yes","yes","600bd7cfb6416f0113b04181","602110864497cf011d9c0822","0","j","NA","y","space","y","NA","j","2285","NA","2739","19422","3632","NA","2285","2","legacy","1024","2","48000","-16","task","5226163","odd","NA","36650","41393","38653","62603","5801","28871","25238","63104","NA","62600","63105","62559","41393","65391","34926","62059","5790","43091","Lexical Decision Task","14","14349","16","yes","1024"
"3.082307743","9.68","8","camp","word","82.3529411764706","82.3529411764706","1020.5294117647059","1020.5294117647059","black","no","legacy","legacy","legacy","0","uniform","0","undefined","undefined","undefined","0","j","0","0","0","0","16","0","0","0","16","NA","12","16","12","0","12","3","16","0","16","Wed Feb 17 11:19:14 2021","The main experiment item","yes","Lexical_Decision_Task.osexp","/Users/taaniasaeed/Desktop","no","Andale Mono","no","18","no","white","no","yes","576","legacy","12","12","3","/Users/taaniasaeed/Desktop/subject-5226163.csv","legacy","Lentiform Loewenfeld","3.3.7","yes","yes","600bd7cfb6416f0113b04181","602110864497cf011d9c0822","0","None","NA","y","space","y","NA","None","3000","NA","2739","19422","3632","NA","3000","2","legacy","1024","2","48000","-16","task","5226163","odd","NA","36650","41393","38653","66939","5801","28871","25238","67441","NA","66937","67442","66895","41393","70442","34926","62059","5790","65395","Lexical Decision Task","14","17349","17","yes","1024"
"3.14849993","10.75","7","hour","word","83.33333333333333","83.33333333333333","1010","1010","black","no","legacy","legacy","legacy","0","uniform","1","undefined","undefined","undefined","1","j","0","0","0","0","17","0","0","0","17","NA","13","17","13","0","13","3","17","0","17","Wed Feb 17 11:19:14 2021","The main experiment item","yes","Lexical_Decision_Task.osexp","/Users/taaniasaeed/Desktop","no","Andale Mono","no","18","no","white","no","yes","576","legacy","13","13","3","/Users/taaniasaeed/Desktop/subject-5226163.csv","legacy","Lentiform Loewenfeld","3.3.7","yes","yes","600bd7cfb6416f0113b04181","602110864497cf011d9c0822","0","j","NA","y","space","y","NA","j","831","NA","2739","19422","3632","NA","831","2","legacy","1024","2","48000","-16","task","5226163","odd","NA","36650","41393","38653","71991","5801","28871","25238","72492","NA","71989","72492","71946","41393","73324","34926","62059","5790","70446","Lexical Decision Task","15","18180","18","yes","1024"
"2.895974732","6.65","5","sift","word","84.21052631578948","84.21052631578948","1030.5263157894738","1030.5263157894738","black","no","legacy","legacy","legacy","0","uniform","1","undefined","undefined","undefined","1","j","0","0","0","0","18","0","0","0","18","NA","14","18","14","0","14","3","18","0","18","Wed Feb 17 11:19:14 2021","The main experiment item","yes","Lexical_Decision_Task.osexp","/Users/taaniasaeed/Desktop","no","Andale Mono","no","18","no","white","no","yes","576","legacy","14","14","3","/Users/taaniasaeed/Desktop/subject-5226163.csv","legacy","Lentiform Loewenfeld","3.3.7","yes","yes","600bd7cfb6416f0113b04181","602110864497cf011d9c0822","0","j","NA","y","space","y","NA","j","1400","NA","2739","19422","3632","NA","1400","2","legacy","1024","2","48000","-16","task","5226163","odd","NA","36650","41393","38653","73869","5801","28871","25238","74371","NA","73867","74371","73828","41393","75772","34926","73328","5790","70446","Lexical Decision Task","16","19580","19","yes","1024"
"3.149629599","0","2","cleb","non-word","85","85","1043.5","1043.5","black","no","legacy","legacy","legacy","0","uniform","1","undefined","undefined","undefined","1","f","0","0","0","0","19","0","0","0","19","NA","15","19","15","0","15","3","19","0","19","Wed Feb 17 11:19:14 2021","The main experiment item","yes","Lexical_Decision_Task.osexp","/Users/taaniasaeed/Desktop","no","Andale Mono","no","18","no","white","no","yes","576","legacy","15","15","3","/Users/taaniasaeed/Desktop/subject-5226163.csv","legacy","Lentiform Loewenfeld","3.3.7","yes","yes","600bd7cfb6416f0113b04181","602110864497cf011d9c0822","0","f","NA","y","space","y","NA","f","1290","NA","2739","19422","3632","NA","1290","2","legacy","1024","2","48000","-16","task","5226163","odd","NA","36650","41393","38653","76318","5801","28871","25238","76819","NA","76315","76819","76275","41393","78109","34926","75775","5790","70446","Lexical Decision Task","17","20870","20","yes","1024"
"3.218535505","7.85","7","goat","word","85.71428571428571","85.71428571428571","1032.7142857142858","1032.7142857142858","black","no","legacy","legacy","legacy","0","uniform","1","undefined","undefined","undefined","1","j","0","0","0","0","20","0","0","0","20","NA","16","20","16","0","16","3","20","0","20","Wed Feb 17 11:19:14 2021","The main experiment item","yes","Lexical_Decision_Task.osexp","/Users/taaniasaeed/Desktop","no","Andale Mono","no","18","no","white","no","yes","576","legacy","16","16","3","/Users/taaniasaeed/Desktop/subject-5226163.csv","legacy","Lentiform Loewenfeld","3.3.7","yes","yes","600bd7cfb6416f0113b04181","602110864497cf011d9c0822","0","j","NA","y","space","y","NA","j","817","NA","2739","19422","3632","NA","817","2","legacy","1024","2","48000","-16","task","5226163","odd","NA","36650","41393","38653","78655","5801","28871","25238","79157","NA","78653","79157","78613","41393","79975","34926","78113","5790","70446","Lexical Decision Task","18","21687","21","yes","1024"
"3.274543461","7.46","7","scar","word","86.36363636363636","86.36363636363636","1051.090909090909","1051.090909090909","black","no","legacy","legacy","legacy","0","uniform","1","undefined","undefined","undefined","1","j","0","0","0","0","21","0","0","0","21","NA","17","21","17","0","17","3","21","0","21","Wed Feb 17 11:19:14 2021","The main experiment item","yes","Lexical_Decision_Task.osexp","/Users/taaniasaeed/Desktop","no","Andale Mono","no","18","no","white","no","yes","576","legacy","17","17","3","/Users/taaniasaeed/Desktop/subject-5226163.csv","legacy","Lentiform Loewenfeld","3.3.7","yes","yes","600bd7cfb6416f0113b04181","602110864497cf011d9c0822","0","j","NA","y","space","y","NA","j","1437","NA","2739","19422","3632","NA","1437","2","legacy","1024","2","48000","-16","task","5226163","odd","NA","36650","41393","38653","80521","5801","28871","25238","81022","NA","80519","81022","80480","41393","82459","34926","79979","5790","70446","Lexical Decision Task","19","23124","22","yes","1024"
"3.031812271","6.52","3","gulp","word","86.95652173913044","86.95652173913044","1036.1739130434783","1036.1739130434783","black","no","legacy","legacy","legacy","0","uniform","1","undefined","undefined","undefined","1","j","0","0","0","0","22","0","0","0","22","NA","18","22","18","0","18","3","22","0","22","Wed Feb 17 11:19:14 2021","The main experiment item","yes","Lexical_Decision_Task.osexp","/Users/taaniasaeed/Desktop","no","Andale Mono","no","18","no","white","no","yes","576","legacy","18","18","3","/Users/taaniasaeed/Desktop/subject-5226163.csv","legacy","Lentiform Loewenfeld","3.3.7","yes","yes","600bd7cfb6416f0113b04181","602110864497cf011d9c0822","0","j","NA","y","space","y","NA","j","708","NA","2739","19422","3632","NA","708","2","legacy","1024","2","48000","-16","task","5226163","odd","NA","36650","41393","38653","83004","5801","28871","25238","83505","NA","83002","83506","82963","41393","84215","34926","82463","5790","70446","Lexical Decision Task","20","23832","23","yes","1024"
"2.668385917","5.48","4","twig","word","87.5","87.5","1017.2083333333334","1017.2083333333334","black","no","legacy","legacy","legacy","0","uniform","1","undefined","undefined","undefined","1","j","0","0","0","0","23","0","0","0","23","NA","19","23","19","0","19","3","23","0","23","Wed Feb 17 11:19:14 2021","The main experiment item","yes","Lexical_Decision_Task.osexp","/Users/taaniasaeed/Desktop","no","Andale Mono","no","18","no","white","no","yes","576","legacy","19","19","3","/Users/taaniasaeed/Desktop/subject-5226163.csv","legacy","Lentiform Loewenfeld","3.3.7","yes","yes","600bd7cfb6416f0113b04181","602110864497cf011d9c0822","0","j","NA","y","space","y","NA","j","581","NA","2739","19422","3632","NA","581","2","legacy","1024","2","48000","-16","task","5226163","odd","NA","36650","41393","38653","84761","5801","28871","25238","85263","NA","84759","85263","84718","41393","85844","34926","84218","5790","70446","Lexical Decision Task","21","24413","24","yes","1024"
"2.6599162","0","2","saff","non-word","88","88","1008.36","1008.36","black","no","legacy","legacy","legacy","0","uniform","1","undefined","undefined","undefined","1","f","0","0","0","0","24","0","0","0","24","NA","20","24","20","0","20","3","24","0","24","Wed Feb 17 11:19:14 2021","The main experiment item","yes","Lexical_Decision_Task.osexp","/Users/taaniasaeed/Desktop","no","Andale Mono","no","18","no","white","no","yes","576","legacy","20","20","3","/Users/taaniasaeed/Desktop/subject-5226163.csv","legacy","Lentiform Loewenfeld","3.3.7","yes","yes","600bd7cfb6416f0113b04181","602110864497cf011d9c0822","0","f","NA","y","space","y","NA","f","796","NA","2739","19422","3632","NA","796","2","legacy","1024","2","48000","-16","task","5226163","odd","NA","36650","41393","38653","86393","5801","28871","25238","86896","NA","86391","86896","86348","41393","87693","34926","85848","5790","70446","Lexical Decision Task","22","25209","25","yes","1024"
"3.252447662","9.67","9","boat","word","88.46153846153847","88.46153846153847","1003.6923076923077","1003.6923076923077","black","no","legacy","legacy","legacy","0","uniform","1","undefined","undefined","undefined","1","j","0","0","0","0","25","0","0","0","25","NA","21","25","21","0","21","3","25","0","25","Wed Feb 17 11:19:14 2021","The main experiment item","yes","Lexical_Decision_Task.osexp","/Users/taaniasaeed/Desktop","no","Andale Mono","no","18","no","white","no","yes","576","legacy","21","21","3","/Users/taaniasaeed/Desktop/subject-5226163.csv","legacy","Lentiform Loewenfeld","3.3.7","yes","yes","600bd7cfb6416f0113b04181","602110864497cf011d9c0822","0","j","NA","y","space","y","NA","j","887","NA","2739","19422","3632","NA","887","2","legacy","1024","2","48000","-16","task","5226163","odd","NA","36650","41393","38653","88238","5801","28871","25238","88739","NA","88236","88740","88197","41393","89627","34926","87697","5790","70446","Lexical Decision Task","23","26096","26","yes","1024"
"2.907588697","8.91","9","mood","word","88.88888888888889","88.88888888888889","988.2222222222222","988.2222222222222","black","no","legacy","legacy","legacy","0","uniform","1","undefined","undefined","undefined","1","j","0","0","0","0","26","0","0","0","26","NA","22","26","22","0","22","3","26","0","26","Wed Feb 17 11:19:14 2021","The main experiment item","yes","Lexical_Decision_Task.osexp","/Users/taaniasaeed/Desktop","no","Andale Mono","no","18","no","white","no","yes","576","legacy","22","22","3","/Users/taaniasaeed/Desktop/subject-5226163.csv","legacy","Lentiform Loewenfeld","3.3.7","yes","yes","600bd7cfb6416f0113b04181","602110864497cf011d9c0822","0","j","NA","y","space","y","NA","j","586","NA","2739","19422","3632","NA","586","2","legacy","1024","2","48000","-16","task","5226163","odd","NA","36650","41393","38653","90174","5801","28871","25238","90676","NA","90172","90676","90131","41393","91263","34926","89631","5790","70446","Lexical Decision Task","24","26682","27","yes","1024"
"2.986323777","10.85","8","ship","word","89.28571428571429","89.28571428571429","978.0357142857143","978.0357142857143","black","no","legacy","legacy","legacy","0","uniform","1","undefined","undefined","undefined","1","j","0","0","0","0","27","0","0","0","27","NA","23","27","23","0","23","3","27","0","27","Wed Feb 17 11:19:14 2021","The main experiment item","yes","Lexical_Decision_Task.osexp","/Users/taaniasaeed/Desktop","no","Andale Mono","no","18","no","white","no","yes","576","legacy","23","23","3","/Users/taaniasaeed/Desktop/subject-5226163.csv","legacy","Lentiform Loewenfeld","3.3.7","yes","yes","600bd7cfb6416f0113b04181","602110864497cf011d9c0822","0","j","NA","y","space","y","NA","j","703","NA","2739","19422","3632","NA","703","2","legacy","1024","2","48000","-16","task","5226163","odd","NA","36650","41393","38653","91809","5801","28871","25238","92311","NA","91807","92311","91766","41393","93015","34926","91266","5790","70446","Lexical Decision Task","25","27385","28","yes","1024"
"2.778633532","0","3","jurp","non-word","89.65517241379311","89.65517241379311","975.2758620689655","975.2758620689655","black","no","legacy","legacy","legacy","0","uniform","1","undefined","undefined","undefined","1","f","0","0","0","0","28","0","0","0","28","NA","24","28","24","0","24","3","28","0","28","Wed Feb 17 11:19:14 2021","The main experiment item","yes","Lexical_Decision_Task.osexp","/Users/taaniasaeed/Desktop","no","Andale Mono","no","18","no","white","no","yes","576","legacy","24","24","3","/Users/taaniasaeed/Desktop/subject-5226163.csv","legacy","Lentiform Loewenfeld","3.3.7","yes","yes","600bd7cfb6416f0113b04181","602110864497cf011d9c0822","0","f","NA","y","space","y","NA","f","898","NA","2739","19422","3632","NA","898","2","legacy","1024","2","48000","-16","task","5226163","odd","NA","36650","41393","38653","93574","5801","28871","25238","94076","NA","93570","94077","93519","41393","94976","34926","93019","5790","70446","Lexical Decision Task","26","28283","29","yes","1024"
"2.8162413","0","5","nusk","non-word","90","90","960.7666666666667","960.7666666666667","black","no","legacy","legacy","legacy","0","uniform","1","undefined","undefined","undefined","1","f","0","0","0","0","29","0","0","0","29","NA","25","29","25","0","25","3","29","0","29","Wed Feb 17 11:19:14 2021","The main experiment item","yes","Lexical_Decision_Task.osexp","/Users/taaniasaeed/Desktop","no","Andale Mono","no","18","no","white","no","yes","576","legacy","25","25","3","/Users/taaniasaeed/Desktop/subject-5226163.csv","legacy","Lentiform Loewenfeld","3.3.7","yes","yes","600bd7cfb6416f0113b04181","602110864497cf011d9c0822","0","f","NA","y","space","y","NA","f","540","NA","2739","19422","3632","NA","540","2","legacy","1024","2","48000","-16","task","5226163","odd","NA","36650","41393","38653","95524","5801","28871","25238","96025","NA","95522","96025","95480","41393","96566","34926","94980","5790","70446","Lexical Decision Task","27","28823","30","yes","1024"
"2.719886232","7.98","2","quiz","word","90.3225806451613","90.3225806451613","946.6129032258065","946.6129032258065","black","no","legacy","legacy","legacy","0","uniform","1","undefined","undefined","undefined","1","j","0","0","0","0","30","0","0","0","30","NA","26","30","26","0","26","3","30","0","30","Wed Feb 17 11:19:14 2021","The main experiment item","yes","Lexical_Decision_Task.osexp","/Users/taaniasaeed/Desktop","no","Andale Mono","no","18","no","white","no","yes","576","legacy","26","26","3","/Users/taaniasaeed/Desktop/subject-5226163.csv","legacy","Lentiform Loewenfeld","3.3.7","yes","yes","600bd7cfb6416f0113b04181","602110864497cf011d9c0822","0","j","NA","y","space","y","NA","j","522","NA","2739","19422","3632","NA","522","2","legacy","1024","2","48000","-16","task","5226163","odd","NA","36650","41393","38653","97113","5801","28871","25238","97614","NA","97111","97614","97070","41393","98136","34926","96570","5790","70446","Lexical Decision Task","28","29345","31","yes","1024"
"2.899638141","0","3","hapt","non-word","90.625","90.625","937.3125","937.3125","black","no","legacy","legacy","legacy","0","uniform","1","undefined","undefined","undefined","1","f","0","0","0","0","31","0","0","0","31","NA","27","31","27","0","27","3","31","0","31","Wed Feb 17 11:19:14 2021","The main experiment item","yes","Lexical_Decision_Task.osexp","/Users/taaniasaeed/Desktop","no","Andale Mono","no","18","no","white","no","yes","576","legacy","27","27","3","/Users/taaniasaeed/Desktop/subject-5226163.csv","legacy","Lentiform Loewenfeld","3.3.7","yes","yes","600bd7cfb6416f0113b04181","602110864497cf011d9c0822","0","f","NA","y","space","y","NA","f","649","NA","2739","19422","3632","NA","649","2","legacy","1024","2","48000","-16","task","5226163","odd","NA","36650","41393","38653","98683","5801","28871","25238","99185","NA","98682","99186","98640","41393","99836","34926","98140","5790","70446","Lexical Decision Task","29","29994","32","yes","1024"
"2.728085817","10.02","9","bike","word","90.9090909090909","90.9090909090909","923.9090909090909","923.9090909090909","black","no","legacy","legacy","legacy","0","uniform","1","undefined","undefined","undefined","1","j","0","0","0","0","32","0","0","0","32","NA","28","32","28","0","28","3","32","0","32","Wed Feb 17 11:19:14 2021","The main experiment item","yes","Lexical_Decision_Task.osexp","/Users/taaniasaeed/Desktop","no","Andale Mono","no","18","no","white","no","yes","576","legacy","28","28","3","/Users/taaniasaeed/Desktop/subject-5226163.csv","legacy","Lentiform Loewenfeld","3.3.7","yes","yes","600bd7cfb6416f0113b04181","602110864497cf011d9c0822","0","j","NA","y","space","y","NA","j","495","NA","2739","19422","3632","NA","495","2","legacy","1024","2","48000","-16","task","5226163","odd","NA","36650","41393","38653","100381","5801","28871","25238","100883","NA","100379","100883","100340","41393","101379","34926","99840","5790","70446","Lexical Decision Task","30","30489","33","yes","1024"
"2.746890964","9.67","3","plug","word","91.17647058823529","91.17647058823529","913.9117647058823","913.9117647058823","black","no","legacy","legacy","legacy","0","uniform","1","undefined","undefined","undefined","1","j","0","0","0","0","33","0","0","0","33","NA","29","33","29","0","29","3","33","0","33","Wed Feb 17 11:19:14 2021","The main experiment item","yes","Lexical_Decision_Task.osexp","/Users/taaniasaeed/Desktop","no","Andale Mono","no","18","no","white","no","yes","576","legacy","29","29","3","/Users/taaniasaeed/Desktop/subject-5226163.csv","legacy","Lentiform Loewenfeld","3.3.7","yes","yes","600bd7cfb6416f0113b04181","602110864497cf011d9c0822","0","j","NA","y","space","y","NA","j","584","NA","2739","19422","3632","NA","584","2","legacy","1024","2","48000","-16","task","5226163","odd","NA","36650","41393","38653","101924","5801","28871","25238","102427","NA","101923","102427","101883","41393","103011","34926","101383","5790","70446","Lexical Decision Task","31","31073","34","yes","1024"
"3.091901331","0","9","nipe","non-word","91.42857142857143","91.42857142857143","910","910","black","no","legacy","legacy","legacy","0","uniform","1","undefined","undefined","undefined","1","f","0","0","0","0","34","0","0","0","34","NA","30","34","30","0","30","3","34","0","34","Wed Feb 17 11:19:14 2021","The main experiment item","yes","Lexical_Decision_Task.osexp","/Users/taaniasaeed/Desktop","no","Andale Mono","no","18","no","white","no","yes","576","legacy","30","30","3","/Users/taaniasaeed/Desktop/subject-5226163.csv","legacy","Lentiform Loewenfeld","3.3.7","yes","yes","600bd7cfb6416f0113b04181","602110864497cf011d9c0822","0","f","NA","y","space","y","NA","f","777","NA","2739","19422","3632","NA","777","2","legacy","1024","2","48000","-16","task","5226163","odd","NA","36650","41393","38653","103558","5801","28871","25238","104059","NA","103556","104059","103515","41393","104837","34926","103015","5790","70446","Lexical Decision Task","32","31850","35","yes","1024"
"3.102203805","7.21","3","drip","word","91.66666666666667","91.66666666666667","903.9166666666666","903.9166666666666","black","no","legacy","legacy","legacy","0","uniform","1","undefined","undefined","undefined","1","j","0","0","0","0","35","0","0","0","35","NA","31","35","31","0","31","3","35","0","35","Wed Feb 17 11:19:14 2021","The main experiment item","yes","Lexical_Decision_Task.osexp","/Users/taaniasaeed/Desktop","no","Andale Mono","no","18","no","white","no","yes","576","legacy","31","31","3","/Users/taaniasaeed/Desktop/subject-5226163.csv","legacy","Lentiform Loewenfeld","3.3.7","yes","yes","600bd7cfb6416f0113b04181","602110864497cf011d9c0822","0","j","NA","y","space","y","NA","j","691","NA","2739","19422","3632","NA","691","2","legacy","1024","2","48000","-16","task","5226163","odd","NA","36650","41393","38653","105384","5801","28871","25238","105887","NA","105382","105887","105341","41393","106579","34926","104841","5790","70446","Lexical Decision Task","33","32541","36","yes","1024"
"3.208172527","10.27","7","deck","word","91.89189189189189","91.89189189189189","942.4324324324324","942.4324324324324","black","no","legacy","legacy","legacy","0","uniform","1","undefined","undefined","undefined","1","j","0","0","0","0","36","0","0","0","36","NA","32","36","32","0","32","3","36","0","36","Wed Feb 17 11:19:14 2021","The main experiment item","yes","Lexical_Decision_Task.osexp","/Users/taaniasaeed/Desktop","no","Andale Mono","no","18","no","white","no","yes","576","legacy","32","32","3","/Users/taaniasaeed/Desktop/subject-5226163.csv","legacy","Lentiform Loewenfeld","3.3.7","yes","yes","600bd7cfb6416f0113b04181","602110864497cf011d9c0822","0","j","NA","y","space","y","NA","j","2329","NA","2739","19422","3632","NA","2329","2","legacy","1024","2","48000","-16","task","5226163","odd","NA","36650","41393","38653","107129","5801","28871","25238","107630","NA","107127","107631","107083","41393","109962","34926","106582","5790","70446","Lexical Decision Task","34","34870","37","yes","1024"
"3.261341392","5.08","8","reek","word","92.10526315789474","92.10526315789474","941.5","941.5","black","no","legacy","legacy","legacy","0","uniform","1","undefined","undefined","undefined","1","j","0","0","0","0","37","0","0","0","37","NA","33","37","33","0","33","3","37","0","37","Wed Feb 17 11:19:14 2021","The main experiment item","yes","Lexical_Decision_Task.osexp","/Users/taaniasaeed/Desktop","no","Andale Mono","no","18","no","white","no","yes","576","legacy","33","33","3","/Users/taaniasaeed/Desktop/subject-5226163.csv","legacy","Lentiform Loewenfeld","3.3.7","yes","yes","600bd7cfb6416f0113b04181","602110864497cf011d9c0822","0","j","NA","y","space","y","NA","j","907","NA","2739","19422","3632","NA","907","2","legacy","1024","2","48000","-16","task","5226163","odd","NA","36650","41393","38653","110511","5801","28871","25238","111014","NA","110509","111014","110466","41393","111921","34926","109966","5790","70446","Lexical Decision Task","35","35777","38","yes","1024"
"2.893578687","8.69","3","surf","word","92.3076923076923","92.3076923076923","928.2307692307693","928.2307692307693","black","no","legacy","legacy","legacy","0","uniform","1","undefined","undefined","undefined","1","j","0","0","0","0","38","0","0","0","38","NA","34","38","34","0","34","3","38","0","38","Wed Feb 17 11:19:14 2021","The main experiment item","yes","Lexical_Decision_Task.osexp","/Users/taaniasaeed/Desktop","no","Andale Mono","no","18","no","white","no","yes","576","legacy","34","34","3","/Users/taaniasaeed/Desktop/subject-5226163.csv","legacy","Lentiform Loewenfeld","3.3.7","yes","yes","600bd7cfb6416f0113b04181","602110864497cf011d9c0822","0","j","NA","y","space","y","NA","j","424","NA","2739","19422","3632","NA","424","2","legacy","1024","2","48000","-16","task","5226163","odd","NA","36650","41393","38653","112469","5801","28871","25238","112971","NA","112467","112971","112425","41393","113395","34926","111925","5790","70446","Lexical Decision Task","36","36201","39","yes","1024"
"2.696356389","0","1","pizz","non-word","92.5","92.5","930.8","930.8","black","no","legacy","legacy","legacy","0","uniform","1","undefined","undefined","undefined","1","f","0","0","0","0","39","0","0","0","39","NA","35","39","35","0","35","3","39","0","39","Wed Feb 17 11:19:14 2021","The main experiment item","yes","Lexical_Decision_Task.osexp","/Users/taaniasaeed/Desktop","no","Andale Mono","no","18","no","white","no","yes","576","legacy","35","35","3","/Users/taaniasaeed/Desktop/subject-5226163.csv","legacy","Lentiform Loewenfeld","3.3.7","yes","yes","600bd7cfb6416f0113b04181","602110864497cf011d9c0822","0","f","NA","y","space","y","NA","f","1031","NA","2739","19422","3632","NA","1031","2","legacy","1024","2","48000","-16","task","5226163","odd","NA","36650","41393","38653","113941","5801","28871","25238","114442","NA","113939","114442","113899","41393","115474","34926","113399","5790","70446","Lexical Decision Task","37","37232","40","yes","1024"
"2.952953801","0","8","clax","non-word","92.6829268292683","92.6829268292683","941.4634146341464","941.4634146341464","black","no","legacy","legacy","legacy","0","uniform","1","undefined","undefined","undefined","1","f","0","0","0","0","40","0","0","0","40","NA","36","40","36","0","36","3","40","0","40","Wed Feb 17 11:19:14 2021","The main experiment item","yes","Lexical_Decision_Task.osexp","/Users/taaniasaeed/Desktop","no","Andale Mono","no","18","no","white","no","yes","576","legacy","36","36","3","/Users/taaniasaeed/Desktop/subject-5226163.csv","legacy","Lentiform Loewenfeld","3.3.7","yes","yes","600bd7cfb6416f0113b04181","602110864497cf011d9c0822","0","f","NA","y","space","y","NA","f","1368","NA","2739","19422","3632","NA","1368","2","legacy","1024","2","48000","-16","task","5226163","odd","NA","36650","41393","38653","116019","5801","28871","25238","116520","NA","116017","116521","115977","41393","117890","34926","115477","5790","70446","Lexical Decision Task","38","38600","41","yes","1024"
"3.492014979","0","9","yine","non-word","92.85714285714286","92.85714285714286","943.3095238095239","943.3095238095239","black","no","legacy","legacy","legacy","0","uniform","1","undefined","undefined","undefined","1","f","0","0","0","0","41","0","0","0","41","NA","37","41","37","0","37","3","41","0","41","Wed Feb 17 11:19:14 2021","The main experiment item","yes","Lexical_Decision_Task.osexp","/Users/taaniasaeed/Desktop","no","Andale Mono","no","18","no","white","no","yes","576","legacy","37","37","3","/Users/taaniasaeed/Desktop/subject-5226163.csv","legacy","Lentiform Loewenfeld","3.3.7","yes","yes","600bd7cfb6416f0113b04181","602110864497cf011d9c0822","0","f","NA","y","space","y","NA","f","1019","NA","2739","19422","3632","NA","1019","2","legacy","1024","2","48000","-16","task","5226163","odd","NA","36650","41393","38653","118435","5801","28871","25238","118937","NA","118433","118937","118395","41393","119957","34926","117895","5790","70446","Lexical Decision Task","39","39619","42","yes","1024"
"2.966923697","5.4","2","fume","word","93.02325581395348","93.02325581395348","937.5116279069767","937.5116279069767","black","no","legacy","legacy","legacy","0","uniform","1","undefined","undefined","undefined","1","j","0","0","0","0","42","0","0","0","42","NA","38","42","38","0","38","3","42","0","42","Wed Feb 17 11:19:14 2021","The main experiment item","yes","Lexical_Decision_Task.osexp","/Users/taaniasaeed/Desktop","no","Andale Mono","no","18","no","white","no","yes","576","legacy","38","38","3","/Users/taaniasaeed/Desktop/subject-5226163.csv","legacy","Lentiform Loewenfeld","3.3.7","yes","yes","600bd7cfb6416f0113b04181","602110864497cf011d9c0822","0","j","NA","y","space","y","NA","j","694","NA","2739","19422","3632","NA","694","2","legacy","1024","2","48000","-16","task","5226163","odd","NA","36650","41393","38653","120502","5801","28871","25238","121004","NA","120501","121004","120461","41393","121699","34926","119961","5790","70446","Lexical Decision Task","40","40313","43","yes","1024"
"3.066077331","0","7","vorn","non-word","93.18181818181819","93.18181818181819","950.5681818181819","950.5681818181819","black","no","legacy","legacy","legacy","0","uniform","1","undefined","undefined","undefined","1","f","0","0","0","0","43","0","0","0","43","NA","39","43","39","0","39","3","43","0","43","Wed Feb 17 11:19:14 2021","The main experiment item","yes","Lexical_Decision_Task.osexp","/Users/taaniasaeed/Desktop","no","Andale Mono","no","18","no","white","no","yes","576","legacy","39","39","3","/Users/taaniasaeed/Desktop/subject-5226163.csv","legacy","Lentiform Loewenfeld","3.3.7","yes","yes","600bd7cfb6416f0113b04181","602110864497cf011d9c0822","0","f","NA","y","space","y","NA","f","1512","NA","2739","19422","3632","NA","1512","2","legacy","1024","2","48000","-16","task","5226163","odd","NA","36650","41393","38653","122244","5801","28871","25238","122745","NA","122243","122745","122203","41393","124258","34926","121703","5790","70446","Lexical Decision Task","41","41825","44","yes","1024"
"2.594027722","9.08","8","skip","word","93.33333333333333","93.33333333333333","948","948","black","no","legacy","legacy","legacy","0","uniform","1","undefined","undefined","undefined","1","j","0","0","0","0","44","0","0","0","44","NA","40","44","40","0","40","3","44","0","44","Wed Feb 17 11:19:14 2021","The main experiment item","yes","Lexical_Decision_Task.osexp","/Users/taaniasaeed/Desktop","no","Andale Mono","no","18","no","white","no","yes","576","legacy","40","40","3","/Users/taaniasaeed/Desktop/subject-5226163.csv","legacy","Lentiform Loewenfeld","3.3.7","yes","yes","600bd7cfb6416f0113b04181","602110864497cf011d9c0822","0","j","NA","y","space","y","NA","j","835","NA","2739","19422","3632","NA","835","2","legacy","1024","2","48000","-16","task","5226163","odd","NA","36650","41393","38653","124804","5801","28871","25238","125305","NA","124802","125305","124763","41393","126141","34926","124263","5790","70446","Lexical Decision Task","42","42660","45","yes","1024"
"2.799799878","0","4","ciff","non-word","93.47826086956522","93.47826086956522","943.3695652173913","943.3695652173913","black","no","legacy","legacy","legacy","0","uniform","1","undefined","undefined","undefined","1","f","0","0","0","0","45","0","0","0","45","NA","41","45","41","0","41","3","45","0","45","Wed Feb 17 11:19:14 2021","The main experiment item","yes","Lexical_Decision_Task.osexp","/Users/taaniasaeed/Desktop","no","Andale Mono","no","18","no","white","no","yes","576","legacy","41","41","3","/Users/taaniasaeed/Desktop/subject-5226163.csv","legacy","Lentiform Loewenfeld","3.3.7","yes","yes","600bd7cfb6416f0113b04181","602110864497cf011d9c0822","0","f","NA","y","space","y","NA","f","735","NA","2739","19422","3632","NA","735","2","legacy","1024","2","48000","-16","task","5226163","odd","NA","36650","41393","38653","126686","5801","28871","25238","127188","NA","126684","127189","126645","41393","127924","34926","126145","5790","70446","Lexical Decision Task","43","43395","46","yes","1024"
"3.153001286","8.7","5","palm","word","93.61702127659575","93.61702127659575","942.3404255319149","942.3404255319149","black","no","legacy","legacy","legacy","0","uniform","1","undefined","undefined","undefined","1","j","0","0","0","0","46","0","0","0","46","NA","42","46","42","0","42","3","46","0","46","Wed Feb 17 11:19:14 2021","The main experiment item","yes","Lexical_Decision_Task.osexp","/Users/taaniasaeed/Desktop","no","Andale Mono","no","18","no","white","no","yes","576","legacy","42","42","3","/Users/taaniasaeed/Desktop/subject-5226163.csv","legacy","Lentiform Loewenfeld","3.3.7","yes","yes","600bd7cfb6416f0113b04181","602110864497cf011d9c0822","0","j","NA","y","space","y","NA","j","895","NA","2739","19422","3632","NA","895","2","legacy","1024","2","48000","-16","task","5226163","odd","NA","36650","41393","38653","128470","5801","28871","25238","128971","NA","128468","128972","128428","41393","129868","34926","127928","5790","70446","Lexical Decision Task","44","44290","47","yes","1024"
"3.094121596","0","8","fode","non-word","93.75","93.75","947.5208333333334","947.5208333333334","black","no","legacy","legacy","legacy","0","uniform","1","undefined","undefined","undefined","1","f","0","0","0","0","47","0","0","0","47","NA","43","47","43","0","43","3","47","0","47","Wed Feb 17 11:19:14 2021","The main experiment item","yes","Lexical_Decision_Task.osexp","/Users/taaniasaeed/Desktop","no","Andale Mono","no","18","no","white","no","yes","576","legacy","43","43","3","/Users/taaniasaeed/Desktop/subject-5226163.csv","legacy","Lentiform Loewenfeld","3.3.7","yes","yes","600bd7cfb6416f0113b04181","602110864497cf011d9c0822","0","f","NA","y","space","y","NA","f","1191","NA","2739","19422","3632","NA","1191","2","legacy","1024","2","48000","-16","task","5226163","odd","NA","36650","41393","38653","130416","5801","28871","25238","130917","NA","130414","130918","130372","41393","132110","34926","129871","5790","70446","Lexical Decision Task","45","45481","48","yes","1024"
"2.807758206","6.25","4","hurl","word","93.87755102040816","93.87755102040816","950.4897959183673","950.4897959183673","black","no","legacy","legacy","legacy","0","uniform","1","undefined","undefined","undefined","1","j","0","0","0","0","48","0","0","0","48","NA","44","48","44","0","44","3","48","0","48","Wed Feb 17 11:19:14 2021","The main experiment item","yes","Lexical_Decision_Task.osexp","/Users/taaniasaeed/Desktop","no","Andale Mono","no","18","no","white","no","yes","576","legacy","44","44","3","/Users/taaniasaeed/Desktop/subject-5226163.csv","legacy","Lentiform Loewenfeld","3.3.7","yes","yes","600bd7cfb6416f0113b04181","602110864497cf011d9c0822","0","j","NA","y","space","y","NA","j","1093","NA","2739","19422","3632","NA","1093","2","legacy","1024","2","48000","-16","task","5226163","odd","NA","36650","41393","38653","132657","5801","28871","25238","133158","NA","132655","133159","132615","41393","134253","34926","132115","5790","70446","Lexical Decision Task","46","46574","49","yes","1024"
"2.819763221","0","2","durp","non-word","94","94","956.04","956.04","black","no","legacy","legacy","legacy","0","uniform","1","undefined","undefined","undefined","1","f","0","0","0","0","49","0","0","0","49","NA","45","49","45","0","45","3","49","0","49","Wed Feb 17 11:19:14 2021","The main experiment item","yes","Lexical_Decision_Task.osexp","/Users/taaniasaeed/Desktop","no","Andale Mono","no","18","no","white","no","yes","576","legacy","45","45","3","/Users/taaniasaeed/Desktop/subject-5226163.csv","legacy","Lentiform Loewenfeld","3.3.7","yes","yes","600bd7cfb6416f0113b04181","602110864497cf011d9c0822","0","f","NA","y","space","y","NA","f","1228","NA","2739","19422","3632","NA","1228","2","legacy","1024","2","48000","-16","task","5226163","odd","NA","36650","41393","38653","134797","5801","28871","25238","135300","NA","134795","135300","134756","41393","136529","34926","134256","5790","70446","Lexical Decision Task","47","47802","50","yes","1024"
"2.983324025","9.56","2","debt","word","94.11764705882354","94.11764705882354","952.3725490196078","952.3725490196078","black","no","legacy","legacy","legacy","0","uniform","1","undefined","undefined","undefined","1","j","0","0","0","0","50","0","0","0","50","NA","46","50","46","0","46","3","50","0","50","Wed Feb 17 11:19:14 2021","The main experiment item","yes","Lexical_Decision_Task.osexp","/Users/taaniasaeed/Desktop","no","Andale Mono","no","18","no","white","no","yes","576","legacy","46","46","3","/Users/taaniasaeed/Desktop/subject-5226163.csv","legacy","Lentiform Loewenfeld","3.3.7","yes","yes","600bd7cfb6416f0113b04181","602110864497cf011d9c0822","0","j","NA","y","space","y","NA","j","769","NA","2739","19422","3632","NA","769","2","legacy","1024","2","48000","-16","task","5226163","odd","NA","36650","41393","38653","137072","5801","28871","25238","137574","NA","137071","137574","137032","41393","138344","34926","136532","5790","70446","Lexical Decision Task","48","48571","51","yes","1024"
"3.302475237","0","7","leel","non-word","94.23076923076923","94.23076923076923","950.8653846153846","950.8653846153846","black","no","legacy","legacy","legacy","0","uniform","1","undefined","undefined","undefined","1","f","0","0","0","0","51","0","0","0","51","NA","47","51","47","0","47","3","51","0","51","Wed Feb 17 11:19:14 2021","The main experiment item","yes","Lexical_Decision_Task.osexp","/Users/taaniasaeed/Desktop","no","Andale Mono","no","18","no","white","no","yes","576","legacy","47","47","3","/Users/taaniasaeed/Desktop/subject-5226163.csv","legacy","Lentiform Loewenfeld","3.3.7","yes","yes","600bd7cfb6416f0113b04181","602110864497cf011d9c0822","0","f","NA","y","space","y","NA","f","874","NA","2739","19422","3632","NA","874","2","legacy","1024","2","48000","-16","task","5226163","odd","NA","36650","41393","38653","138887","5801","28871","25238","139389","NA","138885","139390","138847","41393","140265","34926","138347","5790","70446","Lexical Decision Task","49","49445","52","yes","1024"
"3.1430148","7.92","8","bald","word","94.33962264150944","94.33962264150944","944.5283018867924","944.5283018867924","black","no","legacy","legacy","legacy","0","uniform","1","undefined","undefined","undefined","1","j","0","0","0","0","52","0","0","0","52","NA","48","52","48","0","48","3","52","0","52","Wed Feb 17 11:19:14 2021","The main experiment item","yes","Lexical_Decision_Task.osexp","/Users/taaniasaeed/Desktop","no","Andale Mono","no","18","no","white","no","yes","576","legacy","48","48","3","/Users/taaniasaeed/Desktop/subject-5226163.csv","legacy","Lentiform Loewenfeld","3.3.7","yes","yes","600bd7cfb6416f0113b04181","602110864497cf011d9c0822","0","j","NA","y","space","y","NA","j","615","NA","2739","19422","3632","NA","615","2","legacy","1024","2","48000","-16","task","5226163","odd","NA","36650","41393","38653","140810","5801","28871","25238","141312","NA","140808","141312","140769","41393","141928","34926","140269","5790","70446","Lexical Decision Task","50","50060","53","yes","1024"
"3.531734309","0","6","lerd","non-word","94.44444444444444","94.44444444444444","946.6666666666666","946.6666666666666","black","no","legacy","legacy","legacy","0","uniform","1","undefined","undefined","undefined","1","f","0","0","0","0","53","0","0","0","53","NA","49","53","49","0","49","3","53","0","53","Wed Feb 17 11:19:14 2021","The main experiment item","yes","Lexical_Decision_Task.osexp","/Users/taaniasaeed/Desktop","no","Andale Mono","no","18","no","white","no","yes","576","legacy","49","49","3","/Users/taaniasaeed/Desktop/subject-5226163.csv","legacy","Lentiform Loewenfeld","3.3.7","yes","yes","600bd7cfb6416f0113b04181","602110864497cf011d9c0822","0","f","NA","y","space","y","NA","f","1060","NA","2739","19422","3632","NA","1060","2","legacy","1024","2","48000","-16","task","5226163","odd","NA","36650","41393","38653","142476","5801","28871","25238","142977","NA","142474","142977","142432","41393","144038","34926","141932","5790","70446","Lexical Decision Task","51","51120","54","yes","1024"
"2.698100546","0","9","mulk","non-word","94.54545454545455","94.54545454545455","942.0363636363636","942.0363636363636","black","no","legacy","legacy","legacy","0","uniform","1","undefined","undefined","undefined","1","f","0","0","0","0","54","0","0","0","54","0","50","54","50","0","50","3","54","0","54","Wed Feb 17 11:19:14 2021","The main experiment item","yes","Lexical_Decision_Task.osexp","/Users/taaniasaeed/Desktop","no","Andale Mono","no","18","no","white","no","yes","576","legacy","50","50","3","/Users/taaniasaeed/Desktop/subject-5226163.csv","legacy","Lentiform Loewenfeld","3.3.7","yes","yes","600bd7cfb6416f0113b04181","602110864497cf011d9c0822","0","f","NA","y","space","y","f","f","692","NA","2739","19422","3632","9286","692","2","legacy","1024","2","48000","-16","task","5226163","odd","NA","36650","41393","38653","153899","5801","28871","25238","154401","144562","153896","154401","144542","41393","155094","34926","144042","5790","70446","Lexical Decision Task","52","51812","55","yes","1024"
"3.440331212","7.35","6","stew","word","94.64285714285714","94.64285714285714","933.2142857142857","933.2142857142857","black","no","legacy","legacy","legacy","0","uniform","1","undefined","undefined","undefined","1","j","0","0","0","0","55","0","0","0","55","0","51","55","51","0","51","3","55","0","55","Wed Feb 17 11:19:14 2021","The main experiment item","yes","Lexical_Decision_Task.osexp","/Users/taaniasaeed/Desktop","no","Andale Mono","no","18","no","white","no","yes","576","legacy","51","51","3","/Users/taaniasaeed/Desktop/subject-5226163.csv","legacy","Lentiform Loewenfeld","3.3.7","yes","yes","600bd7cfb6416f0113b04181","602110864497cf011d9c0822","0","j","NA","y","space","y","f","j","448","NA","2739","19422","3632","9286","448","2","legacy","1024","2","48000","-16","task","5226163","odd","NA","36650","41393","38653","155639","5801","28871","25238","156141","144562","155637","156142","155598","41393","156591","34926","155098","5790","70446","Lexical Decision Task","53","52260","56","yes","1024"
"2.706148589","0","4","hube","non-word","94.73684210526316","94.73684210526316","926.6315789473684","926.6315789473684","black","no","legacy","legacy","legacy","0","uniform","1","undefined","undefined","undefined","1","f","0","0","0","0","56","0","0","0","56","0","52","56","52","0","52","3","56","0","56","Wed Feb 17 11:19:14 2021","The main experiment item","yes","Lexical_Decision_Task.osexp","/Users/taaniasaeed/Desktop","no","Andale Mono","no","18","no","white","no","yes","576","legacy","52","52","3","/Users/taaniasaeed/Desktop/subject-5226163.csv","legacy","Lentiform Loewenfeld","3.3.7","yes","yes","600bd7cfb6416f0113b04181","602110864497cf011d9c0822","0","f","NA","y","space","y","f","f","558","NA","2739","19422","3632","9286","558","2","legacy","1024","2","48000","-16","task","5226163","odd","NA","36650","41393","38653","157137","5801","28871","25238","157639","144562","157135","157640","157096","41393","158199","34926","156596","5790","70446","Lexical Decision Task","54","52818","57","yes","1024"
"3.374137706","10.21","4","tree","word","93.10344827586206","93.10344827586206","918.1034482758621","918.1034482758621","black","no","legacy","legacy","legacy","0","uniform","0","undefined","undefined","undefined","0","j","0","0","0","0","57","0","0","0","57","0","53","57","53","0","53","3","57","0","57","Wed Feb 17 11:19:14 2021","The main experiment item","yes","Lexical_Decision_Task.osexp","/Users/taaniasaeed/Desktop","no","Andale Mono","no","18","no","white","no","yes","576","legacy","53","53","3","/Users/taaniasaeed/Desktop/subject-5226163.csv","legacy","Lentiform Loewenfeld","3.3.7","yes","yes","600bd7cfb6416f0113b04181","602110864497cf011d9c0822","0","f","NA","y","space","y","f","f","432","NA","2739","19422","3632","9286","432","2","legacy","1024","2","48000","-16","task","5226163","odd","NA","36650","41393","38653","158744","5801","28871","25238","159246","144562","158742","159246","158703","41393","159679","34926","158203","5790","70446","Lexical Decision Task","54","53250","58","yes","1024"
"3.077974404","10.41","8","tool","word","93.22033898305085","93.22033898305085","912.3220338983051","912.3220338983051","black","no","legacy","legacy","legacy","0","uniform","1","undefined","undefined","undefined","1","j","0","0","0","0","58","0","0","0","58","0","54","58","54","0","54","3","58","0","58","Wed Feb 17 11:19:14 2021","The main experiment item","yes","Lexical_Decision_Task.osexp","/Users/taaniasaeed/Desktop","no","Andale Mono","no","18","no","white","no","yes","576","legacy","54","54","3","/Users/taaniasaeed/Desktop/subject-5226163.csv","legacy","Lentiform Loewenfeld","3.3.7","yes","yes","600bd7cfb6416f0113b04181","602110864497cf011d9c0822","0","j","NA","y","space","y","f","j","577","NA","2739","19422","3632","9286","577","2","legacy","1024","2","48000","-16","task","5226163","odd","NA","36650","41393","38653","161226","5801","28871","25238","161728","144562","161224","161728","161183","41393","162306","34926","158203","5790","159683","Lexical Decision Task","55","53827","59","yes","1024"
"2.69019608","9.01","2","myth","word","93.33333333333333","93.33333333333333","919.8166666666667","919.8166666666667","black","no","legacy","legacy","legacy","0","uniform","1","undefined","undefined","undefined","1","j","0","0","0","0","59","0","0","0","59","0","55","59","55","0","55","3","59","0","59","Wed Feb 17 11:19:14 2021","The main experiment item","yes","Lexical_Decision_Task.osexp","/Users/taaniasaeed/Desktop","no","Andale Mono","no","18","no","white","no","yes","576","legacy","55","55","3","/Users/taaniasaeed/Desktop/subject-5226163.csv","legacy","Lentiform Loewenfeld","3.3.7","yes","yes","600bd7cfb6416f0113b04181","602110864497cf011d9c0822","0","j","NA","y","space","y","f","j","1362","NA","2739","19422","3632","9286","1362","2","legacy","1024","2","48000","-16","task","5226163","odd","NA","36650","41393","38653","162852","5801","28871","25238","163353","144562","162850","163353","162810","41393","164716","34926","162310","5790","159683","Lexical Decision Task","56","55189","60","yes","1024"
"2.884795364","0","6","flob","non-word","93.44262295081967","93.44262295081967","916.2131147540983","916.2131147540983","black","no","legacy","legacy","legacy","0","uniform","1","undefined","undefined","undefined","1","f","0","0","0","0","60","0","0","0","60","0","56","60","56","0","56","3","60","0","60","Wed Feb 17 11:19:14 2021","The main experiment item","yes","Lexical_Decision_Task.osexp","/Users/taaniasaeed/Desktop","no","Andale Mono","no","18","no","white","no","yes","576","legacy","56","56","3","/Users/taaniasaeed/Desktop/subject-5226163.csv","legacy","Lentiform Loewenfeld","3.3.7","yes","yes","600bd7cfb6416f0113b04181","602110864497cf011d9c0822","0","f","NA","y","space","y","f","f","700","NA","2739","19422","3632","9286","700","2","legacy","1024","2","48000","-16","task","5226163","odd","NA","36650","41393","38653","165261","5801","28871","25238","165762","144562","165259","165763","165220","41393","166464","34926","164720","5790","159683","Lexical Decision Task","57","55889","61","yes","1024"
"2.842815106","7.86","8","lump","word","93.54838709677419","93.54838709677419","912.5806451612904","912.5806451612904","black","no","legacy","legacy","legacy","0","uniform","1","undefined","undefined","undefined","1","j","0","0","0","0","61","0","0","0","61","0","57","61","57","0","57","3","61","0","61","Wed Feb 17 11:19:14 2021","The main experiment item","yes","Lexical_Decision_Task.osexp","/Users/taaniasaeed/Desktop","no","Andale Mono","no","18","no","white","no","yes","576","legacy","57","57","3","/Users/taaniasaeed/Desktop/subject-5226163.csv","legacy","Lentiform Loewenfeld","3.3.7","yes","yes","600bd7cfb6416f0113b04181","602110864497cf011d9c0822","0","j","NA","y","space","y","f","j","691","NA","2739","19422","3632","9286","691","2","legacy","1024","2","48000","-16","task","5226163","odd","NA","36650","41393","38653","167009","5801","28871","25238","167510","144562","167007","167511","166968","41393","168202","34926","166468","5790","159683","Lexical Decision Task","58","56580","62","yes","1024"
"3.282244367","0","6","fute","non-word","93.65079365079364","93.65079365079364","911.6666666666666","911.6666666666666","black","no","legacy","legacy","legacy","0","uniform","1","undefined","undefined","undefined","1","f","0","0","0","0","62","0","0","0","62","0","58","62","58","0","58","3","62","0","62","Wed Feb 17 11:19:14 2021","The main experiment item","yes","Lexical_Decision_Task.osexp","/Users/taaniasaeed/Desktop","no","Andale Mono","no","18","no","white","no","yes","576","legacy","58","58","3","/Users/taaniasaeed/Desktop/subject-5226163.csv","legacy","Lentiform Loewenfeld","3.3.7","yes","yes","600bd7cfb6416f0113b04181","602110864497cf011d9c0822","0","f","NA","y","space","y","f","f","855","NA","2739","19422","3632","9286","855","2","legacy","1024","2","48000","-16","task","5226163","odd","NA","36650","41393","38653","168748","5801","28871","25238","169250","144562","168746","169250","168706","41393","170105","34926","168206","5790","159683","Lexical Decision Task","59","57435","63","yes","1024"
"2.616654026","9.37","5","gift","word","93.75","93.75","905.53125","905.53125","black","no","legacy","legacy","legacy","0","uniform","1","undefined","undefined","undefined","1","j","0","0","0","0","63","0","0","0","63","0","59","63","59","0","59","3","63","0","63","Wed Feb 17 11:19:14 2021","The main experiment item","yes","Lexical_Decision_Task.osexp","/Users/taaniasaeed/Desktop","no","Andale Mono","no","18","no","white","no","yes","576","legacy","59","59","3","/Users/taaniasaeed/Desktop/subject-5226163.csv","legacy","Lentiform Loewenfeld","3.3.7","yes","yes","600bd7cfb6416f0113b04181","602110864497cf011d9c0822","0","j","NA","y","space","y","f","j","519","NA","2739","19422","3632","9286","519","2","legacy","1024","2","48000","-16","task","5226163","odd","NA","36650","41393","38653","170650","5801","28871","25238","171152","144562","170648","171152","170609","41393","171671","34926","170109","5790","159683","Lexical Decision Task","60","57954","64","yes","1024"
"3.263399331","0","8","cour","non-word","93.84615384615384","93.84615384615384","903.2153846153847","903.2153846153847","black","no","legacy","legacy","legacy","0","uniform","1","undefined","undefined","undefined","1","f","0","0","0","0","64","0","0","0","64","0","60","64","60","0","60","3","64","0","64","Wed Feb 17 11:19:14 2021","The main experiment item","yes","Lexical_Decision_Task.osexp","/Users/taaniasaeed/Desktop","no","Andale Mono","no","18","no","white","no","yes","576","legacy","60","60","3","/Users/taaniasaeed/Desktop/subject-5226163.csv","legacy","Lentiform Loewenfeld","3.3.7","yes","yes","600bd7cfb6416f0113b04181","602110864497cf011d9c0822","0","f","NA","y","space","y","f","f","755","NA","2739","19422","3632","9286","755","2","legacy","1024","2","48000","-16","task","5226163","odd","NA","36650","41393","38653","172218","5801","28871","25238","172720","144562","172216","172720","172175","41393","173476","34926","171675","5790","159683","Lexical Decision Task","61","58709","65","yes","1024"
"2.784379519","0","2","snaf","non-word","93.93939393939394","93.93939393939394","905","905","black","no","legacy","legacy","legacy","0","uniform","1","undefined","undefined","undefined","1","f","0","0","0","0","65","0","0","0","65","0","61","65","61","0","61","3","65","0","65","Wed Feb 17 11:19:14 2021","The main experiment item","yes","Lexical_Decision_Task.osexp","/Users/taaniasaeed/Desktop","no","Andale Mono","no","18","no","white","no","yes","576","legacy","61","61","3","/Users/taaniasaeed/Desktop/subject-5226163.csv","legacy","Lentiform Loewenfeld","3.3.7","yes","yes","600bd7cfb6416f0113b04181","602110864497cf011d9c0822","0","f","NA","y","space","y","f","f","1021","NA","2739","19422","3632","9286","1021","2","legacy","1024","2","48000","-16","task","5226163","odd","NA","36650","41393","38653","174022","5801","28871","25238","174523","144562","174020","174524","173980","41393","175546","34926","173480","5790","159683","Lexical Decision Task","62","59730","66","yes","1024"
"2.675164031","8.57","6","glue","word","94.02985074626865","94.02985074626865","900.955223880597","900.955223880597","black","no","legacy","legacy","legacy","0","uniform","1","undefined","undefined","undefined","1","j","0","0","0","0","66","0","0","0","66","0","62","66","62","0","62","3","66","0","66","Wed Feb 17 11:19:14 2021","The main experiment item","yes","Lexical_Decision_Task.osexp","/Users/taaniasaeed/Desktop","no","Andale Mono","no","18","no","white","no","yes","576","legacy","62","62","3","/Users/taaniasaeed/Desktop/subject-5226163.csv","legacy","Lentiform Loewenfeld","3.3.7","yes","yes","600bd7cfb6416f0113b04181","602110864497cf011d9c0822","0","j","NA","y","space","y","f","j","634","NA","2739","19422","3632","9286","634","2","legacy","1024","2","48000","-16","task","5226163","odd","NA","36650","41393","38653","176092","5801","28871","25238","176595","144562","176090","176595","176051","41393","177230","34926","175551","5790","159683","Lexical Decision Task","63","60364","67","yes","1024"
"3.132473155","0","4","glim","non-word","94.11764705882354","94.11764705882354","895.3382352941177","895.3382352941177","black","no","legacy","legacy","legacy","0","uniform","1","undefined","undefined","undefined","1","f","0","0","0","0","67","0","0","0","67","0","63","67","63","0","63","3","67","0","67","Wed Feb 17 11:19:14 2021","The main experiment item","yes","Lexical_Decision_Task.osexp","/Users/taaniasaeed/Desktop","no","Andale Mono","no","18","no","white","no","yes","576","legacy","63","63","3","/Users/taaniasaeed/Desktop/subject-5226163.csv","legacy","Lentiform Loewenfeld","3.3.7","yes","yes","600bd7cfb6416f0113b04181","602110864497cf011d9c0822","0","f","NA","y","space","y","f","f","519","NA","2739","19422","3632","9286","519","2","legacy","1024","2","48000","-16","task","5226163","odd","NA","36650","41393","38653","177778","5801","28871","25238","178281","144562","177776","178281","177734","41393","178801","34926","177234","5790","159683","Lexical Decision Task","64","60883","68","yes","1024"
"3.081107167","0","6","chot","non-word","94.20289855072464","94.20289855072464","890.5797101449275","890.5797101449275","black","no","legacy","legacy","legacy","0","uniform","1","undefined","undefined","undefined","1","f","0","0","0","0","68","0","0","0","68","0","64","68","64","0","64","3","68","0","68","Wed Feb 17 11:19:14 2021","The main experiment item","yes","Lexical_Decision_Task.osexp","/Users/taaniasaeed/Desktop","no","Andale Mono","no","18","no","white","no","yes","576","legacy","64","64","3","/Users/taaniasaeed/Desktop/subject-5226163.csv","legacy","Lentiform Loewenfeld","3.3.7","yes","yes","600bd7cfb6416f0113b04181","602110864497cf011d9c0822","0","f","NA","y","space","y","f","f","567","NA","2739","19422","3632","9286","567","2","legacy","1024","2","48000","-16","task","5226163","odd","NA","36650","41393","38653","179346","5801","28871","25238","179848","144562","179344","179848","179305","41393","180417","34926","178805","5790","159683","Lexical Decision Task","65","61450","69","yes","1024"
"3.431095062","5.74","9","perk","word","94.28571428571429","94.28571428571429","884.6571428571428","884.6571428571428","black","no","legacy","legacy","legacy","0","uniform","1","undefined","undefined","undefined","1","j","0","0","0","0","69","0","0","0","69","0","65","69","65","0","65","3","69","0","69","Wed Feb 17 11:19:14 2021","The main experiment item","yes","Lexical_Decision_Task.osexp","/Users/taaniasaeed/Desktop","no","Andale Mono","no","18","no","white","no","yes","576","legacy","65","65","3","/Users/taaniasaeed/Desktop/subject-5226163.csv","legacy","Lentiform Loewenfeld","3.3.7","yes","yes","600bd7cfb6416f0113b04181","602110864497cf011d9c0822","0","j","NA","y","space","y","f","j","476","NA","2739","19422","3632","9286","476","2","legacy","1024","2","48000","-16","task","5226163","odd","NA","36650","41393","38653","180985","5801","28871","25238","181488","144562","180982","181488","180921","41393","181965","34926","180421","5790","159683","Lexical Decision Task","66","61926","70","yes","1024"
"2.67699827","0","6","hulf","non-word","92.95774647887323","92.95774647887323","879.4084507042254","879.4084507042254","black","no","legacy","legacy","legacy","0","uniform","0","undefined","undefined","undefined","0","f","0","0","0","0","70","0","0","0","70","0","66","70","66","0","66","3","70","0","70","Wed Feb 17 11:19:14 2021","The main experiment item","yes","Lexical_Decision_Task.osexp","/Users/taaniasaeed/Desktop","no","Andale Mono","no","18","no","white","no","yes","576","legacy","66","66","3","/Users/taaniasaeed/Desktop/subject-5226163.csv","legacy","Lentiform Loewenfeld","3.3.7","yes","yes","600bd7cfb6416f0113b04181","602110864497cf011d9c0822","0","j","NA","y","space","y","f","j","512","NA","2739","19422","3632","9286","512","2","legacy","1024","2","48000","-16","task","5226163","odd","NA","36650","41393","38653","182511","5801","28871","25238","183012","144562","182510","183012","182469","41393","183525","34926","181969","5790","159683","Lexical Decision Task","66","62438","71","yes","1024"
"3.153104174","10.89","6","door","word","93.05555555555556","93.05555555555556","875.3333333333334","875.3333333333334","black","no","legacy","legacy","legacy","0","uniform","1","undefined","undefined","undefined","1","j","0","0","0","0","71","0","0","0","71","0","67","71","67","0","67","3","71","0","71","Wed Feb 17 11:19:14 2021","The main experiment item","yes","Lexical_Decision_Task.osexp","/Users/taaniasaeed/Desktop","no","Andale Mono","no","18","no","white","no","yes","576","legacy","67","67","3","/Users/taaniasaeed/Desktop/subject-5226163.csv","legacy","Lentiform Loewenfeld","3.3.7","yes","yes","600bd7cfb6416f0113b04181","602110864497cf011d9c0822","0","j","NA","y","space","y","f","j","586","NA","2739","19422","3632","9286","586","2","legacy","1024","2","48000","-16","task","5226163","odd","NA","36650","41393","38653","185076","5801","28871","25238","185580","144562","185074","185580","185029","41393","186167","34926","181969","5790","183529","Lexical Decision Task","67","63024","72","yes","1024"
"2.664328519","0","4","plux","non-word","93.15068493150685","93.15068493150685","870.6712328767123","870.6712328767123","black","no","legacy","legacy","legacy","0","uniform","1","undefined","undefined","undefined","1","f","0","0","0","0","72","0","0","0","72","0","68","72","68","0","68","3","72","0","72","Wed Feb 17 11:19:14 2021","The main experiment item","yes","Lexical_Decision_Task.osexp","/Users/taaniasaeed/Desktop","no","Andale Mono","no","18","no","white","no","yes","576","legacy","68","68","3","/Users/taaniasaeed/Desktop/subject-5226163.csv","legacy","Lentiform Loewenfeld","3.3.7","yes","yes","600bd7cfb6416f0113b04181","602110864497cf011d9c0822","0","f","NA","y","space","y","f","f","535","NA","2739","19422","3632","9286","535","2","legacy","1024","2","48000","-16","task","5226163","odd","NA","36650","41393","38653","186715","5801","28871","25238","187216","144562","186713","187217","186672","41393","187753","34926","186172","5790","183529","Lexical Decision Task","68","63559","73","yes","1024"
"2.868644438","10.52","4","town","word","93.24324324324324","93.24324324324324","866.4324324324324","866.4324324324324","black","no","legacy","legacy","legacy","0","uniform","1","undefined","undefined","undefined","1","j","0","0","0","0","73","0","0","0","73","0","69","73","69","0","69","3","73","0","73","Wed Feb 17 11:19:14 2021","The main experiment item","yes","Lexical_Decision_Task.osexp","/Users/taaniasaeed/Desktop","no","Andale Mono","no","18","no","white","no","yes","576","legacy","69","69","3","/Users/taaniasaeed/Desktop/subject-5226163.csv","legacy","Lentiform Loewenfeld","3.3.7","yes","yes","600bd7cfb6416f0113b04181","602110864497cf011d9c0822","0","j","NA","y","space","y","f","j","557","NA","2739","19422","3632","9286","557","2","legacy","1024","2","48000","-16","task","5226163","odd","NA","36650","41393","38653","188301","5801","28871","25238","188802","144562","188299","188803","188257","41393","189361","34926","187757","5790","183529","Lexical Decision Task","69","64116","74","yes","1024"
"2.972819734","0","4","scew","non-word","93.33333333333333","93.33333333333333","863.7733333333333","863.7733333333333","black","no","legacy","legacy","legacy","0","uniform","1","undefined","undefined","undefined","1","f","0","0","0","0","74","0","0","0","74","0","70","74","70","0","70","3","74","0","74","Wed Feb 17 11:19:14 2021","The main experiment item","yes","Lexical_Decision_Task.osexp","/Users/taaniasaeed/Desktop","no","Andale Mono","no","18","no","white","no","yes","576","legacy","70","70","3","/Users/taaniasaeed/Desktop/subject-5226163.csv","legacy","Lentiform Loewenfeld","3.3.7","yes","yes","600bd7cfb6416f0113b04181","602110864497cf011d9c0822","0","f","NA","y","space","y","f","f","667","NA","2739","19422","3632","9286","667","2","legacy","1024","2","48000","-16","task","5226163","odd","NA","36650","41393","38653","189906","5801","28871","25238","190407","144562","189904","190407","189865","41393","191075","34926","189365","5790","183529","Lexical Decision Task","70","64783","75","yes","1024"
"3.194328374","9.42","6","harm","word","93.42105263157895","93.42105263157895","858.0921052631579","858.0921052631579","black","no","legacy","legacy","legacy","0","uniform","1","undefined","undefined","undefined","1","j","0","0","0","0","75","0","0","0","75","0","71","75","71","0","71","3","75","0","75","Wed Feb 17 11:19:14 2021","The main experiment item","yes","Lexical_Decision_Task.osexp","/Users/taaniasaeed/Desktop","no","Andale Mono","no","18","no","white","no","yes","576","legacy","71","71","3","/Users/taaniasaeed/Desktop/subject-5226163.csv","legacy","Lentiform Loewenfeld","3.3.7","yes","yes","600bd7cfb6416f0113b04181","602110864497cf011d9c0822","0","j","NA","y","space","y","f","j","432","NA","2739","19422","3632","9286","432","2","legacy","1024","2","48000","-16","task","5226163","odd","NA","36650","41393","38653","191620","5801","28871","25238","192121","144562","191618","192121","191579","41393","192554","34926","191079","5790","183529","Lexical Decision Task","71","65215","76","yes","1024"
"2.705007959","6.01","4","wept","word","93.50649350649351","93.50649350649351","854.961038961039","854.961038961039","black","no","legacy","legacy","legacy","0","uniform","1","undefined","undefined","undefined","1","j","0","0","0","0","76","0","0","0","76","0","72","76","72","0","72","3","76","0","76","Wed Feb 17 11:19:14 2021","The main experiment item","yes","Lexical_Decision_Task.osexp","/Users/taaniasaeed/Desktop","no","Andale Mono","no","18","no","white","no","yes","576","legacy","72","72","3","/Users/taaniasaeed/Desktop/subject-5226163.csv","legacy","Lentiform Loewenfeld","3.3.7","yes","yes","600bd7cfb6416f0113b04181","602110864497cf011d9c0822","0","j","NA","y","space","y","f","j","617","NA","2739","19422","3632","9286","617","2","legacy","1024","2","48000","-16","task","5226163","odd","NA","36650","41393","38653","193098","5801","28871","25238","193599","144562","193096","193599","193057","41393","194217","34926","192557","5790","183529","Lexical Decision Task","72","65832","77","yes","1024"
"2.972357144","0","5","dasp","non-word","93.58974358974359","93.58974358974359","850.3205128205128","850.3205128205128","black","no","legacy","legacy","legacy","0","uniform","1","undefined","undefined","undefined","1","f","0","0","0","0","77","0","0","0","77","0","73","77","73","0","73","3","77","0","77","Wed Feb 17 11:19:14 2021","The main experiment item","yes","Lexical_Decision_Task.osexp","/Users/taaniasaeed/Desktop","no","Andale Mono","no","18","no","white","no","yes","576","legacy","73","73","3","/Users/taaniasaeed/Desktop/subject-5226163.csv","legacy","Lentiform Loewenfeld","3.3.7","yes","yes","600bd7cfb6416f0113b04181","602110864497cf011d9c0822","0","f","NA","y","space","y","f","f","493","NA","2739","19422","3632","9286","493","2","legacy","1024","2","48000","-16","task","5226163","odd","NA","36650","41393","38653","194762","5801","28871","25238","195264","144562","194761","195264","194721","41393","195758","34926","194221","5790","183529","Lexical Decision Task","73","66325","78","yes","1024"
"3.140404328","10.66","9","deep","word","93.67088607594937","93.67088607594937","845.5569620253165","845.5569620253165","black","no","legacy","legacy","legacy","0","uniform","1","undefined","undefined","undefined","1","j","0","0","0","0","78","0","0","0","78","0","74","78","74","0","74","3","78","0","78","Wed Feb 17 11:19:14 2021","The main experiment item","yes","Lexical_Decision_Task.osexp","/Users/taaniasaeed/Desktop","no","Andale Mono","no","18","no","white","no","yes","576","legacy","74","74","3","/Users/taaniasaeed/Desktop/subject-5226163.csv","legacy","Lentiform Loewenfeld","3.3.7","yes","yes","600bd7cfb6416f0113b04181","602110864497cf011d9c0822","0","j","NA","y","space","y","f","j","474","NA","2739","19422","3632","9286","474","2","legacy","1024","2","48000","-16","task","5226163","odd","NA","36650","41393","38653","196304","5801","28871","25238","196805","144562","196302","196806","196262","41393","197281","34926","195762","5790","183529","Lexical Decision Task","74","66799","79","yes","1024"
"2.809559715","8.44","4","volt","word","93.75","93.75","844.9875","844.9875","black","no","legacy","legacy","legacy","0","uniform","1","undefined","undefined","undefined","1","j","0","0","0","0","79","0","0","0","79","0","75","79","75","0","75","3","79","0","79","Wed Feb 17 11:19:14 2021","The main experiment item","yes","Lexical_Decision_Task.osexp","/Users/taaniasaeed/Desktop","no","Andale Mono","no","18","no","white","no","yes","576","legacy","75","75","3","/Users/taaniasaeed/Desktop/subject-5226163.csv","legacy","Lentiform Loewenfeld","3.3.7","yes","yes","600bd7cfb6416f0113b04181","602110864497cf011d9c0822","0","j","NA","y","space","y","f","j","800","NA","2739","19422","3632","9286","800","2","legacy","1024","2","48000","-16","task","5226163","odd","NA","36650","41393","38653","197825","5801","28871","25238","198327","144562","197823","198327","197784","41393","199128","34926","197284","5790","183529","Lexical Decision Task","75","67599","80","yes","1024"
"3.159867847","5.98","5","brim","word","92.5925925925926","92.5925925925926","841.7530864197531","841.7530864197531","black","no","legacy","legacy","legacy","0","uniform","0","undefined","undefined","undefined","0","j","0","0","0","0","80","0","0","0","80","0","76","80","76","0","76","3","80","0","80","Wed Feb 17 11:19:14 2021","The main experiment item","yes","Lexical_Decision_Task.osexp","/Users/taaniasaeed/Desktop","no","Andale Mono","no","18","no","white","no","yes","576","legacy","76","76","3","/Users/taaniasaeed/Desktop/subject-5226163.csv","legacy","Lentiform Loewenfeld","3.3.7","yes","yes","600bd7cfb6416f0113b04181","602110864497cf011d9c0822","0","f","NA","y","space","y","f","f","583","NA","2739","19422","3632","9286","583","2","legacy","1024","2","48000","-16","task","5226163","odd","NA","36650","41393","38653","199679","5801","28871","25238","200181","144562","199677","200181","199632","41393","200765","34926","199132","5790","183529","Lexical Decision Task","75","68182","81","yes","1024"
"2.845304797","0","6","buct","non-word","92.6829268292683","92.6829268292683","840.5731707317074","840.5731707317074","black","no","legacy","legacy","legacy","0","uniform","1","undefined","undefined","undefined","1","f","0","0","0","0","81","0","0","0","81","0","77","81","77","0","77","3","81","0","81","Wed Feb 17 11:19:14 2021","The main experiment item","yes","Lexical_Decision_Task.osexp","/Users/taaniasaeed/Desktop","no","Andale Mono","no","18","no","white","no","yes","576","legacy","77","77","3","/Users/taaniasaeed/Desktop/subject-5226163.csv","legacy","Lentiform Loewenfeld","3.3.7","yes","yes","600bd7cfb6416f0113b04181","602110864497cf011d9c0822","0","f","NA","y","space","y","f","f","745","NA","2739","19422","3632","9286","745","2","legacy","1024","2","48000","-16","task","5226163","odd","NA","36650","41393","38653","202317","5801","28871","25238","202819","144562","202315","202819","202269","41393","203565","34926","199132","5790","200768","Lexical Decision Task","76","68927","82","yes","1024"
"2.821076612","0","4","lult","non-word","92.7710843373494","92.7710843373494","838.5421686746988","838.5421686746988","black","no","legacy","legacy","legacy","0","uniform","1","undefined","undefined","undefined","1","f","0","0","0","0","82","0","0","0","82","0","78","82","78","0","78","3","82","0","82","Wed Feb 17 11:19:14 2021","The main experiment item","yes","Lexical_Decision_Task.osexp","/Users/taaniasaeed/Desktop","no","Andale Mono","no","18","no","white","no","yes","576","legacy","78","78","3","/Users/taaniasaeed/Desktop/subject-5226163.csv","legacy","Lentiform Loewenfeld","3.3.7","yes","yes","600bd7cfb6416f0113b04181","602110864497cf011d9c0822","0","f","NA","y","space","y","f","f","672","NA","2739","19422","3632","9286","672","2","legacy","1024","2","48000","-16","task","5226163","odd","NA","36650","41393","38653","204111","5801","28871","25238","204612","144562","204109","204612","204069","41393","205285","34926","203569","5790","200768","Lexical Decision Task","77","69599","83","yes","1024"
"2.6599162","0","6","flug","non-word","92.85714285714286","92.85714285714286","837.9880952380952","837.9880952380952","black","no","legacy","legacy","legacy","0","uniform","1","undefined","undefined","undefined","1","f","0","0","0","0","83","0","0","0","83","0","79","83","79","0","79","3","83","0","83","Wed Feb 17 11:19:14 2021","The main experiment item","yes","Lexical_Decision_Task.osexp","/Users/taaniasaeed/Desktop","no","Andale Mono","no","18","no","white","no","yes","576","legacy","79","79","3","/Users/taaniasaeed/Desktop/subject-5226163.csv","legacy","Lentiform Loewenfeld","3.3.7","yes","yes","600bd7cfb6416f0113b04181","602110864497cf011d9c0822","0","f","NA","y","space","y","f","f","792","NA","2739","19422","3632","9286","792","2","legacy","1024","2","48000","-16","task","5226163","odd","NA","36650","41393","38653","205830","5801","28871","25238","206331","144562","205828","206332","205789","41393","207125","34926","205289","5790","200768","Lexical Decision Task","78","70391","84","yes","1024"
"2.898725182","0","7","turl","non-word","92.94117647058823","92.94117647058823","837.7058823529412","837.7058823529412","black","no","legacy","legacy","legacy","0","uniform","1","undefined","undefined","undefined","1","f","0","0","0","0","84","0","0","0","84","0","80","84","80","0","80","3","84","0","84","Wed Feb 17 11:19:14 2021","The main experiment item","yes","Lexical_Decision_Task.osexp","/Users/taaniasaeed/Desktop","no","Andale Mono","no","18","no","white","no","yes","576","legacy","80","80","3","/Users/taaniasaeed/Desktop/subject-5226163.csv","legacy","Lentiform Loewenfeld","3.3.7","yes","yes","600bd7cfb6416f0113b04181","602110864497cf011d9c0822","0","f","NA","y","space","y","f","f","814","NA","2739","19422","3632","9286","814","2","legacy","1024","2","48000","-16","task","5226163","odd","NA","36650","41393","38653","207671","5801","28871","25238","208172","144562","207669","208172","207630","41393","208988","34926","207130","5790","200768","Lexical Decision Task","79","71205","85","yes","1024"
"2.782472624","10.55","2","huge","word","93.02325581395348","93.02325581395348","833.4302325581396","833.4302325581396","black","no","legacy","legacy","legacy","0","uniform","1","undefined","undefined","undefined","1","j","0","0","0","0","85","0","0","0","85","0","81","85","81","0","81","3","85","0","85","Wed Feb 17 11:19:14 2021","The main experiment item","yes","Lexical_Decision_Task.osexp","/Users/taaniasaeed/Desktop","no","Andale Mono","no","18","no","white","no","yes","576","legacy","81","81","3","/Users/taaniasaeed/Desktop/subject-5226163.csv","legacy","Lentiform Loewenfeld","3.3.7","yes","yes","600bd7cfb6416f0113b04181","602110864497cf011d9c0822","0","j","NA","y","space","y","f","j","470","NA","2739","19422","3632","9286","470","2","legacy","1024","2","48000","-16","task","5226163","odd","NA","36650","41393","38653","209532","5801","28871","25238","210034","144562","209530","210035","209492","41393","210507","34926","208992","5790","200768","Lexical Decision Task","80","71675","86","yes","1024"
"3.397302518","7.01","2","knit","word","93.10344827586206","93.10344827586206","829.5747126436781","829.5747126436781","black","no","legacy","legacy","legacy","0","uniform","1","undefined","undefined","undefined","1","j","0","0","0","0","86","0","0","0","86","0","82","86","82","0","82","3","86","0","86","Wed Feb 17 11:19:14 2021","The main experiment item","yes","Lexical_Decision_Task.osexp","/Users/taaniasaeed/Desktop","no","Andale Mono","no","18","no","white","no","yes","576","legacy","82","82","3","/Users/taaniasaeed/Desktop/subject-5226163.csv","legacy","Lentiform Loewenfeld","3.3.7","yes","yes","600bd7cfb6416f0113b04181","602110864497cf011d9c0822","0","j","NA","y","space","y","f","j","498","NA","2739","19422","3632","9286","498","2","legacy","1024","2","48000","-16","task","5226163","odd","NA","36650","41393","38653","211055","5801","28871","25238","211556","144562","211053","211556","211010","41393","212055","34926","210510","5790","200768","Lexical Decision Task","81","72173","87","yes","1024"
"2.755364069","7.72","2","hoax","word","93.18181818181819","93.18181818181819","825.6022727272727","825.6022727272727","black","no","legacy","legacy","legacy","0","uniform","1","undefined","undefined","undefined","1","j","0","0","0","0","87","0","0","0","87","0","83","87","83","0","83","3","87","0","87","Wed Feb 17 11:19:14 2021","The main experiment item","yes","Lexical_Decision_Task.osexp","/Users/taaniasaeed/Desktop","no","Andale Mono","no","18","no","white","no","yes","576","legacy","83","83","3","/Users/taaniasaeed/Desktop/subject-5226163.csv","legacy","Lentiform Loewenfeld","3.3.7","yes","yes","600bd7cfb6416f0113b04181","602110864497cf011d9c0822","0","j","NA","y","space","y","f","j","480","NA","2739","19422","3632","9286","480","2","legacy","1024","2","48000","-16","task","5226163","odd","NA","36650","41393","38653","212600","5801","28871","25238","213101","144562","212598","213102","212559","41393","213583","34926","212059","5790","200768","Lexical Decision Task","82","72653","88","yes","1024"
"3.197740804","6.74","3","ache","word","93.25842696629213","93.25842696629213","823.056179775281","823.056179775281","black","no","legacy","legacy","legacy","0","uniform","1","undefined","undefined","undefined","1","j","0","0","0","0","88","0","0","0","88","0","84","88","84","0","84","3","88","0","88","Wed Feb 17 11:19:14 2021","The main experiment item","yes","Lexical_Decision_Task.osexp","/Users/taaniasaeed/Desktop","no","Andale Mono","no","18","no","white","no","yes","576","legacy","84","84","3","/Users/taaniasaeed/Desktop/subject-5226163.csv","legacy","Lentiform Loewenfeld","3.3.7","yes","yes","600bd7cfb6416f0113b04181","602110864497cf011d9c0822","0","j","NA","y","space","y","f","j","599","NA","2739","19422","3632","9286","599","2","legacy","1024","2","48000","-16","task","5226163","odd","NA","36650","41393","38653","214128","5801","28871","25238","214630","144562","214126","214630","214087","41393","215230","34926","213587","5790","200768","Lexical Decision Task","83","73252","89","yes","1024"
"3.145920145","8.51","8","flew","word","93.33333333333333","93.33333333333333","820.2444444444444","820.2444444444444","black","no","legacy","legacy","legacy","0","uniform","1","undefined","undefined","undefined","1","j","0","0","0","0","89","0","0","0","89","0","85","89","85","0","85","3","89","0","89","Wed Feb 17 11:19:14 2021","The main experiment item","yes","Lexical_Decision_Task.osexp","/Users/taaniasaeed/Desktop","no","Andale Mono","no","18","no","white","no","yes","576","legacy","85","85","3","/Users/taaniasaeed/Desktop/subject-5226163.csv","legacy","Lentiform Loewenfeld","3.3.7","yes","yes","600bd7cfb6416f0113b04181","602110864497cf011d9c0822","0","j","NA","y","space","y","f","j","570","NA","2739","19422","3632","9286","570","2","legacy","1024","2","48000","-16","task","5226163","odd","NA","36650","41393","38653","215779","5801","28871","25238","216281","144562","215777","216281","215734","41393","216852","34926","215234","5790","200768","Lexical Decision Task","84","73822","90","yes","1024"
"3.248054965","7.86","5","glow","word","93.4065934065934","93.4065934065934","818.3956043956044","818.3956043956044","black","no","legacy","legacy","legacy","0","uniform","1","undefined","undefined","undefined","1","j","0","0","0","0","90","0","0","0","90","0","86","90","86","0","86","3","90","0","90","Wed Feb 17 11:19:14 2021","The main experiment item","yes","Lexical_Decision_Task.osexp","/Users/taaniasaeed/Desktop","no","Andale Mono","no","18","no","white","no","yes","576","legacy","86","86","3","/Users/taaniasaeed/Desktop/subject-5226163.csv","legacy","Lentiform Loewenfeld","3.3.7","yes","yes","600bd7cfb6416f0113b04181","602110864497cf011d9c0822","0","j","NA","y","space","y","f","j","652","NA","2739","19422","3632","9286","652","2","legacy","1024","2","48000","-16","task","5226163","odd","NA","36650","41393","38653","217397","5801","28871","25238","217899","144562","217395","217899","217356","41393","218552","34926","216856","5790","200768","Lexical Decision Task","85","74474","91","yes","1024"
"2.892836167","10.01","5","soft","word","93.47826086956522","93.47826086956522","813.9782608695652","813.9782608695652","black","no","legacy","legacy","legacy","0","uniform","1","undefined","undefined","undefined","1","j","0","0","0","0","91","0","0","0","91","0","87","91","87","0","87","3","91","0","91","Wed Feb 17 11:19:14 2021","The main experiment item","yes","Lexical_Decision_Task.osexp","/Users/taaniasaeed/Desktop","no","Andale Mono","no","18","no","white","no","yes","576","legacy","87","87","3","/Users/taaniasaeed/Desktop/subject-5226163.csv","legacy","Lentiform Loewenfeld","3.3.7","yes","yes","600bd7cfb6416f0113b04181","602110864497cf011d9c0822","0","j","NA","y","space","y","f","j","412","NA","2739","19422","3632","9286","412","2","legacy","1024","2","48000","-16","task","5226163","odd","NA","36650","41393","38653","219097","5801","28871","25238","219599","144562","219095","219599","219056","41393","220012","34926","218556","5790","200768","Lexical Decision Task","86","74886","92","yes","1024"
"3.274157849","0","8","leet","non-word","92.47311827956989","92.47311827956989","814.2150537634409","814.2150537634409","black","no","legacy","legacy","legacy","0","uniform","0","undefined","undefined","undefined","0","f","0","0","0","0","92","0","0","0","92","0","88","92","88","0","88","3","92","0","92","Wed Feb 17 11:19:14 2021","The main experiment item","yes","Lexical_Decision_Task.osexp","/Users/taaniasaeed/Desktop","no","Andale Mono","no","18","no","white","no","yes","576","legacy","88","88","3","/Users/taaniasaeed/Desktop/subject-5226163.csv","legacy","Lentiform Loewenfeld","3.3.7","yes","yes","600bd7cfb6416f0113b04181","602110864497cf011d9c0822","0","j","NA","y","space","y","f","j","836","NA","2739","19422","3632","9286","836","2","legacy","1024","2","48000","-16","task","5226163","odd","NA","36650","41393","38653","220559","5801","28871","25238","221061","144562","220557","221061","220517","41393","221898","34926","220016","5790","200768","Lexical Decision Task","86","75722","93","yes","1024"
"2.82129731","6.72","5","plum","word","92.55319148936171","92.55319148936171","811.7659574468086","811.7659574468086","black","no","legacy","legacy","legacy","0","uniform","1","undefined","undefined","undefined","1","j","0","0","0","0","93","0","0","0","93","0","89","93","89","0","89","3","93","0","93","Wed Feb 17 11:19:14 2021","The main experiment item","yes","Lexical_Decision_Task.osexp","/Users/taaniasaeed/Desktop","no","Andale Mono","no","18","no","white","no","yes","576","legacy","89","89","3","/Users/taaniasaeed/Desktop/subject-5226163.csv","legacy","Lentiform Loewenfeld","3.3.7","yes","yes","600bd7cfb6416f0113b04181","602110864497cf011d9c0822","0","j","NA","y","space","y","f","j","584","NA","2739","19422","3632","9286","584","2","legacy","1024","2","48000","-16","task","5226163","odd","NA","36650","41393","38653","223443","5801","28871","25238","223944","144562","223441","223944","223402","41393","224529","34926","220016","5790","221902","Lexical Decision Task","87","76306","94","yes","1024"
"3.481012421","8.34","5","teen","word","92.63157894736842","92.63157894736842","810.8105263157895","810.8105263157895","black","no","legacy","legacy","legacy","0","uniform","1","undefined","undefined","undefined","1","j","0","0","0","0","94","0","0","0","94","0","90","94","90","0","90","3","94","0","94","Wed Feb 17 11:19:14 2021","The main experiment item","yes","Lexical_Decision_Task.osexp","/Users/taaniasaeed/Desktop","no","Andale Mono","no","18","no","white","no","yes","576","legacy","90","90","3","/Users/taaniasaeed/Desktop/subject-5226163.csv","legacy","Lentiform Loewenfeld","3.3.7","yes","yes","600bd7cfb6416f0113b04181","602110864497cf011d9c0822","0","j","NA","y","space","y","f","j","721","NA","2739","19422","3632","9286","721","2","legacy","1024","2","48000","-16","task","5226163","odd","NA","36650","41393","38653","225074","5801","28871","25238","225576","144562","225072","225577","225033","41393","226299","34926","224533","5790","221902","Lexical Decision Task","88","77027","95","yes","1024"
"2.75025376","10.2","6","jump","word","92.70833333333333","92.70833333333333","811.4895833333334","811.4895833333334","black","no","legacy","legacy","legacy","0","uniform","1","undefined","undefined","undefined","1","j","0","0","0","0","95","0","0","0","95","0","91","95","91","0","91","3","95","0","95","Wed Feb 17 11:19:14 2021","The main experiment item","yes","Lexical_Decision_Task.osexp","/Users/taaniasaeed/Desktop","no","Andale Mono","no","18","no","white","no","yes","576","legacy","91","91","3","/Users/taaniasaeed/Desktop/subject-5226163.csv","legacy","Lentiform Loewenfeld","3.3.7","yes","yes","600bd7cfb6416f0113b04181","602110864497cf011d9c0822","0","j","NA","y","space","y","f","j","876","NA","2739","19422","3632","9286","876","2","legacy","1024","2","48000","-16","task","5226163","odd","NA","36650","41393","38653","226844","5801","28871","25238","227345","144562","226842","227345","226802","41393","228222","34926","226302","5790","221902","Lexical Decision Task","89","77903","96","yes","1024"
"2.953276337","6.32","4","thaw","word","92.78350515463917","92.78350515463917","812.2061855670103","812.2061855670103","black","no","legacy","legacy","legacy","0","uniform","1","undefined","undefined","undefined","1","j","0","0","0","0","96","0","0","0","96","0","92","96","92","0","92","3","96","0","96","Wed Feb 17 11:19:14 2021","The main experiment item","yes","Lexical_Decision_Task.osexp","/Users/taaniasaeed/Desktop","no","Andale Mono","no","18","no","white","no","yes","576","legacy","92","92","3","/Users/taaniasaeed/Desktop/subject-5226163.csv","legacy","Lentiform Loewenfeld","3.3.7","yes","yes","600bd7cfb6416f0113b04181","602110864497cf011d9c0822","0","j","NA","y","space","y","f","j","881","NA","2739","19422","3632","9286","881","2","legacy","1024","2","48000","-16","task","5226163","odd","NA","36650","41393","38653","228771","5801","28871","25238","229273","144562","228769","229273","228725","41393","230155","34926","228225","5790","221902","Lexical Decision Task","90","78784","97","yes","1024"
"3.165936429","0","7","leps","non-word","92.85714285714286","92.85714285714286","812.5714285714286","812.5714285714286","black","no","legacy","legacy","legacy","0","uniform","1","undefined","undefined","undefined","1","f","0","0","0","0","97","0","0","0","97","0","93","97","93","0","93","3","97","0","97","Wed Feb 17 11:19:14 2021","The main experiment item","yes","Lexical_Decision_Task.osexp","/Users/taaniasaeed/Desktop","no","Andale Mono","no","18","no","white","no","yes","576","legacy","93","93","3","/Users/taaniasaeed/Desktop/subject-5226163.csv","legacy","Lentiform Loewenfeld","3.3.7","yes","yes","600bd7cfb6416f0113b04181","602110864497cf011d9c0822","0","f","NA","y","space","y","f","f","848","NA","2739","19422","3632","9286","848","2","legacy","1024","2","48000","-16","task","5226163","odd","NA","36650","41393","38653","230699","5801","28871","25238","231200","144562","230697","231200","230658","41393","232049","34926","230158","5790","221902","Lexical Decision Task","91","79632","98","yes","1024"
"2.843025032","0","9","pusk","non-word","92.92929292929293","92.92929292929293","813.7171717171717","813.7171717171717","black","no","legacy","legacy","legacy","0","uniform","1","undefined","undefined","undefined","1","f","0","0","0","0","98","0","0","0","98","0","94","98","94","0","94","3","98","0","98","Wed Feb 17 11:19:14 2021","The main experiment item","yes","Lexical_Decision_Task.osexp","/Users/taaniasaeed/Desktop","no","Andale Mono","no","18","no","white","no","yes","576","legacy","94","94","3","/Users/taaniasaeed/Desktop/subject-5226163.csv","legacy","Lentiform Loewenfeld","3.3.7","yes","yes","600bd7cfb6416f0113b04181","602110864497cf011d9c0822","0","f","NA","y","space","y","f","f","926","NA","2739","19422","3632","9286","926","2","legacy","1024","2","48000","-16","task","5226163","odd","NA","36650","41393","38653","232594","5801","28871","25238","233097","144562","232592","233097","232552","41393","234024","34926","232052","5790","221902","Lexical Decision Task","92","80558","99","yes","1024"
"3.168400243","9.12","6","horn","word","93","93","811.01","811.01","black","no","legacy","legacy","legacy","0","uniform","1","undefined","undefined","undefined","1","j","0","0","0","0","99","0","0","0","99","0","95","99","95","0","95","3","99","0","99","Wed Feb 17 11:19:14 2021","The main experiment item","yes","Lexical_Decision_Task.osexp","/Users/taaniasaeed/Desktop","no","Andale Mono","no","18","no","white","no","yes","576","legacy","95","95","3","/Users/taaniasaeed/Desktop/subject-5226163.csv","legacy","Lentiform Loewenfeld","3.3.7","yes","yes","600bd7cfb6416f0113b04181","602110864497cf011d9c0822","0","j","NA","y","space","y","f","j","543","NA","2739","19422","3632","9286","543","2","legacy","1024","2","48000","-16","task","5226163","odd","NA","36650","41393","38653","234571","5801","28871","25238","235072","144562","234569","235073","234527","41393","235617","34926","234027","5790","221902","Lexical Decision Task","93","81101","100","yes","1024"
"3.090140555","5.81","8","pout","word","93.06930693069307","93.06930693069307","810.5445544554456","810.5445544554456","black","no","legacy","legacy","legacy","0","uniform","1","undefined","undefined","undefined","1","j","0","0","0","0","100","0","0","0","100","0","96","100","96","0","96","3","100","0","100","Wed Feb 17 11:19:14 2021","The main experiment item","yes","Lexical_Decision_Task.osexp","/Users/taaniasaeed/Desktop","no","Andale Mono","no","18","no","white","no","yes","576","legacy","96","96","3","/Users/taaniasaeed/Desktop/subject-5226163.csv","legacy","Lentiform Loewenfeld","3.3.7","yes","yes","600bd7cfb6416f0113b04181","602110864497cf011d9c0822","0","j","NA","y","space","y","f","j","764","NA","2739","19422","3632","9286","764","2","legacy","1024","2","48000","-16","task","5226163","odd","NA","36650","41393","38653","236161","5801","28871","25238","236663","144562","236159","236663","236120","41393","237428","34926","235620","5790","221902","Lexical Decision Task","94","81865","101","yes","1024"
