"Log_BG","Log_Freq_HAL","Ortho_N","Stimulus","Type","acc","accuracy","average_response_time","avg_rt","background","bidi","canvas_backend","clock_backend","color_backend","compensation","coordinates","correct","correct_Experimental_intro","correct_Introduction","correct_Practice_intro","correct_experimenter_kb","correct_response","count_End_Of_Experiment","count_End_Of_Practice","count_Experimental_Loop","count_Experimental_intro","count_Fixation","count_Introduction","count_Practice_Loop","count_Practice_intro","count_Stimulus","count_block_break_feedback","count_experimental_sequence","count_experimenter_kb","count_increment_trial_count","count_init_trial_count","count_logger","count_practice_sequence","count_right","count_task","count_wrong","datetime","description","disable_garbage_collection","experiment_file","experiment_path","font_bold","font_family","font_italic","font_size","font_underline","foreground","form_clicks","fullscreen","height","keyboard_backend","live_row","live_row_Experimental_Loop","live_row_Practice_Loop","logfile","mouse_backend","opensesame_codename","opensesame_version","osf_always_upload_data","osf_always_upload_experiment","osf_datanode_id","osf_id","repeat_cycle","response","response_End_Of_Experiment","response_Experimental_intro","response_Introduction","response_Practice_intro","response_block_break_feedback","response_experimenter_kb","response_time","response_time_End_Of_Experiment","response_time_Experimental_intro","response_time_Introduction","response_time_Practice_intro","response_time_block_break_feedback","response_time_experimenter_kb","round_decimals","sampler_backend","sound_buf_size","sound_channels","sound_freq","sound_sample_size","start","subject_nr","subject_parity","time_End_Of_Experiment","time_End_Of_Practice","time_Experimental_Loop","time_Experimental_intro","time_Fixation","time_Introduction","time_Practice_Loop","time_Practice_intro","time_Stimulus","time_block_break_feedback","time_experimental_sequence","time_experimenter_kb","time_increment_trial_count","time_init_trial_count","time_logger","time_practice_sequence","time_right","time_task","time_wrong","title","total_correct","total_response_time","total_responses","uniform_coordinates","width"
"2.892836167","10.01","5","soft","word","100","100","753.6","753.6","black","no","legacy","legacy","legacy","0","uniform","1","undefined","undefined","undefined","1","j","0","0","0","0","4","0","0","0","4","NA","0","4","0","0","0","3","4","0","4","Thu Feb 18 13:50:18 2021","The main experiment item","yes","Lexical_Decision_Task.osexp","/Users/sophiedin","no","Andale Mono","no","18","no","white","no","yes","576","legacy","0","0","3","/Users/sophiedin/subject-5226331.csv","legacy","Lentiform Loewenfeld","3.3.7","yes","yes","600bd7cfb6416f0113b04181","602110864497cf011d9c0822","0","j","NA","j","space","space","NA","j","720","NA","2124","5819","6725","NA","720","2","legacy","1024","2","48000","-16","task","5226331","odd","NA","26583","30716","28591","30747","6624","19200","12470","31251","NA","30745","31251","NA","30716","31972","25079","26052","6569","NA","Lexical Decision Task","5","3768","5","yes","1024"
"3.495914186","0","4","peng","non-word","83.33333333333333","83.33333333333333","737","737","black","no","legacy","legacy","legacy","0","uniform","0","undefined","undefined","undefined","0","f","0","0","0","0","5","0","0","0","5","NA","1","5","1","0","1","3","5","0","5","Thu Feb 18 13:50:18 2021","The main experiment item","yes","Lexical_Decision_Task.osexp","/Users/sophiedin","no","Andale Mono","no","18","no","white","no","yes","576","legacy","1","1","3","/Users/sophiedin/subject-5226331.csv","legacy","Lentiform Loewenfeld","3.3.7","yes","yes","600bd7cfb6416f0113b04181","602110864497cf011d9c0822","0","j","NA","j","space","space","NA","j","654","NA","2124","5819","6725","NA","654","2","legacy","1024","2","48000","-16","task","5226331","odd","NA","26583","30716","28591","32545","6624","19200","12470","33047","NA","32542","33047","32478","30716","33702","25079","31978","6569","NA","Lexical Decision Task","5","4422","6","yes","1024"
"2.952953801","0","8","clax","non-word","85.71428571428571","85.71428571428571","814.2857142857143","814.2857142857143","black","no","legacy","legacy","legacy","0","uniform","1","undefined","undefined","undefined","1","f","0","0","0","0","6","0","0","0","6","NA","2","6","2","0","2","3","6","0","6","Thu Feb 18 13:50:18 2021","The main experiment item","yes","Lexical_Decision_Task.osexp","/Users/sophiedin","no","Andale Mono","no","18","no","white","no","yes","576","legacy","2","2","3","/Users/sophiedin/subject-5226331.csv","legacy","Lentiform Loewenfeld","3.3.7","yes","yes","600bd7cfb6416f0113b04181","602110864497cf011d9c0822","0","f","NA","j","space","space","NA","f","1278","NA","2124","5819","6725","NA","1278","2","legacy","1024","2","48000","-16","task","5226331","odd","NA","26583","30716","28591","35275","6624","19200","12470","35777","NA","35272","35777","35206","30716","37056","25079","31978","6569","33706","Lexical Decision Task","6","5700","7","yes","1024"
"3.049218023","7.4","9","robe","word","87.5","87.5","816.5","816.5","black","no","legacy","legacy","legacy","0","uniform","1","undefined","undefined","undefined","1","j","0","0","0","0","7","0","0","0","7","NA","3","7","3","0","3","3","7","0","7","Thu Feb 18 13:50:18 2021","The main experiment item","yes","Lexical_Decision_Task.osexp","/Users/sophiedin","no","Andale Mono","no","18","no","white","no","yes","576","legacy","3","3","3","/Users/sophiedin/subject-5226331.csv","legacy","Lentiform Loewenfeld","3.3.7","yes","yes","600bd7cfb6416f0113b04181","602110864497cf011d9c0822","0","j","NA","j","space","space","NA","j","832","NA","2124","5819","6725","NA","832","2","legacy","1024","2","48000","-16","task","5226331","odd","NA","26583","30716","28591","37630","6624","19200","12470","38134","NA","37627","38134","37559","30716","38967","25079","37059","6569","33706","Lexical Decision Task","7","6532","8","yes","1024"
"3.091901331","0","9","nipe","non-word","88.88888888888889","88.88888888888889","810.1111111111111","810.1111111111111","black","no","legacy","legacy","legacy","0","uniform","1","undefined","undefined","undefined","1","f","0","0","0","0","8","0","0","0","8","NA","4","8","4","0","4","3","8","0","8","Thu Feb 18 13:50:18 2021","The main experiment item","yes","Lexical_Decision_Task.osexp","/Users/sophiedin","no","Andale Mono","no","18","no","white","no","yes","576","legacy","4","4","3","/Users/sophiedin/subject-5226331.csv","legacy","Lentiform Loewenfeld","3.3.7","yes","yes","600bd7cfb6416f0113b04181","602110864497cf011d9c0822","0","f","NA","j","space","space","NA","f","759","NA","2124","5819","6725","NA","759","2","legacy","1024","2","48000","-16","task","5226331","odd","NA","26583","30716","28591","39535","6624","19200","12470","40038","NA","39532","40039","39470","30716","40798","25079","38970","6569","33706","Lexical Decision Task","8","7291","9","yes","1024"
"3.208978517","10.33","4","fish","word","90","90","789.7","789.7","black","no","legacy","legacy","legacy","0","uniform","1","undefined","undefined","undefined","1","j","0","0","0","0","9","0","0","0","9","NA","5","9","5","0","5","3","9","0","9","Thu Feb 18 13:50:18 2021","The main experiment item","yes","Lexical_Decision_Task.osexp","/Users/sophiedin","no","Andale Mono","no","18","no","white","no","yes","576","legacy","5","5","3","/Users/sophiedin/subject-5226331.csv","legacy","Lentiform Loewenfeld","3.3.7","yes","yes","600bd7cfb6416f0113b04181","602110864497cf011d9c0822","0","j","NA","j","space","space","NA","j","606","NA","2124","5819","6725","NA","606","2","legacy","1024","2","48000","-16","task","5226331","odd","NA","26583","30716","28591","41366","6624","19200","12470","41869","NA","41364","41869","41302","30716","42475","25079","40802","6569","33706","Lexical Decision Task","9","7897","10","yes","1024"
"3.259832699","0","9","flar","non-word","90.9090909090909","90.9090909090909","756.1818181818181","756.1818181818181","black","no","legacy","legacy","legacy","0","uniform","1","undefined","undefined","undefined","1","f","0","0","0","0","10","0","0","0","10","NA","6","10","6","0","6","3","10","0","10","Thu Feb 18 13:50:18 2021","The main experiment item","yes","Lexical_Decision_Task.osexp","/Users/sophiedin","no","Andale Mono","no","18","no","white","no","yes","576","legacy","6","6","3","/Users/sophiedin/subject-5226331.csv","legacy","Lentiform Loewenfeld","3.3.7","yes","yes","600bd7cfb6416f0113b04181","602110864497cf011d9c0822","0","f","NA","j","space","space","NA","f","421","NA","2124","5819","6725","NA","421","2","legacy","1024","2","48000","-16","task","5226331","odd","NA","26583","30716","28591","43043","6624","19200","12470","43545","NA","43040","43546","42979","30716","43967","25079","42479","6569","33706","Lexical Decision Task","10","8318","11","yes","1024"
"3.20996159","0","4","clee","non-word","91.66666666666667","91.66666666666667","741","741","black","no","legacy","legacy","legacy","0","uniform","1","undefined","undefined","undefined","1","f","0","0","0","0","11","0","0","0","11","NA","7","11","7","0","7","3","11","0","11","Thu Feb 18 13:50:18 2021","The main experiment item","yes","Lexical_Decision_Task.osexp","/Users/sophiedin","no","Andale Mono","no","18","no","white","no","yes","576","legacy","7","7","3","/Users/sophiedin/subject-5226331.csv","legacy","Lentiform Loewenfeld","3.3.7","yes","yes","600bd7cfb6416f0113b04181","602110864497cf011d9c0822","0","f","NA","j","space","space","NA","f","574","NA","2124","5819","6725","NA","574","2","legacy","1024","2","48000","-16","task","5226331","odd","NA","26583","30716","28591","44537","6624","19200","12470","45040","NA","44534","45040","44472","30716","45614","25079","43972","6569","33706","Lexical Decision Task","11","8892","12","yes","1024"
"2.980306438","0","7","slun","non-word","92.3076923076923","92.3076923076923","729.1538461538462","729.1538461538462","black","no","legacy","legacy","legacy","0","uniform","1","undefined","undefined","undefined","1","f","0","0","0","0","12","0","0","0","12","NA","8","12","8","0","8","3","12","0","12","Thu Feb 18 13:50:18 2021","The main experiment item","yes","Lexical_Decision_Task.osexp","/Users/sophiedin","no","Andale Mono","no","18","no","white","no","yes","576","legacy","8","8","3","/Users/sophiedin/subject-5226331.csv","legacy","Lentiform Loewenfeld","3.3.7","yes","yes","600bd7cfb6416f0113b04181","602110864497cf011d9c0822","0","f","NA","j","space","space","NA","f","587","NA","2124","5819","6725","NA","587","2","legacy","1024","2","48000","-16","task","5226331","odd","NA","26583","30716","28591","46181","6624","19200","12470","46684","NA","46178","46685","46118","30716","47273","25079","45618","6569","33706","Lexical Decision Task","12","9479","13","yes","1024"
"3.1430148","7.92","8","bald","word","92.85714285714286","92.85714285714286","747.8571428571429","747.8571428571429","black","no","legacy","legacy","legacy","0","uniform","1","undefined","undefined","undefined","1","j","0","0","0","0","13","0","0","0","13","NA","9","13","9","0","9","3","13","0","13","Thu Feb 18 13:50:18 2021","The main experiment item","yes","Lexical_Decision_Task.osexp","/Users/sophiedin","no","Andale Mono","no","18","no","white","no","yes","576","legacy","9","9","3","/Users/sophiedin/subject-5226331.csv","legacy","Lentiform Loewenfeld","3.3.7","yes","yes","600bd7cfb6416f0113b04181","602110864497cf011d9c0822","0","j","NA","j","space","space","NA","j","991","NA","2124","5819","6725","NA","991","2","legacy","1024","2","48000","-16","task","5226331","odd","NA","26583","30716","28591","47841","6624","19200","12470","48344","NA","47838","48344","47776","30716","49336","25079","47276","6569","33706","Lexical Decision Task","13","10470","14","yes","1024"
"2.75025376","10.2","6","jump","word","93.33333333333333","93.33333333333333","820.7333333333333","820.7333333333333","black","no","legacy","legacy","legacy","0","uniform","1","undefined","undefined","undefined","1","j","0","0","0","0","14","0","0","0","14","NA","10","14","10","0","10","3","14","0","14","Thu Feb 18 13:50:18 2021","The main experiment item","yes","Lexical_Decision_Task.osexp","/Users/sophiedin","no","Andale Mono","no","18","no","white","no","yes","576","legacy","10","10","3","/Users/sophiedin/subject-5226331.csv","legacy","Lentiform Loewenfeld","3.3.7","yes","yes","600bd7cfb6416f0113b04181","602110864497cf011d9c0822","0","j","NA","j","space","space","NA","j","1841","NA","2124","5819","6725","NA","1841","2","legacy","1024","2","48000","-16","task","5226331","odd","NA","26583","30716","28591","49914","6624","19200","12470","50417","NA","49911","50417","49839","30716","52259","25079","49339","6569","33706","Lexical Decision Task","14","12311","15","yes","1024"
"2.68604012","0","4","pumb","non-word","93.75","93.75","820.875","820.875","black","no","legacy","legacy","legacy","0","uniform","1","undefined","undefined","undefined","1","f","0","0","0","0","15","0","0","0","15","NA","11","15","11","0","11","3","15","0","15","Thu Feb 18 13:50:18 2021","The main experiment item","yes","Lexical_Decision_Task.osexp","/Users/sophiedin","no","Andale Mono","no","18","no","white","no","yes","576","legacy","11","11","3","/Users/sophiedin/subject-5226331.csv","legacy","Lentiform Loewenfeld","3.3.7","yes","yes","600bd7cfb6416f0113b04181","602110864497cf011d9c0822","0","f","NA","j","space","space","NA","f","823","NA","2124","5819","6725","NA","823","2","legacy","1024","2","48000","-16","task","5226331","odd","NA","26583","30716","28591","52828","6624","19200","12470","53332","NA","52825","53332","52764","30716","54156","25079","52264","6569","33706","Lexical Decision Task","15","13134","16","yes","1024"
"3.043885998","0","9","gome","non-word","94.11764705882354","94.11764705882354","814.3529411764706","814.3529411764706","black","no","legacy","legacy","legacy","0","uniform","1","undefined","undefined","undefined","1","f","0","0","0","0","16","0","0","0","16","NA","12","16","12","0","12","3","16","0","16","Thu Feb 18 13:50:18 2021","The main experiment item","yes","Lexical_Decision_Task.osexp","/Users/sophiedin","no","Andale Mono","no","18","no","white","no","yes","576","legacy","12","12","3","/Users/sophiedin/subject-5226331.csv","legacy","Lentiform Loewenfeld","3.3.7","yes","yes","600bd7cfb6416f0113b04181","602110864497cf011d9c0822","0","f","NA","j","space","space","NA","f","710","NA","2124","5819","6725","NA","710","2","legacy","1024","2","48000","-16","task","5226331","odd","NA","26583","30716","28591","54727","6624","19200","12470","55230","NA","54724","55231","54660","30716","55942","25079","54160","6569","33706","Lexical Decision Task","16","13844","17","yes","1024"
"2.812467698","0","7","hafe","non-word","94.44444444444444","94.44444444444444","798.2222222222222","798.2222222222222","black","no","legacy","legacy","legacy","0","uniform","1","undefined","undefined","undefined","1","f","0","0","0","0","17","0","0","0","17","NA","13","17","13","0","13","3","17","0","17","Thu Feb 18 13:50:18 2021","The main experiment item","yes","Lexical_Decision_Task.osexp","/Users/sophiedin","no","Andale Mono","no","18","no","white","no","yes","576","legacy","13","13","3","/Users/sophiedin/subject-5226331.csv","legacy","Lentiform Loewenfeld","3.3.7","yes","yes","600bd7cfb6416f0113b04181","602110864497cf011d9c0822","0","f","NA","j","space","space","NA","f","524","NA","2124","5819","6725","NA","524","2","legacy","1024","2","48000","-16","task","5226331","odd","NA","26583","30716","28591","56511","6624","19200","12470","57014","NA","56507","57014","56446","30716","57539","25079","55946","6569","33706","Lexical Decision Task","17","14368","18","yes","1024"
"2.728085817","10.02","9","bike","word","94.73684210526316","94.73684210526316","786.4736842105264","786.4736842105264","black","no","legacy","legacy","legacy","0","uniform","1","undefined","undefined","undefined","1","j","0","0","0","0","18","0","0","0","18","NA","14","18","14","0","14","3","18","0","18","Thu Feb 18 13:50:18 2021","The main experiment item","yes","Lexical_Decision_Task.osexp","/Users/sophiedin","no","Andale Mono","no","18","no","white","no","yes","576","legacy","14","14","3","/Users/sophiedin/subject-5226331.csv","legacy","Lentiform Loewenfeld","3.3.7","yes","yes","600bd7cfb6416f0113b04181","602110864497cf011d9c0822","0","j","NA","j","space","space","NA","j","575","NA","2124","5819","6725","NA","575","2","legacy","1024","2","48000","-16","task","5226331","odd","NA","26583","30716","28591","58107","6624","19200","12470","58609","NA","58104","58609","58043","30716","59185","25079","57543","6569","33706","Lexical Decision Task","18","14943","19","yes","1024"
"2.986323777","10.85","8","ship","word","95","95","779.4","779.4","black","no","legacy","legacy","legacy","0","uniform","1","undefined","undefined","undefined","1","j","0","0","0","0","19","0","0","0","19","NA","15","19","15","0","15","3","19","0","19","Thu Feb 18 13:50:18 2021","The main experiment item","yes","Lexical_Decision_Task.osexp","/Users/sophiedin","no","Andale Mono","no","18","no","white","no","yes","576","legacy","15","15","3","/Users/sophiedin/subject-5226331.csv","legacy","Lentiform Loewenfeld","3.3.7","yes","yes","600bd7cfb6416f0113b04181","602110864497cf011d9c0822","0","j","NA","j","space","space","NA","j","645","NA","2124","5819","6725","NA","645","2","legacy","1024","2","48000","-16","task","5226331","odd","NA","26583","30716","28591","59751","6624","19200","12470","60253","NA","59748","60254","59688","30716","60900","25079","59188","6569","33706","Lexical Decision Task","19","15588","20","yes","1024"
"3.105055783","0","2","norp","non-word","95.23809523809524","95.23809523809524","767.2857142857143","767.2857142857143","black","no","legacy","legacy","legacy","0","uniform","1","undefined","undefined","undefined","1","f","0","0","0","0","20","0","0","0","20","NA","16","20","16","0","16","3","20","0","20","Thu Feb 18 13:50:18 2021","The main experiment item","yes","Lexical_Decision_Task.osexp","/Users/sophiedin","no","Andale Mono","no","18","no","white","no","yes","576","legacy","16","16","3","/Users/sophiedin/subject-5226331.csv","legacy","Lentiform Loewenfeld","3.3.7","yes","yes","600bd7cfb6416f0113b04181","602110864497cf011d9c0822","0","f","NA","j","space","space","NA","f","525","NA","2124","5819","6725","NA","525","2","legacy","1024","2","48000","-16","task","5226331","odd","NA","26583","30716","28591","61468","6624","19200","12470","61971","NA","61465","61971","61404","30716","62497","25079","60904","6569","33706","Lexical Decision Task","20","16113","21","yes","1024"
"3.316948329","0","1","besc","non-word","90.9090909090909","90.9090909090909","777.2727272727273","777.2727272727273","black","no","legacy","legacy","legacy","0","uniform","0","undefined","undefined","undefined","0","f","0","0","0","0","21","0","0","0","21","NA","17","21","17","0","17","3","21","0","21","Thu Feb 18 13:50:18 2021","The main experiment item","yes","Lexical_Decision_Task.osexp","/Users/sophiedin","no","Andale Mono","no","18","no","white","no","yes","576","legacy","17","17","3","/Users/sophiedin/subject-5226331.csv","legacy","Lentiform Loewenfeld","3.3.7","yes","yes","600bd7cfb6416f0113b04181","602110864497cf011d9c0822","0","j","NA","j","space","space","NA","j","987","NA","2124","5819","6725","NA","987","2","legacy","1024","2","48000","-16","task","5226331","odd","NA","26583","30716","28591","63066","6624","19200","12470","63568","NA","63063","63568","63002","30716","64556","25079","62501","6569","33706","Lexical Decision Task","20","17100","22","yes","1024"
"3.443783828","7.65","3","verb","word","91.30434782608695","91.30434782608695","772.695652173913","772.695652173913","black","no","legacy","legacy","legacy","0","uniform","1","undefined","undefined","undefined","1","j","0","0","0","0","22","0","0","0","22","NA","18","22","18","0","18","3","22","0","22","Thu Feb 18 13:50:18 2021","The main experiment item","yes","Lexical_Decision_Task.osexp","/Users/sophiedin","no","Andale Mono","no","18","no","white","no","yes","576","legacy","18","18","3","/Users/sophiedin/subject-5226331.csv","legacy","Lentiform Loewenfeld","3.3.7","yes","yes","600bd7cfb6416f0113b04181","602110864497cf011d9c0822","0","j","NA","j","space","space","NA","j","672","NA","2124","5819","6725","NA","672","2","legacy","1024","2","48000","-16","task","5226331","odd","NA","26583","30716","28591","66121","6624","19200","12470","66623","NA","66118","66623","66059","30716","67296","25079","62501","6569","64559","Lexical Decision Task","21","17772","23","yes","1024"
"3.366547468","0","6","plat","non-word","91.66666666666667","91.66666666666667","771","771","black","no","legacy","legacy","legacy","0","uniform","1","undefined","undefined","undefined","1","f","0","0","0","0","23","0","0","0","23","NA","19","23","19","0","19","3","23","0","23","Thu Feb 18 13:50:18 2021","The main experiment item","yes","Lexical_Decision_Task.osexp","/Users/sophiedin","no","Andale Mono","no","18","no","white","no","yes","576","legacy","19","19","3","/Users/sophiedin/subject-5226331.csv","legacy","Lentiform Loewenfeld","3.3.7","yes","yes","600bd7cfb6416f0113b04181","602110864497cf011d9c0822","0","f","NA","j","space","space","NA","f","732","NA","2124","5819","6725","NA","732","2","legacy","1024","2","48000","-16","task","5226331","odd","NA","26583","30716","28591","67866","6624","19200","12470","68370","NA","67862","68371","67801","30716","69104","25079","67301","6569","64559","Lexical Decision Task","22","18504","24","yes","1024"
"2.709837904","6.85","8","skim","word","92","92","772.48","772.48","black","no","legacy","legacy","legacy","0","uniform","1","undefined","undefined","undefined","1","j","0","0","0","0","24","0","0","0","24","NA","20","24","20","0","20","3","24","0","24","Thu Feb 18 13:50:18 2021","The main experiment item","yes","Lexical_Decision_Task.osexp","/Users/sophiedin","no","Andale Mono","no","18","no","white","no","yes","576","legacy","20","20","3","/Users/sophiedin/subject-5226331.csv","legacy","Lentiform Loewenfeld","3.3.7","yes","yes","600bd7cfb6416f0113b04181","602110864497cf011d9c0822","0","j","NA","j","space","space","NA","j","808","NA","2124","5819","6725","NA","808","2","legacy","1024","2","48000","-16","task","5226331","odd","NA","26583","30716","28591","69675","6624","19200","12470","70179","NA","69672","70179","69607","30716","70988","25079","69107","6569","64559","Lexical Decision Task","23","19312","25","yes","1024"
"2.937852093","0","7","bamp","non-word","92.3076923076923","92.3076923076923","774.5","774.5","black","no","legacy","legacy","legacy","0","uniform","1","undefined","undefined","undefined","1","f","0","0","0","0","25","0","0","0","25","NA","21","25","21","0","21","3","25","0","25","Thu Feb 18 13:50:18 2021","The main experiment item","yes","Lexical_Decision_Task.osexp","/Users/sophiedin","no","Andale Mono","no","18","no","white","no","yes","576","legacy","21","21","3","/Users/sophiedin/subject-5226331.csv","legacy","Lentiform Loewenfeld","3.3.7","yes","yes","600bd7cfb6416f0113b04181","602110864497cf011d9c0822","0","f","NA","j","space","space","NA","f","825","NA","2124","5819","6725","NA","825","2","legacy","1024","2","48000","-16","task","5226331","odd","NA","26583","30716","28591","71559","6624","19200","12470","72062","NA","71556","72063","71492","30716","72888","25079","70992","6569","64559","Lexical Decision Task","24","20137","26","yes","1024"
"2.67699827","0","6","hulf","non-word","92.5925925925926","92.5925925925926","770.5925925925926","770.5925925925926","black","no","legacy","legacy","legacy","0","uniform","1","undefined","undefined","undefined","1","f","0","0","0","0","26","0","0","0","26","NA","22","26","22","0","22","3","26","0","26","Thu Feb 18 13:50:18 2021","The main experiment item","yes","Lexical_Decision_Task.osexp","/Users/sophiedin","no","Andale Mono","no","18","no","white","no","yes","576","legacy","22","22","3","/Users/sophiedin/subject-5226331.csv","legacy","Lentiform Loewenfeld","3.3.7","yes","yes","600bd7cfb6416f0113b04181","602110864497cf011d9c0822","0","f","NA","j","space","space","NA","f","669","NA","2124","5819","6725","NA","669","2","legacy","1024","2","48000","-16","task","5226331","odd","NA","26583","30716","28591","73462","6624","19200","12470","73966","NA","73457","73966","73392","30716","74636","25079","72892","6569","64559","Lexical Decision Task","25","20806","27","yes","1024"
"3.20871002","7.15","8","cram","word","89.28571428571429","89.28571428571429","773.9285714285714","773.9285714285714","black","no","legacy","legacy","legacy","0","uniform","0","undefined","undefined","undefined","0","j","0","0","0","0","27","0","0","0","27","NA","23","27","23","0","23","3","27","0","27","Thu Feb 18 13:50:18 2021","The main experiment item","yes","Lexical_Decision_Task.osexp","/Users/sophiedin","no","Andale Mono","no","18","no","white","no","yes","576","legacy","23","23","3","/Users/sophiedin/subject-5226331.csv","legacy","Lentiform Loewenfeld","3.3.7","yes","yes","600bd7cfb6416f0113b04181","602110864497cf011d9c0822","0","f","NA","j","space","space","NA","f","864","NA","2124","5819","6725","NA","864","2","legacy","1024","2","48000","-16","task","5226331","odd","NA","26583","30716","28591","75205","6624","19200","12470","75707","NA","75203","75707","75140","30716","76572","25079","74640","6569","64559","Lexical Decision Task","25","21670","28","yes","1024"
"2.778633532","0","3","jurp","non-word","89.65517241379311","89.65517241379311","780.6551724137931","780.6551724137931","black","no","legacy","legacy","legacy","0","uniform","1","undefined","undefined","undefined","1","f","0","0","0","0","28","0","0","0","28","NA","24","28","24","0","24","3","28","0","28","Thu Feb 18 13:50:18 2021","The main experiment item","yes","Lexical_Decision_Task.osexp","/Users/sophiedin","no","Andale Mono","no","18","no","white","no","yes","576","legacy","24","24","3","/Users/sophiedin/subject-5226331.csv","legacy","Lentiform Loewenfeld","3.3.7","yes","yes","600bd7cfb6416f0113b04181","602110864497cf011d9c0822","0","f","NA","j","space","space","NA","f","969","NA","2124","5819","6725","NA","969","2","legacy","1024","2","48000","-16","task","5226331","odd","NA","26583","30716","28591","78142","6624","19200","12470","78645","NA","78139","78645","78078","30716","79615","25079","74640","6569","76577","Lexical Decision Task","26","22639","29","yes","1024"
"3.081107167","0","6","chot","non-word","90","90","777.5666666666667","777.5666666666667","black","no","legacy","legacy","legacy","0","uniform","1","undefined","undefined","undefined","1","f","0","0","0","0","29","0","0","0","29","NA","25","29","25","0","25","3","29","0","29","Thu Feb 18 13:50:18 2021","The main experiment item","yes","Lexical_Decision_Task.osexp","/Users/sophiedin","no","Andale Mono","no","18","no","white","no","yes","576","legacy","25","25","3","/Users/sophiedin/subject-5226331.csv","legacy","Lentiform Loewenfeld","3.3.7","yes","yes","600bd7cfb6416f0113b04181","602110864497cf011d9c0822","0","f","NA","j","space","space","NA","f","688","NA","2124","5819","6725","NA","688","2","legacy","1024","2","48000","-16","task","5226331","odd","NA","26583","30716","28591","80182","6624","19200","12470","80684","NA","80179","80684","80119","30716","81373","25079","79618","6569","76577","Lexical Decision Task","27","23327","30","yes","1024"
"3.384413096","10.15","3","glad","word","90.3225806451613","90.3225806451613","776.3225806451613","776.3225806451613","black","no","legacy","legacy","legacy","0","uniform","1","undefined","undefined","undefined","1","j","0","0","0","0","30","0","0","0","30","NA","26","30","26","0","26","3","30","0","30","Thu Feb 18 13:50:18 2021","The main experiment item","yes","Lexical_Decision_Task.osexp","/Users/sophiedin","no","Andale Mono","no","18","no","white","no","yes","576","legacy","26","26","3","/Users/sophiedin/subject-5226331.csv","legacy","Lentiform Loewenfeld","3.3.7","yes","yes","600bd7cfb6416f0113b04181","602110864497cf011d9c0822","0","j","NA","j","space","space","NA","j","739","NA","2124","5819","6725","NA","739","2","legacy","1024","2","48000","-16","task","5226331","odd","NA","26583","30716","28591","81941","6624","19200","12470","82444","NA","81938","82444","81877","30716","83183","25079","81377","6569","76577","Lexical Decision Task","28","24066","31","yes","1024"
"2.695481676","0","7","goke","non-word","90.625","90.625","781.71875","781.71875","black","no","legacy","legacy","legacy","0","uniform","1","undefined","undefined","undefined","1","f","0","0","0","0","31","0","0","0","31","NA","27","31","27","0","27","3","31","0","31","Thu Feb 18 13:50:18 2021","The main experiment item","yes","Lexical_Decision_Task.osexp","/Users/sophiedin","no","Andale Mono","no","18","no","white","no","yes","576","legacy","27","27","3","/Users/sophiedin/subject-5226331.csv","legacy","Lentiform Loewenfeld","3.3.7","yes","yes","600bd7cfb6416f0113b04181","602110864497cf011d9c0822","0","f","NA","j","space","space","NA","f","949","NA","2124","5819","6725","NA","949","2","legacy","1024","2","48000","-16","task","5226331","odd","NA","26583","30716","28591","83753","6624","19200","12470","84256","NA","83750","84256","83687","30716","85206","25079","83187","6569","76577","Lexical Decision Task","29","25015","32","yes","1024"
"2.69019608","9.01","2","myth","word","90.9090909090909","90.9090909090909","781.7878787878788","781.7878787878788","black","no","legacy","legacy","legacy","0","uniform","1","undefined","undefined","undefined","1","j","0","0","0","0","32","0","0","0","32","NA","28","32","28","0","28","3","32","0","32","Thu Feb 18 13:50:18 2021","The main experiment item","yes","Lexical_Decision_Task.osexp","/Users/sophiedin","no","Andale Mono","no","18","no","white","no","yes","576","legacy","28","28","3","/Users/sophiedin/subject-5226331.csv","legacy","Lentiform Loewenfeld","3.3.7","yes","yes","600bd7cfb6416f0113b04181","602110864497cf011d9c0822","0","j","NA","j","space","space","NA","j","784","NA","2124","5819","6725","NA","784","2","legacy","1024","2","48000","-16","task","5226331","odd","NA","26583","30716","28591","85774","6624","19200","12470","86277","NA","85771","86277","85710","30716","87061","25079","85209","6569","76577","Lexical Decision Task","30","25799","33","yes","1024"
"2.983324025","9.56","2","debt","word","91.17647058823529","91.17647058823529","773.1176470588235","773.1176470588235","black","no","legacy","legacy","legacy","0","uniform","1","undefined","undefined","undefined","1","j","0","0","0","0","33","0","0","0","33","NA","29","33","29","0","29","3","33","0","33","Thu Feb 18 13:50:18 2021","The main experiment item","yes","Lexical_Decision_Task.osexp","/Users/sophiedin","no","Andale Mono","no","18","no","white","no","yes","576","legacy","29","29","3","/Users/sophiedin/subject-5226331.csv","legacy","Lentiform Loewenfeld","3.3.7","yes","yes","600bd7cfb6416f0113b04181","602110864497cf011d9c0822","0","j","NA","j","space","space","NA","j","487","NA","2124","5819","6725","NA","487","2","legacy","1024","2","48000","-16","task","5226331","odd","NA","26583","30716","28591","87639","6624","19200","12470","88142","NA","87636","88142","87565","30716","88629","25079","87065","6569","76577","Lexical Decision Task","31","26286","34","yes","1024"
"3.132473155","0","4","glim","non-word","88.57142857142857","88.57142857142857","778.4571428571429","778.4571428571429","black","no","legacy","legacy","legacy","0","uniform","0","undefined","undefined","undefined","0","f","0","0","0","0","34","0","0","0","34","NA","30","34","30","0","30","3","34","0","34","Thu Feb 18 13:50:18 2021","The main experiment item","yes","Lexical_Decision_Task.osexp","/Users/sophiedin","no","Andale Mono","no","18","no","white","no","yes","576","legacy","30","30","3","/Users/sophiedin/subject-5226331.csv","legacy","Lentiform Loewenfeld","3.3.7","yes","yes","600bd7cfb6416f0113b04181","602110864497cf011d9c0822","0","j","NA","j","space","space","NA","j","960","NA","2124","5819","6725","NA","960","2","legacy","1024","2","48000","-16","task","5226331","odd","NA","26583","30716","28591","89199","6624","19200","12470","89703","NA","89196","89703","89134","30716","90664","25079","88634","6569","76577","Lexical Decision Task","31","27246","35","yes","1024"
"2.86332286","6.71","2","feud","word","88.88888888888889","88.88888888888889","773.1944444444445","773.1944444444445","black","no","legacy","legacy","legacy","0","uniform","1","undefined","undefined","undefined","1","j","0","0","0","0","35","0","0","0","35","NA","31","35","31","0","31","3","35","0","35","Thu Feb 18 13:50:18 2021","The main experiment item","yes","Lexical_Decision_Task.osexp","/Users/sophiedin","no","Andale Mono","no","18","no","white","no","yes","576","legacy","31","31","3","/Users/sophiedin/subject-5226331.csv","legacy","Lentiform Loewenfeld","3.3.7","yes","yes","600bd7cfb6416f0113b04181","602110864497cf011d9c0822","0","j","NA","j","space","space","NA","j","589","NA","2124","5819","6725","NA","589","2","legacy","1024","2","48000","-16","task","5226331","odd","NA","26583","30716","28591","92235","6624","19200","12470","92739","NA","92232","92739","92168","30716","93330","25079","88634","6569","90668","Lexical Decision Task","32","27835","36","yes","1024"
"2.767650507","0","6","yolt","non-word","89.1891891891892","89.1891891891892","775","775","black","no","legacy","legacy","legacy","0","uniform","1","undefined","undefined","undefined","1","f","0","0","0","0","36","0","0","0","36","NA","32","36","32","0","32","3","36","0","36","Thu Feb 18 13:50:18 2021","The main experiment item","yes","Lexical_Decision_Task.osexp","/Users/sophiedin","no","Andale Mono","no","18","no","white","no","yes","576","legacy","32","32","3","/Users/sophiedin/subject-5226331.csv","legacy","Lentiform Loewenfeld","3.3.7","yes","yes","600bd7cfb6416f0113b04181","602110864497cf011d9c0822","0","f","NA","j","space","space","NA","f","840","NA","2124","5819","6725","NA","840","2","legacy","1024","2","48000","-16","task","5226331","odd","NA","26583","30716","28591","93898","6624","19200","12470","94401","NA","93894","94401","93834","30716","95242","25079","93334","6569","90668","Lexical Decision Task","33","28675","37","yes","1024"
"2.799799878","0","4","ciff","non-word","89.47368421052632","89.47368421052632","783.4736842105264","783.4736842105264","black","no","legacy","legacy","legacy","0","uniform","1","undefined","undefined","undefined","1","f","0","0","0","0","37","0","0","0","37","NA","33","37","33","0","33","3","37","0","37","Thu Feb 18 13:50:18 2021","The main experiment item","yes","Lexical_Decision_Task.osexp","/Users/sophiedin","no","Andale Mono","no","18","no","white","no","yes","576","legacy","33","33","3","/Users/sophiedin/subject-5226331.csv","legacy","Lentiform Loewenfeld","3.3.7","yes","yes","600bd7cfb6416f0113b04181","602110864497cf011d9c0822","0","f","NA","j","space","space","NA","f","1097","NA","2124","5819","6725","NA","1097","2","legacy","1024","2","48000","-16","task","5226331","odd","NA","26583","30716","28591","95809","6624","19200","12470","96312","NA","95807","96312","95746","30716","97410","25079","95246","6569","90668","Lexical Decision Task","34","29772","38","yes","1024"
"2.6599162","0","6","flug","non-word","89.74358974358974","89.74358974358974","778.8205128205128","778.8205128205128","black","no","legacy","legacy","legacy","0","uniform","1","undefined","undefined","undefined","1","f","0","0","0","0","38","0","0","0","38","NA","34","38","34","0","34","3","38","0","38","Thu Feb 18 13:50:18 2021","The main experiment item","yes","Lexical_Decision_Task.osexp","/Users/sophiedin","no","Andale Mono","no","18","no","white","no","yes","576","legacy","34","34","3","/Users/sophiedin/subject-5226331.csv","legacy","Lentiform Loewenfeld","3.3.7","yes","yes","600bd7cfb6416f0113b04181","602110864497cf011d9c0822","0","f","NA","j","space","space","NA","f","602","NA","2124","5819","6725","NA","602","2","legacy","1024","2","48000","-16","task","5226331","odd","NA","26583","30716","28591","97984","6624","19200","12470","98487","NA","97981","98488","97916","30716","99091","25079","97416","6569","90668","Lexical Decision Task","35","30374","39","yes","1024"
"3.133964479","0","8","graw","non-word","90","90","792.875","792.875","black","no","legacy","legacy","legacy","0","uniform","1","undefined","undefined","undefined","1","f","0","0","0","0","39","0","0","0","39","NA","35","39","35","0","35","3","39","0","39","Thu Feb 18 13:50:18 2021","The main experiment item","yes","Lexical_Decision_Task.osexp","/Users/sophiedin","no","Andale Mono","no","18","no","white","no","yes","576","legacy","35","35","3","/Users/sophiedin/subject-5226331.csv","legacy","Lentiform Loewenfeld","3.3.7","yes","yes","600bd7cfb6416f0113b04181","602110864497cf011d9c0822","0","f","NA","j","space","space","NA","f","1341","NA","2124","5819","6725","NA","1341","2","legacy","1024","2","48000","-16","task","5226331","odd","NA","26583","30716","28591","99659","6624","19200","12470","100162","NA","99656","100163","99595","30716","101505","25079","99095","6569","90668","Lexical Decision Task","36","31715","40","yes","1024"
"2.64476673","0","5","moft","non-word","90.2439024390244","90.2439024390244","794.9756097560976","794.9756097560976","black","no","legacy","legacy","legacy","0","uniform","1","undefined","undefined","undefined","1","f","0","0","0","0","40","0","0","0","40","NA","36","40","36","0","36","3","40","0","40","Thu Feb 18 13:50:18 2021","The main experiment item","yes","Lexical_Decision_Task.osexp","/Users/sophiedin","no","Andale Mono","no","18","no","white","no","yes","576","legacy","36","36","3","/Users/sophiedin/subject-5226331.csv","legacy","Lentiform Loewenfeld","3.3.7","yes","yes","600bd7cfb6416f0113b04181","602110864497cf011d9c0822","0","f","NA","j","space","space","NA","f","879","NA","2124","5819","6725","NA","879","2","legacy","1024","2","48000","-16","task","5226331","odd","NA","26583","30716","28591","102074","6624","19200","12470","102576","NA","102071","102577","102011","30716","103457","25079","101511","6569","90668","Lexical Decision Task","37","32594","41","yes","1024"
"2.898725182","0","7","turl","non-word","90.47619047619048","90.47619047619048","796.3571428571429","796.3571428571429","black","no","legacy","legacy","legacy","0","uniform","1","undefined","undefined","undefined","1","f","0","0","0","0","41","0","0","0","41","NA","37","41","37","0","37","3","41","0","41","Thu Feb 18 13:50:18 2021","The main experiment item","yes","Lexical_Decision_Task.osexp","/Users/sophiedin","no","Andale Mono","no","18","no","white","no","yes","576","legacy","37","37","3","/Users/sophiedin/subject-5226331.csv","legacy","Lentiform Loewenfeld","3.3.7","yes","yes","600bd7cfb6416f0113b04181","602110864497cf011d9c0822","0","f","NA","j","space","space","NA","f","853","NA","2124","5819","6725","NA","853","2","legacy","1024","2","48000","-16","task","5226331","odd","NA","26583","30716","28591","104025","6624","19200","12470","104528","NA","104022","104528","103961","30716","105382","25079","103461","6569","90668","Lexical Decision Task","38","33447","42","yes","1024"
"3.134602053","0","8","jart","non-word","90.69767441860465","90.69767441860465","787.6744186046511","787.6744186046511","black","no","legacy","legacy","legacy","0","uniform","1","undefined","undefined","undefined","1","f","0","0","0","0","42","0","0","0","42","NA","38","42","38","0","38","3","42","0","42","Thu Feb 18 13:50:18 2021","The main experiment item","yes","Lexical_Decision_Task.osexp","/Users/sophiedin","no","Andale Mono","no","18","no","white","no","yes","576","legacy","38","38","3","/Users/sophiedin/subject-5226331.csv","legacy","Lentiform Loewenfeld","3.3.7","yes","yes","600bd7cfb6416f0113b04181","602110864497cf011d9c0822","0","f","NA","j","space","space","NA","f","423","NA","2124","5819","6725","NA","423","2","legacy","1024","2","48000","-16","task","5226331","odd","NA","26583","30716","28591","105950","6624","19200","12470","106454","NA","105947","106454","105886","30716","106878","25079","105386","6569","90668","Lexical Decision Task","39","33870","43","yes","1024"
"3.311895072","0","9","gung","non-word","90.9090909090909","90.9090909090909","785.5909090909091","785.5909090909091","black","no","legacy","legacy","legacy","0","uniform","1","undefined","undefined","undefined","1","f","0","0","0","0","43","0","0","0","43","NA","39","43","39","0","39","3","43","0","43","Thu Feb 18 13:50:18 2021","The main experiment item","yes","Lexical_Decision_Task.osexp","/Users/sophiedin","no","Andale Mono","no","18","no","white","no","yes","576","legacy","39","39","3","/Users/sophiedin/subject-5226331.csv","legacy","Lentiform Loewenfeld","3.3.7","yes","yes","600bd7cfb6416f0113b04181","602110864497cf011d9c0822","0","f","NA","j","space","space","NA","f","696","NA","2124","5819","6725","NA","696","2","legacy","1024","2","48000","-16","task","5226331","odd","NA","26583","30716","28591","107448","6624","19200","12470","107951","NA","107445","107951","107381","30716","108648","25079","106881","6569","90668","Lexical Decision Task","40","34566","44","yes","1024"
"2.675164031","8.57","6","glue","word","91.11111111111111","91.11111111111111","783.8222222222222","783.8222222222222","black","no","legacy","legacy","legacy","0","uniform","1","undefined","undefined","undefined","1","j","0","0","0","0","44","0","0","0","44","NA","40","44","40","0","40","3","44","0","44","Thu Feb 18 13:50:18 2021","The main experiment item","yes","Lexical_Decision_Task.osexp","/Users/sophiedin","no","Andale Mono","no","18","no","white","no","yes","576","legacy","40","40","3","/Users/sophiedin/subject-5226331.csv","legacy","Lentiform Loewenfeld","3.3.7","yes","yes","600bd7cfb6416f0113b04181","602110864497cf011d9c0822","0","j","NA","j","space","space","NA","j","706","NA","2124","5819","6725","NA","706","2","legacy","1024","2","48000","-16","task","5226331","odd","NA","26583","30716","28591","109216","6624","19200","12470","109719","NA","109213","109720","109152","30716","110427","25079","108652","6569","90668","Lexical Decision Task","41","35272","45","yes","1024"
"2.884795364","0","6","flob","non-word","91.30434782608695","91.30434782608695","790.8695652173913","790.8695652173913","black","no","legacy","legacy","legacy","0","uniform","1","undefined","undefined","undefined","1","f","0","0","0","0","45","0","0","0","45","NA","41","45","41","0","41","3","45","0","45","Thu Feb 18 13:50:18 2021","The main experiment item","yes","Lexical_Decision_Task.osexp","/Users/sophiedin","no","Andale Mono","no","18","no","white","no","yes","576","legacy","41","41","3","/Users/sophiedin/subject-5226331.csv","legacy","Lentiform Loewenfeld","3.3.7","yes","yes","600bd7cfb6416f0113b04181","602110864497cf011d9c0822","0","f","NA","j","space","space","NA","f","1108","NA","2124","5819","6725","NA","1108","2","legacy","1024","2","48000","-16","task","5226331","odd","NA","26583","30716","28591","110995","6624","19200","12470","111497","NA","110991","111497","110931","30716","112606","25079","110431","6569","90668","Lexical Decision Task","42","36380","46","yes","1024"
"3.474361976","5.24","6","veer","word","89.36170212765957","89.36170212765957","786.5957446808511","786.5957446808511","black","no","legacy","legacy","legacy","0","uniform","0","undefined","undefined","undefined","0","j","0","0","0","0","46","0","0","0","46","NA","42","46","42","0","42","3","46","0","46","Thu Feb 18 13:50:18 2021","The main experiment item","yes","Lexical_Decision_Task.osexp","/Users/sophiedin","no","Andale Mono","no","18","no","white","no","yes","576","legacy","42","42","3","/Users/sophiedin/subject-5226331.csv","legacy","Lentiform Loewenfeld","3.3.7","yes","yes","600bd7cfb6416f0113b04181","602110864497cf011d9c0822","0","f","NA","j","space","space","NA","f","590","NA","2124","5819","6725","NA","590","2","legacy","1024","2","48000","-16","task","5226331","odd","NA","26583","30716","28591","113172","6624","19200","12470","113675","NA","113169","113675","113110","30716","114266","25079","112609","6569","90668","Lexical Decision Task","42","36970","47","yes","1024"
"3.100255637","0","6","brax","non-word","89.58333333333333","89.58333333333333","784.4583333333334","784.4583333333334","black","no","legacy","legacy","legacy","0","uniform","1","undefined","undefined","undefined","1","f","0","0","0","0","47","0","0","0","47","NA","43","47","43","0","43","3","47","0","47","Thu Feb 18 13:50:18 2021","The main experiment item","yes","Lexical_Decision_Task.osexp","/Users/sophiedin","no","Andale Mono","no","18","no","white","no","yes","576","legacy","43","43","3","/Users/sophiedin/subject-5226331.csv","legacy","Lentiform Loewenfeld","3.3.7","yes","yes","600bd7cfb6416f0113b04181","602110864497cf011d9c0822","0","f","NA","j","space","space","NA","f","684","NA","2124","5819","6725","NA","684","2","legacy","1024","2","48000","-16","task","5226331","odd","NA","26583","30716","28591","115836","6624","19200","12470","116339","NA","115833","116340","115770","30716","117025","25079","112609","6569","114270","Lexical Decision Task","43","37654","48","yes","1024"
"3.082307743","9.68","8","camp","word","89.79591836734694","89.79591836734694","784.0204081632653","784.0204081632653","black","no","legacy","legacy","legacy","0","uniform","1","undefined","undefined","undefined","1","j","0","0","0","0","48","0","0","0","48","NA","44","48","44","0","44","3","48","0","48","Thu Feb 18 13:50:18 2021","The main experiment item","yes","Lexical_Decision_Task.osexp","/Users/sophiedin","no","Andale Mono","no","18","no","white","no","yes","576","legacy","44","44","3","/Users/sophiedin/subject-5226331.csv","legacy","Lentiform Loewenfeld","3.3.7","yes","yes","600bd7cfb6416f0113b04181","602110864497cf011d9c0822","0","j","NA","j","space","space","NA","j","763","NA","2124","5819","6725","NA","763","2","legacy","1024","2","48000","-16","task","5226331","odd","NA","26583","30716","28591","117593","6624","19200","12470","118096","NA","117590","118096","117530","30716","118860","25079","117030","6569","114270","Lexical Decision Task","44","38417","49","yes","1024"
"2.996511672","0","7","hoil","non-word","90","90","790.3","790.3","black","no","legacy","legacy","legacy","0","uniform","1","undefined","undefined","undefined","1","f","0","0","0","0","49","0","0","0","49","NA","45","49","45","0","45","3","49","0","49","Thu Feb 18 13:50:18 2021","The main experiment item","yes","Lexical_Decision_Task.osexp","/Users/sophiedin","no","Andale Mono","no","18","no","white","no","yes","576","legacy","45","45","3","/Users/sophiedin/subject-5226331.csv","legacy","Lentiform Loewenfeld","3.3.7","yes","yes","600bd7cfb6416f0113b04181","602110864497cf011d9c0822","0","f","NA","j","space","space","NA","f","1098","NA","2124","5819","6725","NA","1098","2","legacy","1024","2","48000","-16","task","5226331","odd","NA","26583","30716","28591","119427","6624","19200","12470","119929","NA","119424","119929","119363","30716","121028","25079","118863","6569","114270","Lexical Decision Task","45","39515","50","yes","1024"
"3.431095062","5.74","9","perk","word","90.19607843137256","90.19607843137256","786.2941176470588","786.2941176470588","black","no","legacy","legacy","legacy","0","uniform","1","undefined","undefined","undefined","1","j","0","0","0","0","50","0","0","0","50","NA","46","50","46","0","46","3","50","0","50","Thu Feb 18 13:50:18 2021","The main experiment item","yes","Lexical_Decision_Task.osexp","/Users/sophiedin","no","Andale Mono","no","18","no","white","no","yes","576","legacy","46","46","3","/Users/sophiedin/subject-5226331.csv","legacy","Lentiform Loewenfeld","3.3.7","yes","yes","600bd7cfb6416f0113b04181","602110864497cf011d9c0822","0","j","NA","j","space","space","NA","j","586","NA","2124","5819","6725","NA","586","2","legacy","1024","2","48000","-16","task","5226331","odd","NA","26583","30716","28591","121595","6624","19200","12470","122097","NA","121592","122097","121532","30716","122684","25079","121032","6569","114270","Lexical Decision Task","46","40101","51","yes","1024"
"2.705007959","6.01","4","wept","word","90.38461538461539","90.38461538461539","783.1923076923077","783.1923076923077","black","no","legacy","legacy","legacy","0","uniform","1","undefined","undefined","undefined","1","j","0","0","0","0","51","0","0","0","51","NA","47","51","47","0","47","3","51","0","51","Thu Feb 18 13:50:18 2021","The main experiment item","yes","Lexical_Decision_Task.osexp","/Users/sophiedin","no","Andale Mono","no","18","no","white","no","yes","576","legacy","47","47","3","/Users/sophiedin/subject-5226331.csv","legacy","Lentiform Loewenfeld","3.3.7","yes","yes","600bd7cfb6416f0113b04181","602110864497cf011d9c0822","0","j","NA","j","space","space","NA","j","625","NA","2124","5819","6725","NA","625","2","legacy","1024","2","48000","-16","task","5226331","odd","NA","26583","30716","28591","123252","6624","19200","12470","123756","NA","123248","123756","123187","30716","124382","25079","122687","6569","114270","Lexical Decision Task","47","40726","52","yes","1024"
"3.307211407","6.07","7","honk","word","88.67924528301887","88.67924528301887","778.1509433962265","778.1509433962265","black","no","legacy","legacy","legacy","0","uniform","0","undefined","undefined","undefined","0","j","0","0","0","0","52","0","0","0","52","NA","48","52","48","0","48","3","52","0","52","Thu Feb 18 13:50:18 2021","The main experiment item","yes","Lexical_Decision_Task.osexp","/Users/sophiedin","no","Andale Mono","no","18","no","white","no","yes","576","legacy","48","48","3","/Users/sophiedin/subject-5226331.csv","legacy","Lentiform Loewenfeld","3.3.7","yes","yes","600bd7cfb6416f0113b04181","602110864497cf011d9c0822","0","f","NA","j","space","space","NA","f","516","NA","2124","5819","6725","NA","516","2","legacy","1024","2","48000","-16","task","5226331","odd","NA","26583","30716","28591","124948","6624","19200","12470","125451","NA","124946","125452","124886","30716","125969","25079","124386","6569","114270","Lexical Decision Task","47","41242","53","yes","1024"
"3.194328374","9.42","6","harm","word","88.88888888888889","88.88888888888889","776.6481481481482","776.6481481481482","black","no","legacy","legacy","legacy","0","uniform","1","undefined","undefined","undefined","1","j","0","0","0","0","53","0","0","0","53","NA","49","53","49","0","49","3","53","0","53","Thu Feb 18 13:50:18 2021","The main experiment item","yes","Lexical_Decision_Task.osexp","/Users/sophiedin","no","Andale Mono","no","18","no","white","no","yes","576","legacy","49","49","3","/Users/sophiedin/subject-5226331.csv","legacy","Lentiform Loewenfeld","3.3.7","yes","yes","600bd7cfb6416f0113b04181","602110864497cf011d9c0822","0","j","NA","j","space","space","NA","j","697","NA","2124","5819","6725","NA","697","2","legacy","1024","2","48000","-16","task","5226331","odd","NA","26583","30716","28591","127540","6624","19200","12470","128043","NA","127535","128044","127473","30716","128742","25079","124386","6569","125972","Lexical Decision Task","48","41939","54","yes","1024"
"3.531734309","0","6","lerd","non-word","89.0909090909091","89.0909090909091","780.0545454545454","780.0545454545454","black","no","legacy","legacy","legacy","0","uniform","1","undefined","undefined","undefined","1","f","0","0","0","0","54","0","0","0","54","0","50","54","50","0","50","3","54","0","54","Thu Feb 18 13:50:18 2021","The main experiment item","yes","Lexical_Decision_Task.osexp","/Users/sophiedin","no","Andale Mono","no","18","no","white","no","yes","576","legacy","50","50","3","/Users/sophiedin/subject-5226331.csv","legacy","Lentiform Loewenfeld","3.3.7","yes","yes","600bd7cfb6416f0113b04181","602110864497cf011d9c0822","0","f","NA","j","space","space","j","f","964","NA","2124","5819","6725","12160","964","2","legacy","1024","2","48000","-16","task","5226331","odd","NA","26583","30716","28591","141499","6624","19200","12470","142003","129276","141495","142003","129246","30716","142968","25079","128746","6569","125972","Lexical Decision Task","49","42903","55","yes","1024"
"3.269668578","0","7","trag","non-word","89.28571428571429","89.28571428571429","777.4642857142857","777.4642857142857","black","no","legacy","legacy","legacy","0","uniform","1","undefined","undefined","undefined","1","f","0","0","0","0","55","0","0","0","55","0","51","55","51","0","51","3","55","0","55","Thu Feb 18 13:50:18 2021","The main experiment item","yes","Lexical_Decision_Task.osexp","/Users/sophiedin","no","Andale Mono","no","18","no","white","no","yes","576","legacy","51","51","3","/Users/sophiedin/subject-5226331.csv","legacy","Lentiform Loewenfeld","3.3.7","yes","yes","600bd7cfb6416f0113b04181","602110864497cf011d9c0822","0","f","NA","j","space","space","j","f","635","NA","2124","5819","6725","12160","635","2","legacy","1024","2","48000","-16","task","5226331","odd","NA","26583","30716","28591","143539","6624","19200","12470","144042","129276","143536","144042","143472","30716","144678","25079","142972","6569","125972","Lexical Decision Task","50","43538","56","yes","1024"
"2.706148589","0","4","hube","non-word","89.47368421052632","89.47368421052632","772.578947368421","772.578947368421","black","no","legacy","legacy","legacy","0","uniform","1","undefined","undefined","undefined","1","f","0","0","0","0","56","0","0","0","56","0","52","56","52","0","52","3","56","0","56","Thu Feb 18 13:50:18 2021","The main experiment item","yes","Lexical_Decision_Task.osexp","/Users/sophiedin","no","Andale Mono","no","18","no","white","no","yes","576","legacy","52","52","3","/Users/sophiedin/subject-5226331.csv","legacy","Lentiform Loewenfeld","3.3.7","yes","yes","600bd7cfb6416f0113b04181","602110864497cf011d9c0822","0","f","NA","j","space","space","j","f","499","NA","2124","5819","6725","12160","499","2","legacy","1024","2","48000","-16","task","5226331","odd","NA","26583","30716","28591","145247","6624","19200","12470","145749","129276","145244","145749","145182","30716","146249","25079","144682","6569","125972","Lexical Decision Task","51","44037","57","yes","1024"
"3.195807436","0","6","stup","non-word","89.65517241379311","89.65517241379311","767.7241379310345","767.7241379310345","black","no","legacy","legacy","legacy","0","uniform","1","undefined","undefined","undefined","1","f","0","0","0","0","57","0","0","0","57","0","53","57","53","0","53","3","57","0","57","Thu Feb 18 13:50:18 2021","The main experiment item","yes","Lexical_Decision_Task.osexp","/Users/sophiedin","no","Andale Mono","no","18","no","white","no","yes","576","legacy","53","53","3","/Users/sophiedin/subject-5226331.csv","legacy","Lentiform Loewenfeld","3.3.7","yes","yes","600bd7cfb6416f0113b04181","602110864497cf011d9c0822","0","f","NA","j","space","space","j","f","491","NA","2124","5819","6725","12160","491","2","legacy","1024","2","48000","-16","task","5226331","odd","NA","26583","30716","28591","146819","6624","19200","12470","147322","129276","146817","147322","146754","30716","147814","25079","146254","6569","125972","Lexical Decision Task","52","44528","58","yes","1024"
"2.695770526","7.34","6","pawn","word","89.83050847457628","89.83050847457628","765.1186440677966","765.1186440677966","black","no","legacy","legacy","legacy","0","uniform","1","undefined","undefined","undefined","1","j","0","0","0","0","58","0","0","0","58","0","54","58","54","0","54","3","58","0","58","Thu Feb 18 13:50:18 2021","The main experiment item","yes","Lexical_Decision_Task.osexp","/Users/sophiedin","no","Andale Mono","no","18","no","white","no","yes","576","legacy","54","54","3","/Users/sophiedin/subject-5226331.csv","legacy","Lentiform Loewenfeld","3.3.7","yes","yes","600bd7cfb6416f0113b04181","602110864497cf011d9c0822","0","j","NA","j","space","space","j","j","614","NA","2124","5819","6725","12160","614","2","legacy","1024","2","48000","-16","task","5226331","odd","NA","26583","30716","28591","148382","6624","19200","12470","148886","129276","148380","148886","148318","30716","149501","25079","147818","6569","125972","Lexical Decision Task","53","45142","59","yes","1024"
"2.873320602","0","4","lurg","non-word","90","90","761.3166666666667","761.3166666666667","black","no","legacy","legacy","legacy","0","uniform","1","undefined","undefined","undefined","1","f","0","0","0","0","59","0","0","0","59","0","55","59","55","0","55","3","59","0","59","Thu Feb 18 13:50:18 2021","The main experiment item","yes","Lexical_Decision_Task.osexp","/Users/sophiedin","no","Andale Mono","no","18","no","white","no","yes","576","legacy","55","55","3","/Users/sophiedin/subject-5226331.csv","legacy","Lentiform Loewenfeld","3.3.7","yes","yes","600bd7cfb6416f0113b04181","602110864497cf011d9c0822","0","f","NA","j","space","space","j","f","537","NA","2124","5819","6725","12160","537","2","legacy","1024","2","48000","-16","task","5226331","odd","NA","26583","30716","28591","150072","6624","19200","12470","150575","129276","150067","150575","150005","30716","151113","25079","149505","6569","125972","Lexical Decision Task","54","45679","60","yes","1024"
"3.145920145","8.51","8","flew","word","90.1639344262295","90.1639344262295","764.016393442623","764.016393442623","black","no","legacy","legacy","legacy","0","uniform","1","undefined","undefined","undefined","1","j","0","0","0","0","60","0","0","0","60","0","56","60","56","0","56","3","60","0","60","Thu Feb 18 13:50:18 2021","The main experiment item","yes","Lexical_Decision_Task.osexp","/Users/sophiedin","no","Andale Mono","no","18","no","white","no","yes","576","legacy","56","56","3","/Users/sophiedin/subject-5226331.csv","legacy","Lentiform Loewenfeld","3.3.7","yes","yes","600bd7cfb6416f0113b04181","602110864497cf011d9c0822","0","j","NA","j","space","space","j","j","926","NA","2124","5819","6725","12160","926","2","legacy","1024","2","48000","-16","task","5226331","odd","NA","26583","30716","28591","151683","6624","19200","12470","152187","129276","151681","152187","151617","30716","153114","25079","151117","6569","125972","Lexical Decision Task","55","46605","61","yes","1024"
"3.119255889","6.63","2","itch","word","90.3225806451613","90.3225806451613","761.3064516129032","761.3064516129032","black","no","legacy","legacy","legacy","0","uniform","1","undefined","undefined","undefined","1","j","0","0","0","0","61","0","0","0","61","0","57","61","57","0","57","3","61","0","61","Thu Feb 18 13:50:18 2021","The main experiment item","yes","Lexical_Decision_Task.osexp","/Users/sophiedin","no","Andale Mono","no","18","no","white","no","yes","576","legacy","57","57","3","/Users/sophiedin/subject-5226331.csv","legacy","Lentiform Loewenfeld","3.3.7","yes","yes","600bd7cfb6416f0113b04181","602110864497cf011d9c0822","0","j","NA","j","space","space","j","j","596","NA","2124","5819","6725","12160","596","2","legacy","1024","2","48000","-16","task","5226331","odd","NA","26583","30716","28591","153682","6624","19200","12470","154185","129276","153679","154186","153618","30716","154783","25079","153118","6569","125972","Lexical Decision Task","56","47201","62","yes","1024"
"2.842815106","7.86","8","lump","word","88.88888888888889","88.88888888888889","759.1428571428571","759.1428571428571","black","no","legacy","legacy","legacy","0","uniform","0","undefined","undefined","undefined","0","j","0","0","0","0","62","0","0","0","62","0","58","62","58","0","58","3","62","0","62","Thu Feb 18 13:50:18 2021","The main experiment item","yes","Lexical_Decision_Task.osexp","/Users/sophiedin","no","Andale Mono","no","18","no","white","no","yes","576","legacy","58","58","3","/Users/sophiedin/subject-5226331.csv","legacy","Lentiform Loewenfeld","3.3.7","yes","yes","600bd7cfb6416f0113b04181","602110864497cf011d9c0822","0","f","NA","j","space","space","j","f","625","NA","2124","5819","6725","12160","625","2","legacy","1024","2","48000","-16","task","5226331","odd","NA","26583","30716","28591","155354","6624","19200","12470","155858","129276","155351","155859","155287","30716","156485","25079","154787","6569","125972","Lexical Decision Task","56","47826","63","yes","1024"
"3.102203805","7.21","3","drip","word","89.0625","89.0625","763.4375","763.4375","black","no","legacy","legacy","legacy","0","uniform","1","undefined","undefined","undefined","1","j","0","0","0","0","63","0","0","0","63","0","59","63","59","0","59","3","63","0","63","Thu Feb 18 13:50:18 2021","The main experiment item","yes","Lexical_Decision_Task.osexp","/Users/sophiedin","no","Andale Mono","no","18","no","white","no","yes","576","legacy","59","59","3","/Users/sophiedin/subject-5226331.csv","legacy","Lentiform Loewenfeld","3.3.7","yes","yes","600bd7cfb6416f0113b04181","602110864497cf011d9c0822","0","j","NA","j","space","space","j","j","1034","NA","2124","5819","6725","12160","1034","2","legacy","1024","2","48000","-16","task","5226331","odd","NA","26583","30716","28591","158056","6624","19200","12470","158558","129276","158053","158558","157989","30716","159593","25079","154787","6569","156489","Lexical Decision Task","57","48860","64","yes","1024"
"2.793790385","5.67","9","swab","word","89.23076923076923","89.23076923076923","767.2","767.2","black","no","legacy","legacy","legacy","0","uniform","1","undefined","undefined","undefined","1","j","0","0","0","0","64","0","0","0","64","0","60","64","60","0","60","3","64","0","64","Thu Feb 18 13:50:18 2021","The main experiment item","yes","Lexical_Decision_Task.osexp","/Users/sophiedin","no","Andale Mono","no","18","no","white","no","yes","576","legacy","60","60","3","/Users/sophiedin/subject-5226331.csv","legacy","Lentiform Loewenfeld","3.3.7","yes","yes","600bd7cfb6416f0113b04181","602110864497cf011d9c0822","0","j","NA","j","space","space","j","j","1008","NA","2124","5819","6725","12160","1008","2","legacy","1024","2","48000","-16","task","5226331","odd","NA","26583","30716","28591","160161","6624","19200","12470","160663","129276","160158","160663","160097","30716","161672","25079","159597","6569","156489","Lexical Decision Task","58","49868","65","yes","1024"
"2.809559715","8.44","4","volt","word","89.39393939393939","89.39393939393939","762.0454545454545","762.0454545454545","black","no","legacy","legacy","legacy","0","uniform","1","undefined","undefined","undefined","1","j","0","0","0","0","65","0","0","0","65","0","61","65","61","0","61","3","65","0","65","Thu Feb 18 13:50:18 2021","The main experiment item","yes","Lexical_Decision_Task.osexp","/Users/sophiedin","no","Andale Mono","no","18","no","white","no","yes","576","legacy","61","61","3","/Users/sophiedin/subject-5226331.csv","legacy","Lentiform Loewenfeld","3.3.7","yes","yes","600bd7cfb6416f0113b04181","602110864497cf011d9c0822","0","j","NA","j","space","space","j","j","427","NA","2124","5819","6725","12160","427","2","legacy","1024","2","48000","-16","task","5226331","odd","NA","26583","30716","28591","162243","6624","19200","12470","162746","129276","162240","162746","162176","30716","163174","25079","161676","6569","156489","Lexical Decision Task","59","50295","66","yes","1024"
"2.924968096","0","4","phim","non-word","89.55223880597015","89.55223880597015","757.044776119403","757.044776119403","black","no","legacy","legacy","legacy","0","uniform","1","undefined","undefined","undefined","1","f","0","0","0","0","66","0","0","0","66","0","62","66","62","0","62","3","66","0","66","Thu Feb 18 13:50:18 2021","The main experiment item","yes","Lexical_Decision_Task.osexp","/Users/sophiedin","no","Andale Mono","no","18","no","white","no","yes","576","legacy","62","62","3","/Users/sophiedin/subject-5226331.csv","legacy","Lentiform Loewenfeld","3.3.7","yes","yes","600bd7cfb6416f0113b04181","602110864497cf011d9c0822","0","f","NA","j","space","space","j","f","427","NA","2124","5819","6725","12160","427","2","legacy","1024","2","48000","-16","task","5226331","odd","NA","26583","30716","28591","163744","6624","19200","12470","164247","129276","163741","164247","163678","30716","164675","25079","163178","6569","156489","Lexical Decision Task","60","50722","67","yes","1024"
"2.8162413","0","5","nusk","non-word","89.70588235294117","89.70588235294117","756.5294117647059","756.5294117647059","black","no","legacy","legacy","legacy","0","uniform","1","undefined","undefined","undefined","1","f","0","0","0","0","67","0","0","0","67","0","63","67","63","0","63","3","67","0","67","Thu Feb 18 13:50:18 2021","The main experiment item","yes","Lexical_Decision_Task.osexp","/Users/sophiedin","no","Andale Mono","no","18","no","white","no","yes","576","legacy","63","63","3","/Users/sophiedin/subject-5226331.csv","legacy","Lentiform Loewenfeld","3.3.7","yes","yes","600bd7cfb6416f0113b04181","602110864497cf011d9c0822","0","f","NA","j","space","space","j","f","722","NA","2124","5819","6725","12160","722","2","legacy","1024","2","48000","-16","task","5226331","odd","NA","26583","30716","28591","165238","6624","19200","12470","165741","129276","165234","165741","165179","30716","166464","25079","164679","6569","156489","Lexical Decision Task","61","51444","68","yes","1024"
"3.263399331","0","8","cour","non-word","89.85507246376811","89.85507246376811","753.8405797101449","753.8405797101449","black","no","legacy","legacy","legacy","0","uniform","1","undefined","undefined","undefined","1","f","0","0","0","0","68","0","0","0","68","0","64","68","64","0","64","3","68","0","68","Thu Feb 18 13:50:18 2021","The main experiment item","yes","Lexical_Decision_Task.osexp","/Users/sophiedin","no","Andale Mono","no","18","no","white","no","yes","576","legacy","64","64","3","/Users/sophiedin/subject-5226331.csv","legacy","Lentiform Loewenfeld","3.3.7","yes","yes","600bd7cfb6416f0113b04181","602110864497cf011d9c0822","0","f","NA","j","space","space","j","f","571","NA","2124","5819","6725","12160","571","2","legacy","1024","2","48000","-16","task","5226331","odd","NA","26583","30716","28591","167031","6624","19200","12470","167533","129276","167027","167534","166967","30716","168106","25079","166467","6569","156489","Lexical Decision Task","62","52015","69","yes","1024"
"2.576725172","0","8","gowl","non-word","90","90","752.6142857142858","752.6142857142858","black","no","legacy","legacy","legacy","0","uniform","1","undefined","undefined","undefined","1","f","0","0","0","0","69","0","0","0","69","0","65","69","65","0","65","3","69","0","69","Thu Feb 18 13:50:18 2021","The main experiment item","yes","Lexical_Decision_Task.osexp","/Users/sophiedin","no","Andale Mono","no","18","no","white","no","yes","576","legacy","65","65","3","/Users/sophiedin/subject-5226331.csv","legacy","Lentiform Loewenfeld","3.3.7","yes","yes","600bd7cfb6416f0113b04181","602110864497cf011d9c0822","0","f","NA","j","space","space","j","f","668","NA","2124","5819","6725","12160","668","2","legacy","1024","2","48000","-16","task","5226331","odd","NA","26583","30716","28591","168676","6624","19200","12470","169179","129276","168673","169179","168611","30716","169848","25079","168111","6569","156489","Lexical Decision Task","63","52683","70","yes","1024"
"3.347850856","10.51","2","rich","word","90.14084507042253","90.14084507042253","750.2676056338029","750.2676056338029","black","no","legacy","legacy","legacy","0","uniform","1","undefined","undefined","undefined","1","j","0","0","0","0","70","0","0","0","70","0","66","70","66","0","66","3","70","0","70","Thu Feb 18 13:50:18 2021","The main experiment item","yes","Lexical_Decision_Task.osexp","/Users/sophiedin","no","Andale Mono","no","18","no","white","no","yes","576","legacy","66","66","3","/Users/sophiedin/subject-5226331.csv","legacy","Lentiform Loewenfeld","3.3.7","yes","yes","600bd7cfb6416f0113b04181","602110864497cf011d9c0822","0","j","NA","j","space","space","j","j","586","NA","2124","5819","6725","12160","586","2","legacy","1024","2","48000","-16","task","5226331","odd","NA","26583","30716","28591","170419","6624","19200","12470","170921","129276","170415","170921","170353","30716","171507","25079","169852","6569","156489","Lexical Decision Task","64","53269","71","yes","1024"
"3.064581521","5.51","6","cask","word","90.27777777777777","90.27777777777777","750.5555555555555","750.5555555555555","black","no","legacy","legacy","legacy","0","uniform","1","undefined","undefined","undefined","1","j","0","0","0","0","71","0","0","0","71","0","67","71","67","0","67","3","71","0","71","Thu Feb 18 13:50:18 2021","The main experiment item","yes","Lexical_Decision_Task.osexp","/Users/sophiedin","no","Andale Mono","no","18","no","white","no","yes","576","legacy","67","67","3","/Users/sophiedin/subject-5226331.csv","legacy","Lentiform Loewenfeld","3.3.7","yes","yes","600bd7cfb6416f0113b04181","602110864497cf011d9c0822","0","j","NA","j","space","space","j","j","771","NA","2124","5819","6725","12160","771","2","legacy","1024","2","48000","-16","task","5226331","odd","NA","26583","30716","28591","172075","6624","19200","12470","172578","129276","172072","172578","172011","30716","173350","25079","171511","6569","156489","Lexical Decision Task","65","54040","72","yes","1024"
"2.6599162","0","2","saff","non-word","89.04109589041096","89.04109589041096","752.2602739726027","752.2602739726027","black","no","legacy","legacy","legacy","0","uniform","0","undefined","undefined","undefined","0","f","0","0","0","0","72","0","0","0","72","0","68","72","68","0","68","3","72","0","72","Thu Feb 18 13:50:18 2021","The main experiment item","yes","Lexical_Decision_Task.osexp","/Users/sophiedin","no","Andale Mono","no","18","no","white","no","yes","576","legacy","68","68","3","/Users/sophiedin/subject-5226331.csv","legacy","Lentiform Loewenfeld","3.3.7","yes","yes","600bd7cfb6416f0113b04181","602110864497cf011d9c0822","0","j","NA","j","space","space","j","j","875","NA","2124","5819","6725","12160","875","2","legacy","1024","2","48000","-16","task","5226331","odd","NA","26583","30716","28591","173916","6624","19200","12470","174419","129276","173913","174419","173854","30716","175295","25079","173353","6569","156489","Lexical Decision Task","65","54915","73","yes","1024"
"2.713490543","0","3","feps","non-word","89.1891891891892","89.1891891891892","755.527027027027","755.527027027027","black","no","legacy","legacy","legacy","0","uniform","1","undefined","undefined","undefined","1","f","0","0","0","0","73","0","0","0","73","0","69","73","69","0","69","3","73","0","73","Thu Feb 18 13:50:18 2021","The main experiment item","yes","Lexical_Decision_Task.osexp","/Users/sophiedin","no","Andale Mono","no","18","no","white","no","yes","576","legacy","69","69","3","/Users/sophiedin/subject-5226331.csv","legacy","Lentiform Loewenfeld","3.3.7","yes","yes","600bd7cfb6416f0113b04181","602110864497cf011d9c0822","0","f","NA","j","space","space","j","f","994","NA","2124","5819","6725","12160","994","2","legacy","1024","2","48000","-16","task","5226331","odd","NA","26583","30716","28591","176865","6624","19200","12470","177367","129276","176862","177368","176799","30716","178363","25079","173353","6569","175299","Lexical Decision Task","66","55909","74","yes","1024"
"3.378276681","6.39","8","bran","word","89.33333333333333","89.33333333333333","760.2266666666667","760.2266666666667","black","no","legacy","legacy","legacy","0","uniform","1","undefined","undefined","undefined","1","j","0","0","0","0","74","0","0","0","74","0","70","74","70","0","70","3","74","0","74","Thu Feb 18 13:50:18 2021","The main experiment item","yes","Lexical_Decision_Task.osexp","/Users/sophiedin","no","Andale Mono","no","18","no","white","no","yes","576","legacy","70","70","3","/Users/sophiedin/subject-5226331.csv","legacy","Lentiform Loewenfeld","3.3.7","yes","yes","600bd7cfb6416f0113b04181","602110864497cf011d9c0822","0","j","NA","j","space","space","j","j","1108","NA","2124","5819","6725","12160","1108","2","legacy","1024","2","48000","-16","task","5226331","odd","NA","26583","30716","28591","178928","6624","19200","12470","179432","129276","178926","179432","178866","30716","180541","25079","178366","6569","175299","Lexical Decision Task","67","57017","75","yes","1024"
"3.248054965","7.86","5","glow","word","89.47368421052632","89.47368421052632","758.6315789473684","758.6315789473684","black","no","legacy","legacy","legacy","0","uniform","1","undefined","undefined","undefined","1","j","0","0","0","0","75","0","0","0","75","0","71","75","71","0","71","3","75","0","75","Thu Feb 18 13:50:18 2021","The main experiment item","yes","Lexical_Decision_Task.osexp","/Users/sophiedin","no","Andale Mono","no","18","no","white","no","yes","576","legacy","71","71","3","/Users/sophiedin/subject-5226331.csv","legacy","Lentiform Loewenfeld","3.3.7","yes","yes","600bd7cfb6416f0113b04181","602110864497cf011d9c0822","0","j","NA","j","space","space","j","j","639","NA","2124","5819","6725","12160","639","2","legacy","1024","2","48000","-16","task","5226331","odd","NA","26583","30716","28591","181109","6624","19200","12470","181612","129276","181106","181612","181045","30716","182252","25079","180545","6569","175299","Lexical Decision Task","68","57656","76","yes","1024"
"2.794720352","0","9","koot","non-word","89.6103896103896","89.6103896103896","758.077922077922","758.077922077922","black","no","legacy","legacy","legacy","0","uniform","1","undefined","undefined","undefined","1","f","0","0","0","0","76","0","0","0","76","0","72","76","72","0","72","3","76","0","76","Thu Feb 18 13:50:18 2021","The main experiment item","yes","Lexical_Decision_Task.osexp","/Users/sophiedin","no","Andale Mono","no","18","no","white","no","yes","576","legacy","72","72","3","/Users/sophiedin/subject-5226331.csv","legacy","Lentiform Loewenfeld","3.3.7","yes","yes","600bd7cfb6416f0113b04181","602110864497cf011d9c0822","0","f","NA","j","space","space","j","f","716","NA","2124","5819","6725","12160","716","2","legacy","1024","2","48000","-16","task","5226331","odd","NA","26583","30716","28591","182824","6624","19200","12470","183327","129276","182821","183327","182758","30716","184045","25079","182258","6569","175299","Lexical Decision Task","69","58372","77","yes","1024"
"3.282244367","0","6","fute","non-word","89.74358974358974","89.74358974358974","778.0769230769231","778.0769230769231","black","no","legacy","legacy","legacy","0","uniform","1","undefined","undefined","undefined","1","f","0","0","0","0","77","0","0","0","77","0","73","77","73","0","73","3","77","0","77","Thu Feb 18 13:50:18 2021","The main experiment item","yes","Lexical_Decision_Task.osexp","/Users/sophiedin","no","Andale Mono","no","18","no","white","no","yes","576","legacy","73","73","3","/Users/sophiedin/subject-5226331.csv","legacy","Lentiform Loewenfeld","3.3.7","yes","yes","600bd7cfb6416f0113b04181","602110864497cf011d9c0822","0","f","NA","j","space","space","j","f","2318","NA","2124","5819","6725","12160","2318","2","legacy","1024","2","48000","-16","task","5226331","odd","NA","26583","30716","28591","184611","6624","19200","12470","185113","129276","184608","185114","184548","30716","187434","25079","184048","6569","175299","Lexical Decision Task","70","60690","78","yes","1024"
"2.719886232","7.98","2","quiz","word","89.87341772151899","89.87341772151899","776.2658227848101","776.2658227848101","black","no","legacy","legacy","legacy","0","uniform","1","undefined","undefined","undefined","1","j","0","0","0","0","78","0","0","0","78","0","74","78","74","0","74","3","78","0","78","Thu Feb 18 13:50:18 2021","The main experiment item","yes","Lexical_Decision_Task.osexp","/Users/sophiedin","no","Andale Mono","no","18","no","white","no","yes","576","legacy","74","74","3","/Users/sophiedin/subject-5226331.csv","legacy","Lentiform Loewenfeld","3.3.7","yes","yes","600bd7cfb6416f0113b04181","602110864497cf011d9c0822","0","j","NA","j","space","space","j","j","635","NA","2124","5819","6725","12160","635","2","legacy","1024","2","48000","-16","task","5226331","odd","NA","26583","30716","28591","188001","6624","19200","12470","188504","129276","187999","188504","187937","30716","189140","25079","187437","6569","175299","Lexical Decision Task","71","61325","79","yes","1024"
"3.094121596","0","8","fode","non-word","90","90","778.975","778.975","black","no","legacy","legacy","legacy","0","uniform","1","undefined","undefined","undefined","1","f","0","0","0","0","79","0","0","0","79","0","75","79","75","0","75","3","79","0","79","Thu Feb 18 13:50:18 2021","The main experiment item","yes","Lexical_Decision_Task.osexp","/Users/sophiedin","no","Andale Mono","no","18","no","white","no","yes","576","legacy","75","75","3","/Users/sophiedin/subject-5226331.csv","legacy","Lentiform Loewenfeld","3.3.7","yes","yes","600bd7cfb6416f0113b04181","602110864497cf011d9c0822","0","f","NA","j","space","space","j","f","993","NA","2124","5819","6725","12160","993","2","legacy","1024","2","48000","-16","task","5226331","odd","NA","26583","30716","28591","189708","6624","19200","12470","190211","129276","189705","190211","189644","30716","191205","25079","189144","6569","175299","Lexical Decision Task","72","62318","80","yes","1024"
"3.168890155","0","6","thet","non-word","90.12345679012346","90.12345679012346","779.074074074074","779.074074074074","black","no","legacy","legacy","legacy","0","uniform","1","undefined","undefined","undefined","1","f","0","0","0","0","80","0","0","0","80","0","76","80","76","0","76","3","80","0","80","Thu Feb 18 13:50:18 2021","The main experiment item","yes","Lexical_Decision_Task.osexp","/Users/sophiedin","no","Andale Mono","no","18","no","white","no","yes","576","legacy","76","76","3","/Users/sophiedin/subject-5226331.csv","legacy","Lentiform Loewenfeld","3.3.7","yes","yes","600bd7cfb6416f0113b04181","602110864497cf011d9c0822","0","f","NA","j","space","space","j","f","787","NA","2124","5819","6725","12160","787","2","legacy","1024","2","48000","-16","task","5226331","odd","NA","26583","30716","28591","191776","6624","19200","12470","192278","129276","191773","192278","191709","30716","193066","25079","191209","6569","175299","Lexical Decision Task","73","63105","81","yes","1024"
"3.077974404","10.41","8","tool","word","90.2439024390244","90.2439024390244","777.7073170731708","777.7073170731708","black","no","legacy","legacy","legacy","0","uniform","1","undefined","undefined","undefined","1","j","0","0","0","0","81","0","0","0","81","0","77","81","77","0","77","3","81","0","81","Thu Feb 18 13:50:18 2021","The main experiment item","yes","Lexical_Decision_Task.osexp","/Users/sophiedin","no","Andale Mono","no","18","no","white","no","yes","576","legacy","77","77","3","/Users/sophiedin/subject-5226331.csv","legacy","Lentiform Loewenfeld","3.3.7","yes","yes","600bd7cfb6416f0113b04181","602110864497cf011d9c0822","0","j","NA","j","space","space","j","j","667","NA","2124","5819","6725","12160","667","2","legacy","1024","2","48000","-16","task","5226331","odd","NA","26583","30716","28591","193637","6624","19200","12470","194140","129276","193634","194140","193571","30716","194808","25079","193070","6569","175299","Lexical Decision Task","74","63772","82","yes","1024"
"2.698387659","6.66","7","skid","word","90.36144578313252","90.36144578313252","782.433734939759","782.433734939759","black","no","legacy","legacy","legacy","0","uniform","1","undefined","undefined","undefined","1","j","0","0","0","0","82","0","0","0","82","0","78","82","78","0","78","3","82","0","82","Thu Feb 18 13:50:18 2021","The main experiment item","yes","Lexical_Decision_Task.osexp","/Users/sophiedin","no","Andale Mono","no","18","no","white","no","yes","576","legacy","78","78","3","/Users/sophiedin/subject-5226331.csv","legacy","Lentiform Loewenfeld","3.3.7","yes","yes","600bd7cfb6416f0113b04181","602110864497cf011d9c0822","0","j","NA","j","space","space","j","j","1170","NA","2124","5819","6725","12160","1170","2","legacy","1024","2","48000","-16","task","5226331","odd","NA","26583","30716","28591","195375","6624","19200","12470","195878","129276","195372","195878","195311","30716","197050","25079","194811","6569","175299","Lexical Decision Task","75","64942","83","yes","1024"
"3.374137706","10.21","4","tree","word","90.47619047619048","90.47619047619048","780.7738095238095","780.7738095238095","black","no","legacy","legacy","legacy","0","uniform","1","undefined","undefined","undefined","1","j","0","0","0","0","83","0","0","0","83","0","79","83","79","0","79","3","83","0","83","Thu Feb 18 13:50:18 2021","The main experiment item","yes","Lexical_Decision_Task.osexp","/Users/sophiedin","no","Andale Mono","no","18","no","white","no","yes","576","legacy","79","79","3","/Users/sophiedin/subject-5226331.csv","legacy","Lentiform Loewenfeld","3.3.7","yes","yes","600bd7cfb6416f0113b04181","602110864497cf011d9c0822","0","j","NA","j","space","space","j","j","643","NA","2124","5819","6725","12160","643","2","legacy","1024","2","48000","-16","task","5226331","odd","NA","26583","30716","28591","197622","6624","19200","12470","198124","129276","197619","198124","197554","30716","198768","25079","197053","6569","175299","Lexical Decision Task","76","65585","84","yes","1024"
"3.137775856","7.39","5","comb","word","90.58823529411765","90.58823529411765","777.6705882352941","777.6705882352941","black","no","legacy","legacy","legacy","0","uniform","1","undefined","undefined","undefined","1","j","0","0","0","0","84","0","0","0","84","0","80","84","80","0","80","3","84","0","84","Thu Feb 18 13:50:18 2021","The main experiment item","yes","Lexical_Decision_Task.osexp","/Users/sophiedin","no","Andale Mono","no","18","no","white","no","yes","576","legacy","80","80","3","/Users/sophiedin/subject-5226331.csv","legacy","Lentiform Loewenfeld","3.3.7","yes","yes","600bd7cfb6416f0113b04181","602110864497cf011d9c0822","0","j","NA","j","space","space","j","j","517","NA","2124","5819","6725","12160","517","2","legacy","1024","2","48000","-16","task","5226331","odd","NA","26583","30716","28591","199336","6624","19200","12470","199839","129276","199333","199839","199272","30716","200357","25079","198772","6569","175299","Lexical Decision Task","77","66102","85","yes","1024"
"3.208172527","10.27","7","deck","word","90.69767441860465","90.69767441860465","775.1860465116279","775.1860465116279","black","no","legacy","legacy","legacy","0","uniform","1","undefined","undefined","undefined","1","j","0","0","0","0","85","0","0","0","85","0","81","85","81","0","81","3","85","0","85","Thu Feb 18 13:50:18 2021","The main experiment item","yes","Lexical_Decision_Task.osexp","/Users/sophiedin","no","Andale Mono","no","18","no","white","no","yes","576","legacy","81","81","3","/Users/sophiedin/subject-5226331.csv","legacy","Lentiform Loewenfeld","3.3.7","yes","yes","600bd7cfb6416f0113b04181","602110864497cf011d9c0822","0","j","NA","j","space","space","j","j","564","NA","2124","5819","6725","12160","564","2","legacy","1024","2","48000","-16","task","5226331","odd","NA","26583","30716","28591","200930","6624","19200","12470","201433","129276","200927","201433","200862","30716","201998","25079","200362","6569","175299","Lexical Decision Task","78","66666","86","yes","1024"
"3.131833513","7.66","4","limb","word","90.80459770114942","90.80459770114942","771.2528735632184","771.2528735632184","black","no","legacy","legacy","legacy","0","uniform","1","undefined","undefined","undefined","1","j","0","0","0","0","86","0","0","0","86","0","82","86","82","0","82","3","86","0","86","Thu Feb 18 13:50:18 2021","The main experiment item","yes","Lexical_Decision_Task.osexp","/Users/sophiedin","no","Andale Mono","no","18","no","white","no","yes","576","legacy","82","82","3","/Users/sophiedin/subject-5226331.csv","legacy","Lentiform Loewenfeld","3.3.7","yes","yes","600bd7cfb6416f0113b04181","602110864497cf011d9c0822","0","j","NA","j","space","space","j","j","433","NA","2124","5819","6725","12160","433","2","legacy","1024","2","48000","-16","task","5226331","odd","NA","26583","30716","28591","202565","6624","19200","12470","203068","129276","202562","203068","202502","30716","203502","25079","202002","6569","175299","Lexical Decision Task","79","67099","87","yes","1024"
"3.257359335","8","6","brew","word","90.9090909090909","90.9090909090909","769.3863636363636","769.3863636363636","black","no","legacy","legacy","legacy","0","uniform","1","undefined","undefined","undefined","1","j","0","0","0","0","87","0","0","0","87","0","83","87","83","0","83","3","87","0","87","Thu Feb 18 13:50:18 2021","The main experiment item","yes","Lexical_Decision_Task.osexp","/Users/sophiedin","no","Andale Mono","no","18","no","white","no","yes","576","legacy","83","83","3","/Users/sophiedin/subject-5226331.csv","legacy","Lentiform Loewenfeld","3.3.7","yes","yes","600bd7cfb6416f0113b04181","602110864497cf011d9c0822","0","j","NA","j","space","space","j","j","607","NA","2124","5819","6725","12160","607","2","legacy","1024","2","48000","-16","task","5226331","odd","NA","26583","30716","28591","204069","6624","19200","12470","204572","129276","204066","204572","204006","30716","205180","25079","203506","6569","175299","Lexical Decision Task","80","67706","88","yes","1024"
"2.990042563","6.64","9","plow","word","91.01123595505618","91.01123595505618","765.2921348314607","765.2921348314607","black","no","legacy","legacy","legacy","0","uniform","1","undefined","undefined","undefined","1","j","0","0","0","0","88","0","0","0","88","0","84","88","84","0","84","3","88","0","88","Thu Feb 18 13:50:18 2021","The main experiment item","yes","Lexical_Decision_Task.osexp","/Users/sophiedin","no","Andale Mono","no","18","no","white","no","yes","576","legacy","84","84","3","/Users/sophiedin/subject-5226331.csv","legacy","Lentiform Loewenfeld","3.3.7","yes","yes","600bd7cfb6416f0113b04181","602110864497cf011d9c0822","0","j","NA","j","space","space","j","j","405","NA","2124","5819","6725","12160","405","2","legacy","1024","2","48000","-16","task","5226331","odd","NA","26583","30716","28591","205745","6624","19200","12470","206248","129276","205743","206248","205684","30716","206654","25079","205184","6569","175299","Lexical Decision Task","81","68111","89","yes","1024"
"3.15462682","0","6","noal","non-word","91.11111111111111","91.11111111111111","763.3888888888889","763.3888888888889","black","no","legacy","legacy","legacy","0","uniform","1","undefined","undefined","undefined","1","f","0","0","0","0","89","0","0","0","89","0","85","89","85","0","85","3","89","0","89","Thu Feb 18 13:50:18 2021","The main experiment item","yes","Lexical_Decision_Task.osexp","/Users/sophiedin","no","Andale Mono","no","18","no","white","no","yes","576","legacy","85","85","3","/Users/sophiedin/subject-5226331.csv","legacy","Lentiform Loewenfeld","3.3.7","yes","yes","600bd7cfb6416f0113b04181","602110864497cf011d9c0822","0","f","NA","j","space","space","j","f","594","NA","2124","5819","6725","12160","594","2","legacy","1024","2","48000","-16","task","5226331","odd","NA","26583","30716","28591","207222","6624","19200","12470","207725","129276","207220","207726","207158","30716","208322","25079","206658","6569","175299","Lexical Decision Task","82","68705","90","yes","1024"
"3.165936429","0","7","leps","non-word","91.20879120879121","91.20879120879121","760.3516483516484","760.3516483516484","black","no","legacy","legacy","legacy","0","uniform","1","undefined","undefined","undefined","1","f","0","0","0","0","90","0","0","0","90","0","86","90","86","0","86","3","90","0","90","Thu Feb 18 13:50:18 2021","The main experiment item","yes","Lexical_Decision_Task.osexp","/Users/sophiedin","no","Andale Mono","no","18","no","white","no","yes","576","legacy","86","86","3","/Users/sophiedin/subject-5226331.csv","legacy","Lentiform Loewenfeld","3.3.7","yes","yes","600bd7cfb6416f0113b04181","602110864497cf011d9c0822","0","f","NA","j","space","space","j","f","487","NA","2124","5819","6725","12160","487","2","legacy","1024","2","48000","-16","task","5226331","odd","NA","26583","30716","28591","208892","6624","19200","12470","209395","129276","208889","209395","208827","30716","209883","25079","208327","6569","175299","Lexical Decision Task","83","69192","91","yes","1024"
"2.95456409","0","4","taud","non-word","91.30434782608695","91.30434782608695","756.0978260869565","756.0978260869565","black","no","legacy","legacy","legacy","0","uniform","1","undefined","undefined","undefined","1","f","0","0","0","0","91","0","0","0","91","0","87","91","87","0","87","3","91","0","91","Thu Feb 18 13:50:18 2021","The main experiment item","yes","Lexical_Decision_Task.osexp","/Users/sophiedin","no","Andale Mono","no","18","no","white","no","yes","576","legacy","87","87","3","/Users/sophiedin/subject-5226331.csv","legacy","Lentiform Loewenfeld","3.3.7","yes","yes","600bd7cfb6416f0113b04181","602110864497cf011d9c0822","0","f","NA","j","space","space","j","f","369","NA","2124","5819","6725","12160","369","2","legacy","1024","2","48000","-16","task","5226331","odd","NA","26583","30716","28591","210451","6624","19200","12470","210953","129276","210447","210954","210386","30716","211324","25079","209886","6569","175299","Lexical Decision Task","84","69561","92","yes","1024"
"3.16326079","0","5","parg","non-word","91.39784946236558","91.39784946236558","753.0967741935484","753.0967741935484","black","no","legacy","legacy","legacy","0","uniform","1","undefined","undefined","undefined","1","f","0","0","0","0","92","0","0","0","92","0","88","92","88","0","88","3","92","0","92","Thu Feb 18 13:50:18 2021","The main experiment item","yes","Lexical_Decision_Task.osexp","/Users/sophiedin","no","Andale Mono","no","18","no","white","no","yes","576","legacy","88","88","3","/Users/sophiedin/subject-5226331.csv","legacy","Lentiform Loewenfeld","3.3.7","yes","yes","600bd7cfb6416f0113b04181","602110864497cf011d9c0822","0","f","NA","j","space","space","j","f","477","NA","2124","5819","6725","12160","477","2","legacy","1024","2","48000","-16","task","5226331","odd","NA","26583","30716","28591","211892","6624","19200","12470","212395","129276","211889","212395","211828","30716","212873","25079","211328","6569","175299","Lexical Decision Task","85","70038","93","yes","1024"
"3.090140555","5.81","8","pout","word","91.48936170212765","91.48936170212765","750.7872340425532","750.7872340425532","black","no","legacy","legacy","legacy","0","uniform","1","undefined","undefined","undefined","1","j","0","0","0","0","93","0","0","0","93","0","89","93","89","0","89","3","93","0","93","Thu Feb 18 13:50:18 2021","The main experiment item","yes","Lexical_Decision_Task.osexp","/Users/sophiedin","no","Andale Mono","no","18","no","white","no","yes","576","legacy","89","89","3","/Users/sophiedin/subject-5226331.csv","legacy","Lentiform Loewenfeld","3.3.7","yes","yes","600bd7cfb6416f0113b04181","602110864497cf011d9c0822","0","j","NA","j","space","space","j","j","536","NA","2124","5819","6725","12160","536","2","legacy","1024","2","48000","-16","task","5226331","odd","NA","26583","30716","28591","213440","6624","19200","12470","213942","129276","213437","213942","213376","30716","214479","25079","212876","6569","175299","Lexical Decision Task","86","70574","94","yes","1024"
"3.003891166","8.05","2","frog","word","91.57894736842105","91.57894736842105","747.4631578947368","747.4631578947368","black","no","legacy","legacy","legacy","0","uniform","1","undefined","undefined","undefined","1","j","0","0","0","0","94","0","0","0","94","0","90","94","90","0","90","3","94","0","94","Thu Feb 18 13:50:18 2021","The main experiment item","yes","Lexical_Decision_Task.osexp","/Users/sophiedin","no","Andale Mono","no","18","no","white","no","yes","576","legacy","90","90","3","/Users/sophiedin/subject-5226331.csv","legacy","Lentiform Loewenfeld","3.3.7","yes","yes","600bd7cfb6416f0113b04181","602110864497cf011d9c0822","0","j","NA","j","space","space","j","j","435","NA","2124","5819","6725","12160","435","2","legacy","1024","2","48000","-16","task","5226331","odd","NA","26583","30716","28591","215047","6624","19200","12470","215550","129276","215043","215551","214982","30716","215987","25079","214482","6569","175299","Lexical Decision Task","87","71009","95","yes","1024"
"2.664328519","0","4","plux","non-word","91.66666666666667","91.66666666666667","747.5520833333334","747.5520833333334","black","no","legacy","legacy","legacy","0","uniform","1","undefined","undefined","undefined","1","f","0","0","0","0","95","0","0","0","95","0","91","95","91","0","91","3","95","0","95","Thu Feb 18 13:50:18 2021","The main experiment item","yes","Lexical_Decision_Task.osexp","/Users/sophiedin","no","Andale Mono","no","18","no","white","no","yes","576","legacy","91","91","3","/Users/sophiedin/subject-5226331.csv","legacy","Lentiform Loewenfeld","3.3.7","yes","yes","600bd7cfb6416f0113b04181","602110864497cf011d9c0822","0","f","NA","j","space","space","j","f","756","NA","2124","5819","6725","12160","756","2","legacy","1024","2","48000","-16","task","5226331","odd","NA","26583","30716","28591","216554","6624","19200","12470","217057","129276","216551","217057","216490","30716","217814","25079","215990","6569","175299","Lexical Decision Task","88","71765","96","yes","1024"
"3.274543461","7.46","7","scar","word","91.75257731958763","91.75257731958763","745.1958762886597","745.1958762886597","black","no","legacy","legacy","legacy","0","uniform","1","undefined","undefined","undefined","1","j","0","0","0","0","96","0","0","0","96","0","92","96","92","0","92","3","96","0","96","Thu Feb 18 13:50:18 2021","The main experiment item","yes","Lexical_Decision_Task.osexp","/Users/sophiedin","no","Andale Mono","no","18","no","white","no","yes","576","legacy","92","92","3","/Users/sophiedin/subject-5226331.csv","legacy","Lentiform Loewenfeld","3.3.7","yes","yes","600bd7cfb6416f0113b04181","602110864497cf011d9c0822","0","j","NA","j","space","space","j","j","519","NA","2124","5819","6725","12160","519","2","legacy","1024","2","48000","-16","task","5226331","odd","NA","26583","30716","28591","218381","6624","19200","12470","218884","129276","218378","218885","218317","30716","219405","25079","217817","6569","175299","Lexical Decision Task","89","72284","97","yes","1024"
"3.529815197","0","3","lerm","non-word","90.81632653061224","90.81632653061224","744.765306122449","744.765306122449","black","no","legacy","legacy","legacy","0","uniform","0","undefined","undefined","undefined","0","f","0","0","0","0","97","0","0","0","97","0","93","97","93","0","93","3","97","0","97","Thu Feb 18 13:50:18 2021","The main experiment item","yes","Lexical_Decision_Task.osexp","/Users/sophiedin","no","Andale Mono","no","18","no","white","no","yes","576","legacy","93","93","3","/Users/sophiedin/subject-5226331.csv","legacy","Lentiform Loewenfeld","3.3.7","yes","yes","600bd7cfb6416f0113b04181","602110864497cf011d9c0822","0","j","NA","j","space","space","j","j","703","NA","2124","5819","6725","12160","703","2","legacy","1024","2","48000","-16","task","5226331","odd","NA","26583","30716","28591","219974","6624","19200","12470","220477","129276","219971","220478","219909","30716","221182","25079","219409","6569","175299","Lexical Decision Task","89","72987","98","yes","1024"
"2.771097306","0","9","jold","non-word","90.9090909090909","90.9090909090909","743.6060606060606","743.6060606060606","black","no","legacy","legacy","legacy","0","uniform","1","undefined","undefined","undefined","1","f","0","0","0","0","98","0","0","0","98","0","94","98","94","0","94","3","98","0","98","Thu Feb 18 13:50:18 2021","The main experiment item","yes","Lexical_Decision_Task.osexp","/Users/sophiedin","no","Andale Mono","no","18","no","white","no","yes","576","legacy","94","94","3","/Users/sophiedin/subject-5226331.csv","legacy","Lentiform Loewenfeld","3.3.7","yes","yes","600bd7cfb6416f0113b04181","602110864497cf011d9c0822","0","f","NA","j","space","space","j","f","630","NA","2124","5819","6725","12160","630","2","legacy","1024","2","48000","-16","task","5226331","odd","NA","26583","30716","28591","222755","6624","19200","12470","223260","129276","222751","223260","222686","30716","223892","25079","219409","6569","221186","Lexical Decision Task","90","73617","99","yes","1024"
"2.594027722","9.08","8","skip","word","91","91","754.72","754.72","black","no","legacy","legacy","legacy","0","uniform","1","undefined","undefined","undefined","1","j","0","0","0","0","99","0","0","0","99","0","95","99","95","0","95","3","99","0","99","Thu Feb 18 13:50:18 2021","The main experiment item","yes","Lexical_Decision_Task.osexp","/Users/sophiedin","no","Andale Mono","no","18","no","white","no","yes","576","legacy","95","95","3","/Users/sophiedin/subject-5226331.csv","legacy","Lentiform Loewenfeld","3.3.7","yes","yes","600bd7cfb6416f0113b04181","602110864497cf011d9c0822","0","j","NA","j","space","space","j","j","1855","NA","2124","5819","6725","12160","1855","2","legacy","1024","2","48000","-16","task","5226331","odd","NA","26583","30716","28591","224465","6624","19200","12470","224969","129276","224462","224969","224395","30716","226826","25079","223895","6569","221186","Lexical Decision Task","91","75472","100","yes","1024"
"2.845304797","0","6","buct","non-word","91.08910891089108","91.08910891089108","753.4455445544554","753.4455445544554","black","no","legacy","legacy","legacy","0","uniform","1","undefined","undefined","undefined","1","f","0","0","0","0","100","0","0","0","100","0","96","100","96","0","96","3","100","0","100","Thu Feb 18 13:50:18 2021","The main experiment item","yes","Lexical_Decision_Task.osexp","/Users/sophiedin","no","Andale Mono","no","18","no","white","no","yes","576","legacy","96","96","3","/Users/sophiedin/subject-5226331.csv","legacy","Lentiform Loewenfeld","3.3.7","yes","yes","600bd7cfb6416f0113b04181","602110864497cf011d9c0822","0","f","NA","j","space","space","j","f","626","NA","2124","5819","6725","12160","626","2","legacy","1024","2","48000","-16","task","5226331","odd","NA","26583","30716","28591","227396","6624","19200","12470","227899","129276","227393","227899","227330","30716","228526","25079","226829","6569","221186","Lexical Decision Task","92","76098","101","yes","1024"
"3.372543801","9.24","8","coat","word","91.17647058823529","91.17647058823529","763.0588235294117","763.0588235294117","black","no","legacy","legacy","legacy","0","uniform","1","undefined","undefined","undefined","1","j","0","0","0","0","101","0","0","0","101","0","97","101","97","0","97","3","101","0","101","Thu Feb 18 13:50:18 2021","The main experiment item","yes","Lexical_Decision_Task.osexp","/Users/sophiedin","no","Andale Mono","no","18","no","white","no","yes","576","legacy","97","97","3","/Users/sophiedin/subject-5226331.csv","legacy","Lentiform Loewenfeld","3.3.7","yes","yes","600bd7cfb6416f0113b04181","602110864497cf011d9c0822","0","j","NA","j","space","space","j","j","1734","NA","2124","5819","6725","12160","1734","2","legacy","1024","2","48000","-16","task","5226331","odd","NA","26583","30716","28591","229096","6624","19200","12470","229600","129276","229093","229601","229030","30716","231336","25079","228530","6569","221186","Lexical Decision Task","93","77832","102","yes","1024"
"3.374198258","0","8","vist","non-word","90.29126213592232","90.29126213592232","762.5631067961165","762.5631067961165","black","no","legacy","legacy","legacy","0","uniform","0","undefined","undefined","undefined","0","f","0","0","0","0","102","0","0","0","102","0","98","102","98","0","98","3","102","0","102","Thu Feb 18 13:50:18 2021","The main experiment item","yes","Lexical_Decision_Task.osexp","/Users/sophiedin","no","Andale Mono","no","18","no","white","no","yes","576","legacy","98","98","3","/Users/sophiedin/subject-5226331.csv","legacy","Lentiform Loewenfeld","3.3.7","yes","yes","600bd7cfb6416f0113b04181","602110864497cf011d9c0822","0","j","NA","j","space","space","j","j","712","NA","2124","5819","6725","12160","712","2","legacy","1024","2","48000","-16","task","5226331","odd","NA","26583","30716","28591","231903","6624","19200","12470","232407","129276","231901","232407","231840","30716","233121","25079","231340","6569","221186","Lexical Decision Task","93","78544","103","yes","1024"
