"Log_BG","Log_Freq_HAL","Ortho_N","Stimulus","Type","acc","accuracy","average_response_time","avg_rt","background","bidi","canvas_backend","clock_backend","color_backend","compensation","coordinates","correct","correct_Experimental_intro","correct_Introduction","correct_Practice_intro","correct_experimenter_kb","correct_response","count_End_Of_Experiment","count_End_Of_Practice","count_Experimental_Loop","count_Experimental_intro","count_Fixation","count_Introduction","count_Practice_Loop","count_Practice_intro","count_Stimulus","count_block_break_feedback","count_experimental_sequence","count_experimenter_kb","count_increment_trial_count","count_init_trial_count","count_logger","count_practice_sequence","count_right","count_task","count_wrong","datetime","description","disable_garbage_collection","experiment_file","experiment_path","font_bold","font_family","font_italic","font_size","font_underline","foreground","form_clicks","fullscreen","height","keyboard_backend","live_row","live_row_Experimental_Loop","live_row_Practice_Loop","logfile","mouse_backend","opensesame_codename","opensesame_version","osf_always_upload_data","osf_always_upload_experiment","osf_datanode_id","osf_id","repeat_cycle","response","response_End_Of_Experiment","response_Experimental_intro","response_Introduction","response_Practice_intro","response_block_break_feedback","response_experimenter_kb","response_time","response_time_End_Of_Experiment","response_time_Experimental_intro","response_time_Introduction","response_time_Practice_intro","response_time_block_break_feedback","response_time_experimenter_kb","round_decimals","sampler_backend","sound_buf_size","sound_channels","sound_freq","sound_sample_size","start","subject_nr","subject_parity","time_End_Of_Experiment","time_End_Of_Practice","time_Experimental_Loop","time_Experimental_intro","time_Fixation","time_Introduction","time_Practice_Loop","time_Practice_intro","time_Stimulus","time_block_break_feedback","time_experimental_sequence","time_experimenter_kb","time_increment_trial_count","time_init_trial_count","time_logger","time_practice_sequence","time_right","time_task","time_wrong","title","total_correct","total_response_time","total_responses","uniform_coordinates","width"
"3.149629599","0","2","cleb","non-word","100","100","620.8","620.8","black","no","legacy","legacy","legacy","0","uniform","1","undefined","undefined","undefined","1","f","0","0","0","0","4","0","0","0","4","NA","0","4","0","0","0","3","4","0","4","Tue Feb 23 14:06:23 2021","The main experiment item","yes","Lexical_Decision_Task.osexp","/Users/Hannah/Bournemouth Uni/YEAR TWO/COGNITION AND LANGUAGE/OPEN SESAME","no","Andale Mono","no","18","no","white","no","yes","576","legacy","0","0","3","/Users/Hannah/Bournemouth Uni/YEAR TWO/COGNITION AND LANGUAGE/OPEN SESAME/subject-5219365 LDT.csv","legacy","Lentiform Loewenfeld","3.3.7","yes","yes","600bd7cfb6416f0113b04181","602110864497cf011d9c0822","0","f","NA","j","j","j","NA","f","576","NA","1897","13667","6249","NA","576","2","legacy","1024","2","48000","-16","task","5219365","odd","NA","32519","36420","34522","36448","5732","25666","19416","36951","NA","36446","36952","NA","36420","37529","30888","31982","5668","NA","Lexical Decision Task","5","3104","5","yes","1024"
"2.709837904","6.85","8","skim","word","100","100","640.1666666666666","640.1666666666666","black","no","legacy","legacy","legacy","0","uniform","1","undefined","undefined","undefined","1","j","0","0","0","0","5","0","0","0","5","NA","1","5","1","0","1","3","5","0","5","Tue Feb 23 14:06:23 2021","The main experiment item","yes","Lexical_Decision_Task.osexp","/Users/Hannah/Bournemouth Uni/YEAR TWO/COGNITION AND LANGUAGE/OPEN SESAME","no","Andale Mono","no","18","no","white","no","yes","576","legacy","1","1","3","/Users/Hannah/Bournemouth Uni/YEAR TWO/COGNITION AND LANGUAGE/OPEN SESAME/subject-5219365 LDT.csv","legacy","Lentiform Loewenfeld","3.3.7","yes","yes","600bd7cfb6416f0113b04181","602110864497cf011d9c0822","0","j","NA","j","j","j","NA","j","737","NA","1897","13667","6249","NA","737","2","legacy","1024","2","48000","-16","task","5219365","odd","NA","32519","36420","34522","38089","5732","25666","19416","38592","NA","38087","38592","38036","36420","39330","30888","37536","5668","NA","Lexical Decision Task","6","3841","6","yes","1024"
"2.971428938","9.86","7","spot","word","100","100","636.1428571428571","636.1428571428571","black","no","legacy","legacy","legacy","0","uniform","1","undefined","undefined","undefined","1","j","0","0","0","0","6","0","0","0","6","NA","2","6","2","0","2","3","6","0","6","Tue Feb 23 14:06:23 2021","The main experiment item","yes","Lexical_Decision_Task.osexp","/Users/Hannah/Bournemouth Uni/YEAR TWO/COGNITION AND LANGUAGE/OPEN SESAME","no","Andale Mono","no","18","no","white","no","yes","576","legacy","2","2","3","/Users/Hannah/Bournemouth Uni/YEAR TWO/COGNITION AND LANGUAGE/OPEN SESAME/subject-5219365 LDT.csv","legacy","Lentiform Loewenfeld","3.3.7","yes","yes","600bd7cfb6416f0113b04181","602110864497cf011d9c0822","0","j","NA","j","j","j","NA","j","612","NA","1897","13667","6249","NA","612","2","legacy","1024","2","48000","-16","task","5219365","odd","NA","32519","36420","34522","39886","5732","25666","19416","40389","NA","39884","40389","39835","36420","41002","30888","39334","5668","NA","Lexical Decision Task","7","4453","7","yes","1024"
"2.793790385","5.67","9","swab","word","100","100","629.375","629.375","black","no","legacy","legacy","legacy","0","uniform","1","undefined","undefined","undefined","1","j","0","0","0","0","7","0","0","0","7","NA","3","7","3","0","3","3","7","0","7","Tue Feb 23 14:06:23 2021","The main experiment item","yes","Lexical_Decision_Task.osexp","/Users/Hannah/Bournemouth Uni/YEAR TWO/COGNITION AND LANGUAGE/OPEN SESAME","no","Andale Mono","no","18","no","white","no","yes","576","legacy","3","3","3","/Users/Hannah/Bournemouth Uni/YEAR TWO/COGNITION AND LANGUAGE/OPEN SESAME/subject-5219365 LDT.csv","legacy","Lentiform Loewenfeld","3.3.7","yes","yes","600bd7cfb6416f0113b04181","602110864497cf011d9c0822","0","j","NA","j","j","j","NA","j","582","NA","1897","13667","6249","NA","582","2","legacy","1024","2","48000","-16","task","5219365","odd","NA","32519","36420","34522","41558","5732","25666","19416","42061","NA","41555","42061","41507","36420","42644","30888","41006","5668","NA","Lexical Decision Task","8","5035","8","yes","1024"
"3.531734309","0","6","lerd","non-word","100","100","635","635","black","no","legacy","legacy","legacy","0","uniform","1","undefined","undefined","undefined","1","f","0","0","0","0","8","0","0","0","8","NA","4","8","4","0","4","3","8","0","8","Tue Feb 23 14:06:23 2021","The main experiment item","yes","Lexical_Decision_Task.osexp","/Users/Hannah/Bournemouth Uni/YEAR TWO/COGNITION AND LANGUAGE/OPEN SESAME","no","Andale Mono","no","18","no","white","no","yes","576","legacy","4","4","3","/Users/Hannah/Bournemouth Uni/YEAR TWO/COGNITION AND LANGUAGE/OPEN SESAME/subject-5219365 LDT.csv","legacy","Lentiform Loewenfeld","3.3.7","yes","yes","600bd7cfb6416f0113b04181","602110864497cf011d9c0822","0","f","NA","j","j","j","NA","f","680","NA","1897","13667","6249","NA","680","2","legacy","1024","2","48000","-16","task","5219365","odd","NA","32519","36420","34522","43199","5732","25666","19416","43702","NA","43197","43702","43149","36420","44383","30888","42648","5668","NA","Lexical Decision Task","9","5715","9","yes","1024"
"3.363486562","6.93","9","lush","word","100","100","643","643","black","no","legacy","legacy","legacy","0","uniform","1","undefined","undefined","undefined","1","j","0","0","0","0","9","0","0","0","9","NA","5","9","5","0","5","3","9","0","9","Tue Feb 23 14:06:23 2021","The main experiment item","yes","Lexical_Decision_Task.osexp","/Users/Hannah/Bournemouth Uni/YEAR TWO/COGNITION AND LANGUAGE/OPEN SESAME","no","Andale Mono","no","18","no","white","no","yes","576","legacy","5","5","3","/Users/Hannah/Bournemouth Uni/YEAR TWO/COGNITION AND LANGUAGE/OPEN SESAME/subject-5219365 LDT.csv","legacy","Lentiform Loewenfeld","3.3.7","yes","yes","600bd7cfb6416f0113b04181","602110864497cf011d9c0822","0","j","NA","j","j","j","NA","j","715","NA","1897","13667","6249","NA","715","2","legacy","1024","2","48000","-16","task","5219365","odd","NA","32519","36420","34522","44939","5732","25666","19416","45441","NA","44936","45442","44888","36420","46158","30888","44387","5668","NA","Lexical Decision Task","10","6430","10","yes","1024"
"2.696356389","0","1","pizz","non-word","100","100","652.2727272727273","652.2727272727273","black","no","legacy","legacy","legacy","0","uniform","1","undefined","undefined","undefined","1","f","0","0","0","0","10","0","0","0","10","NA","6","10","6","0","6","3","10","0","10","Tue Feb 23 14:06:23 2021","The main experiment item","yes","Lexical_Decision_Task.osexp","/Users/Hannah/Bournemouth Uni/YEAR TWO/COGNITION AND LANGUAGE/OPEN SESAME","no","Andale Mono","no","18","no","white","no","yes","576","legacy","6","6","3","/Users/Hannah/Bournemouth Uni/YEAR TWO/COGNITION AND LANGUAGE/OPEN SESAME/subject-5219365 LDT.csv","legacy","Lentiform Loewenfeld","3.3.7","yes","yes","600bd7cfb6416f0113b04181","602110864497cf011d9c0822","0","f","NA","j","j","j","NA","f","745","NA","1897","13667","6249","NA","745","2","legacy","1024","2","48000","-16","task","5219365","odd","NA","32519","36420","34522","46713","5732","25666","19416","47216","NA","46711","47216","46663","36420","47962","30888","46163","5668","NA","Lexical Decision Task","11","7175","11","yes","1024"
"3.529815197","0","3","lerm","non-word","100","100","667.3333333333334","667.3333333333334","black","no","legacy","legacy","legacy","0","uniform","1","undefined","undefined","undefined","1","f","0","0","0","0","11","0","0","0","11","NA","7","11","7","0","7","3","11","0","11","Tue Feb 23 14:06:23 2021","The main experiment item","yes","Lexical_Decision_Task.osexp","/Users/Hannah/Bournemouth Uni/YEAR TWO/COGNITION AND LANGUAGE/OPEN SESAME","no","Andale Mono","no","18","no","white","no","yes","576","legacy","7","7","3","/Users/Hannah/Bournemouth Uni/YEAR TWO/COGNITION AND LANGUAGE/OPEN SESAME/subject-5219365 LDT.csv","legacy","Lentiform Loewenfeld","3.3.7","yes","yes","600bd7cfb6416f0113b04181","602110864497cf011d9c0822","0","f","NA","j","j","j","NA","f","833","NA","1897","13667","6249","NA","833","2","legacy","1024","2","48000","-16","task","5219365","odd","NA","32519","36420","34522","48518","5732","25666","19416","49020","NA","48515","49021","48467","36420","49855","30888","47966","5668","NA","Lexical Decision Task","12","8008","12","yes","1024"
"3.165936429","0","7","leps","non-word","100","100","668","668","black","no","legacy","legacy","legacy","0","uniform","1","undefined","undefined","undefined","1","f","0","0","0","0","12","0","0","0","12","NA","8","12","8","0","8","3","12","0","12","Tue Feb 23 14:06:23 2021","The main experiment item","yes","Lexical_Decision_Task.osexp","/Users/Hannah/Bournemouth Uni/YEAR TWO/COGNITION AND LANGUAGE/OPEN SESAME","no","Andale Mono","no","18","no","white","no","yes","576","legacy","8","8","3","/Users/Hannah/Bournemouth Uni/YEAR TWO/COGNITION AND LANGUAGE/OPEN SESAME/subject-5219365 LDT.csv","legacy","Lentiform Loewenfeld","3.3.7","yes","yes","600bd7cfb6416f0113b04181","602110864497cf011d9c0822","0","f","NA","j","j","j","NA","f","676","NA","1897","13667","6249","NA","676","2","legacy","1024","2","48000","-16","task","5219365","odd","NA","32519","36420","34522","50418","5732","25666","19416","50921","NA","50416","50922","50359","36420","51600","30888","49858","5668","NA","Lexical Decision Task","13","8684","13","yes","1024"
"2.980911938","7.15","7","hoop","word","100","100","656.5","656.5","black","no","legacy","legacy","legacy","0","uniform","1","undefined","undefined","undefined","1","j","0","0","0","0","13","0","0","0","13","NA","9","13","9","0","9","3","13","0","13","Tue Feb 23 14:06:23 2021","The main experiment item","yes","Lexical_Decision_Task.osexp","/Users/Hannah/Bournemouth Uni/YEAR TWO/COGNITION AND LANGUAGE/OPEN SESAME","no","Andale Mono","no","18","no","white","no","yes","576","legacy","9","9","3","/Users/Hannah/Bournemouth Uni/YEAR TWO/COGNITION AND LANGUAGE/OPEN SESAME/subject-5219365 LDT.csv","legacy","Lentiform Loewenfeld","3.3.7","yes","yes","600bd7cfb6416f0113b04181","602110864497cf011d9c0822","0","j","NA","j","j","j","NA","j","507","NA","1897","13667","6249","NA","507","2","legacy","1024","2","48000","-16","task","5219365","odd","NA","32519","36420","34522","52155","5732","25666","19416","52657","NA","52152","52658","52105","36420","53166","30888","51604","5668","NA","Lexical Decision Task","14","9191","14","yes","1024"
"2.675164031","8.57","6","glue","word","100","100","656.0666666666667","656.0666666666667","black","no","legacy","legacy","legacy","0","uniform","1","undefined","undefined","undefined","1","j","0","0","0","0","14","0","0","0","14","NA","10","14","10","0","10","3","14","0","14","Tue Feb 23 14:06:23 2021","The main experiment item","yes","Lexical_Decision_Task.osexp","/Users/Hannah/Bournemouth Uni/YEAR TWO/COGNITION AND LANGUAGE/OPEN SESAME","no","Andale Mono","no","18","no","white","no","yes","576","legacy","10","10","3","/Users/Hannah/Bournemouth Uni/YEAR TWO/COGNITION AND LANGUAGE/OPEN SESAME/subject-5219365 LDT.csv","legacy","Lentiform Loewenfeld","3.3.7","yes","yes","600bd7cfb6416f0113b04181","602110864497cf011d9c0822","0","j","NA","j","j","j","NA","j","650","NA","1897","13667","6249","NA","650","2","legacy","1024","2","48000","-16","task","5219365","odd","NA","32519","36420","34522","53720","5732","25666","19416","54222","NA","53717","54222","53670","36420","54874","30888","53170","5668","NA","Lexical Decision Task","15","9841","15","yes","1024"
"2.75025376","10.2","6","jump","word","100","100","657.3125","657.3125","black","no","legacy","legacy","legacy","0","uniform","1","undefined","undefined","undefined","1","j","0","0","0","0","15","0","0","0","15","NA","11","15","11","0","11","3","15","0","15","Tue Feb 23 14:06:23 2021","The main experiment item","yes","Lexical_Decision_Task.osexp","/Users/Hannah/Bournemouth Uni/YEAR TWO/COGNITION AND LANGUAGE/OPEN SESAME","no","Andale Mono","no","18","no","white","no","yes","576","legacy","11","11","3","/Users/Hannah/Bournemouth Uni/YEAR TWO/COGNITION AND LANGUAGE/OPEN SESAME/subject-5219365 LDT.csv","legacy","Lentiform Loewenfeld","3.3.7","yes","yes","600bd7cfb6416f0113b04181","602110864497cf011d9c0822","0","j","NA","j","j","j","NA","j","676","NA","1897","13667","6249","NA","676","2","legacy","1024","2","48000","-16","task","5219365","odd","NA","32519","36420","34522","55430","5732","25666","19416","55934","NA","55427","55934","55377","36420","56612","30888","54877","5668","NA","Lexical Decision Task","16","10517","16","yes","1024"
"3.374198258","0","8","vist","non-word","100","100","680.6470588235294","680.6470588235294","black","no","legacy","legacy","legacy","0","uniform","1","undefined","undefined","undefined","1","f","0","0","0","0","16","0","0","0","16","NA","12","16","12","0","12","3","16","0","16","Tue Feb 23 14:06:23 2021","The main experiment item","yes","Lexical_Decision_Task.osexp","/Users/Hannah/Bournemouth Uni/YEAR TWO/COGNITION AND LANGUAGE/OPEN SESAME","no","Andale Mono","no","18","no","white","no","yes","576","legacy","12","12","3","/Users/Hannah/Bournemouth Uni/YEAR TWO/COGNITION AND LANGUAGE/OPEN SESAME/subject-5219365 LDT.csv","legacy","Lentiform Loewenfeld","3.3.7","yes","yes","600bd7cfb6416f0113b04181","602110864497cf011d9c0822","0","f","NA","j","j","j","NA","f","1054","NA","1897","13667","6249","NA","1054","2","legacy","1024","2","48000","-16","task","5219365","odd","NA","32519","36420","34522","57173","5732","25666","19416","57676","NA","57171","57677","57117","36420","58733","30888","56617","5668","NA","Lexical Decision Task","17","11571","17","yes","1024"
"3.168400243","9.12","6","horn","word","100","100","682.8333333333334","682.8333333333334","black","no","legacy","legacy","legacy","0","uniform","1","undefined","undefined","undefined","1","j","0","0","0","0","17","0","0","0","17","NA","13","17","13","0","13","3","17","0","17","Tue Feb 23 14:06:23 2021","The main experiment item","yes","Lexical_Decision_Task.osexp","/Users/Hannah/Bournemouth Uni/YEAR TWO/COGNITION AND LANGUAGE/OPEN SESAME","no","Andale Mono","no","18","no","white","no","yes","576","legacy","13","13","3","/Users/Hannah/Bournemouth Uni/YEAR TWO/COGNITION AND LANGUAGE/OPEN SESAME/subject-5219365 LDT.csv","legacy","Lentiform Loewenfeld","3.3.7","yes","yes","600bd7cfb6416f0113b04181","602110864497cf011d9c0822","0","j","NA","j","j","j","NA","j","720","NA","1897","13667","6249","NA","720","2","legacy","1024","2","48000","-16","task","5219365","odd","NA","32519","36420","34522","59291","5732","25666","19416","59793","NA","59288","59794","59238","36420","60515","30888","58738","5668","NA","Lexical Decision Task","18","12291","18","yes","1024"
"3.269668578","0","7","trag","non-word","100","100","686.5263157894736","686.5263157894736","black","no","legacy","legacy","legacy","0","uniform","1","undefined","undefined","undefined","1","f","0","0","0","0","18","0","0","0","18","NA","14","18","14","0","14","3","18","0","18","Tue Feb 23 14:06:23 2021","The main experiment item","yes","Lexical_Decision_Task.osexp","/Users/Hannah/Bournemouth Uni/YEAR TWO/COGNITION AND LANGUAGE/OPEN SESAME","no","Andale Mono","no","18","no","white","no","yes","576","legacy","14","14","3","/Users/Hannah/Bournemouth Uni/YEAR TWO/COGNITION AND LANGUAGE/OPEN SESAME/subject-5219365 LDT.csv","legacy","Lentiform Loewenfeld","3.3.7","yes","yes","600bd7cfb6416f0113b04181","602110864497cf011d9c0822","0","f","NA","j","j","j","NA","f","753","NA","1897","13667","6249","NA","753","2","legacy","1024","2","48000","-16","task","5219365","odd","NA","32519","36420","34522","61085","5732","25666","19416","61588","NA","61082","61589","61022","36420","62344","30888","60522","5668","NA","Lexical Decision Task","19","13044","19","yes","1024"
"2.839898939","8.99","6","soap","word","100","100","687.35","687.35","black","no","legacy","legacy","legacy","0","uniform","1","undefined","undefined","undefined","1","j","0","0","0","0","19","0","0","0","19","NA","15","19","15","0","15","3","19","0","19","Tue Feb 23 14:06:23 2021","The main experiment item","yes","Lexical_Decision_Task.osexp","/Users/Hannah/Bournemouth Uni/YEAR TWO/COGNITION AND LANGUAGE/OPEN SESAME","no","Andale Mono","no","18","no","white","no","yes","576","legacy","15","15","3","/Users/Hannah/Bournemouth Uni/YEAR TWO/COGNITION AND LANGUAGE/OPEN SESAME/subject-5219365 LDT.csv","legacy","Lentiform Loewenfeld","3.3.7","yes","yes","600bd7cfb6416f0113b04181","602110864497cf011d9c0822","0","j","NA","j","j","j","NA","j","703","NA","1897","13667","6249","NA","703","2","legacy","1024","2","48000","-16","task","5219365","odd","NA","32519","36420","34522","62903","5732","25666","19416","63407","NA","62901","63408","62849","36420","64113","30888","62349","5668","NA","Lexical Decision Task","20","13747","20","yes","1024"
"3.353210739","0","9","reet","non-word","100","100","688.8571428571429","688.8571428571429","black","no","legacy","legacy","legacy","0","uniform","1","undefined","undefined","undefined","1","f","0","0","0","0","20","0","0","0","20","NA","16","20","16","0","16","3","20","0","20","Tue Feb 23 14:06:23 2021","The main experiment item","yes","Lexical_Decision_Task.osexp","/Users/Hannah/Bournemouth Uni/YEAR TWO/COGNITION AND LANGUAGE/OPEN SESAME","no","Andale Mono","no","18","no","white","no","yes","576","legacy","16","16","3","/Users/Hannah/Bournemouth Uni/YEAR TWO/COGNITION AND LANGUAGE/OPEN SESAME/subject-5219365 LDT.csv","legacy","Lentiform Loewenfeld","3.3.7","yes","yes","600bd7cfb6416f0113b04181","602110864497cf011d9c0822","0","f","NA","j","j","j","NA","f","719","NA","1897","13667","6249","NA","719","2","legacy","1024","2","48000","-16","task","5219365","odd","NA","32519","36420","34522","64677","5732","25666","19416","65180","NA","64674","65180","64618","36420","65901","30888","64118","5668","NA","Lexical Decision Task","21","14466","21","yes","1024"
"2.69019608","9.01","2","myth","word","100","100","682.3636363636364","682.3636363636364","black","no","legacy","legacy","legacy","0","uniform","1","undefined","undefined","undefined","1","j","0","0","0","0","21","0","0","0","21","NA","17","21","17","0","17","3","21","0","21","Tue Feb 23 14:06:23 2021","The main experiment item","yes","Lexical_Decision_Task.osexp","/Users/Hannah/Bournemouth Uni/YEAR TWO/COGNITION AND LANGUAGE/OPEN SESAME","no","Andale Mono","no","18","no","white","no","yes","576","legacy","17","17","3","/Users/Hannah/Bournemouth Uni/YEAR TWO/COGNITION AND LANGUAGE/OPEN SESAME/subject-5219365 LDT.csv","legacy","Lentiform Loewenfeld","3.3.7","yes","yes","600bd7cfb6416f0113b04181","602110864497cf011d9c0822","0","j","NA","j","j","j","NA","j","546","NA","1897","13667","6249","NA","546","2","legacy","1024","2","48000","-16","task","5219365","odd","NA","32519","36420","34522","66459","5732","25666","19416","66962","NA","66457","66963","66407","36420","67510","30888","65907","5668","NA","Lexical Decision Task","22","15012","22","yes","1024"
"2.873320602","0","4","lurg","non-word","100","100","680.1304347826087","680.1304347826087","black","no","legacy","legacy","legacy","0","uniform","1","undefined","undefined","undefined","1","f","0","0","0","0","22","0","0","0","22","NA","18","22","18","0","18","3","22","0","22","Tue Feb 23 14:06:23 2021","The main experiment item","yes","Lexical_Decision_Task.osexp","/Users/Hannah/Bournemouth Uni/YEAR TWO/COGNITION AND LANGUAGE/OPEN SESAME","no","Andale Mono","no","18","no","white","no","yes","576","legacy","18","18","3","/Users/Hannah/Bournemouth Uni/YEAR TWO/COGNITION AND LANGUAGE/OPEN SESAME/subject-5219365 LDT.csv","legacy","Lentiform Loewenfeld","3.3.7","yes","yes","600bd7cfb6416f0113b04181","602110864497cf011d9c0822","0","f","NA","j","j","j","NA","f","631","NA","1897","13667","6249","NA","631","2","legacy","1024","2","48000","-16","task","5219365","odd","NA","32519","36420","34522","68064","5732","25666","19416","68567","NA","68062","68567","68014","36420","69199","30888","67514","5668","NA","Lexical Decision Task","23","15643","23","yes","1024"
"3.259832699","0","9","flar","non-word","100","100","681.7083333333334","681.7083333333334","black","no","legacy","legacy","legacy","0","uniform","1","undefined","undefined","undefined","1","f","0","0","0","0","23","0","0","0","23","NA","19","23","19","0","19","3","23","0","23","Tue Feb 23 14:06:23 2021","The main experiment item","yes","Lexical_Decision_Task.osexp","/Users/Hannah/Bournemouth Uni/YEAR TWO/COGNITION AND LANGUAGE/OPEN SESAME","no","Andale Mono","no","18","no","white","no","yes","576","legacy","19","19","3","/Users/Hannah/Bournemouth Uni/YEAR TWO/COGNITION AND LANGUAGE/OPEN SESAME/subject-5219365 LDT.csv","legacy","Lentiform Loewenfeld","3.3.7","yes","yes","600bd7cfb6416f0113b04181","602110864497cf011d9c0822","0","f","NA","j","j","j","NA","f","718","NA","1897","13667","6249","NA","718","2","legacy","1024","2","48000","-16","task","5219365","odd","NA","32519","36420","34522","69754","5732","25666","19416","70257","NA","69752","70258","69704","36420","70977","30888","69204","5668","NA","Lexical Decision Task","24","16361","24","yes","1024"
"2.68604012","0","4","pumb","non-word","100","100","680.2","680.2","black","no","legacy","legacy","legacy","0","uniform","1","undefined","undefined","undefined","1","f","0","0","0","0","24","0","0","0","24","NA","20","24","20","0","20","3","24","0","24","Tue Feb 23 14:06:23 2021","The main experiment item","yes","Lexical_Decision_Task.osexp","/Users/Hannah/Bournemouth Uni/YEAR TWO/COGNITION AND LANGUAGE/OPEN SESAME","no","Andale Mono","no","18","no","white","no","yes","576","legacy","20","20","3","/Users/Hannah/Bournemouth Uni/YEAR TWO/COGNITION AND LANGUAGE/OPEN SESAME/subject-5219365 LDT.csv","legacy","Lentiform Loewenfeld","3.3.7","yes","yes","600bd7cfb6416f0113b04181","602110864497cf011d9c0822","0","f","NA","j","j","j","NA","f","644","NA","1897","13667","6249","NA","644","2","legacy","1024","2","48000","-16","task","5219365","odd","NA","32519","36420","34522","71542","5732","25666","19416","72045","NA","71539","72046","71481","36420","72691","30888","70981","5668","NA","Lexical Decision Task","25","17005","25","yes","1024"
"3.120025233","0","2","nyst","non-word","100","100","680.3076923076923","680.3076923076923","black","no","legacy","legacy","legacy","0","uniform","1","undefined","undefined","undefined","1","f","0","0","0","0","25","0","0","0","25","NA","21","25","21","0","21","3","25","0","25","Tue Feb 23 14:06:23 2021","The main experiment item","yes","Lexical_Decision_Task.osexp","/Users/Hannah/Bournemouth Uni/YEAR TWO/COGNITION AND LANGUAGE/OPEN SESAME","no","Andale Mono","no","18","no","white","no","yes","576","legacy","21","21","3","/Users/Hannah/Bournemouth Uni/YEAR TWO/COGNITION AND LANGUAGE/OPEN SESAME/subject-5219365 LDT.csv","legacy","Lentiform Loewenfeld","3.3.7","yes","yes","600bd7cfb6416f0113b04181","602110864497cf011d9c0822","0","f","NA","j","j","j","NA","f","683","NA","1897","13667","6249","NA","683","2","legacy","1024","2","48000","-16","task","5219365","odd","NA","32519","36420","34522","73259","5732","25666","19416","73762","NA","73257","73762","73195","36420","74447","30888","72695","5668","NA","Lexical Decision Task","26","17688","26","yes","1024"
"2.695481676","0","7","goke","non-word","100","100","680.925925925926","680.925925925926","black","no","legacy","legacy","legacy","0","uniform","1","undefined","undefined","undefined","1","f","0","0","0","0","26","0","0","0","26","NA","22","26","22","0","22","3","26","0","26","Tue Feb 23 14:06:23 2021","The main experiment item","yes","Lexical_Decision_Task.osexp","/Users/Hannah/Bournemouth Uni/YEAR TWO/COGNITION AND LANGUAGE/OPEN SESAME","no","Andale Mono","no","18","no","white","no","yes","576","legacy","22","22","3","/Users/Hannah/Bournemouth Uni/YEAR TWO/COGNITION AND LANGUAGE/OPEN SESAME/subject-5219365 LDT.csv","legacy","Lentiform Loewenfeld","3.3.7","yes","yes","600bd7cfb6416f0113b04181","602110864497cf011d9c0822","0","f","NA","j","j","j","NA","f","697","NA","1897","13667","6249","NA","697","2","legacy","1024","2","48000","-16","task","5219365","odd","NA","32519","36420","34522","75005","5732","25666","19416","75508","NA","75002","75508","74951","36420","76206","30888","74451","5668","NA","Lexical Decision Task","27","18385","27","yes","1024"
"3.140404328","10.66","9","deep","word","100","100","674.4285714285714","674.4285714285714","black","no","legacy","legacy","legacy","0","uniform","1","undefined","undefined","undefined","1","j","0","0","0","0","27","0","0","0","27","NA","23","27","23","0","23","3","27","0","27","Tue Feb 23 14:06:23 2021","The main experiment item","yes","Lexical_Decision_Task.osexp","/Users/Hannah/Bournemouth Uni/YEAR TWO/COGNITION AND LANGUAGE/OPEN SESAME","no","Andale Mono","no","18","no","white","no","yes","576","legacy","23","23","3","/Users/Hannah/Bournemouth Uni/YEAR TWO/COGNITION AND LANGUAGE/OPEN SESAME/subject-5219365 LDT.csv","legacy","Lentiform Loewenfeld","3.3.7","yes","yes","600bd7cfb6416f0113b04181","602110864497cf011d9c0822","0","j","NA","j","j","j","NA","j","499","NA","1897","13667","6249","NA","499","2","legacy","1024","2","48000","-16","task","5219365","odd","NA","32519","36420","34522","76767","5732","25666","19416","77270","NA","76765","77270","76710","36420","77770","30888","76210","5668","NA","Lexical Decision Task","28","18884","28","yes","1024"
"2.695770526","7.34","6","pawn","word","100","100","673.5172413793103","673.5172413793103","black","no","legacy","legacy","legacy","0","uniform","1","undefined","undefined","undefined","1","j","0","0","0","0","28","0","0","0","28","NA","24","28","24","0","24","3","28","0","28","Tue Feb 23 14:06:23 2021","The main experiment item","yes","Lexical_Decision_Task.osexp","/Users/Hannah/Bournemouth Uni/YEAR TWO/COGNITION AND LANGUAGE/OPEN SESAME","no","Andale Mono","no","18","no","white","no","yes","576","legacy","24","24","3","/Users/Hannah/Bournemouth Uni/YEAR TWO/COGNITION AND LANGUAGE/OPEN SESAME/subject-5219365 LDT.csv","legacy","Lentiform Loewenfeld","3.3.7","yes","yes","600bd7cfb6416f0113b04181","602110864497cf011d9c0822","0","j","NA","j","j","j","NA","j","648","NA","1897","13667","6249","NA","648","2","legacy","1024","2","48000","-16","task","5219365","odd","NA","32519","36420","34522","78326","5732","25666","19416","78829","NA","78324","78829","78275","36420","79478","30888","77774","5668","NA","Lexical Decision Task","29","19532","29","yes","1024"
"3.22685757","9.99","7","roll","word","100","100","669.7","669.7","black","no","legacy","legacy","legacy","0","uniform","1","undefined","undefined","undefined","1","j","0","0","0","0","29","0","0","0","29","NA","25","29","25","0","25","3","29","0","29","Tue Feb 23 14:06:23 2021","The main experiment item","yes","Lexical_Decision_Task.osexp","/Users/Hannah/Bournemouth Uni/YEAR TWO/COGNITION AND LANGUAGE/OPEN SESAME","no","Andale Mono","no","18","no","white","no","yes","576","legacy","25","25","3","/Users/Hannah/Bournemouth Uni/YEAR TWO/COGNITION AND LANGUAGE/OPEN SESAME/subject-5219365 LDT.csv","legacy","Lentiform Loewenfeld","3.3.7","yes","yes","600bd7cfb6416f0113b04181","602110864497cf011d9c0822","0","j","NA","j","j","j","NA","j","559","NA","1897","13667","6249","NA","559","2","legacy","1024","2","48000","-16","task","5219365","odd","NA","32519","36420","34522","80037","5732","25666","19416","80540","NA","80035","80540","79982","36420","81100","30888","79481","5668","NA","Lexical Decision Task","30","20091","30","yes","1024"
"2.839268497","0","8","maft","non-word","100","100","667.7741935483871","667.7741935483871","black","no","legacy","legacy","legacy","0","uniform","1","undefined","undefined","undefined","1","f","0","0","0","0","30","0","0","0","30","NA","26","30","26","0","26","3","30","0","30","Tue Feb 23 14:06:23 2021","The main experiment item","yes","Lexical_Decision_Task.osexp","/Users/Hannah/Bournemouth Uni/YEAR TWO/COGNITION AND LANGUAGE/OPEN SESAME","no","Andale Mono","no","18","no","white","no","yes","576","legacy","26","26","3","/Users/Hannah/Bournemouth Uni/YEAR TWO/COGNITION AND LANGUAGE/OPEN SESAME/subject-5219365 LDT.csv","legacy","Lentiform Loewenfeld","3.3.7","yes","yes","600bd7cfb6416f0113b04181","602110864497cf011d9c0822","0","f","NA","j","j","j","NA","f","610","NA","1897","13667","6249","NA","610","2","legacy","1024","2","48000","-16","task","5219365","odd","NA","32519","36420","34522","81655","5732","25666","19416","82158","NA","81653","82159","81605","36420","82770","30888","81104","5668","NA","Lexical Decision Task","31","20701","31","yes","1024"
"3.218535505","7.85","7","goat","word","100","100","667.09375","667.09375","black","no","legacy","legacy","legacy","0","uniform","1","undefined","undefined","undefined","1","j","0","0","0","0","31","0","0","0","31","NA","27","31","27","0","27","3","31","0","31","Tue Feb 23 14:06:23 2021","The main experiment item","yes","Lexical_Decision_Task.osexp","/Users/Hannah/Bournemouth Uni/YEAR TWO/COGNITION AND LANGUAGE/OPEN SESAME","no","Andale Mono","no","18","no","white","no","yes","576","legacy","27","27","3","/Users/Hannah/Bournemouth Uni/YEAR TWO/COGNITION AND LANGUAGE/OPEN SESAME/subject-5219365 LDT.csv","legacy","Lentiform Loewenfeld","3.3.7","yes","yes","600bd7cfb6416f0113b04181","602110864497cf011d9c0822","0","j","NA","j","j","j","NA","j","646","NA","1897","13667","6249","NA","646","2","legacy","1024","2","48000","-16","task","5219365","odd","NA","32519","36420","34522","83325","5732","25666","19416","83828","NA","83323","83829","83274","36420","84476","30888","82774","5668","NA","Lexical Decision Task","32","21347","32","yes","1024"
"3.010582609","0","2","drod","non-word","100","100","668.2727272727273","668.2727272727273","black","no","legacy","legacy","legacy","0","uniform","1","undefined","undefined","undefined","1","f","0","0","0","0","32","0","0","0","32","NA","28","32","28","0","28","3","32","0","32","Tue Feb 23 14:06:23 2021","The main experiment item","yes","Lexical_Decision_Task.osexp","/Users/Hannah/Bournemouth Uni/YEAR TWO/COGNITION AND LANGUAGE/OPEN SESAME","no","Andale Mono","no","18","no","white","no","yes","576","legacy","28","28","3","/Users/Hannah/Bournemouth Uni/YEAR TWO/COGNITION AND LANGUAGE/OPEN SESAME/subject-5219365 LDT.csv","legacy","Lentiform Loewenfeld","3.3.7","yes","yes","600bd7cfb6416f0113b04181","602110864497cf011d9c0822","0","f","NA","j","j","j","NA","f","706","NA","1897","13667","6249","NA","706","2","legacy","1024","2","48000","-16","task","5219365","odd","NA","32519","36420","34522","85030","5732","25666","19416","85532","NA","85027","85533","84980","36420","86240","30888","84480","5668","NA","Lexical Decision Task","33","22053","33","yes","1024"
"2.664011697","8.19","4","hawk","word","100","100","667.2352941176471","667.2352941176471","black","no","legacy","legacy","legacy","0","uniform","1","undefined","undefined","undefined","1","j","0","0","0","0","33","0","0","0","33","NA","29","33","29","0","29","3","33","0","33","Tue Feb 23 14:06:23 2021","The main experiment item","yes","Lexical_Decision_Task.osexp","/Users/Hannah/Bournemouth Uni/YEAR TWO/COGNITION AND LANGUAGE/OPEN SESAME","no","Andale Mono","no","18","no","white","no","yes","576","legacy","29","29","3","/Users/Hannah/Bournemouth Uni/YEAR TWO/COGNITION AND LANGUAGE/OPEN SESAME/subject-5219365 LDT.csv","legacy","Lentiform Loewenfeld","3.3.7","yes","yes","600bd7cfb6416f0113b04181","602110864497cf011d9c0822","0","j","NA","j","j","j","NA","j","633","NA","1897","13667","6249","NA","633","2","legacy","1024","2","48000","-16","task","5219365","odd","NA","32519","36420","34522","86795","5732","25666","19416","87298","NA","86793","87298","86744","36420","87933","30888","86244","5668","NA","Lexical Decision Task","34","22686","34","yes","1024"
"2.708989954","9.28","9","bowl","word","100","100","664.2857142857143","664.2857142857143","black","no","legacy","legacy","legacy","0","uniform","1","undefined","undefined","undefined","1","j","0","0","0","0","34","0","0","0","34","NA","30","34","30","0","30","3","34","0","34","Tue Feb 23 14:06:23 2021","The main experiment item","yes","Lexical_Decision_Task.osexp","/Users/Hannah/Bournemouth Uni/YEAR TWO/COGNITION AND LANGUAGE/OPEN SESAME","no","Andale Mono","no","18","no","white","no","yes","576","legacy","30","30","3","/Users/Hannah/Bournemouth Uni/YEAR TWO/COGNITION AND LANGUAGE/OPEN SESAME/subject-5219365 LDT.csv","legacy","Lentiform Loewenfeld","3.3.7","yes","yes","600bd7cfb6416f0113b04181","602110864497cf011d9c0822","0","j","NA","j","j","j","NA","j","564","NA","1897","13667","6249","NA","564","2","legacy","1024","2","48000","-16","task","5219365","odd","NA","32519","36420","34522","88495","5732","25666","19416","88997","NA","88492","88998","88438","36420","89563","30888","87937","5668","NA","Lexical Decision Task","35","23250","35","yes","1024"
"3.174641193","0","3","ramb","non-word","100","100","661.6666666666666","661.6666666666666","black","no","legacy","legacy","legacy","0","uniform","1","undefined","undefined","undefined","1","f","0","0","0","0","35","0","0","0","35","NA","31","35","31","0","31","3","35","0","35","Tue Feb 23 14:06:23 2021","The main experiment item","yes","Lexical_Decision_Task.osexp","/Users/Hannah/Bournemouth Uni/YEAR TWO/COGNITION AND LANGUAGE/OPEN SESAME","no","Andale Mono","no","18","no","white","no","yes","576","legacy","31","31","3","/Users/Hannah/Bournemouth Uni/YEAR TWO/COGNITION AND LANGUAGE/OPEN SESAME/subject-5219365 LDT.csv","legacy","Lentiform Loewenfeld","3.3.7","yes","yes","600bd7cfb6416f0113b04181","602110864497cf011d9c0822","0","f","NA","j","j","j","NA","f","570","NA","1897","13667","6249","NA","570","2","legacy","1024","2","48000","-16","task","5219365","odd","NA","32519","36420","34522","90122","5732","25666","19416","90625","NA","90119","90625","90067","36420","91196","30888","89567","5668","NA","Lexical Decision Task","36","23820","36","yes","1024"
"3.100255637","0","6","brax","non-word","100","100","661.1081081081081","661.1081081081081","black","no","legacy","legacy","legacy","0","uniform","1","undefined","undefined","undefined","1","f","0","0","0","0","36","0","0","0","36","NA","32","36","32","0","32","3","36","0","36","Tue Feb 23 14:06:23 2021","The main experiment item","yes","Lexical_Decision_Task.osexp","/Users/Hannah/Bournemouth Uni/YEAR TWO/COGNITION AND LANGUAGE/OPEN SESAME","no","Andale Mono","no","18","no","white","no","yes","576","legacy","32","32","3","/Users/Hannah/Bournemouth Uni/YEAR TWO/COGNITION AND LANGUAGE/OPEN SESAME/subject-5219365 LDT.csv","legacy","Lentiform Loewenfeld","3.3.7","yes","yes","600bd7cfb6416f0113b04181","602110864497cf011d9c0822","0","f","NA","j","j","j","NA","f","641","NA","1897","13667","6249","NA","641","2","legacy","1024","2","48000","-16","task","5219365","odd","NA","32519","36420","34522","91752","5732","25666","19416","92254","NA","91749","92254","91701","36420","92896","30888","91201","5668","NA","Lexical Decision Task","37","24461","37","yes","1024"
"3.307211407","6.07","7","honk","word","100","100","662.1578947368421","662.1578947368421","black","no","legacy","legacy","legacy","0","uniform","1","undefined","undefined","undefined","1","j","0","0","0","0","37","0","0","0","37","NA","33","37","33","0","33","3","37","0","37","Tue Feb 23 14:06:23 2021","The main experiment item","yes","Lexical_Decision_Task.osexp","/Users/Hannah/Bournemouth Uni/YEAR TWO/COGNITION AND LANGUAGE/OPEN SESAME","no","Andale Mono","no","18","no","white","no","yes","576","legacy","33","33","3","/Users/Hannah/Bournemouth Uni/YEAR TWO/COGNITION AND LANGUAGE/OPEN SESAME/subject-5219365 LDT.csv","legacy","Lentiform Loewenfeld","3.3.7","yes","yes","600bd7cfb6416f0113b04181","602110864497cf011d9c0822","0","j","NA","j","j","j","NA","j","701","NA","1897","13667","6249","NA","701","2","legacy","1024","2","48000","-16","task","5219365","odd","NA","32519","36420","34522","93451","5732","25666","19416","93954","NA","93449","93954","93401","36420","94657","30888","92900","5668","NA","Lexical Decision Task","38","25162","38","yes","1024"
"3.15462682","0","6","noal","non-word","100","100","667.8461538461538","667.8461538461538","black","no","legacy","legacy","legacy","0","uniform","1","undefined","undefined","undefined","1","f","0","0","0","0","38","0","0","0","38","NA","34","38","34","0","34","3","38","0","38","Tue Feb 23 14:06:23 2021","The main experiment item","yes","Lexical_Decision_Task.osexp","/Users/Hannah/Bournemouth Uni/YEAR TWO/COGNITION AND LANGUAGE/OPEN SESAME","no","Andale Mono","no","18","no","white","no","yes","576","legacy","34","34","3","/Users/Hannah/Bournemouth Uni/YEAR TWO/COGNITION AND LANGUAGE/OPEN SESAME/subject-5219365 LDT.csv","legacy","Lentiform Loewenfeld","3.3.7","yes","yes","600bd7cfb6416f0113b04181","602110864497cf011d9c0822","0","f","NA","j","j","j","NA","f","884","NA","1897","13667","6249","NA","884","2","legacy","1024","2","48000","-16","task","5219365","odd","NA","32519","36420","34522","95219","5732","25666","19416","95722","NA","95216","95722","95162","36420","96607","30888","94662","5668","NA","Lexical Decision Task","39","26046","39","yes","1024"
"3.302475237","0","7","leel","non-word","100","100","674.125","674.125","black","no","legacy","legacy","legacy","0","uniform","1","undefined","undefined","undefined","1","f","0","0","0","0","39","0","0","0","39","NA","35","39","35","0","35","3","39","0","39","Tue Feb 23 14:06:23 2021","The main experiment item","yes","Lexical_Decision_Task.osexp","/Users/Hannah/Bournemouth Uni/YEAR TWO/COGNITION AND LANGUAGE/OPEN SESAME","no","Andale Mono","no","18","no","white","no","yes","576","legacy","35","35","3","/Users/Hannah/Bournemouth Uni/YEAR TWO/COGNITION AND LANGUAGE/OPEN SESAME/subject-5219365 LDT.csv","legacy","Lentiform Loewenfeld","3.3.7","yes","yes","600bd7cfb6416f0113b04181","602110864497cf011d9c0822","0","f","NA","j","j","j","NA","f","919","NA","1897","13667","6249","NA","919","2","legacy","1024","2","48000","-16","task","5219365","odd","NA","32519","36420","34522","97166","5732","25666","19416","97668","NA","97163","97669","97111","36420","98589","30888","96611","5668","NA","Lexical Decision Task","40","26965","40","yes","1024"
"3.209246849","0","7","slem","non-word","100","100","673.8780487804878","673.8780487804878","black","no","legacy","legacy","legacy","0","uniform","1","undefined","undefined","undefined","1","f","0","0","0","0","40","0","0","0","40","NA","36","40","36","0","36","3","40","0","40","Tue Feb 23 14:06:23 2021","The main experiment item","yes","Lexical_Decision_Task.osexp","/Users/Hannah/Bournemouth Uni/YEAR TWO/COGNITION AND LANGUAGE/OPEN SESAME","no","Andale Mono","no","18","no","white","no","yes","576","legacy","36","36","3","/Users/Hannah/Bournemouth Uni/YEAR TWO/COGNITION AND LANGUAGE/OPEN SESAME/subject-5219365 LDT.csv","legacy","Lentiform Loewenfeld","3.3.7","yes","yes","600bd7cfb6416f0113b04181","602110864497cf011d9c0822","0","f","NA","j","j","j","NA","f","664","NA","1897","13667","6249","NA","664","2","legacy","1024","2","48000","-16","task","5219365","odd","NA","32519","36420","34522","99143","5732","25666","19416","99646","NA","99141","99646","99093","36420","100311","30888","98592","5668","NA","Lexical Decision Task","41","27629","41","yes","1024"
"3.282244367","0","6","fute","non-word","100","100","675.8809523809524","675.8809523809524","black","no","legacy","legacy","legacy","0","uniform","1","undefined","undefined","undefined","1","f","0","0","0","0","41","0","0","0","41","NA","37","41","37","0","37","3","41","0","41","Tue Feb 23 14:06:23 2021","The main experiment item","yes","Lexical_Decision_Task.osexp","/Users/Hannah/Bournemouth Uni/YEAR TWO/COGNITION AND LANGUAGE/OPEN SESAME","no","Andale Mono","no","18","no","white","no","yes","576","legacy","37","37","3","/Users/Hannah/Bournemouth Uni/YEAR TWO/COGNITION AND LANGUAGE/OPEN SESAME/subject-5219365 LDT.csv","legacy","Lentiform Loewenfeld","3.3.7","yes","yes","600bd7cfb6416f0113b04181","602110864497cf011d9c0822","0","f","NA","j","j","j","NA","f","758","NA","1897","13667","6249","NA","758","2","legacy","1024","2","48000","-16","task","5219365","odd","NA","32519","36420","34522","100866","5732","25666","19416","101369","NA","100864","101369","100816","36420","102128","30888","100316","5668","NA","Lexical Decision Task","42","28387","42","yes","1024"
"2.893578687","8.69","3","surf","word","100","100","677.0232558139535","677.0232558139535","black","no","legacy","legacy","legacy","0","uniform","1","undefined","undefined","undefined","1","j","0","0","0","0","42","0","0","0","42","NA","38","42","38","0","38","3","42","0","42","Tue Feb 23 14:06:23 2021","The main experiment item","yes","Lexical_Decision_Task.osexp","/Users/Hannah/Bournemouth Uni/YEAR TWO/COGNITION AND LANGUAGE/OPEN SESAME","no","Andale Mono","no","18","no","white","no","yes","576","legacy","38","38","3","/Users/Hannah/Bournemouth Uni/YEAR TWO/COGNITION AND LANGUAGE/OPEN SESAME/subject-5219365 LDT.csv","legacy","Lentiform Loewenfeld","3.3.7","yes","yes","600bd7cfb6416f0113b04181","602110864497cf011d9c0822","0","j","NA","j","j","j","NA","j","725","NA","1897","13667","6249","NA","725","2","legacy","1024","2","48000","-16","task","5219365","odd","NA","32519","36420","34522","102683","5732","25666","19416","103185","NA","102680","103186","102633","36420","103912","30888","102132","5668","NA","Lexical Decision Task","43","29112","43","yes","1024"
"3.076883066","0","8","mout","non-word","97.72727272727273","97.72727272727273","680.1363636363636","680.1363636363636","black","no","legacy","legacy","legacy","0","uniform","0","undefined","undefined","undefined","0","f","0","0","0","0","43","0","0","0","43","NA","39","43","39","0","39","3","43","0","43","Tue Feb 23 14:06:23 2021","The main experiment item","yes","Lexical_Decision_Task.osexp","/Users/Hannah/Bournemouth Uni/YEAR TWO/COGNITION AND LANGUAGE/OPEN SESAME","no","Andale Mono","no","18","no","white","no","yes","576","legacy","39","39","3","/Users/Hannah/Bournemouth Uni/YEAR TWO/COGNITION AND LANGUAGE/OPEN SESAME/subject-5219365 LDT.csv","legacy","Lentiform Loewenfeld","3.3.7","yes","yes","600bd7cfb6416f0113b04181","602110864497cf011d9c0822","0","j","NA","j","j","j","NA","j","814","NA","1897","13667","6249","NA","814","2","legacy","1024","2","48000","-16","task","5219365","odd","NA","32519","36420","34522","104466","5732","25666","19416","104969","NA","104464","104969","104416","36420","105785","30888","103915","5668","NA","Lexical Decision Task","43","29926","44","yes","1024"
"2.924968096","0","4","phim","non-word","97.77777777777777","97.77777777777777","680.0222222222222","680.0222222222222","black","no","legacy","legacy","legacy","0","uniform","1","undefined","undefined","undefined","1","f","0","0","0","0","44","0","0","0","44","NA","40","44","40","0","40","3","44","0","44","Tue Feb 23 14:06:23 2021","The main experiment item","yes","Lexical_Decision_Task.osexp","/Users/Hannah/Bournemouth Uni/YEAR TWO/COGNITION AND LANGUAGE/OPEN SESAME","no","Andale Mono","no","18","no","white","no","yes","576","legacy","40","40","3","/Users/Hannah/Bournemouth Uni/YEAR TWO/COGNITION AND LANGUAGE/OPEN SESAME/subject-5219365 LDT.csv","legacy","Lentiform Loewenfeld","3.3.7","yes","yes","600bd7cfb6416f0113b04181","602110864497cf011d9c0822","0","f","NA","j","j","j","NA","f","675","NA","1897","13667","6249","NA","675","2","legacy","1024","2","48000","-16","task","5219365","odd","NA","32519","36420","34522","107340","5732","25666","19416","107842","NA","107337","107842","107288","36420","108518","30888","103915","5668","105788","Lexical Decision Task","44","30601","45","yes","1024"
"3.311895072","0","9","gung","non-word","97.82608695652173","97.82608695652173","680.6086956521739","680.6086956521739","black","no","legacy","legacy","legacy","0","uniform","1","undefined","undefined","undefined","1","f","0","0","0","0","45","0","0","0","45","NA","41","45","41","0","41","3","45","0","45","Tue Feb 23 14:06:23 2021","The main experiment item","yes","Lexical_Decision_Task.osexp","/Users/Hannah/Bournemouth Uni/YEAR TWO/COGNITION AND LANGUAGE/OPEN SESAME","no","Andale Mono","no","18","no","white","no","yes","576","legacy","41","41","3","/Users/Hannah/Bournemouth Uni/YEAR TWO/COGNITION AND LANGUAGE/OPEN SESAME/subject-5219365 LDT.csv","legacy","Lentiform Loewenfeld","3.3.7","yes","yes","600bd7cfb6416f0113b04181","602110864497cf011d9c0822","0","f","NA","j","j","j","NA","f","707","NA","1897","13667","6249","NA","707","2","legacy","1024","2","48000","-16","task","5219365","odd","NA","32519","36420","34522","109075","5732","25666","19416","109577","NA","109072","109578","109024","36420","110286","30888","108523","5668","105788","Lexical Decision Task","45","31308","46","yes","1024"
"3.062080345","0","6","tomp","non-word","97.87234042553192","97.87234042553192","678.6595744680851","678.6595744680851","black","no","legacy","legacy","legacy","0","uniform","1","undefined","undefined","undefined","1","f","0","0","0","0","46","0","0","0","46","NA","42","46","42","0","42","3","46","0","46","Tue Feb 23 14:06:23 2021","The main experiment item","yes","Lexical_Decision_Task.osexp","/Users/Hannah/Bournemouth Uni/YEAR TWO/COGNITION AND LANGUAGE/OPEN SESAME","no","Andale Mono","no","18","no","white","no","yes","576","legacy","42","42","3","/Users/Hannah/Bournemouth Uni/YEAR TWO/COGNITION AND LANGUAGE/OPEN SESAME/subject-5219365 LDT.csv","legacy","Lentiform Loewenfeld","3.3.7","yes","yes","600bd7cfb6416f0113b04181","602110864497cf011d9c0822","0","f","NA","j","j","j","NA","f","589","NA","1897","13667","6249","NA","589","2","legacy","1024","2","48000","-16","task","5219365","odd","NA","32519","36420","34522","110840","5732","25666","19416","111342","NA","110837","111342","110790","36420","111932","30888","110290","5668","105788","Lexical Decision Task","46","31897","47","yes","1024"
"3.274543461","7.46","7","scar","word","97.91666666666667","97.91666666666667","676.7291666666666","676.7291666666666","black","no","legacy","legacy","legacy","0","uniform","1","undefined","undefined","undefined","1","j","0","0","0","0","47","0","0","0","47","NA","43","47","43","0","43","3","47","0","47","Tue Feb 23 14:06:23 2021","The main experiment item","yes","Lexical_Decision_Task.osexp","/Users/Hannah/Bournemouth Uni/YEAR TWO/COGNITION AND LANGUAGE/OPEN SESAME","no","Andale Mono","no","18","no","white","no","yes","576","legacy","43","43","3","/Users/Hannah/Bournemouth Uni/YEAR TWO/COGNITION AND LANGUAGE/OPEN SESAME/subject-5219365 LDT.csv","legacy","Lentiform Loewenfeld","3.3.7","yes","yes","600bd7cfb6416f0113b04181","602110864497cf011d9c0822","0","j","NA","j","j","j","NA","j","586","NA","1897","13667","6249","NA","586","2","legacy","1024","2","48000","-16","task","5219365","odd","NA","32519","36420","34522","112487","5732","25666","19416","112990","NA","112485","112991","112437","36420","113578","30888","111936","5668","105788","Lexical Decision Task","47","32483","48","yes","1024"
"2.920123326","7.43","4","duel","word","97.95918367346938","97.95918367346938","677.4081632653061","677.4081632653061","black","no","legacy","legacy","legacy","0","uniform","1","undefined","undefined","undefined","1","j","0","0","0","0","48","0","0","0","48","NA","44","48","44","0","44","3","48","0","48","Tue Feb 23 14:06:23 2021","The main experiment item","yes","Lexical_Decision_Task.osexp","/Users/Hannah/Bournemouth Uni/YEAR TWO/COGNITION AND LANGUAGE/OPEN SESAME","no","Andale Mono","no","18","no","white","no","yes","576","legacy","44","44","3","/Users/Hannah/Bournemouth Uni/YEAR TWO/COGNITION AND LANGUAGE/OPEN SESAME/subject-5219365 LDT.csv","legacy","Lentiform Loewenfeld","3.3.7","yes","yes","600bd7cfb6416f0113b04181","602110864497cf011d9c0822","0","j","NA","j","j","j","NA","j","710","NA","1897","13667","6249","NA","710","2","legacy","1024","2","48000","-16","task","5219365","odd","NA","32519","36420","34522","114142","5732","25666","19416","114644","NA","114139","114645","114083","36420","115356","30888","113583","5668","105788","Lexical Decision Task","48","33193","49","yes","1024"
"2.838639236","0","4","furg","non-word","98","98","689.58","689.58","black","no","legacy","legacy","legacy","0","uniform","1","undefined","undefined","undefined","1","f","0","0","0","0","49","0","0","0","49","NA","45","49","45","0","45","3","49","0","49","Tue Feb 23 14:06:23 2021","The main experiment item","yes","Lexical_Decision_Task.osexp","/Users/Hannah/Bournemouth Uni/YEAR TWO/COGNITION AND LANGUAGE/OPEN SESAME","no","Andale Mono","no","18","no","white","no","yes","576","legacy","45","45","3","/Users/Hannah/Bournemouth Uni/YEAR TWO/COGNITION AND LANGUAGE/OPEN SESAME/subject-5219365 LDT.csv","legacy","Lentiform Loewenfeld","3.3.7","yes","yes","600bd7cfb6416f0113b04181","602110864497cf011d9c0822","0","f","NA","j","j","j","NA","f","1286","NA","1897","13667","6249","NA","1286","2","legacy","1024","2","48000","-16","task","5219365","odd","NA","32519","36420","34522","115919","5732","25666","19416","116422","NA","115914","116422","115860","36420","117710","30888","115360","5668","105788","Lexical Decision Task","49","34479","50","yes","1024"
"3.067070856","9.39","3","loud","word","98.03921568627452","98.03921568627452","692.6078431372549","692.6078431372549","black","no","legacy","legacy","legacy","0","uniform","1","undefined","undefined","undefined","1","j","0","0","0","0","50","0","0","0","50","NA","46","50","46","0","46","3","50","0","50","Tue Feb 23 14:06:23 2021","The main experiment item","yes","Lexical_Decision_Task.osexp","/Users/Hannah/Bournemouth Uni/YEAR TWO/COGNITION AND LANGUAGE/OPEN SESAME","no","Andale Mono","no","18","no","white","no","yes","576","legacy","46","46","3","/Users/Hannah/Bournemouth Uni/YEAR TWO/COGNITION AND LANGUAGE/OPEN SESAME/subject-5219365 LDT.csv","legacy","Lentiform Loewenfeld","3.3.7","yes","yes","600bd7cfb6416f0113b04181","602110864497cf011d9c0822","0","j","NA","j","j","j","NA","j","844","NA","1897","13667","6249","NA","844","2","legacy","1024","2","48000","-16","task","5219365","odd","NA","32519","36420","34522","118272","5732","25666","19416","118775","NA","118270","118776","118216","36420","119621","30888","117715","5668","105788","Lexical Decision Task","50","35323","51","yes","1024"
"3.2757719","0","5","slea","non-word","98.07692307692308","98.07692307692308","690.1153846153846","690.1153846153846","black","no","legacy","legacy","legacy","0","uniform","1","undefined","undefined","undefined","1","f","0","0","0","0","51","0","0","0","51","NA","47","51","47","0","47","3","51","0","51","Tue Feb 23 14:06:23 2021","The main experiment item","yes","Lexical_Decision_Task.osexp","/Users/Hannah/Bournemouth Uni/YEAR TWO/COGNITION AND LANGUAGE/OPEN SESAME","no","Andale Mono","no","18","no","white","no","yes","576","legacy","47","47","3","/Users/Hannah/Bournemouth Uni/YEAR TWO/COGNITION AND LANGUAGE/OPEN SESAME/subject-5219365 LDT.csv","legacy","Lentiform Loewenfeld","3.3.7","yes","yes","600bd7cfb6416f0113b04181","602110864497cf011d9c0822","0","f","NA","j","j","j","NA","f","563","NA","1897","13667","6249","NA","563","2","legacy","1024","2","48000","-16","task","5219365","odd","NA","32519","36420","34522","120186","5732","25666","19416","120689","NA","120183","120690","120126","36420","121254","30888","119625","5668","105788","Lexical Decision Task","51","35886","52","yes","1024"
"3.088136089","8.32","9","worm","word","98.11320754716981","98.11320754716981","688.8301886792453","688.8301886792453","black","no","legacy","legacy","legacy","0","uniform","1","undefined","undefined","undefined","1","j","0","0","0","0","52","0","0","0","52","NA","48","52","48","0","48","3","52","0","52","Tue Feb 23 14:06:23 2021","The main experiment item","yes","Lexical_Decision_Task.osexp","/Users/Hannah/Bournemouth Uni/YEAR TWO/COGNITION AND LANGUAGE/OPEN SESAME","no","Andale Mono","no","18","no","white","no","yes","576","legacy","48","48","3","/Users/Hannah/Bournemouth Uni/YEAR TWO/COGNITION AND LANGUAGE/OPEN SESAME/subject-5219365 LDT.csv","legacy","Lentiform Loewenfeld","3.3.7","yes","yes","600bd7cfb6416f0113b04181","602110864497cf011d9c0822","0","j","NA","j","j","j","NA","j","622","NA","1897","13667","6249","NA","622","2","legacy","1024","2","48000","-16","task","5219365","odd","NA","32519","36420","34522","121807","5732","25666","19416","122310","NA","121805","122310","121757","36420","122933","30888","121257","5668","105788","Lexical Decision Task","52","36508","53","yes","1024"
"3.443783828","7.65","3","verb","word","96.29629629629629","96.29629629629629","691.5","691.5","black","no","legacy","legacy","legacy","0","uniform","0","undefined","undefined","undefined","0","j","0","0","0","0","53","0","0","0","53","NA","49","53","49","0","49","3","53","0","53","Tue Feb 23 14:06:23 2021","The main experiment item","yes","Lexical_Decision_Task.osexp","/Users/Hannah/Bournemouth Uni/YEAR TWO/COGNITION AND LANGUAGE/OPEN SESAME","no","Andale Mono","no","18","no","white","no","yes","576","legacy","49","49","3","/Users/Hannah/Bournemouth Uni/YEAR TWO/COGNITION AND LANGUAGE/OPEN SESAME/subject-5219365 LDT.csv","legacy","Lentiform Loewenfeld","3.3.7","yes","yes","600bd7cfb6416f0113b04181","602110864497cf011d9c0822","0","f","NA","j","j","j","NA","f","833","NA","1897","13667","6249","NA","833","2","legacy","1024","2","48000","-16","task","5219365","odd","NA","32519","36420","34522","123489","5732","25666","19416","123991","NA","123486","123992","123438","36420","124826","30888","122937","5668","105788","Lexical Decision Task","52","37341","54","yes","1024"
"2.814027728","8.2","4","foam","word","96.36363636363636","96.36363636363636","690.2181818181818","690.2181818181818","black","no","legacy","legacy","legacy","0","uniform","1","undefined","undefined","undefined","1","j","0","0","0","0","54","0","0","0","54","0","50","54","50","0","50","3","54","0","54","Tue Feb 23 14:06:23 2021","The main experiment item","yes","Lexical_Decision_Task.osexp","/Users/Hannah/Bournemouth Uni/YEAR TWO/COGNITION AND LANGUAGE/OPEN SESAME","no","Andale Mono","no","18","no","white","no","yes","576","legacy","50","50","3","/Users/Hannah/Bournemouth Uni/YEAR TWO/COGNITION AND LANGUAGE/OPEN SESAME/subject-5219365 LDT.csv","legacy","Lentiform Loewenfeld","3.3.7","yes","yes","600bd7cfb6416f0113b04181","602110864497cf011d9c0822","0","j","NA","j","j","j","j","j","621","NA","1897","13667","6249","3719","621","2","legacy","1024","2","48000","-16","task","5219365","odd","NA","32519","36420","34522","130127","5732","25666","19416","130630","126356","130124","130630","126330","36420","131253","30888","122937","5668","124829","Lexical Decision Task","53","37962","55","yes","1024"
"3.003891166","8.05","2","frog","word","96.42857142857143","96.42857142857143","687.6428571428571","687.6428571428571","black","no","legacy","legacy","legacy","0","uniform","1","undefined","undefined","undefined","1","j","0","0","0","0","55","0","0","0","55","0","51","55","51","0","51","3","55","0","55","Tue Feb 23 14:06:23 2021","The main experiment item","yes","Lexical_Decision_Task.osexp","/Users/Hannah/Bournemouth Uni/YEAR TWO/COGNITION AND LANGUAGE/OPEN SESAME","no","Andale Mono","no","18","no","white","no","yes","576","legacy","51","51","3","/Users/Hannah/Bournemouth Uni/YEAR TWO/COGNITION AND LANGUAGE/OPEN SESAME/subject-5219365 LDT.csv","legacy","Lentiform Loewenfeld","3.3.7","yes","yes","600bd7cfb6416f0113b04181","602110864497cf011d9c0822","0","j","NA","j","j","j","j","j","546","NA","1897","13667","6249","3719","546","2","legacy","1024","2","48000","-16","task","5219365","odd","NA","32519","36420","34522","131810","5732","25666","19416","132313","126356","131808","132313","131757","36420","132861","30888","131256","5668","124829","Lexical Decision Task","54","38508","56","yes","1024"
"2.64476673","0","5","moft","non-word","96.49122807017544","96.49122807017544","686.5438596491229","686.5438596491229","black","no","legacy","legacy","legacy","0","uniform","1","undefined","undefined","undefined","1","f","0","0","0","0","56","0","0","0","56","0","52","56","52","0","52","3","56","0","56","Tue Feb 23 14:06:23 2021","The main experiment item","yes","Lexical_Decision_Task.osexp","/Users/Hannah/Bournemouth Uni/YEAR TWO/COGNITION AND LANGUAGE/OPEN SESAME","no","Andale Mono","no","18","no","white","no","yes","576","legacy","52","52","3","/Users/Hannah/Bournemouth Uni/YEAR TWO/COGNITION AND LANGUAGE/OPEN SESAME/subject-5219365 LDT.csv","legacy","Lentiform Loewenfeld","3.3.7","yes","yes","600bd7cfb6416f0113b04181","602110864497cf011d9c0822","0","f","NA","j","j","j","j","f","625","NA","1897","13667","6249","3719","625","2","legacy","1024","2","48000","-16","task","5219365","odd","NA","32519","36420","34522","133429","5732","25666","19416","133931","126356","133426","133932","133366","36420","134559","30888","132866","5668","124829","Lexical Decision Task","55","39133","57","yes","1024"
"3.133964479","0","8","graw","non-word","96.55172413793103","96.55172413793103","685.4310344827586","685.4310344827586","black","no","legacy","legacy","legacy","0","uniform","1","undefined","undefined","undefined","1","f","0","0","0","0","57","0","0","0","57","0","53","57","53","0","53","3","57","0","57","Tue Feb 23 14:06:23 2021","The main experiment item","yes","Lexical_Decision_Task.osexp","/Users/Hannah/Bournemouth Uni/YEAR TWO/COGNITION AND LANGUAGE/OPEN SESAME","no","Andale Mono","no","18","no","white","no","yes","576","legacy","53","53","3","/Users/Hannah/Bournemouth Uni/YEAR TWO/COGNITION AND LANGUAGE/OPEN SESAME/subject-5219365 LDT.csv","legacy","Lentiform Loewenfeld","3.3.7","yes","yes","600bd7cfb6416f0113b04181","602110864497cf011d9c0822","0","f","NA","j","j","j","j","f","622","NA","1897","13667","6249","3719","622","2","legacy","1024","2","48000","-16","task","5219365","odd","NA","32519","36420","34522","135129","5732","25666","19416","135631","126356","135126","135632","135062","36420","136256","30888","134562","5668","124829","Lexical Decision Task","56","39755","58","yes","1024"
"3.705778213","0","6","stin","non-word","96.61016949152543","96.61016949152543","684.6779661016949","684.6779661016949","black","no","legacy","legacy","legacy","0","uniform","1","undefined","undefined","undefined","1","f","0","0","0","0","58","0","0","0","58","0","54","58","54","0","54","3","58","0","58","Tue Feb 23 14:06:23 2021","The main experiment item","yes","Lexical_Decision_Task.osexp","/Users/Hannah/Bournemouth Uni/YEAR TWO/COGNITION AND LANGUAGE/OPEN SESAME","no","Andale Mono","no","18","no","white","no","yes","576","legacy","54","54","3","/Users/Hannah/Bournemouth Uni/YEAR TWO/COGNITION AND LANGUAGE/OPEN SESAME/subject-5219365 LDT.csv","legacy","Lentiform Loewenfeld","3.3.7","yes","yes","600bd7cfb6416f0113b04181","602110864497cf011d9c0822","0","f","NA","j","j","j","j","f","641","NA","1897","13667","6249","3719","641","2","legacy","1024","2","48000","-16","task","5219365","odd","NA","32519","36420","34522","136816","5732","25666","19416","137319","126356","136814","137319","136763","36420","137961","30888","136262","5668","124829","Lexical Decision Task","57","40396","59","yes","1024"
"2.898725182","0","7","turl","non-word","96.66666666666667","96.66666666666667","691.1666666666666","691.1666666666666","black","no","legacy","legacy","legacy","0","uniform","1","undefined","undefined","undefined","1","f","0","0","0","0","59","0","0","0","59","0","55","59","55","0","55","3","59","0","59","Tue Feb 23 14:06:23 2021","The main experiment item","yes","Lexical_Decision_Task.osexp","/Users/Hannah/Bournemouth Uni/YEAR TWO/COGNITION AND LANGUAGE/OPEN SESAME","no","Andale Mono","no","18","no","white","no","yes","576","legacy","55","55","3","/Users/Hannah/Bournemouth Uni/YEAR TWO/COGNITION AND LANGUAGE/OPEN SESAME/subject-5219365 LDT.csv","legacy","Lentiform Loewenfeld","3.3.7","yes","yes","600bd7cfb6416f0113b04181","602110864497cf011d9c0822","0","f","NA","j","j","j","j","f","1074","NA","1897","13667","6249","3719","1074","2","legacy","1024","2","48000","-16","task","5219365","odd","NA","32519","36420","34522","138517","5732","25666","19416","139019","126356","138514","139020","138466","36420","140095","30888","137966","5668","124829","Lexical Decision Task","58","41470","60","yes","1024"
"2.799799878","0","4","ciff","non-word","96.72131147540983","96.72131147540983","690.983606557377","690.983606557377","black","no","legacy","legacy","legacy","0","uniform","1","undefined","undefined","undefined","1","f","0","0","0","0","60","0","0","0","60","0","56","60","56","0","56","3","60","0","60","Tue Feb 23 14:06:23 2021","The main experiment item","yes","Lexical_Decision_Task.osexp","/Users/Hannah/Bournemouth Uni/YEAR TWO/COGNITION AND LANGUAGE/OPEN SESAME","no","Andale Mono","no","18","no","white","no","yes","576","legacy","56","56","3","/Users/Hannah/Bournemouth Uni/YEAR TWO/COGNITION AND LANGUAGE/OPEN SESAME/subject-5219365 LDT.csv","legacy","Lentiform Loewenfeld","3.3.7","yes","yes","600bd7cfb6416f0113b04181","602110864497cf011d9c0822","0","f","NA","j","j","j","j","f","680","NA","1897","13667","6249","3719","680","2","legacy","1024","2","48000","-16","task","5219365","odd","NA","32519","36420","34522","140659","5732","25666","19416","141161","126356","140656","141162","140600","36420","141844","30888","140099","5668","124829","Lexical Decision Task","59","42150","61","yes","1024"
"3.153104174","10.89","6","door","word","96.7741935483871","96.7741935483871","687.9677419354839","687.9677419354839","black","no","legacy","legacy","legacy","0","uniform","1","undefined","undefined","undefined","1","j","0","0","0","0","61","0","0","0","61","0","57","61","57","0","57","3","61","0","61","Tue Feb 23 14:06:23 2021","The main experiment item","yes","Lexical_Decision_Task.osexp","/Users/Hannah/Bournemouth Uni/YEAR TWO/COGNITION AND LANGUAGE/OPEN SESAME","no","Andale Mono","no","18","no","white","no","yes","576","legacy","57","57","3","/Users/Hannah/Bournemouth Uni/YEAR TWO/COGNITION AND LANGUAGE/OPEN SESAME/subject-5219365 LDT.csv","legacy","Lentiform Loewenfeld","3.3.7","yes","yes","600bd7cfb6416f0113b04181","602110864497cf011d9c0822","0","j","NA","j","j","j","j","j","504","NA","1897","13667","6249","3719","504","2","legacy","1024","2","48000","-16","task","5219365","odd","NA","32519","36420","34522","142415","5732","25666","19416","142919","126356","142412","142919","142349","36420","143425","30888","141849","5668","124829","Lexical Decision Task","60","42654","62","yes","1024"
"2.807758206","6.25","4","hurl","word","96.82539682539682","96.82539682539682","689.2380952380952","689.2380952380952","black","no","legacy","legacy","legacy","0","uniform","1","undefined","undefined","undefined","1","j","0","0","0","0","62","0","0","0","62","0","58","62","58","0","58","3","62","0","62","Tue Feb 23 14:06:23 2021","The main experiment item","yes","Lexical_Decision_Task.osexp","/Users/Hannah/Bournemouth Uni/YEAR TWO/COGNITION AND LANGUAGE/OPEN SESAME","no","Andale Mono","no","18","no","white","no","yes","576","legacy","58","58","3","/Users/Hannah/Bournemouth Uni/YEAR TWO/COGNITION AND LANGUAGE/OPEN SESAME/subject-5219365 LDT.csv","legacy","Lentiform Loewenfeld","3.3.7","yes","yes","600bd7cfb6416f0113b04181","602110864497cf011d9c0822","0","j","NA","j","j","j","j","j","768","NA","1897","13667","6249","3719","768","2","legacy","1024","2","48000","-16","task","5219365","odd","NA","32519","36420","34522","143993","5732","25666","19416","144496","126356","143989","144497","143931","36420","145267","30888","143431","5668","124829","Lexical Decision Task","61","43422","63","yes","1024"
"3.248054965","7.86","5","glow","word","96.875","96.875","688.25","688.25","black","no","legacy","legacy","legacy","0","uniform","1","undefined","undefined","undefined","1","j","0","0","0","0","63","0","0","0","63","0","59","63","59","0","59","3","63","0","63","Tue Feb 23 14:06:23 2021","The main experiment item","yes","Lexical_Decision_Task.osexp","/Users/Hannah/Bournemouth Uni/YEAR TWO/COGNITION AND LANGUAGE/OPEN SESAME","no","Andale Mono","no","18","no","white","no","yes","576","legacy","59","59","3","/Users/Hannah/Bournemouth Uni/YEAR TWO/COGNITION AND LANGUAGE/OPEN SESAME/subject-5219365 LDT.csv","legacy","Lentiform Loewenfeld","3.3.7","yes","yes","600bd7cfb6416f0113b04181","602110864497cf011d9c0822","0","j","NA","j","j","j","j","j","626","NA","1897","13667","6249","3719","626","2","legacy","1024","2","48000","-16","task","5219365","odd","NA","32519","36420","34522","145825","5732","25666","19416","146329","126356","145822","146330","145771","36420","146958","30888","145270","5668","124829","Lexical Decision Task","62","44048","64","yes","1024"
"3.131833513","7.66","4","limb","word","96.92307692307692","96.92307692307692","686.1076923076923","686.1076923076923","black","no","legacy","legacy","legacy","0","uniform","1","undefined","undefined","undefined","1","j","0","0","0","0","64","0","0","0","64","0","60","64","60","0","60","3","64","0","64","Tue Feb 23 14:06:23 2021","The main experiment item","yes","Lexical_Decision_Task.osexp","/Users/Hannah/Bournemouth Uni/YEAR TWO/COGNITION AND LANGUAGE/OPEN SESAME","no","Andale Mono","no","18","no","white","no","yes","576","legacy","60","60","3","/Users/Hannah/Bournemouth Uni/YEAR TWO/COGNITION AND LANGUAGE/OPEN SESAME/subject-5219365 LDT.csv","legacy","Lentiform Loewenfeld","3.3.7","yes","yes","600bd7cfb6416f0113b04181","602110864497cf011d9c0822","0","j","NA","j","j","j","j","j","549","NA","1897","13667","6249","3719","549","2","legacy","1024","2","48000","-16","task","5219365","odd","NA","32519","36420","34522","147541","5732","25666","19416","148045","126356","147537","148046","147463","36420","148597","30888","146962","5668","124829","Lexical Decision Task","63","44597","65","yes","1024"
"2.693726949","5.08","3","swig","word","96.96969696969697","96.96969696969697","686.4242424242424","686.4242424242424","black","no","legacy","legacy","legacy","0","uniform","1","undefined","undefined","undefined","1","j","0","0","0","0","65","0","0","0","65","0","61","65","61","0","61","3","65","0","65","Tue Feb 23 14:06:23 2021","The main experiment item","yes","Lexical_Decision_Task.osexp","/Users/Hannah/Bournemouth Uni/YEAR TWO/COGNITION AND LANGUAGE/OPEN SESAME","no","Andale Mono","no","18","no","white","no","yes","576","legacy","61","61","3","/Users/Hannah/Bournemouth Uni/YEAR TWO/COGNITION AND LANGUAGE/OPEN SESAME/subject-5219365 LDT.csv","legacy","Lentiform Loewenfeld","3.3.7","yes","yes","600bd7cfb6416f0113b04181","602110864497cf011d9c0822","0","j","NA","j","j","j","j","j","707","NA","1897","13667","6249","3719","707","2","legacy","1024","2","48000","-16","task","5219365","odd","NA","32519","36420","34522","149172","5732","25666","19416","149675","126356","149168","149676","149103","36420","150384","30888","148602","5668","124829","Lexical Decision Task","64","45304","66","yes","1024"
"2.698100546","0","9","mulk","non-word","97.01492537313433","97.01492537313433","686.4179104477612","686.4179104477612","black","no","legacy","legacy","legacy","0","uniform","1","undefined","undefined","undefined","1","f","0","0","0","0","66","0","0","0","66","0","62","66","62","0","62","3","66","0","66","Tue Feb 23 14:06:23 2021","The main experiment item","yes","Lexical_Decision_Task.osexp","/Users/Hannah/Bournemouth Uni/YEAR TWO/COGNITION AND LANGUAGE/OPEN SESAME","no","Andale Mono","no","18","no","white","no","yes","576","legacy","62","62","3","/Users/Hannah/Bournemouth Uni/YEAR TWO/COGNITION AND LANGUAGE/OPEN SESAME/subject-5219365 LDT.csv","legacy","Lentiform Loewenfeld","3.3.7","yes","yes","600bd7cfb6416f0113b04181","602110864497cf011d9c0822","0","f","NA","j","j","j","j","f","686","NA","1897","13667","6249","3719","686","2","legacy","1024","2","48000","-16","task","5219365","odd","NA","32519","36420","34522","150950","5732","25666","19416","151452","126356","150947","151453","150889","36420","152140","30888","150388","5668","124829","Lexical Decision Task","65","45990","67","yes","1024"
"3.225825991","0","7","talm","non-word","97.05882352941177","97.05882352941177","684.3970588235294","684.3970588235294","black","no","legacy","legacy","legacy","0","uniform","1","undefined","undefined","undefined","1","f","0","0","0","0","67","0","0","0","67","0","63","67","63","0","63","3","67","0","67","Tue Feb 23 14:06:23 2021","The main experiment item","yes","Lexical_Decision_Task.osexp","/Users/Hannah/Bournemouth Uni/YEAR TWO/COGNITION AND LANGUAGE/OPEN SESAME","no","Andale Mono","no","18","no","white","no","yes","576","legacy","63","63","3","/Users/Hannah/Bournemouth Uni/YEAR TWO/COGNITION AND LANGUAGE/OPEN SESAME/subject-5219365 LDT.csv","legacy","Lentiform Loewenfeld","3.3.7","yes","yes","600bd7cfb6416f0113b04181","602110864497cf011d9c0822","0","f","NA","j","j","j","j","f","549","NA","1897","13667","6249","3719","549","2","legacy","1024","2","48000","-16","task","5219365","odd","NA","32519","36420","34522","152703","5732","25666","19416","153205","126356","152700","153206","152644","36420","153758","30888","152143","5668","124829","Lexical Decision Task","66","46539","68","yes","1024"
"3.372543801","9.24","8","coat","word","97.10144927536231","97.10144927536231","683.8840579710145","683.8840579710145","black","no","legacy","legacy","legacy","0","uniform","1","undefined","undefined","undefined","1","j","0","0","0","0","68","0","0","0","68","0","64","68","64","0","64","3","68","0","68","Tue Feb 23 14:06:23 2021","The main experiment item","yes","Lexical_Decision_Task.osexp","/Users/Hannah/Bournemouth Uni/YEAR TWO/COGNITION AND LANGUAGE/OPEN SESAME","no","Andale Mono","no","18","no","white","no","yes","576","legacy","64","64","3","/Users/Hannah/Bournemouth Uni/YEAR TWO/COGNITION AND LANGUAGE/OPEN SESAME/subject-5219365 LDT.csv","legacy","Lentiform Loewenfeld","3.3.7","yes","yes","600bd7cfb6416f0113b04181","602110864497cf011d9c0822","0","j","NA","j","j","j","j","j","649","NA","1897","13667","6249","3719","649","2","legacy","1024","2","48000","-16","task","5219365","odd","NA","32519","36420","34522","154327","5732","25666","19416","154829","126356","154324","154830","154264","36420","155482","30888","153763","5668","124829","Lexical Decision Task","67","47188","69","yes","1024"
"3.120135028","0","3","vals","non-word","97.14285714285714","97.14285714285714","686.8714285714286","686.8714285714286","black","no","legacy","legacy","legacy","0","uniform","1","undefined","undefined","undefined","1","f","0","0","0","0","69","0","0","0","69","0","65","69","65","0","65","3","69","0","69","Tue Feb 23 14:06:23 2021","The main experiment item","yes","Lexical_Decision_Task.osexp","/Users/Hannah/Bournemouth Uni/YEAR TWO/COGNITION AND LANGUAGE/OPEN SESAME","no","Andale Mono","no","18","no","white","no","yes","576","legacy","65","65","3","/Users/Hannah/Bournemouth Uni/YEAR TWO/COGNITION AND LANGUAGE/OPEN SESAME/subject-5219365 LDT.csv","legacy","Lentiform Loewenfeld","3.3.7","yes","yes","600bd7cfb6416f0113b04181","602110864497cf011d9c0822","0","f","NA","j","j","j","j","f","893","NA","1897","13667","6249","3719","893","2","legacy","1024","2","48000","-16","task","5219365","odd","NA","32519","36420","34522","156039","5732","25666","19416","156543","126356","156037","156543","155989","36420","157437","30888","155489","5668","124829","Lexical Decision Task","68","48081","70","yes","1024"
"2.952953801","0","8","clax","non-word","97.1830985915493","97.1830985915493","685.3380281690141","685.3380281690141","black","no","legacy","legacy","legacy","0","uniform","1","undefined","undefined","undefined","1","f","0","0","0","0","70","0","0","0","70","0","66","70","66","0","66","3","70","0","70","Tue Feb 23 14:06:23 2021","The main experiment item","yes","Lexical_Decision_Task.osexp","/Users/Hannah/Bournemouth Uni/YEAR TWO/COGNITION AND LANGUAGE/OPEN SESAME","no","Andale Mono","no","18","no","white","no","yes","576","legacy","66","66","3","/Users/Hannah/Bournemouth Uni/YEAR TWO/COGNITION AND LANGUAGE/OPEN SESAME/subject-5219365 LDT.csv","legacy","Lentiform Loewenfeld","3.3.7","yes","yes","600bd7cfb6416f0113b04181","602110864497cf011d9c0822","0","f","NA","j","j","j","j","f","578","NA","1897","13667","6249","3719","578","2","legacy","1024","2","48000","-16","task","5219365","odd","NA","32519","36420","34522","157992","5732","25666","19416","158494","126356","157989","158494","157941","36420","159073","30888","157440","5668","124829","Lexical Decision Task","69","48659","71","yes","1024"
"2.714888338","0","3","brug","non-word","97.22222222222223","97.22222222222223","685.3472222222222","685.3472222222222","black","no","legacy","legacy","legacy","0","uniform","1","undefined","undefined","undefined","1","f","0","0","0","0","71","0","0","0","71","0","67","71","67","0","67","3","71","0","71","Tue Feb 23 14:06:23 2021","The main experiment item","yes","Lexical_Decision_Task.osexp","/Users/Hannah/Bournemouth Uni/YEAR TWO/COGNITION AND LANGUAGE/OPEN SESAME","no","Andale Mono","no","18","no","white","no","yes","576","legacy","67","67","3","/Users/Hannah/Bournemouth Uni/YEAR TWO/COGNITION AND LANGUAGE/OPEN SESAME/subject-5219365 LDT.csv","legacy","Lentiform Loewenfeld","3.3.7","yes","yes","600bd7cfb6416f0113b04181","602110864497cf011d9c0822","0","f","NA","j","j","j","j","f","686","NA","1897","13667","6249","3719","686","2","legacy","1024","2","48000","-16","task","5219365","odd","NA","32519","36420","34522","159642","5732","25666","19416","160145","126356","159639","160146","159577","36420","160834","30888","159077","5668","124829","Lexical Decision Task","70","49345","72","yes","1024"
"2.842815106","7.86","8","lump","word","97.26027397260275","97.26027397260275","684.6438356164383","684.6438356164383","black","no","legacy","legacy","legacy","0","uniform","1","undefined","undefined","undefined","1","j","0","0","0","0","72","0","0","0","72","0","68","72","68","0","68","3","72","0","72","Tue Feb 23 14:06:23 2021","The main experiment item","yes","Lexical_Decision_Task.osexp","/Users/Hannah/Bournemouth Uni/YEAR TWO/COGNITION AND LANGUAGE/OPEN SESAME","no","Andale Mono","no","18","no","white","no","yes","576","legacy","68","68","3","/Users/Hannah/Bournemouth Uni/YEAR TWO/COGNITION AND LANGUAGE/OPEN SESAME/subject-5219365 LDT.csv","legacy","Lentiform Loewenfeld","3.3.7","yes","yes","600bd7cfb6416f0113b04181","602110864497cf011d9c0822","0","j","NA","j","j","j","j","j","634","NA","1897","13667","6249","3719","634","2","legacy","1024","2","48000","-16","task","5219365","odd","NA","32519","36420","34522","161417","5732","25666","19416","161919","126356","161412","161919","161339","36420","162554","30888","160839","5668","124829","Lexical Decision Task","71","49979","73","yes","1024"
"3.077974404","10.41","8","tool","word","97.29729729729729","97.29729729729729","681.5675675675676","681.5675675675676","black","no","legacy","legacy","legacy","0","uniform","1","undefined","undefined","undefined","1","j","0","0","0","0","73","0","0","0","73","0","69","73","69","0","69","3","73","0","73","Tue Feb 23 14:06:23 2021","The main experiment item","yes","Lexical_Decision_Task.osexp","/Users/Hannah/Bournemouth Uni/YEAR TWO/COGNITION AND LANGUAGE/OPEN SESAME","no","Andale Mono","no","18","no","white","no","yes","576","legacy","69","69","3","/Users/Hannah/Bournemouth Uni/YEAR TWO/COGNITION AND LANGUAGE/OPEN SESAME/subject-5219365 LDT.csv","legacy","Lentiform Loewenfeld","3.3.7","yes","yes","600bd7cfb6416f0113b04181","602110864497cf011d9c0822","0","j","NA","j","j","j","j","j","457","NA","1897","13667","6249","3719","457","2","legacy","1024","2","48000","-16","task","5219365","odd","NA","32519","36420","34522","163110","5732","25666","19416","163613","126356","163107","163613","163060","36420","164071","30888","162559","5668","124829","Lexical Decision Task","72","50436","74","yes","1024"
"3.081107167","0","6","chot","non-word","97.33333333333333","97.33333333333333","681","681","black","no","legacy","legacy","legacy","0","uniform","1","undefined","undefined","undefined","1","f","0","0","0","0","74","0","0","0","74","0","70","74","70","0","70","3","74","0","74","Tue Feb 23 14:06:23 2021","The main experiment item","yes","Lexical_Decision_Task.osexp","/Users/Hannah/Bournemouth Uni/YEAR TWO/COGNITION AND LANGUAGE/OPEN SESAME","no","Andale Mono","no","18","no","white","no","yes","576","legacy","70","70","3","/Users/Hannah/Bournemouth Uni/YEAR TWO/COGNITION AND LANGUAGE/OPEN SESAME/subject-5219365 LDT.csv","legacy","Lentiform Loewenfeld","3.3.7","yes","yes","600bd7cfb6416f0113b04181","602110864497cf011d9c0822","0","f","NA","j","j","j","j","f","639","NA","1897","13667","6249","3719","639","2","legacy","1024","2","48000","-16","task","5219365","odd","NA","32519","36420","34522","164627","5732","25666","19416","165130","126356","164625","165130","164575","36420","165770","30888","164074","5668","124829","Lexical Decision Task","73","51075","75","yes","1024"
"3.368162872","0","4","ferk","non-word","97.36842105263158","97.36842105263158","680.578947368421","680.578947368421","black","no","legacy","legacy","legacy","0","uniform","1","undefined","undefined","undefined","1","f","0","0","0","0","75","0","0","0","75","0","71","75","71","0","71","3","75","0","75","Tue Feb 23 14:06:23 2021","The main experiment item","yes","Lexical_Decision_Task.osexp","/Users/Hannah/Bournemouth Uni/YEAR TWO/COGNITION AND LANGUAGE/OPEN SESAME","no","Andale Mono","no","18","no","white","no","yes","576","legacy","71","71","3","/Users/Hannah/Bournemouth Uni/YEAR TWO/COGNITION AND LANGUAGE/OPEN SESAME/subject-5219365 LDT.csv","legacy","Lentiform Loewenfeld","3.3.7","yes","yes","600bd7cfb6416f0113b04181","602110864497cf011d9c0822","0","f","NA","j","j","j","j","f","649","NA","1897","13667","6249","3719","649","2","legacy","1024","2","48000","-16","task","5219365","odd","NA","32519","36420","34522","166333","5732","25666","19416","166835","126356","166330","166836","166274","36420","167486","30888","165774","5668","124829","Lexical Decision Task","74","51724","76","yes","1024"
"3.208978517","10.33","4","fish","word","97.40259740259741","97.40259740259741","682.3896103896104","682.3896103896104","black","no","legacy","legacy","legacy","0","uniform","1","undefined","undefined","undefined","1","j","0","0","0","0","76","0","0","0","76","0","72","76","72","0","72","3","76","0","76","Tue Feb 23 14:06:23 2021","The main experiment item","yes","Lexical_Decision_Task.osexp","/Users/Hannah/Bournemouth Uni/YEAR TWO/COGNITION AND LANGUAGE/OPEN SESAME","no","Andale Mono","no","18","no","white","no","yes","576","legacy","72","72","3","/Users/Hannah/Bournemouth Uni/YEAR TWO/COGNITION AND LANGUAGE/OPEN SESAME/subject-5219365 LDT.csv","legacy","Lentiform Loewenfeld","3.3.7","yes","yes","600bd7cfb6416f0113b04181","602110864497cf011d9c0822","0","j","NA","j","j","j","j","j","820","NA","1897","13667","6249","3719","820","2","legacy","1024","2","48000","-16","task","5219365","odd","NA","32519","36420","34522","168049","5732","25666","19416","168552","126356","168046","168553","167990","36420","169374","30888","167489","5668","124829","Lexical Decision Task","75","52544","77","yes","1024"
"3.208172527","10.27","7","deck","word","97.43589743589743","97.43589743589743","681.7307692307693","681.7307692307693","black","no","legacy","legacy","legacy","0","uniform","1","undefined","undefined","undefined","1","j","0","0","0","0","77","0","0","0","77","0","73","77","73","0","73","3","77","0","77","Tue Feb 23 14:06:23 2021","The main experiment item","yes","Lexical_Decision_Task.osexp","/Users/Hannah/Bournemouth Uni/YEAR TWO/COGNITION AND LANGUAGE/OPEN SESAME","no","Andale Mono","no","18","no","white","no","yes","576","legacy","73","73","3","/Users/Hannah/Bournemouth Uni/YEAR TWO/COGNITION AND LANGUAGE/OPEN SESAME/subject-5219365 LDT.csv","legacy","Lentiform Loewenfeld","3.3.7","yes","yes","600bd7cfb6416f0113b04181","602110864497cf011d9c0822","0","j","NA","j","j","j","j","j","631","NA","1897","13667","6249","3719","631","2","legacy","1024","2","48000","-16","task","5219365","odd","NA","32519","36420","34522","169934","5732","25666","19416","170438","126356","169932","170439","169878","36420","171071","30888","169378","5668","124829","Lexical Decision Task","76","53175","78","yes","1024"
"3.382617311","0","4","pret","non-word","96.20253164556962","96.20253164556962","682.6075949367089","682.6075949367089","black","no","legacy","legacy","legacy","0","uniform","0","undefined","undefined","undefined","0","f","0","0","0","0","78","0","0","0","78","0","74","78","74","0","74","3","78","0","78","Tue Feb 23 14:06:23 2021","The main experiment item","yes","Lexical_Decision_Task.osexp","/Users/Hannah/Bournemouth Uni/YEAR TWO/COGNITION AND LANGUAGE/OPEN SESAME","no","Andale Mono","no","18","no","white","no","yes","576","legacy","74","74","3","/Users/Hannah/Bournemouth Uni/YEAR TWO/COGNITION AND LANGUAGE/OPEN SESAME/subject-5219365 LDT.csv","legacy","Lentiform Loewenfeld","3.3.7","yes","yes","600bd7cfb6416f0113b04181","602110864497cf011d9c0822","0","j","NA","j","j","j","j","j","751","NA","1897","13667","6249","3719","751","2","legacy","1024","2","48000","-16","task","5219365","odd","NA","32519","36420","34522","171638","5732","25666","19416","172141","126356","171635","172141","171577","36420","172894","30888","171076","5668","124829","Lexical Decision Task","76","53926","79","yes","1024"
"2.778633532","0","3","jurp","non-word","96.25","96.25","682.7375","682.7375","black","no","legacy","legacy","legacy","0","uniform","1","undefined","undefined","undefined","1","f","0","0","0","0","79","0","0","0","79","0","75","79","75","0","75","3","79","0","79","Tue Feb 23 14:06:23 2021","The main experiment item","yes","Lexical_Decision_Task.osexp","/Users/Hannah/Bournemouth Uni/YEAR TWO/COGNITION AND LANGUAGE/OPEN SESAME","no","Andale Mono","no","18","no","white","no","yes","576","legacy","75","75","3","/Users/Hannah/Bournemouth Uni/YEAR TWO/COGNITION AND LANGUAGE/OPEN SESAME/subject-5219365 LDT.csv","legacy","Lentiform Loewenfeld","3.3.7","yes","yes","600bd7cfb6416f0113b04181","602110864497cf011d9c0822","0","f","NA","j","j","j","j","f","693","NA","1897","13667","6249","3719","693","2","legacy","1024","2","48000","-16","task","5219365","odd","NA","32519","36420","34522","174462","5732","25666","19416","174964","126356","174459","174964","174399","36420","175659","30888","171076","5668","172899","Lexical Decision Task","77","54619","80","yes","1024"
"3.257359335","8","6","brew","word","96.29629629629629","96.29629629629629","681.3086419753087","681.3086419753087","black","no","legacy","legacy","legacy","0","uniform","1","undefined","undefined","undefined","1","j","0","0","0","0","80","0","0","0","80","0","76","80","76","0","76","3","80","0","80","Tue Feb 23 14:06:23 2021","The main experiment item","yes","Lexical_Decision_Task.osexp","/Users/Hannah/Bournemouth Uni/YEAR TWO/COGNITION AND LANGUAGE/OPEN SESAME","no","Andale Mono","no","18","no","white","no","yes","576","legacy","76","76","3","/Users/Hannah/Bournemouth Uni/YEAR TWO/COGNITION AND LANGUAGE/OPEN SESAME/subject-5219365 LDT.csv","legacy","Lentiform Loewenfeld","3.3.7","yes","yes","600bd7cfb6416f0113b04181","602110864497cf011d9c0822","0","j","NA","j","j","j","j","j","567","NA","1897","13667","6249","3719","567","2","legacy","1024","2","48000","-16","task","5219365","odd","NA","32519","36420","34522","176215","5732","25666","19416","176717","126356","176212","176718","176164","36420","177286","30888","175663","5668","172899","Lexical Decision Task","78","55186","81","yes","1024"
"2.986323777","10.85","8","ship","word","96.34146341463415","96.34146341463415","678.9268292682926","678.9268292682926","black","no","legacy","legacy","legacy","0","uniform","1","undefined","undefined","undefined","1","j","0","0","0","0","81","0","0","0","81","0","77","81","77","0","77","3","81","0","81","Tue Feb 23 14:06:23 2021","The main experiment item","yes","Lexical_Decision_Task.osexp","/Users/Hannah/Bournemouth Uni/YEAR TWO/COGNITION AND LANGUAGE/OPEN SESAME","no","Andale Mono","no","18","no","white","no","yes","576","legacy","77","77","3","/Users/Hannah/Bournemouth Uni/YEAR TWO/COGNITION AND LANGUAGE/OPEN SESAME/subject-5219365 LDT.csv","legacy","Lentiform Loewenfeld","3.3.7","yes","yes","600bd7cfb6416f0113b04181","602110864497cf011d9c0822","0","j","NA","j","j","j","j","j","486","NA","1897","13667","6249","3719","486","2","legacy","1024","2","48000","-16","task","5219365","odd","NA","32519","36420","34522","177841","5732","25666","19416","178345","126356","177839","178345","177791","36420","178832","30888","177291","5668","172899","Lexical Decision Task","79","55672","82","yes","1024"
"2.996511672","0","7","hoil","non-word","96.3855421686747","96.3855421686747","677.9879518072289","677.9879518072289","black","no","legacy","legacy","legacy","0","uniform","1","undefined","undefined","undefined","1","f","0","0","0","0","82","0","0","0","82","0","78","82","78","0","78","3","82","0","82","Tue Feb 23 14:06:23 2021","The main experiment item","yes","Lexical_Decision_Task.osexp","/Users/Hannah/Bournemouth Uni/YEAR TWO/COGNITION AND LANGUAGE/OPEN SESAME","no","Andale Mono","no","18","no","white","no","yes","576","legacy","78","78","3","/Users/Hannah/Bournemouth Uni/YEAR TWO/COGNITION AND LANGUAGE/OPEN SESAME/subject-5219365 LDT.csv","legacy","Lentiform Loewenfeld","3.3.7","yes","yes","600bd7cfb6416f0113b04181","602110864497cf011d9c0822","0","f","NA","j","j","j","j","f","601","NA","1897","13667","6249","3719","601","2","legacy","1024","2","48000","-16","task","5219365","odd","NA","32519","36420","34522","179389","5732","25666","19416","179893","126356","179386","179893","179337","36420","180495","30888","178837","5668","172899","Lexical Decision Task","80","56273","83","yes","1024"
"2.713490543","0","3","feps","non-word","96.42857142857143","96.42857142857143","677.4880952380952","677.4880952380952","black","no","legacy","legacy","legacy","0","uniform","1","undefined","undefined","undefined","1","f","0","0","0","0","83","0","0","0","83","0","79","83","79","0","79","3","83","0","83","Tue Feb 23 14:06:23 2021","The main experiment item","yes","Lexical_Decision_Task.osexp","/Users/Hannah/Bournemouth Uni/YEAR TWO/COGNITION AND LANGUAGE/OPEN SESAME","no","Andale Mono","no","18","no","white","no","yes","576","legacy","79","79","3","/Users/Hannah/Bournemouth Uni/YEAR TWO/COGNITION AND LANGUAGE/OPEN SESAME/subject-5219365 LDT.csv","legacy","Lentiform Loewenfeld","3.3.7","yes","yes","600bd7cfb6416f0113b04181","602110864497cf011d9c0822","0","f","NA","j","j","j","j","f","636","NA","1897","13667","6249","3719","636","2","legacy","1024","2","48000","-16","task","5219365","odd","NA","32519","36420","34522","181066","5732","25666","19416","181570","126356","181063","181571","180999","36420","182209","30888","180498","5668","172899","Lexical Decision Task","81","56909","84","yes","1024"
"2.594027722","9.08","8","skip","word","96.47058823529412","96.47058823529412","677.4941176470588","677.4941176470588","black","no","legacy","legacy","legacy","0","uniform","1","undefined","undefined","undefined","1","j","0","0","0","0","84","0","0","0","84","0","80","84","80","0","80","3","84","0","84","Tue Feb 23 14:06:23 2021","The main experiment item","yes","Lexical_Decision_Task.osexp","/Users/Hannah/Bournemouth Uni/YEAR TWO/COGNITION AND LANGUAGE/OPEN SESAME","no","Andale Mono","no","18","no","white","no","yes","576","legacy","80","80","3","/Users/Hannah/Bournemouth Uni/YEAR TWO/COGNITION AND LANGUAGE/OPEN SESAME/subject-5219365 LDT.csv","legacy","Lentiform Loewenfeld","3.3.7","yes","yes","600bd7cfb6416f0113b04181","602110864497cf011d9c0822","0","j","NA","j","j","j","j","j","678","NA","1897","13667","6249","3719","678","2","legacy","1024","2","48000","-16","task","5219365","odd","NA","32519","36420","34522","182773","5732","25666","19416","183276","126356","182771","183276","182713","36420","183955","30888","182213","5668","172899","Lexical Decision Task","82","57587","85","yes","1024"
"2.980306438","0","7","slun","non-word","96.51162790697674","96.51162790697674","676.5348837209302","676.5348837209302","black","no","legacy","legacy","legacy","0","uniform","1","undefined","undefined","undefined","1","f","0","0","0","0","85","0","0","0","85","0","81","85","81","0","81","3","85","0","85","Tue Feb 23 14:06:23 2021","The main experiment item","yes","Lexical_Decision_Task.osexp","/Users/Hannah/Bournemouth Uni/YEAR TWO/COGNITION AND LANGUAGE/OPEN SESAME","no","Andale Mono","no","18","no","white","no","yes","576","legacy","81","81","3","/Users/Hannah/Bournemouth Uni/YEAR TWO/COGNITION AND LANGUAGE/OPEN SESAME/subject-5219365 LDT.csv","legacy","Lentiform Loewenfeld","3.3.7","yes","yes","600bd7cfb6416f0113b04181","602110864497cf011d9c0822","0","f","NA","j","j","j","j","f","595","NA","1897","13667","6249","3719","595","2","legacy","1024","2","48000","-16","task","5219365","odd","NA","32519","36420","34522","184515","5732","25666","19416","185018","126356","184511","185018","184459","36420","185614","30888","183959","5668","172899","Lexical Decision Task","83","58182","86","yes","1024"
"3.064581521","5.51","6","cask","word","96.55172413793103","96.55172413793103","683.1034482758621","683.1034482758621","black","no","legacy","legacy","legacy","0","uniform","1","undefined","undefined","undefined","1","j","0","0","0","0","86","0","0","0","86","0","82","86","82","0","82","3","86","0","86","Tue Feb 23 14:06:23 2021","The main experiment item","yes","Lexical_Decision_Task.osexp","/Users/Hannah/Bournemouth Uni/YEAR TWO/COGNITION AND LANGUAGE/OPEN SESAME","no","Andale Mono","no","18","no","white","no","yes","576","legacy","82","82","3","/Users/Hannah/Bournemouth Uni/YEAR TWO/COGNITION AND LANGUAGE/OPEN SESAME/subject-5219365 LDT.csv","legacy","Lentiform Loewenfeld","3.3.7","yes","yes","600bd7cfb6416f0113b04181","602110864497cf011d9c0822","0","j","NA","j","j","j","j","j","1248","NA","1897","13667","6249","3719","1248","2","legacy","1024","2","48000","-16","task","5219365","odd","NA","32519","36420","34522","186168","5732","25666","19416","186671","126356","186166","186671","186118","36420","187921","30888","185617","5668","172899","Lexical Decision Task","84","59430","87","yes","1024"
"2.767650507","0","6","yolt","non-word","96.5909090909091","96.5909090909091","682.3409090909091","682.3409090909091","black","no","legacy","legacy","legacy","0","uniform","1","undefined","undefined","undefined","1","f","0","0","0","0","87","0","0","0","87","0","83","87","83","0","83","3","87","0","87","Tue Feb 23 14:06:23 2021","The main experiment item","yes","Lexical_Decision_Task.osexp","/Users/Hannah/Bournemouth Uni/YEAR TWO/COGNITION AND LANGUAGE/OPEN SESAME","no","Andale Mono","no","18","no","white","no","yes","576","legacy","83","83","3","/Users/Hannah/Bournemouth Uni/YEAR TWO/COGNITION AND LANGUAGE/OPEN SESAME/subject-5219365 LDT.csv","legacy","Lentiform Loewenfeld","3.3.7","yes","yes","600bd7cfb6416f0113b04181","602110864497cf011d9c0822","0","f","NA","j","j","j","j","f","616","NA","1897","13667","6249","3719","616","2","legacy","1024","2","48000","-16","task","5219365","odd","NA","32519","36420","34522","188477","5732","25666","19416","188980","126356","188473","188981","188425","36420","189598","30888","187925","5668","172899","Lexical Decision Task","85","60046","88","yes","1024"
"3.067193647","6.73","6","raft","word","96.62921348314607","96.62921348314607","682.7528089887641","682.7528089887641","black","no","legacy","legacy","legacy","0","uniform","1","undefined","undefined","undefined","1","j","0","0","0","0","88","0","0","0","88","0","84","88","84","0","84","3","88","0","88","Tue Feb 23 14:06:23 2021","The main experiment item","yes","Lexical_Decision_Task.osexp","/Users/Hannah/Bournemouth Uni/YEAR TWO/COGNITION AND LANGUAGE/OPEN SESAME","no","Andale Mono","no","18","no","white","no","yes","576","legacy","84","84","3","/Users/Hannah/Bournemouth Uni/YEAR TWO/COGNITION AND LANGUAGE/OPEN SESAME/subject-5219365 LDT.csv","legacy","Lentiform Loewenfeld","3.3.7","yes","yes","600bd7cfb6416f0113b04181","602110864497cf011d9c0822","0","j","NA","j","j","j","j","j","719","NA","1897","13667","6249","3719","719","2","legacy","1024","2","48000","-16","task","5219365","odd","NA","32519","36420","34522","190151","5732","25666","19416","190654","126356","190149","190655","190101","36420","191376","30888","189601","5668","172899","Lexical Decision Task","86","60765","89","yes","1024"
"3.195807436","0","6","stup","non-word","96.66666666666667","96.66666666666667","681.6111111111111","681.6111111111111","black","no","legacy","legacy","legacy","0","uniform","1","undefined","undefined","undefined","1","f","0","0","0","0","89","0","0","0","89","0","85","89","85","0","85","3","89","0","89","Tue Feb 23 14:06:23 2021","The main experiment item","yes","Lexical_Decision_Task.osexp","/Users/Hannah/Bournemouth Uni/YEAR TWO/COGNITION AND LANGUAGE/OPEN SESAME","no","Andale Mono","no","18","no","white","no","yes","576","legacy","85","85","3","/Users/Hannah/Bournemouth Uni/YEAR TWO/COGNITION AND LANGUAGE/OPEN SESAME/subject-5219365 LDT.csv","legacy","Lentiform Loewenfeld","3.3.7","yes","yes","600bd7cfb6416f0113b04181","602110864497cf011d9c0822","0","f","NA","j","j","j","j","f","580","NA","1897","13667","6249","3719","580","2","legacy","1024","2","48000","-16","task","5219365","odd","NA","32519","36420","34522","191930","5732","25666","19416","192433","126356","191927","192433","191879","36420","193014","30888","191379","5668","172899","Lexical Decision Task","87","61345","90","yes","1024"
"2.6599162","0","6","flug","non-word","96.7032967032967","96.7032967032967","681.8351648351648","681.8351648351648","black","no","legacy","legacy","legacy","0","uniform","1","undefined","undefined","undefined","1","f","0","0","0","0","90","0","0","0","90","0","86","90","86","0","86","3","90","0","90","Tue Feb 23 14:06:23 2021","The main experiment item","yes","Lexical_Decision_Task.osexp","/Users/Hannah/Bournemouth Uni/YEAR TWO/COGNITION AND LANGUAGE/OPEN SESAME","no","Andale Mono","no","18","no","white","no","yes","576","legacy","86","86","3","/Users/Hannah/Bournemouth Uni/YEAR TWO/COGNITION AND LANGUAGE/OPEN SESAME/subject-5219365 LDT.csv","legacy","Lentiform Loewenfeld","3.3.7","yes","yes","600bd7cfb6416f0113b04181","602110864497cf011d9c0822","0","f","NA","j","j","j","j","f","702","NA","1897","13667","6249","3719","702","2","legacy","1024","2","48000","-16","task","5219365","odd","NA","32519","36420","34522","193571","5732","25666","19416","194073","126356","193568","194073","193519","36420","194776","30888","193018","5668","172899","Lexical Decision Task","88","62047","91","yes","1024"
"2.895974732","6.65","5","sift","word","96.73913043478261","96.73913043478261","681.5108695652174","681.5108695652174","black","no","legacy","legacy","legacy","0","uniform","1","undefined","undefined","undefined","1","j","0","0","0","0","91","0","0","0","91","0","87","91","87","0","87","3","91","0","91","Tue Feb 23 14:06:23 2021","The main experiment item","yes","Lexical_Decision_Task.osexp","/Users/Hannah/Bournemouth Uni/YEAR TWO/COGNITION AND LANGUAGE/OPEN SESAME","no","Andale Mono","no","18","no","white","no","yes","576","legacy","87","87","3","/Users/Hannah/Bournemouth Uni/YEAR TWO/COGNITION AND LANGUAGE/OPEN SESAME/subject-5219365 LDT.csv","legacy","Lentiform Loewenfeld","3.3.7","yes","yes","600bd7cfb6416f0113b04181","602110864497cf011d9c0822","0","j","NA","j","j","j","j","j","652","NA","1897","13667","6249","3719","652","2","legacy","1024","2","48000","-16","task","5219365","odd","NA","32519","36420","34522","195331","5732","25666","19416","195834","126356","195328","195835","195280","36420","196488","30888","194780","5668","172899","Lexical Decision Task","89","62699","92","yes","1024"
"3.043885998","0","9","gome","non-word","96.7741935483871","96.7741935483871","681.0322580645161","681.0322580645161","black","no","legacy","legacy","legacy","0","uniform","1","undefined","undefined","undefined","1","f","0","0","0","0","92","0","0","0","92","0","88","92","88","0","88","3","92","0","92","Tue Feb 23 14:06:23 2021","The main experiment item","yes","Lexical_Decision_Task.osexp","/Users/Hannah/Bournemouth Uni/YEAR TWO/COGNITION AND LANGUAGE/OPEN SESAME","no","Andale Mono","no","18","no","white","no","yes","576","legacy","88","88","3","/Users/Hannah/Bournemouth Uni/YEAR TWO/COGNITION AND LANGUAGE/OPEN SESAME/subject-5219365 LDT.csv","legacy","Lentiform Loewenfeld","3.3.7","yes","yes","600bd7cfb6416f0113b04181","602110864497cf011d9c0822","0","f","NA","j","j","j","j","f","637","NA","1897","13667","6249","3719","637","2","legacy","1024","2","48000","-16","task","5219365","odd","NA","32519","36420","34522","197043","5732","25666","19416","197546","126356","197041","197546","196993","36420","198184","30888","196493","5668","172899","Lexical Decision Task","90","63336","93","yes","1024"
"2.6599162","0","2","saff","non-word","96.80851063829788","96.80851063829788","681.4148936170212","681.4148936170212","black","no","legacy","legacy","legacy","0","uniform","1","undefined","undefined","undefined","1","f","0","0","0","0","93","0","0","0","93","0","89","93","89","0","89","3","93","0","93","Tue Feb 23 14:06:23 2021","The main experiment item","yes","Lexical_Decision_Task.osexp","/Users/Hannah/Bournemouth Uni/YEAR TWO/COGNITION AND LANGUAGE/OPEN SESAME","no","Andale Mono","no","18","no","white","no","yes","576","legacy","89","89","3","/Users/Hannah/Bournemouth Uni/YEAR TWO/COGNITION AND LANGUAGE/OPEN SESAME/subject-5219365 LDT.csv","legacy","Lentiform Loewenfeld","3.3.7","yes","yes","600bd7cfb6416f0113b04181","602110864497cf011d9c0822","0","f","NA","j","j","j","j","f","717","NA","1897","13667","6249","3719","717","2","legacy","1024","2","48000","-16","task","5219365","odd","NA","32519","36420","34522","198738","5732","25666","19416","199241","126356","198736","199241","198688","36420","199959","30888","198188","5668","172899","Lexical Decision Task","91","64053","94","yes","1024"
