"Log_BG","Log_Freq_HAL","Ortho_N","Stimulus","Type","acc","accuracy","average_response_time","avg_rt","background","bidi","canvas_backend","clock_backend","color_backend","compensation","coordinates","correct","correct_Experimental_intro","correct_Introduction","correct_Practice_intro","correct_experimenter_kb","correct_response","count_End_Of_Experiment","count_End_Of_Practice","count_Experimental_Loop","count_Experimental_intro","count_Fixation","count_Introduction","count_Practice_Loop","count_Practice_intro","count_Stimulus","count_block_break_feedback","count_experimental_sequence","count_experimenter_kb","count_increment_trial_count","count_init_trial_count","count_logger","count_practice_sequence","count_right","count_task","count_wrong","datetime","description","disable_garbage_collection","experiment_file","experiment_path","font_bold","font_family","font_italic","font_size","font_underline","foreground","form_clicks","fullscreen","height","keyboard_backend","live_row","live_row_Experimental_Loop","live_row_Practice_Loop","logfile","mouse_backend","opensesame_codename","opensesame_version","osf_always_upload_data","osf_always_upload_experiment","osf_datanode_id","osf_id","repeat_cycle","response","response_End_Of_Experiment","response_Experimental_intro","response_Introduction","response_Practice_intro","response_block_break_feedback","response_experimenter_kb","response_time","response_time_End_Of_Experiment","response_time_Experimental_intro","response_time_Introduction","response_time_Practice_intro","response_time_block_break_feedback","response_time_experimenter_kb","round_decimals","sampler_backend","sound_buf_size","sound_channels","sound_freq","sound_sample_size","start","subject_nr","subject_parity","time_End_Of_Experiment","time_End_Of_Practice","time_Experimental_Loop","time_Experimental_intro","time_Fixation","time_Introduction","time_Practice_Loop","time_Practice_intro","time_Stimulus","time_block_break_feedback","time_experimental_sequence","time_experimenter_kb","time_increment_trial_count","time_init_trial_count","time_logger","time_practice_sequence","time_right","time_task","time_wrong","title","total_correct","total_response_time","total_responses","uniform_coordinates","width"
"3.274157849","0","8","leet","non-word","40","40","2093","2093","black","no","legacy","legacy","legacy","0","uniform","0","undefined","undefined","undefined","0","f","0","0","0","0","4","0","0","0","4","NA","0","4","0","0","0","3","4","0","4","Wed Feb 17 16:38:18 2021","The main experiment item","yes","Lexical_Decision_Task.osexp","/Users/loradimitrova","no","Andale Mono","no","18","no","white","no","yes","576","legacy","0","0","3","/Users/loradimitrova/subject-5115063.csv","legacy","Lentiform Loewenfeld","3.3.7","yes","yes","600bd7cfb6416f0113b04181","602110864497cf011d9c0822","0","j","NA","j","j","j","NA","j","2784","NA","4092","14028","8467","NA","2784","2","legacy","1024","2","48000","-16","task","5115063","odd","NA","42354","48450","44357","48484","5838","28362","19890","48988","NA","48481","48988","NA","48450","51773","39246","38688","5789","40822","Lexical Decision Task","2","10465","5","yes","1024"
"3.20871002","7.15","8","cram","word","33.333333333333336","33.333333333333336","2244.3333333333335","2244.3333333333335","black","no","legacy","legacy","legacy","0","uniform","0","undefined","undefined","undefined","0","j","0","0","0","0","5","0","0","0","5","NA","1","5","1","0","1","3","5","0","5","Wed Feb 17 16:38:18 2021","The main experiment item","yes","Lexical_Decision_Task.osexp","/Users/loradimitrova","no","Andale Mono","no","18","no","white","no","yes","576","legacy","1","1","3","/Users/loradimitrova/subject-5115063.csv","legacy","Lentiform Loewenfeld","3.3.7","yes","yes","600bd7cfb6416f0113b04181","602110864497cf011d9c0822","0","None","NA","j","j","j","NA","None","3001","NA","4092","14028","8467","NA","3001","2","legacy","1024","2","48000","-16","task","5115063","odd","NA","42354","48450","44357","53347","5838","28362","19890","53851","NA","53344","53851","53281","48450","56852","39246","38688","5789","51780","Lexical Decision Task","2","13466","6","yes","1024"
"2.708989954","9.28","9","bowl","word","42.857142857142854","42.857142857142854","2082.8571428571427","2082.8571428571427","black","no","legacy","legacy","legacy","0","uniform","1","undefined","undefined","undefined","1","j","0","0","0","0","6","0","0","0","6","NA","2","6","2","0","2","3","6","0","6","Wed Feb 17 16:38:18 2021","The main experiment item","yes","Lexical_Decision_Task.osexp","/Users/loradimitrova","no","Andale Mono","no","18","no","white","no","yes","576","legacy","2","2","3","/Users/loradimitrova/subject-5115063.csv","legacy","Lentiform Loewenfeld","3.3.7","yes","yes","600bd7cfb6416f0113b04181","602110864497cf011d9c0822","0","j","NA","j","j","j","NA","j","1114","NA","4092","14028","8467","NA","1114","2","legacy","1024","2","48000","-16","task","5115063","odd","NA","42354","48450","44357","58426","5838","28362","19890","58928","NA","58423","58928","58356","48450","60042","39246","38688","5789","56856","Lexical Decision Task","3","14580","7","yes","1024"
"2.920123326","7.43","4","duel","word","50","50","1963.875","1963.875","black","no","legacy","legacy","legacy","0","uniform","1","undefined","undefined","undefined","1","j","0","0","0","0","7","0","0","0","7","NA","3","7","3","0","3","3","7","0","7","Wed Feb 17 16:38:18 2021","The main experiment item","yes","Lexical_Decision_Task.osexp","/Users/loradimitrova","no","Andale Mono","no","18","no","white","no","yes","576","legacy","3","3","3","/Users/loradimitrova/subject-5115063.csv","legacy","Lentiform Loewenfeld","3.3.7","yes","yes","600bd7cfb6416f0113b04181","602110864497cf011d9c0822","0","j","NA","j","j","j","NA","j","1131","NA","4092","14028","8467","NA","1131","2","legacy","1024","2","48000","-16","task","5115063","odd","NA","42354","48450","44357","60607","5838","28362","19890","61110","NA","60604","61110","60546","48450","62242","39246","60046","5789","56856","Lexical Decision Task","4","15711","8","yes","1024"
"2.843025032","0","9","pusk","non-word","44.44444444444444","44.44444444444444","2079","2079","black","no","legacy","legacy","legacy","0","uniform","0","undefined","undefined","undefined","0","f","0","0","0","0","8","0","0","0","8","NA","4","8","4","0","4","3","8","0","8","Wed Feb 17 16:38:18 2021","The main experiment item","yes","Lexical_Decision_Task.osexp","/Users/loradimitrova","no","Andale Mono","no","18","no","white","no","yes","576","legacy","4","4","3","/Users/loradimitrova/subject-5115063.csv","legacy","Lentiform Loewenfeld","3.3.7","yes","yes","600bd7cfb6416f0113b04181","602110864497cf011d9c0822","0","None","NA","j","j","j","NA","None","3000","NA","4092","14028","8467","NA","3000","2","legacy","1024","2","48000","-16","task","5115063","odd","NA","42354","48450","44357","62806","5838","28362","19890","63309","NA","62803","63310","62745","48450","66310","39246","62245","5789","56856","Lexical Decision Task","4","18711","9","yes","1024"
"2.714888338","0","3","brug","non-word","40","40","2034.6","2034.6","black","no","legacy","legacy","legacy","0","uniform","0","undefined","undefined","undefined","0","f","0","0","0","0","9","0","0","0","9","NA","5","9","5","0","5","3","9","0","9","Wed Feb 17 16:38:18 2021","The main experiment item","yes","Lexical_Decision_Task.osexp","/Users/loradimitrova","no","Andale Mono","no","18","no","white","no","yes","576","legacy","5","5","3","/Users/loradimitrova/subject-5115063.csv","legacy","Lentiform Loewenfeld","3.3.7","yes","yes","600bd7cfb6416f0113b04181","602110864497cf011d9c0822","0","j","NA","j","j","j","NA","j","1635","NA","4092","14028","8467","NA","1635","2","legacy","1024","2","48000","-16","task","5115063","odd","NA","42354","48450","44357","67889","5838","28362","19890","68395","NA","67878","68396","67814","48450","70032","39246","62245","5789","66314","Lexical Decision Task","4","20346","10","yes","1024"
"2.68604012","0","4","pumb","non-word","36.36363636363637","36.36363636363637","2065.2727272727275","2065.2727272727275","black","no","legacy","legacy","legacy","0","uniform","0","undefined","undefined","undefined","0","f","0","0","0","0","10","0","0","0","10","NA","6","10","6","0","6","3","10","0","10","Wed Feb 17 16:38:18 2021","The main experiment item","yes","Lexical_Decision_Task.osexp","/Users/loradimitrova","no","Andale Mono","no","18","no","white","no","yes","576","legacy","6","6","3","/Users/loradimitrova/subject-5115063.csv","legacy","Lentiform Loewenfeld","3.3.7","yes","yes","600bd7cfb6416f0113b04181","602110864497cf011d9c0822","0","j","NA","j","j","j","NA","j","2372","NA","4092","14028","8467","NA","2372","2","legacy","1024","2","48000","-16","task","5115063","odd","NA","42354","48450","44357","71600","5838","28362","19890","72103","NA","71597","72103","71536","48450","74476","39246","62245","5789","70036","Lexical Decision Task","4","22718","11","yes","1024"
"2.664328519","0","4","plux","non-word","33.333333333333336","33.333333333333336","2143.1666666666665","2143.1666666666665","black","no","legacy","legacy","legacy","0","uniform","0","undefined","undefined","undefined","0","f","0","0","0","0","11","0","0","0","11","NA","7","11","7","0","7","3","11","0","11","Wed Feb 17 16:38:18 2021","The main experiment item","yes","Lexical_Decision_Task.osexp","/Users/loradimitrova","no","Andale Mono","no","18","no","white","no","yes","576","legacy","7","7","3","/Users/loradimitrova/subject-5115063.csv","legacy","Lentiform Loewenfeld","3.3.7","yes","yes","600bd7cfb6416f0113b04181","602110864497cf011d9c0822","0","None","NA","j","j","j","NA","None","3000","NA","4092","14028","8467","NA","3000","2","legacy","1024","2","48000","-16","task","5115063","odd","NA","42354","48450","44357","76048","5838","28362","19890","76551","NA","76043","76551","75979","48450","79551","39246","62245","5789","74479","Lexical Decision Task","4","25718","12","yes","1024"
"2.705007959","6.01","4","wept","word","38.46153846153846","38.46153846153846","2030.5384615384614","2030.5384615384614","black","no","legacy","legacy","legacy","0","uniform","1","undefined","undefined","undefined","1","j","0","0","0","0","12","0","0","0","12","NA","8","12","8","0","8","3","12","0","12","Wed Feb 17 16:38:18 2021","The main experiment item","yes","Lexical_Decision_Task.osexp","/Users/loradimitrova","no","Andale Mono","no","18","no","white","no","yes","576","legacy","8","8","3","/Users/loradimitrova/subject-5115063.csv","legacy","Lentiform Loewenfeld","3.3.7","yes","yes","600bd7cfb6416f0113b04181","602110864497cf011d9c0822","0","j","NA","j","j","j","NA","j","679","NA","4092","14028","8467","NA","679","2","legacy","1024","2","48000","-16","task","5115063","odd","NA","42354","48450","44357","81125","5838","28362","19890","81628","NA","81123","81628","81056","48450","82308","39246","62245","5789","79555","Lexical Decision Task","5","26397","13","yes","1024"
"2.728085817","10.02","9","bike","word","42.857142857142854","42.857142857142854","1922.5","1922.5","black","no","legacy","legacy","legacy","0","uniform","1","undefined","undefined","undefined","1","j","0","0","0","0","13","0","0","0","13","NA","9","13","9","0","9","3","13","0","13","Wed Feb 17 16:38:18 2021","The main experiment item","yes","Lexical_Decision_Task.osexp","/Users/loradimitrova","no","Andale Mono","no","18","no","white","no","yes","576","legacy","9","9","3","/Users/loradimitrova/subject-5115063.csv","legacy","Lentiform Loewenfeld","3.3.7","yes","yes","600bd7cfb6416f0113b04181","602110864497cf011d9c0822","0","j","NA","j","j","j","NA","j","518","NA","4092","14028","8467","NA","518","2","legacy","1024","2","48000","-16","task","5115063","odd","NA","42354","48450","44357","82877","5838","28362","19890","83379","NA","82874","83379","82813","48450","83898","39246","82312","5789","79555","Lexical Decision Task","6","26915","14","yes","1024"
"3.195807436","0","6","stup","non-word","40","40","1822.8","1822.8","black","no","legacy","legacy","legacy","0","uniform","0","undefined","undefined","undefined","0","f","0","0","0","0","14","0","0","0","14","NA","10","14","10","0","10","3","14","0","14","Wed Feb 17 16:38:18 2021","The main experiment item","yes","Lexical_Decision_Task.osexp","/Users/loradimitrova","no","Andale Mono","no","18","no","white","no","yes","576","legacy","10","10","3","/Users/loradimitrova/subject-5115063.csv","legacy","Lentiform Loewenfeld","3.3.7","yes","yes","600bd7cfb6416f0113b04181","602110864497cf011d9c0822","0","j","NA","j","j","j","NA","j","427","NA","4092","14028","8467","NA","427","2","legacy","1024","2","48000","-16","task","5115063","odd","NA","42354","48450","44357","84470","5838","28362","19890","84973","NA","84466","84973","84402","48450","85401","39246","83902","5789","79555","Lexical Decision Task","6","27342","15","yes","1024"
"3.120135028","0","3","vals","non-word","37.5","37.5","1752.8125","1752.8125","black","no","legacy","legacy","legacy","0","uniform","0","undefined","undefined","undefined","0","f","0","0","0","0","15","0","0","0","15","NA","11","15","11","0","11","3","15","0","15","Wed Feb 17 16:38:18 2021","The main experiment item","yes","Lexical_Decision_Task.osexp","/Users/loradimitrova","no","Andale Mono","no","18","no","white","no","yes","576","legacy","11","11","3","/Users/loradimitrova/subject-5115063.csv","legacy","Lentiform Loewenfeld","3.3.7","yes","yes","600bd7cfb6416f0113b04181","602110864497cf011d9c0822","0","j","NA","j","j","j","NA","j","703","NA","4092","14028","8467","NA","703","2","legacy","1024","2","48000","-16","task","5115063","odd","NA","42354","48450","44357","86975","5838","28362","19890","87478","NA","86971","87478","86905","48450","88182","39246","83902","5789","85404","Lexical Decision Task","6","28045","16","yes","1024"
"3.094121596","0","8","fode","non-word","35.294117647058826","35.294117647058826","1826.1764705882354","1826.1764705882354","black","no","legacy","legacy","legacy","0","uniform","0","undefined","undefined","undefined","0","f","0","0","0","0","16","0","0","0","16","NA","12","16","12","0","12","3","16","0","16","Wed Feb 17 16:38:18 2021","The main experiment item","yes","Lexical_Decision_Task.osexp","/Users/loradimitrova","no","Andale Mono","no","18","no","white","no","yes","576","legacy","12","12","3","/Users/loradimitrova/subject-5115063.csv","legacy","Lentiform Loewenfeld","3.3.7","yes","yes","600bd7cfb6416f0113b04181","602110864497cf011d9c0822","0","None","NA","j","j","j","NA","None","3000","NA","4092","14028","8467","NA","3000","2","legacy","1024","2","48000","-16","task","5115063","odd","NA","42354","48450","44357","89749","5838","28362","19890","90253","NA","89747","90253","89685","48450","93253","39246","83902","5789","88185","Lexical Decision Task","6","31045","17","yes","1024"
"2.709837904","6.85","8","skim","word","38.888888888888886","38.888888888888886","1766.111111111111","1766.111111111111","black","no","legacy","legacy","legacy","0","uniform","1","undefined","undefined","undefined","1","j","0","0","0","0","17","0","0","0","17","NA","13","17","13","0","13","3","17","0","17","Wed Feb 17 16:38:18 2021","The main experiment item","yes","Lexical_Decision_Task.osexp","/Users/loradimitrova","no","Andale Mono","no","18","no","white","no","yes","576","legacy","13","13","3","/Users/loradimitrova/subject-5115063.csv","legacy","Lentiform Loewenfeld","3.3.7","yes","yes","600bd7cfb6416f0113b04181","602110864497cf011d9c0822","0","j","NA","j","j","j","NA","j","745","NA","4092","14028","8467","NA","745","2","legacy","1024","2","48000","-16","task","5115063","odd","NA","42354","48450","44357","94825","5838","28362","19890","95328","NA","94823","95328","94757","48450","96073","39246","83902","5789","93257","Lexical Decision Task","7","31790","18","yes","1024"
"3.156347201","0","8","lasp","non-word","36.8421052631579","36.8421052631579","1709.421052631579","1709.421052631579","black","no","legacy","legacy","legacy","0","uniform","0","undefined","undefined","undefined","0","f","0","0","0","0","18","0","0","0","18","NA","14","18","14","0","14","3","18","0","18","Wed Feb 17 16:38:18 2021","The main experiment item","yes","Lexical_Decision_Task.osexp","/Users/loradimitrova","no","Andale Mono","no","18","no","white","no","yes","576","legacy","14","14","3","/Users/loradimitrova/subject-5115063.csv","legacy","Lentiform Loewenfeld","3.3.7","yes","yes","600bd7cfb6416f0113b04181","602110864497cf011d9c0822","0","j","NA","j","j","j","NA","j","689","NA","4092","14028","8467","NA","689","2","legacy","1024","2","48000","-16","task","5115063","odd","NA","42354","48450","44357","96640","5838","28362","19890","97143","NA","96637","97143","96577","48450","97833","39246","96077","5789","93257","Lexical Decision Task","7","32479","19","yes","1024"
"3.16326079","0","5","parg","non-word","35","35","1773.95","1773.95","black","no","legacy","legacy","legacy","0","uniform","0","undefined","undefined","undefined","0","f","0","0","0","0","19","0","0","0","19","NA","15","19","15","0","15","3","19","0","19","Wed Feb 17 16:38:18 2021","The main experiment item","yes","Lexical_Decision_Task.osexp","/Users/loradimitrova","no","Andale Mono","no","18","no","white","no","yes","576","legacy","15","15","3","/Users/loradimitrova/subject-5115063.csv","legacy","Lentiform Loewenfeld","3.3.7","yes","yes","600bd7cfb6416f0113b04181","602110864497cf011d9c0822","0","None","NA","j","j","j","NA","None","3000","NA","4092","14028","8467","NA","3000","2","legacy","1024","2","48000","-16","task","5115063","odd","NA","42354","48450","44357","99401","5838","28362","19890","99904","NA","99398","99904","99337","48450","102904","39246","96077","5789","97837","Lexical Decision Task","7","35479","20","yes","1024"
"2.67699827","0","6","hulf","non-word","33.333333333333336","33.333333333333336","1725.952380952381","1725.952380952381","black","no","legacy","legacy","legacy","0","uniform","0","undefined","undefined","undefined","0","f","0","0","0","0","20","0","0","0","20","NA","16","20","16","0","16","3","20","0","20","Wed Feb 17 16:38:18 2021","The main experiment item","yes","Lexical_Decision_Task.osexp","/Users/loradimitrova","no","Andale Mono","no","18","no","white","no","yes","576","legacy","16","16","3","/Users/loradimitrova/subject-5115063.csv","legacy","Lentiform Loewenfeld","3.3.7","yes","yes","600bd7cfb6416f0113b04181","602110864497cf011d9c0822","0","j","NA","j","j","j","NA","j","766","NA","4092","14028","8467","NA","766","2","legacy","1024","2","48000","-16","task","5115063","odd","NA","42354","48450","44357","104476","5838","28362","19890","104980","NA","104473","104980","104408","48450","105747","39246","96077","5789","102907","Lexical Decision Task","7","36245","21","yes","1024"
"3.372543801","9.24","8","coat","word","36.36363636363637","36.36363636363637","1682","1682","black","no","legacy","legacy","legacy","0","uniform","1","undefined","undefined","undefined","1","j","0","0","0","0","21","0","0","0","21","NA","17","21","17","0","17","3","21","0","21","Wed Feb 17 16:38:18 2021","The main experiment item","yes","Lexical_Decision_Task.osexp","/Users/loradimitrova","no","Andale Mono","no","18","no","white","no","yes","576","legacy","17","17","3","/Users/loradimitrova/subject-5115063.csv","legacy","Lentiform Loewenfeld","3.3.7","yes","yes","600bd7cfb6416f0113b04181","602110864497cf011d9c0822","0","j","NA","j","j","j","NA","j","759","NA","4092","14028","8467","NA","759","2","legacy","1024","2","48000","-16","task","5115063","odd","NA","42354","48450","44357","107321","5838","28362","19890","107824","NA","107318","107824","107251","48450","108584","39246","96077","5789","105751","Lexical Decision Task","8","37004","22","yes","1024"
"2.69019608","9.01","2","myth","word","39.130434782608695","39.130434782608695","1637.8260869565217","1637.8260869565217","black","no","legacy","legacy","legacy","0","uniform","1","undefined","undefined","undefined","1","j","0","0","0","0","22","0","0","0","22","NA","18","22","18","0","18","3","22","0","22","Wed Feb 17 16:38:18 2021","The main experiment item","yes","Lexical_Decision_Task.osexp","/Users/loradimitrova","no","Andale Mono","no","18","no","white","no","yes","576","legacy","18","18","3","/Users/loradimitrova/subject-5115063.csv","legacy","Lentiform Loewenfeld","3.3.7","yes","yes","600bd7cfb6416f0113b04181","602110864497cf011d9c0822","0","j","NA","j","j","j","NA","j","666","NA","4092","14028","8467","NA","666","2","legacy","1024","2","48000","-16","task","5115063","odd","NA","42354","48450","44357","109150","5838","28362","19890","109655","NA","109145","109655","109087","48450","110322","39246","108587","5789","105751","Lexical Decision Task","9","37670","23","yes","1024"
"3.299579929","0","2","flis","non-word","37.5","37.5","1694.5833333333333","1694.5833333333333","black","no","legacy","legacy","legacy","0","uniform","0","undefined","undefined","undefined","0","f","0","0","0","0","23","0","0","0","23","NA","19","23","19","0","19","3","23","0","23","Wed Feb 17 16:38:18 2021","The main experiment item","yes","Lexical_Decision_Task.osexp","/Users/loradimitrova","no","Andale Mono","no","18","no","white","no","yes","576","legacy","19","19","3","/Users/loradimitrova/subject-5115063.csv","legacy","Lentiform Loewenfeld","3.3.7","yes","yes","600bd7cfb6416f0113b04181","602110864497cf011d9c0822","0","None","NA","j","j","j","NA","None","3000","NA","4092","14028","8467","NA","3000","2","legacy","1024","2","48000","-16","task","5115063","odd","NA","42354","48450","44357","110894","5838","28362","19890","111397","NA","110887","111398","110826","48450","114398","39246","110326","5789","105751","Lexical Decision Task","9","40670","24","yes","1024"
"3.440331212","7.35","6","stew","word","40","40","1654","1654","black","no","legacy","legacy","legacy","0","uniform","1","undefined","undefined","undefined","1","j","0","0","0","0","24","0","0","0","24","NA","20","24","20","0","20","3","24","0","24","Wed Feb 17 16:38:18 2021","The main experiment item","yes","Lexical_Decision_Task.osexp","/Users/loradimitrova","no","Andale Mono","no","18","no","white","no","yes","576","legacy","20","20","3","/Users/loradimitrova/subject-5115063.csv","legacy","Lentiform Loewenfeld","3.3.7","yes","yes","600bd7cfb6416f0113b04181","602110864497cf011d9c0822","0","j","NA","j","j","j","NA","j","680","NA","4092","14028","8467","NA","680","2","legacy","1024","2","48000","-16","task","5115063","odd","NA","42354","48450","44357","115973","5838","28362","19890","116475","NA","115969","116476","115902","48450","117156","39246","110326","5789","114402","Lexical Decision Task","10","41350","25","yes","1024"
"2.778633532","0","3","jurp","non-word","38.46153846153846","38.46153846153846","1611.076923076923","1611.076923076923","black","no","legacy","legacy","legacy","0","uniform","0","undefined","undefined","undefined","0","f","0","0","0","0","25","0","0","0","25","NA","21","25","21","0","21","3","25","0","25","Wed Feb 17 16:38:18 2021","The main experiment item","yes","Lexical_Decision_Task.osexp","/Users/loradimitrova","no","Andale Mono","no","18","no","white","no","yes","576","legacy","21","21","3","/Users/loradimitrova/subject-5115063.csv","legacy","Lentiform Loewenfeld","3.3.7","yes","yes","600bd7cfb6416f0113b04181","602110864497cf011d9c0822","0","j","NA","j","j","j","NA","j","538","NA","4092","14028","8467","NA","538","2","legacy","1024","2","48000","-16","task","5115063","odd","NA","42354","48450","44357","117727","5838","28362","19890","118230","NA","117724","118230","117660","48450","118769","39246","117160","5789","114402","Lexical Decision Task","10","41888","26","yes","1024"
"2.821076612","0","4","lult","non-word","37.03703703703704","37.03703703703704","1604","1604","black","no","legacy","legacy","legacy","0","uniform","0","undefined","undefined","undefined","0","f","0","0","0","0","26","0","0","0","26","NA","22","26","22","0","22","3","26","0","26","Wed Feb 17 16:38:18 2021","The main experiment item","yes","Lexical_Decision_Task.osexp","/Users/loradimitrova","no","Andale Mono","no","18","no","white","no","yes","576","legacy","22","22","3","/Users/loradimitrova/subject-5115063.csv","legacy","Lentiform Loewenfeld","3.3.7","yes","yes","600bd7cfb6416f0113b04181","602110864497cf011d9c0822","0","j","NA","j","j","j","NA","j","1420","NA","4092","14028","8467","NA","1420","2","legacy","1024","2","48000","-16","task","5115063","odd","NA","42354","48450","44357","120341","5838","28362","19890","120844","NA","120337","120844","120272","48450","122265","39246","117160","5789","118772","Lexical Decision Task","10","43308","27","yes","1024"
"3.037294994","8.64","7","roof","word","39.285714285714285","39.285714285714285","1572.7857142857142","1572.7857142857142","black","no","legacy","legacy","legacy","0","uniform","1","undefined","undefined","undefined","1","j","0","0","0","0","27","0","0","0","27","NA","23","27","23","0","23","3","27","0","27","Wed Feb 17 16:38:18 2021","The main experiment item","yes","Lexical_Decision_Task.osexp","/Users/loradimitrova","no","Andale Mono","no","18","no","white","no","yes","576","legacy","23","23","3","/Users/loradimitrova/subject-5115063.csv","legacy","Lentiform Loewenfeld","3.3.7","yes","yes","600bd7cfb6416f0113b04181","602110864497cf011d9c0822","0","j","NA","j","j","j","NA","j","730","NA","4092","14028","8467","NA","730","2","legacy","1024","2","48000","-16","task","5115063","odd","NA","42354","48450","44357","123835","5838","28362","19890","124340","NA","123832","124340","123770","48450","125071","39246","117160","5789","122270","Lexical Decision Task","11","44038","28","yes","1024"
"3.263399331","0","8","cour","non-word","37.93103448275862","37.93103448275862","1554.2068965517242","1554.2068965517242","black","no","legacy","legacy","legacy","0","uniform","0","undefined","undefined","undefined","0","f","0","0","0","0","28","0","0","0","28","NA","24","28","24","0","24","3","28","0","28","Wed Feb 17 16:38:18 2021","The main experiment item","yes","Lexical_Decision_Task.osexp","/Users/loradimitrova","no","Andale Mono","no","18","no","white","no","yes","576","legacy","24","24","3","/Users/loradimitrova/subject-5115063.csv","legacy","Lentiform Loewenfeld","3.3.7","yes","yes","600bd7cfb6416f0113b04181","602110864497cf011d9c0822","0","j","NA","j","j","j","NA","j","1034","NA","4092","14028","8467","NA","1034","2","legacy","1024","2","48000","-16","task","5115063","odd","NA","42354","48450","44357","125638","5838","28362","19890","126142","NA","125635","126142","125574","48450","127177","39246","125074","5789","122270","Lexical Decision Task","11","45072","29","yes","1024"
"2.793790385","5.67","9","swab","word","40","40","1532.3","1532.3","black","no","legacy","legacy","legacy","0","uniform","1","undefined","undefined","undefined","1","j","0","0","0","0","29","0","0","0","29","NA","25","29","25","0","25","3","29","0","29","Wed Feb 17 16:38:18 2021","The main experiment item","yes","Lexical_Decision_Task.osexp","/Users/loradimitrova","no","Andale Mono","no","18","no","white","no","yes","576","legacy","25","25","3","/Users/loradimitrova/subject-5115063.csv","legacy","Lentiform Loewenfeld","3.3.7","yes","yes","600bd7cfb6416f0113b04181","602110864497cf011d9c0822","0","j","NA","j","j","j","NA","j","897","NA","4092","14028","8467","NA","897","2","legacy","1024","2","48000","-16","task","5115063","odd","NA","42354","48450","44357","128747","5838","28362","19890","129250","NA","128744","129250","128681","48450","130148","39246","125074","5789","127181","Lexical Decision Task","12","45969","30","yes","1024"
"3.067193647","6.73","6","raft","word","41.935483870967744","41.935483870967744","1508.0967741935483","1508.0967741935483","black","no","legacy","legacy","legacy","0","uniform","1","undefined","undefined","undefined","1","j","0","0","0","0","30","0","0","0","30","NA","26","30","26","0","26","3","30","0","30","Wed Feb 17 16:38:18 2021","The main experiment item","yes","Lexical_Decision_Task.osexp","/Users/loradimitrova","no","Andale Mono","no","18","no","white","no","yes","576","legacy","26","26","3","/Users/loradimitrova/subject-5115063.csv","legacy","Lentiform Loewenfeld","3.3.7","yes","yes","600bd7cfb6416f0113b04181","602110864497cf011d9c0822","0","j","NA","j","j","j","NA","j","782","NA","4092","14028","8467","NA","782","2","legacy","1024","2","48000","-16","task","5115063","odd","NA","42354","48450","44357","130713","5838","28362","19890","131216","NA","130709","131216","130652","48450","131999","39246","130152","5789","127181","Lexical Decision Task","13","46751","31","yes","1024"
"2.952953801","0","8","clax","non-word","40.625","40.625","1487.125","1487.125","black","no","legacy","legacy","legacy","0","uniform","0","undefined","undefined","undefined","0","f","0","0","0","0","31","0","0","0","31","NA","27","31","27","0","27","3","31","0","31","Wed Feb 17 16:38:18 2021","The main experiment item","yes","Lexical_Decision_Task.osexp","/Users/loradimitrova","no","Andale Mono","no","18","no","white","no","yes","576","legacy","27","27","3","/Users/loradimitrova/subject-5115063.csv","legacy","Lentiform Loewenfeld","3.3.7","yes","yes","600bd7cfb6416f0113b04181","602110864497cf011d9c0822","0","j","NA","j","j","j","NA","j","837","NA","4092","14028","8467","NA","837","2","legacy","1024","2","48000","-16","task","5115063","odd","NA","42354","48450","44357","132562","5838","28362","19890","133067","NA","132560","133067","132503","48450","133905","39246","132003","5789","127181","Lexical Decision Task","13","47588","32","yes","1024"
"3.252447662","9.67","9","boat","word","42.42424242424242","42.42424242424242","1460.1515151515152","1460.1515151515152","black","no","legacy","legacy","legacy","0","uniform","1","undefined","undefined","undefined","1","j","0","0","0","0","32","0","0","0","32","NA","28","32","28","0","28","3","32","0","32","Wed Feb 17 16:38:18 2021","The main experiment item","yes","Lexical_Decision_Task.osexp","/Users/loradimitrova","no","Andale Mono","no","18","no","white","no","yes","576","legacy","28","28","3","/Users/loradimitrova/subject-5115063.csv","legacy","Lentiform Loewenfeld","3.3.7","yes","yes","600bd7cfb6416f0113b04181","602110864497cf011d9c0822","0","j","NA","j","j","j","NA","j","597","NA","4092","14028","8467","NA","597","2","legacy","1024","2","48000","-16","task","5115063","odd","NA","42354","48450","44357","135480","5838","28362","19890","135983","NA","135476","135984","135409","48450","136582","39246","132003","5789","133909","Lexical Decision Task","14","48185","33","yes","1024"
"3.064581521","5.51","6","cask","word","44.11764705882353","44.11764705882353","1440.9705882352941","1440.9705882352941","black","no","legacy","legacy","legacy","0","uniform","1","undefined","undefined","undefined","1","j","0","0","0","0","33","0","0","0","33","NA","29","33","29","0","29","3","33","0","33","Wed Feb 17 16:38:18 2021","The main experiment item","yes","Lexical_Decision_Task.osexp","/Users/loradimitrova","no","Andale Mono","no","18","no","white","no","yes","576","legacy","29","29","3","/Users/loradimitrova/subject-5115063.csv","legacy","Lentiform Loewenfeld","3.3.7","yes","yes","600bd7cfb6416f0113b04181","602110864497cf011d9c0822","0","j","NA","j","j","j","NA","j","808","NA","4092","14028","8467","NA","808","2","legacy","1024","2","48000","-16","task","5115063","odd","NA","42354","48450","44357","137148","5838","28362","19890","137651","NA","137144","137651","137086","48450","138460","39246","136586","5789","133909","Lexical Decision Task","15","48993","34","yes","1024"
"2.971428938","9.86","7","spot","word","45.714285714285715","45.714285714285715","1422.1142857142856","1422.1142857142856","black","no","legacy","legacy","legacy","0","uniform","1","undefined","undefined","undefined","1","j","0","0","0","0","34","0","0","0","34","NA","30","34","30","0","30","3","34","0","34","Wed Feb 17 16:38:18 2021","The main experiment item","yes","Lexical_Decision_Task.osexp","/Users/loradimitrova","no","Andale Mono","no","18","no","white","no","yes","576","legacy","30","30","3","/Users/loradimitrova/subject-5115063.csv","legacy","Lentiform Loewenfeld","3.3.7","yes","yes","600bd7cfb6416f0113b04181","602110864497cf011d9c0822","0","j","NA","j","j","j","NA","j","781","NA","4092","14028","8467","NA","781","2","legacy","1024","2","48000","-16","task","5115063","odd","NA","42354","48450","44357","139028","5838","28362","19890","139532","NA","139023","139532","138964","48450","140314","39246","138464","5789","133909","Lexical Decision Task","16","49774","35","yes","1024"
"3.090140555","5.81","8","pout","word","44.44444444444444","44.44444444444444","1465.9444444444443","1465.9444444444443","black","no","legacy","legacy","legacy","0","uniform","0","undefined","undefined","undefined","0","j","0","0","0","0","35","0","0","0","35","NA","31","35","31","0","31","3","35","0","35","Wed Feb 17 16:38:18 2021","The main experiment item","yes","Lexical_Decision_Task.osexp","/Users/loradimitrova","no","Andale Mono","no","18","no","white","no","yes","576","legacy","31","31","3","/Users/loradimitrova/subject-5115063.csv","legacy","Lentiform Loewenfeld","3.3.7","yes","yes","600bd7cfb6416f0113b04181","602110864497cf011d9c0822","0","None","NA","j","j","j","NA","None","3000","NA","4092","14028","8467","NA","3000","2","legacy","1024","2","48000","-16","task","5115063","odd","NA","42354","48450","44357","140882","5838","28362","19890","141387","NA","140878","141387","140818","48450","144387","39246","140318","5789","133909","Lexical Decision Task","16","52774","36","yes","1024"
"3.062080345","0","6","tomp","non-word","43.24324324324324","43.24324324324324","1507.4054054054054","1507.4054054054054","black","no","legacy","legacy","legacy","0","uniform","0","undefined","undefined","undefined","0","f","0","0","0","0","36","0","0","0","36","NA","32","36","32","0","32","3","36","0","36","Wed Feb 17 16:38:18 2021","The main experiment item","yes","Lexical_Decision_Task.osexp","/Users/loradimitrova","no","Andale Mono","no","18","no","white","no","yes","576","legacy","32","32","3","/Users/loradimitrova/subject-5115063.csv","legacy","Lentiform Loewenfeld","3.3.7","yes","yes","600bd7cfb6416f0113b04181","602110864497cf011d9c0822","0","None","NA","j","j","j","NA","None","3000","NA","4092","14028","8467","NA","3000","2","legacy","1024","2","48000","-16","task","5115063","odd","NA","42354","48450","44357","145953","5838","28362","19890","146457","NA","145950","146457","145891","48450","149457","39246","140318","5789","144391","Lexical Decision Task","16","55774","37","yes","1024"
"3.165936429","0","7","leps","non-word","42.10526315789474","42.10526315789474","1546.6842105263158","1546.6842105263158","black","no","legacy","legacy","legacy","0","uniform","0","undefined","undefined","undefined","0","f","0","0","0","0","37","0","0","0","37","NA","33","37","33","0","33","3","37","0","37","Wed Feb 17 16:38:18 2021","The main experiment item","yes","Lexical_Decision_Task.osexp","/Users/loradimitrova","no","Andale Mono","no","18","no","white","no","yes","576","legacy","33","33","3","/Users/loradimitrova/subject-5115063.csv","legacy","Lentiform Loewenfeld","3.3.7","yes","yes","600bd7cfb6416f0113b04181","602110864497cf011d9c0822","0","None","NA","j","j","j","NA","None","3000","NA","4092","14028","8467","NA","3000","2","legacy","1024","2","48000","-16","task","5115063","odd","NA","42354","48450","44357","151030","5838","28362","19890","151534","NA","151026","151534","150965","48450","154534","39246","140318","5789","149465","Lexical Decision Task","16","58774","38","yes","1024"
"3.368162872","0","4","ferk","non-word","41.02564102564103","41.02564102564103","1522.820512820513","1522.820512820513","black","no","legacy","legacy","legacy","0","uniform","0","undefined","undefined","undefined","0","f","0","0","0","0","38","0","0","0","38","NA","34","38","34","0","34","3","38","0","38","Wed Feb 17 16:38:18 2021","The main experiment item","yes","Lexical_Decision_Task.osexp","/Users/loradimitrova","no","Andale Mono","no","18","no","white","no","yes","576","legacy","34","34","3","/Users/loradimitrova/subject-5115063.csv","legacy","Lentiform Loewenfeld","3.3.7","yes","yes","600bd7cfb6416f0113b04181","602110864497cf011d9c0822","0","j","NA","j","j","j","NA","j","616","NA","4092","14028","8467","NA","616","2","legacy","1024","2","48000","-16","task","5115063","odd","NA","42354","48450","44357","156104","5838","28362","19890","156607","NA","156099","156608","156038","48450","157225","39246","140318","5789","154538","Lexical Decision Task","16","59390","39","yes","1024"
"3.120025233","0","2","nyst","non-word","40","40","1503.375","1503.375","black","no","legacy","legacy","legacy","0","uniform","0","undefined","undefined","undefined","0","f","0","0","0","0","39","0","0","0","39","NA","35","39","35","0","35","3","39","0","39","Wed Feb 17 16:38:18 2021","The main experiment item","yes","Lexical_Decision_Task.osexp","/Users/loradimitrova","no","Andale Mono","no","18","no","white","no","yes","576","legacy","35","35","3","/Users/loradimitrova/subject-5115063.csv","legacy","Lentiform Loewenfeld","3.3.7","yes","yes","600bd7cfb6416f0113b04181","602110864497cf011d9c0822","0","j","NA","j","j","j","NA","j","745","NA","4092","14028","8467","NA","745","2","legacy","1024","2","48000","-16","task","5115063","odd","NA","42354","48450","44357","158797","5838","28362","19890","159301","NA","158792","159301","158729","48450","160047","39246","140318","5789","157229","Lexical Decision Task","16","60135","40","yes","1024"
"3.168890155","0","6","thet","non-word","39.02439024390244","39.02439024390244","1539.878048780488","1539.878048780488","black","no","legacy","legacy","legacy","0","uniform","0","undefined","undefined","undefined","0","f","0","0","0","0","40","0","0","0","40","NA","36","40","36","0","36","3","40","0","40","Wed Feb 17 16:38:18 2021","The main experiment item","yes","Lexical_Decision_Task.osexp","/Users/loradimitrova","no","Andale Mono","no","18","no","white","no","yes","576","legacy","36","36","3","/Users/loradimitrova/subject-5115063.csv","legacy","Lentiform Loewenfeld","3.3.7","yes","yes","600bd7cfb6416f0113b04181","602110864497cf011d9c0822","0","None","NA","j","j","j","NA","None","3000","NA","4092","14028","8467","NA","3000","2","legacy","1024","2","48000","-16","task","5115063","odd","NA","42354","48450","44357","161621","5838","28362","19890","162126","NA","161614","162126","161551","48450","165126","39246","140318","5789","160051","Lexical Decision Task","16","63135","41","yes","1024"
"2.924968096","0","4","phim","non-word","38.095238095238095","38.095238095238095","1574.642857142857","1574.642857142857","black","no","legacy","legacy","legacy","0","uniform","0","undefined","undefined","undefined","0","f","0","0","0","0","41","0","0","0","41","NA","37","41","37","0","37","3","41","0","41","Wed Feb 17 16:38:18 2021","The main experiment item","yes","Lexical_Decision_Task.osexp","/Users/loradimitrova","no","Andale Mono","no","18","no","white","no","yes","576","legacy","37","37","3","/Users/loradimitrova/subject-5115063.csv","legacy","Lentiform Loewenfeld","3.3.7","yes","yes","600bd7cfb6416f0113b04181","602110864497cf011d9c0822","0","None","NA","j","j","j","NA","None","3000","NA","4092","14028","8467","NA","3000","2","legacy","1024","2","48000","-16","task","5115063","odd","NA","42354","48450","44357","166699","5838","28362","19890","167203","NA","166696","167203","166632","48450","170203","39246","140318","5789","165131","Lexical Decision Task","16","66135","42","yes","1024"
"3.460446784","0","5","dess","non-word","37.2093023255814","37.2093023255814","1554.5348837209303","1554.5348837209303","black","no","legacy","legacy","legacy","0","uniform","0","undefined","undefined","undefined","0","f","0","0","0","0","42","0","0","0","42","NA","38","42","38","0","38","3","42","0","42","Wed Feb 17 16:38:18 2021","The main experiment item","yes","Lexical_Decision_Task.osexp","/Users/loradimitrova","no","Andale Mono","no","18","no","white","no","yes","576","legacy","38","38","3","/Users/loradimitrova/subject-5115063.csv","legacy","Lentiform Loewenfeld","3.3.7","yes","yes","600bd7cfb6416f0113b04181","602110864497cf011d9c0822","0","j","NA","j","j","j","NA","j","710","NA","4092","14028","8467","NA","710","2","legacy","1024","2","48000","-16","task","5115063","odd","NA","42354","48450","44357","171774","5838","28362","19890","172277","NA","171771","172277","171707","48450","172987","39246","140318","5789","170207","Lexical Decision Task","16","66845","43","yes","1024"
"2.8162413","0","5","nusk","non-word","36.36363636363637","36.36363636363637","1535.7272727272727","1535.7272727272727","black","no","legacy","legacy","legacy","0","uniform","0","undefined","undefined","undefined","0","f","0","0","0","0","43","0","0","0","43","NA","39","43","39","0","39","3","43","0","43","Wed Feb 17 16:38:18 2021","The main experiment item","yes","Lexical_Decision_Task.osexp","/Users/loradimitrova","no","Andale Mono","no","18","no","white","no","yes","576","legacy","39","39","3","/Users/loradimitrova/subject-5115063.csv","legacy","Lentiform Loewenfeld","3.3.7","yes","yes","600bd7cfb6416f0113b04181","602110864497cf011d9c0822","0","j","NA","j","j","j","NA","j","727","NA","4092","14028","8467","NA","727","2","legacy","1024","2","48000","-16","task","5115063","odd","NA","42354","48450","44357","174559","5838","28362","19890","175063","NA","174555","175063","174492","48450","175791","39246","140318","5789","172992","Lexical Decision Task","16","67572","44","yes","1024"
"2.7084209","0","8","vump","non-word","35.55555555555556","35.55555555555556","1568.2666666666667","1568.2666666666667","black","no","legacy","legacy","legacy","0","uniform","0","undefined","undefined","undefined","0","f","0","0","0","0","44","0","0","0","44","NA","40","44","40","0","40","3","44","0","44","Wed Feb 17 16:38:18 2021","The main experiment item","yes","Lexical_Decision_Task.osexp","/Users/loradimitrova","no","Andale Mono","no","18","no","white","no","yes","576","legacy","40","40","3","/Users/loradimitrova/subject-5115063.csv","legacy","Lentiform Loewenfeld","3.3.7","yes","yes","600bd7cfb6416f0113b04181","602110864497cf011d9c0822","0","None","NA","j","j","j","NA","None","3000","NA","4092","14028","8467","NA","3000","2","legacy","1024","2","48000","-16","task","5115063","odd","NA","42354","48450","44357","177364","5838","28362","19890","177869","NA","177360","177869","177295","48450","180869","39246","140318","5789","175795","Lexical Decision Task","16","70572","45","yes","1024"
"3.031408464","0","7","drow","non-word","34.78260869565217","34.78260869565217","1599.391304347826","1599.391304347826","black","no","legacy","legacy","legacy","0","uniform","0","undefined","undefined","undefined","0","f","0","0","0","0","45","0","0","0","45","NA","41","45","41","0","41","3","45","0","45","Wed Feb 17 16:38:18 2021","The main experiment item","yes","Lexical_Decision_Task.osexp","/Users/loradimitrova","no","Andale Mono","no","18","no","white","no","yes","576","legacy","41","41","3","/Users/loradimitrova/subject-5115063.csv","legacy","Lentiform Loewenfeld","3.3.7","yes","yes","600bd7cfb6416f0113b04181","602110864497cf011d9c0822","0","None","NA","j","j","j","NA","None","3000","NA","4092","14028","8467","NA","3000","2","legacy","1024","2","48000","-16","task","5115063","odd","NA","42354","48450","44357","182438","5838","28362","19890","182944","NA","182434","182944","182373","48450","185944","39246","140318","5789","180873","Lexical Decision Task","16","73572","46","yes","1024"
"3.488597715","0","9","nain","non-word","34.04255319148936","34.04255319148936","1584.872340425532","1584.872340425532","black","no","legacy","legacy","legacy","0","uniform","0","undefined","undefined","undefined","0","f","0","0","0","0","46","0","0","0","46","NA","42","46","42","0","42","3","46","0","46","Wed Feb 17 16:38:18 2021","The main experiment item","yes","Lexical_Decision_Task.osexp","/Users/loradimitrova","no","Andale Mono","no","18","no","white","no","yes","576","legacy","42","42","3","/Users/loradimitrova/subject-5115063.csv","legacy","Lentiform Loewenfeld","3.3.7","yes","yes","600bd7cfb6416f0113b04181","602110864497cf011d9c0822","0","j","NA","j","j","j","NA","j","917","NA","4092","14028","8467","NA","917","2","legacy","1024","2","48000","-16","task","5115063","odd","NA","42354","48450","44357","187520","5838","28362","19890","188024","NA","187513","188024","187448","48450","188942","39246","140318","5789","185948","Lexical Decision Task","16","74489","47","yes","1024"
"2.868644438","10.52","4","town","word","35.416666666666664","35.416666666666664","1561.9791666666667","1561.9791666666667","black","no","legacy","legacy","legacy","0","uniform","1","undefined","undefined","undefined","1","j","0","0","0","0","47","0","0","0","47","NA","43","47","43","0","43","3","47","0","47","Wed Feb 17 16:38:18 2021","The main experiment item","yes","Lexical_Decision_Task.osexp","/Users/loradimitrova","no","Andale Mono","no","18","no","white","no","yes","576","legacy","43","43","3","/Users/loradimitrova/subject-5115063.csv","legacy","Lentiform Loewenfeld","3.3.7","yes","yes","600bd7cfb6416f0113b04181","602110864497cf011d9c0822","0","j","NA","j","j","j","NA","j","486","NA","4092","14028","8467","NA","486","2","legacy","1024","2","48000","-16","task","5115063","odd","NA","42354","48450","44357","190514","5838","28362","19890","191018","NA","190508","191019","190446","48450","191506","39246","140318","5789","188946","Lexical Decision Task","17","74975","48","yes","1024"
"3.149629599","0","2","cleb","non-word","34.69387755102041","34.69387755102041","1542.9795918367347","1542.9795918367347","black","no","legacy","legacy","legacy","0","uniform","0","undefined","undefined","undefined","0","f","0","0","0","0","48","0","0","0","48","NA","44","48","44","0","44","3","48","0","48","Wed Feb 17 16:38:18 2021","The main experiment item","yes","Lexical_Decision_Task.osexp","/Users/loradimitrova","no","Andale Mono","no","18","no","white","no","yes","576","legacy","44","44","3","/Users/loradimitrova/subject-5115063.csv","legacy","Lentiform Loewenfeld","3.3.7","yes","yes","600bd7cfb6416f0113b04181","602110864497cf011d9c0822","0","j","NA","j","j","j","NA","j","631","NA","4092","14028","8467","NA","631","2","legacy","1024","2","48000","-16","task","5115063","odd","NA","42354","48450","44357","192078","5838","28362","19890","192581","NA","192075","192581","192012","48450","193213","39246","191512","5789","188946","Lexical Decision Task","17","75606","49","yes","1024"
"2.895974732","6.65","5","sift","word","34","34","1572.12","1572.12","black","no","legacy","legacy","legacy","0","uniform","0","undefined","undefined","undefined","0","j","0","0","0","0","49","0","0","0","49","NA","45","49","45","0","45","3","49","0","49","Wed Feb 17 16:38:18 2021","The main experiment item","yes","Lexical_Decision_Task.osexp","/Users/loradimitrova","no","Andale Mono","no","18","no","white","no","yes","576","legacy","45","45","3","/Users/loradimitrova/subject-5115063.csv","legacy","Lentiform Loewenfeld","3.3.7","yes","yes","600bd7cfb6416f0113b04181","602110864497cf011d9c0822","0","None","NA","j","j","j","NA","None","3000","NA","4092","14028","8467","NA","3000","2","legacy","1024","2","48000","-16","task","5115063","odd","NA","42354","48450","44357","194785","5838","28362","19890","195289","NA","194781","195289","194719","48450","198289","39246","191512","5789","193218","Lexical Decision Task","17","78606","50","yes","1024"
"3.133964479","0","8","graw","non-word","33.333333333333336","33.333333333333336","1553.137254901961","1553.137254901961","black","no","legacy","legacy","legacy","0","uniform","0","undefined","undefined","undefined","0","f","0","0","0","0","50","0","0","0","50","NA","46","50","46","0","46","3","50","0","50","Wed Feb 17 16:38:18 2021","The main experiment item","yes","Lexical_Decision_Task.osexp","/Users/loradimitrova","no","Andale Mono","no","18","no","white","no","yes","576","legacy","46","46","3","/Users/loradimitrova/subject-5115063.csv","legacy","Lentiform Loewenfeld","3.3.7","yes","yes","600bd7cfb6416f0113b04181","602110864497cf011d9c0822","0","j","NA","j","j","j","NA","j","604","NA","4092","14028","8467","NA","604","2","legacy","1024","2","48000","-16","task","5115063","odd","NA","42354","48450","44357","199867","5838","28362","19890","200370","NA","199857","200370","199793","48450","200975","39246","191512","5789","198292","Lexical Decision Task","17","79210","51","yes","1024"
"2.884795364","0","6","flob","non-word","32.69230769230769","32.69230769230769","1535.326923076923","1535.326923076923","black","no","legacy","legacy","legacy","0","uniform","0","undefined","undefined","undefined","0","f","0","0","0","0","51","0","0","0","51","NA","47","51","47","0","47","3","51","0","51","Wed Feb 17 16:38:18 2021","The main experiment item","yes","Lexical_Decision_Task.osexp","/Users/loradimitrova","no","Andale Mono","no","18","no","white","no","yes","576","legacy","47","47","3","/Users/loradimitrova/subject-5115063.csv","legacy","Lentiform Loewenfeld","3.3.7","yes","yes","600bd7cfb6416f0113b04181","602110864497cf011d9c0822","0","j","NA","j","j","j","NA","j","627","NA","4092","14028","8467","NA","627","2","legacy","1024","2","48000","-16","task","5115063","odd","NA","42354","48450","44357","202546","5838","28362","19890","203050","NA","202543","203050","202479","48450","203678","39246","191512","5789","200979","Lexical Decision Task","17","79837","52","yes","1024"
"3.131833513","7.66","4","limb","word","33.9622641509434","33.9622641509434","1516.3584905660377","1516.3584905660377","black","no","legacy","legacy","legacy","0","uniform","1","undefined","undefined","undefined","1","j","0","0","0","0","52","0","0","0","52","NA","48","52","48","0","48","3","52","0","52","Wed Feb 17 16:38:18 2021","The main experiment item","yes","Lexical_Decision_Task.osexp","/Users/loradimitrova","no","Andale Mono","no","18","no","white","no","yes","576","legacy","48","48","3","/Users/loradimitrova/subject-5115063.csv","legacy","Lentiform Loewenfeld","3.3.7","yes","yes","600bd7cfb6416f0113b04181","602110864497cf011d9c0822","0","j","NA","j","j","j","NA","j","530","NA","4092","14028","8467","NA","530","2","legacy","1024","2","48000","-16","task","5115063","odd","NA","42354","48450","44357","205249","5838","28362","19890","205752","NA","205245","205753","205182","48450","206284","39246","191512","5789","203681","Lexical Decision Task","18","80367","53","yes","1024"
"2.986323777","10.85","8","ship","word","35.18518518518518","35.18518518518518","1502.1666666666667","1502.1666666666667","black","no","legacy","legacy","legacy","0","uniform","1","undefined","undefined","undefined","1","j","0","0","0","0","53","0","0","0","53","NA","49","53","49","0","49","3","53","0","53","Wed Feb 17 16:38:18 2021","The main experiment item","yes","Lexical_Decision_Task.osexp","/Users/loradimitrova","no","Andale Mono","no","18","no","white","no","yes","576","legacy","49","49","3","/Users/loradimitrova/subject-5115063.csv","legacy","Lentiform Loewenfeld","3.3.7","yes","yes","600bd7cfb6416f0113b04181","602110864497cf011d9c0822","0","j","NA","j","j","j","NA","j","750","NA","4092","14028","8467","NA","750","2","legacy","1024","2","48000","-16","task","5115063","odd","NA","42354","48450","44357","206848","5838","28362","19890","207351","NA","206845","207351","206787","48450","208102","39246","206287","5789","203681","Lexical Decision Task","19","81117","54","yes","1024"
"3.15462682","0","6","noal","non-word","34.54545454545455","34.54545454545455","1529.4","1529.4","black","no","legacy","legacy","legacy","0","uniform","0","undefined","undefined","undefined","0","f","0","0","0","0","54","0","0","0","54","0","50","54","50","0","50","3","54","0","54","Wed Feb 17 16:38:18 2021","The main experiment item","yes","Lexical_Decision_Task.osexp","/Users/loradimitrova","no","Andale Mono","no","18","no","white","no","yes","576","legacy","50","50","3","/Users/loradimitrova/subject-5115063.csv","legacy","Lentiform Loewenfeld","3.3.7","yes","yes","600bd7cfb6416f0113b04181","602110864497cf011d9c0822","0","None","NA","j","j","j","j","None","3000","NA","4092","14028","8467","18742","3000","2","legacy","1024","2","48000","-16","task","5115063","odd","NA","42354","48450","44357","227442","5838","28362","19890","227945","208639","227440","227946","208607","48450","230946","39246","208106","5789","203681","Lexical Decision Task","19","84117","55","yes","1024"
"3.397302518","7.01","2","knit","word","35.714285714285715","35.714285714285715","1519.9107142857142","1519.9107142857142","black","no","legacy","legacy","legacy","0","uniform","1","undefined","undefined","undefined","1","j","0","0","0","0","55","0","0","0","55","0","51","55","51","0","51","3","55","0","55","Wed Feb 17 16:38:18 2021","The main experiment item","yes","Lexical_Decision_Task.osexp","/Users/loradimitrova","no","Andale Mono","no","18","no","white","no","yes","576","legacy","51","51","3","/Users/loradimitrova/subject-5115063.csv","legacy","Lentiform Loewenfeld","3.3.7","yes","yes","600bd7cfb6416f0113b04181","602110864497cf011d9c0822","0","j","NA","j","j","j","j","j","998","NA","4092","14028","8467","18742","998","2","legacy","1024","2","48000","-16","task","5115063","odd","NA","42354","48450","44357","232518","5838","28362","19890","233021","208639","232514","233021","232450","48450","234021","39246","208106","5789","230950","Lexical Decision Task","20","85115","56","yes","1024"
"2.812467698","0","7","hafe","non-word","35.08771929824562","35.08771929824562","1545.877192982456","1545.877192982456","black","no","legacy","legacy","legacy","0","uniform","0","undefined","undefined","undefined","0","f","0","0","0","0","56","0","0","0","56","0","52","56","52","0","52","3","56","0","56","Wed Feb 17 16:38:18 2021","The main experiment item","yes","Lexical_Decision_Task.osexp","/Users/loradimitrova","no","Andale Mono","no","18","no","white","no","yes","576","legacy","52","52","3","/Users/loradimitrova/subject-5115063.csv","legacy","Lentiform Loewenfeld","3.3.7","yes","yes","600bd7cfb6416f0113b04181","602110864497cf011d9c0822","0","None","NA","j","j","j","j","None","3000","NA","4092","14028","8467","18742","3000","2","legacy","1024","2","48000","-16","task","5115063","odd","NA","42354","48450","44357","234588","5838","28362","19890","235091","208639","234586","235091","234525","48450","238091","39246","234025","5789","230950","Lexical Decision Task","20","88115","57","yes","1024"
"2.953276337","6.32","4","thaw","word","36.206896551724135","36.206896551724135","1544.8103448275863","1544.8103448275863","black","no","legacy","legacy","legacy","0","uniform","1","undefined","undefined","undefined","1","j","0","0","0","0","57","0","0","0","57","0","53","57","53","0","53","3","57","0","57","Wed Feb 17 16:38:18 2021","The main experiment item","yes","Lexical_Decision_Task.osexp","/Users/loradimitrova","no","Andale Mono","no","18","no","white","no","yes","576","legacy","53","53","3","/Users/loradimitrova/subject-5115063.csv","legacy","Lentiform Loewenfeld","3.3.7","yes","yes","600bd7cfb6416f0113b04181","602110864497cf011d9c0822","0","j","NA","j","j","j","j","j","1484","NA","4092","14028","8467","18742","1484","2","legacy","1024","2","48000","-16","task","5115063","odd","NA","42354","48450","44357","239666","5838","28362","19890","240170","208639","239662","240170","239595","48450","241655","39246","234025","5789","238095","Lexical Decision Task","21","89599","58","yes","1024"
"3.2757719","0","5","slea","non-word","35.59322033898305","35.59322033898305","1569.4915254237287","1569.4915254237287","black","no","legacy","legacy","legacy","0","uniform","0","undefined","undefined","undefined","0","f","0","0","0","0","58","0","0","0","58","0","54","58","54","0","54","3","58","0","58","Wed Feb 17 16:38:18 2021","The main experiment item","yes","Lexical_Decision_Task.osexp","/Users/loradimitrova","no","Andale Mono","no","18","no","white","no","yes","576","legacy","54","54","3","/Users/loradimitrova/subject-5115063.csv","legacy","Lentiform Loewenfeld","3.3.7","yes","yes","600bd7cfb6416f0113b04181","602110864497cf011d9c0822","0","None","NA","j","j","j","j","None","3001","NA","4092","14028","8467","18742","3001","2","legacy","1024","2","48000","-16","task","5115063","odd","NA","42354","48450","44357","242224","5838","28362","19890","242727","208639","242221","242727","242159","48450","245728","39246","241659","5789","238095","Lexical Decision Task","21","92600","59","yes","1024"
"2.703007489","8.37","3","pulp","word","36.666666666666664","36.666666666666664","1555","1555","black","no","legacy","legacy","legacy","0","uniform","1","undefined","undefined","undefined","1","j","0","0","0","0","59","0","0","0","59","0","55","59","55","0","55","3","59","0","59","Wed Feb 17 16:38:18 2021","The main experiment item","yes","Lexical_Decision_Task.osexp","/Users/loradimitrova","no","Andale Mono","no","18","no","white","no","yes","576","legacy","55","55","3","/Users/loradimitrova/subject-5115063.csv","legacy","Lentiform Loewenfeld","3.3.7","yes","yes","600bd7cfb6416f0113b04181","602110864497cf011d9c0822","0","j","NA","j","j","j","j","j","700","NA","4092","14028","8467","18742","700","2","legacy","1024","2","48000","-16","task","5115063","odd","NA","42354","48450","44357","247286","5838","28362","19890","247789","208639","247284","247789","247233","48450","248490","39246","241659","5789","245733","Lexical Decision Task","22","93300","60","yes","1024"
"3.363486562","6.93","9","lush","word","37.704918032786885","37.704918032786885","1545.1803278688524","1545.1803278688524","black","no","legacy","legacy","legacy","0","uniform","1","undefined","undefined","undefined","1","j","0","0","0","0","60","0","0","0","60","0","56","60","56","0","56","3","60","0","60","Wed Feb 17 16:38:18 2021","The main experiment item","yes","Lexical_Decision_Task.osexp","/Users/loradimitrova","no","Andale Mono","no","18","no","white","no","yes","576","legacy","56","56","3","/Users/loradimitrova/subject-5115063.csv","legacy","Lentiform Loewenfeld","3.3.7","yes","yes","600bd7cfb6416f0113b04181","602110864497cf011d9c0822","0","j","NA","j","j","j","j","j","956","NA","4092","14028","8467","18742","956","2","legacy","1024","2","48000","-16","task","5115063","odd","NA","42354","48450","44357","249053","5838","28362","19890","249556","208639","249050","249556","248994","48450","250513","39246","248493","5789","245733","Lexical Decision Task","23","94256","61","yes","1024"
"3.303771854","0","9","dath","non-word","37.096774193548384","37.096774193548384","1533.9516129032259","1533.9516129032259","black","no","legacy","legacy","legacy","0","uniform","0","undefined","undefined","undefined","0","f","0","0","0","0","61","0","0","0","61","0","57","61","57","0","57","3","61","0","61","Wed Feb 17 16:38:18 2021","The main experiment item","yes","Lexical_Decision_Task.osexp","/Users/loradimitrova","no","Andale Mono","no","18","no","white","no","yes","576","legacy","57","57","3","/Users/loradimitrova/subject-5115063.csv","legacy","Lentiform Loewenfeld","3.3.7","yes","yes","600bd7cfb6416f0113b04181","602110864497cf011d9c0822","0","j","NA","j","j","j","j","j","849","NA","4092","14028","8467","18742","849","2","legacy","1024","2","48000","-16","task","5115063","odd","NA","42354","48450","44357","251090","5838","28362","19890","251593","208639","251085","251593","251018","48450","252443","39246","250518","5789","245733","Lexical Decision Task","23","95105","62","yes","1024"
"2.972357144","0","5","dasp","non-word","38.095238095238095","38.095238095238095","1530.5079365079366","1530.5079365079366","black","no","legacy","legacy","legacy","0","uniform","1","undefined","undefined","undefined","1","f","0","0","0","0","62","0","0","0","62","0","58","62","58","0","58","3","62","0","62","Wed Feb 17 16:38:18 2021","The main experiment item","yes","Lexical_Decision_Task.osexp","/Users/loradimitrova","no","Andale Mono","no","18","no","white","no","yes","576","legacy","58","58","3","/Users/loradimitrova/subject-5115063.csv","legacy","Lentiform Loewenfeld","3.3.7","yes","yes","600bd7cfb6416f0113b04181","602110864497cf011d9c0822","0","f","NA","j","j","j","j","f","1317","NA","4092","14028","8467","18742","1317","2","legacy","1024","2","48000","-16","task","5115063","odd","NA","42354","48450","44357","254014","5838","28362","19890","254518","208639","254010","254518","253946","48450","255836","39246","250518","5789","252446","Lexical Decision Task","24","96422","63","yes","1024"
"3.443783828","7.65","3","verb","word","39.0625","39.0625","1521.1875","1521.1875","black","no","legacy","legacy","legacy","0","uniform","1","undefined","undefined","undefined","1","j","0","0","0","0","63","0","0","0","63","0","59","63","59","0","59","3","63","0","63","Wed Feb 17 16:38:18 2021","The main experiment item","yes","Lexical_Decision_Task.osexp","/Users/loradimitrova","no","Andale Mono","no","18","no","white","no","yes","576","legacy","59","59","3","/Users/loradimitrova/subject-5115063.csv","legacy","Lentiform Loewenfeld","3.3.7","yes","yes","600bd7cfb6416f0113b04181","602110864497cf011d9c0822","0","j","NA","j","j","j","j","j","934","NA","4092","14028","8467","18742","934","2","legacy","1024","2","48000","-16","task","5115063","odd","NA","42354","48450","44357","256398","5838","28362","19890","256901","208639","256396","256901","256340","48450","257836","39246","255840","5789","252446","Lexical Decision Task","25","97356","64","yes","1024"
"2.972819734","0","4","scew","non-word","38.46153846153846","38.46153846153846","1513.3846153846155","1513.3846153846155","black","no","legacy","legacy","legacy","0","uniform","0","undefined","undefined","undefined","0","f","0","0","0","0","64","0","0","0","64","0","60","64","60","0","60","3","64","0","64","Wed Feb 17 16:38:18 2021","The main experiment item","yes","Lexical_Decision_Task.osexp","/Users/loradimitrova","no","Andale Mono","no","18","no","white","no","yes","576","legacy","60","60","3","/Users/loradimitrova/subject-5115063.csv","legacy","Lentiform Loewenfeld","3.3.7","yes","yes","600bd7cfb6416f0113b04181","602110864497cf011d9c0822","0","j","NA","j","j","j","j","j","1014","NA","4092","14028","8467","18742","1014","2","legacy","1024","2","48000","-16","task","5115063","odd","NA","42354","48450","44357","258399","5838","28362","19890","258902","208639","258396","258902","258340","48450","259918","39246","257840","5789","252446","Lexical Decision Task","25","98370","65","yes","1024"
"2.819763221","0","2","durp","non-word","37.878787878787875","37.878787878787875","1504.590909090909","1504.590909090909","black","no","legacy","legacy","legacy","0","uniform","0","undefined","undefined","undefined","0","f","0","0","0","0","65","0","0","0","65","0","61","65","61","0","61","3","65","0","65","Wed Feb 17 16:38:18 2021","The main experiment item","yes","Lexical_Decision_Task.osexp","/Users/loradimitrova","no","Andale Mono","no","18","no","white","no","yes","576","legacy","61","61","3","/Users/loradimitrova/subject-5115063.csv","legacy","Lentiform Loewenfeld","3.3.7","yes","yes","600bd7cfb6416f0113b04181","602110864497cf011d9c0822","0","j","NA","j","j","j","j","j","933","NA","4092","14028","8467","18742","933","2","legacy","1024","2","48000","-16","task","5115063","odd","NA","42354","48450","44357","261486","5838","28362","19890","261989","208639","261483","261989","261422","48450","262923","39246","257840","5789","259922","Lexical Decision Task","25","99303","66","yes","1024"
"2.68604012","0","3","mulb","non-word","38.80597014925373","38.80597014925373","1493.7164179104477","1493.7164179104477","black","no","legacy","legacy","legacy","0","uniform","1","undefined","undefined","undefined","1","f","0","0","0","0","66","0","0","0","66","0","62","66","62","0","62","3","66","0","66","Wed Feb 17 16:38:18 2021","The main experiment item","yes","Lexical_Decision_Task.osexp","/Users/loradimitrova","no","Andale Mono","no","18","no","white","no","yes","576","legacy","62","62","3","/Users/loradimitrova/subject-5115063.csv","legacy","Lentiform Loewenfeld","3.3.7","yes","yes","600bd7cfb6416f0113b04181","602110864497cf011d9c0822","0","f","NA","j","j","j","j","f","776","NA","4092","14028","8467","18742","776","2","legacy","1024","2","48000","-16","task","5115063","odd","NA","42354","48450","44357","264494","5838","28362","19890","264997","208639","264491","264997","264427","48450","265774","39246","257840","5789","262927","Lexical Decision Task","26","100079","67","yes","1024"
"3.495914186","0","4","peng","non-word","38.23529411764706","38.23529411764706","1485.0588235294117","1485.0588235294117","black","no","legacy","legacy","legacy","0","uniform","0","undefined","undefined","undefined","0","f","0","0","0","0","67","0","0","0","67","0","63","67","63","0","63","3","67","0","67","Wed Feb 17 16:38:18 2021","The main experiment item","yes","Lexical_Decision_Task.osexp","/Users/loradimitrova","no","Andale Mono","no","18","no","white","no","yes","576","legacy","63","63","3","/Users/loradimitrova/subject-5115063.csv","legacy","Lentiform Loewenfeld","3.3.7","yes","yes","600bd7cfb6416f0113b04181","602110864497cf011d9c0822","0","j","NA","j","j","j","j","j","905","NA","4092","14028","8467","18742","905","2","legacy","1024","2","48000","-16","task","5115063","odd","NA","42354","48450","44357","266341","5838","28362","19890","266844","208639","266338","266844","266278","48450","267750","39246","265778","5789","262927","Lexical Decision Task","26","100984","68","yes","1024"
"2.744553742","0","2","nawk","non-word","39.130434782608695","39.130434782608695","1482.7826086956522","1482.7826086956522","black","no","legacy","legacy","legacy","0","uniform","1","undefined","undefined","undefined","1","f","0","0","0","0","68","0","0","0","68","0","64","68","64","0","64","3","68","0","68","Wed Feb 17 16:38:18 2021","The main experiment item","yes","Lexical_Decision_Task.osexp","/Users/loradimitrova","no","Andale Mono","no","18","no","white","no","yes","576","legacy","64","64","3","/Users/loradimitrova/subject-5115063.csv","legacy","Lentiform Loewenfeld","3.3.7","yes","yes","600bd7cfb6416f0113b04181","602110864497cf011d9c0822","0","f","NA","j","j","j","j","f","1328","NA","4092","14028","8467","18742","1328","2","legacy","1024","2","48000","-16","task","5115063","odd","NA","42354","48450","44357","269324","5838","28362","19890","269827","208639","269321","269827","269254","48450","271156","39246","265778","5789","267754","Lexical Decision Task","27","102312","69","yes","1024"
"3.282244367","0","6","fute","non-word","40","40","1473.5857142857142","1473.5857142857142","black","no","legacy","legacy","legacy","0","uniform","1","undefined","undefined","undefined","1","f","0","0","0","0","69","0","0","0","69","0","65","69","65","0","65","3","69","0","69","Wed Feb 17 16:38:18 2021","The main experiment item","yes","Lexical_Decision_Task.osexp","/Users/loradimitrova","no","Andale Mono","no","18","no","white","no","yes","576","legacy","65","65","3","/Users/loradimitrova/subject-5115063.csv","legacy","Lentiform Loewenfeld","3.3.7","yes","yes","600bd7cfb6416f0113b04181","602110864497cf011d9c0822","0","f","NA","j","j","j","j","f","839","NA","4092","14028","8467","18742","839","2","legacy","1024","2","48000","-16","task","5115063","odd","NA","42354","48450","44357","271724","5838","28362","19890","272227","208639","271722","272227","271660","48450","273068","39246","271160","5789","267754","Lexical Decision Task","28","103151","70","yes","1024"
"3.039414119","0","9","meep","non-word","39.436619718309856","39.436619718309856","1468.5211267605634","1468.5211267605634","black","no","legacy","legacy","legacy","0","uniform","0","undefined","undefined","undefined","0","f","0","0","0","0","70","0","0","0","70","0","66","70","66","0","66","3","70","0","70","Wed Feb 17 16:38:18 2021","The main experiment item","yes","Lexical_Decision_Task.osexp","/Users/loradimitrova","no","Andale Mono","no","18","no","white","no","yes","576","legacy","66","66","3","/Users/loradimitrova/subject-5115063.csv","legacy","Lentiform Loewenfeld","3.3.7","yes","yes","600bd7cfb6416f0113b04181","602110864497cf011d9c0822","0","j","NA","j","j","j","j","j","1114","NA","4092","14028","8467","18742","1114","2","legacy","1024","2","48000","-16","task","5115063","odd","NA","42354","48450","44357","273633","5838","28362","19890","274135","208639","273630","274136","273572","48450","275251","39246","273072","5789","267754","Lexical Decision Task","28","104265","71","yes","1024"
"2.839898939","8.99","6","soap","word","40.27777777777778","40.27777777777778","1457.0833333333333","1457.0833333333333","black","no","legacy","legacy","legacy","0","uniform","1","undefined","undefined","undefined","1","j","0","0","0","0","71","0","0","0","71","0","67","71","67","0","67","3","71","0","71","Wed Feb 17 16:38:18 2021","The main experiment item","yes","Lexical_Decision_Task.osexp","/Users/loradimitrova","no","Andale Mono","no","18","no","white","no","yes","576","legacy","67","67","3","/Users/loradimitrova/subject-5115063.csv","legacy","Lentiform Loewenfeld","3.3.7","yes","yes","600bd7cfb6416f0113b04181","602110864497cf011d9c0822","0","j","NA","j","j","j","j","j","645","NA","4092","14028","8467","18742","645","2","legacy","1024","2","48000","-16","task","5115063","odd","NA","42354","48450","44357","276822","5838","28362","19890","277325","208639","276819","277325","276757","48450","277971","39246","273072","5789","275257","Lexical Decision Task","29","104910","72","yes","1024"
"3.081107167","0","6","chot","non-word","41.0958904109589","41.0958904109589","1466.7260273972602","1466.7260273972602","black","no","legacy","legacy","legacy","0","uniform","1","undefined","undefined","undefined","1","f","0","0","0","0","72","0","0","0","72","0","68","72","68","0","68","3","72","0","72","Wed Feb 17 16:38:18 2021","The main experiment item","yes","Lexical_Decision_Task.osexp","/Users/loradimitrova","no","Andale Mono","no","18","no","white","no","yes","576","legacy","68","68","3","/Users/loradimitrova/subject-5115063.csv","legacy","Lentiform Loewenfeld","3.3.7","yes","yes","600bd7cfb6416f0113b04181","602110864497cf011d9c0822","0","f","NA","j","j","j","j","f","2161","NA","4092","14028","8467","18742","2161","2","legacy","1024","2","48000","-16","task","5115063","odd","NA","42354","48450","44357","278536","5838","28362","19890","279039","208639","278533","279039","278475","48450","281201","39246","277975","5789","275257","Lexical Decision Task","30","107071","73","yes","1024"
"2.892836167","10.01","5","soft","word","41.891891891891895","41.891891891891895","1455.8108108108108","1455.8108108108108","black","no","legacy","legacy","legacy","0","uniform","1","undefined","undefined","undefined","1","j","0","0","0","0","73","0","0","0","73","0","69","73","69","0","69","3","73","0","73","Wed Feb 17 16:38:18 2021","The main experiment item","yes","Lexical_Decision_Task.osexp","/Users/loradimitrova","no","Andale Mono","no","18","no","white","no","yes","576","legacy","69","69","3","/Users/loradimitrova/subject-5115063.csv","legacy","Lentiform Loewenfeld","3.3.7","yes","yes","600bd7cfb6416f0113b04181","602110864497cf011d9c0822","0","j","NA","j","j","j","j","j","659","NA","4092","14028","8467","18742","659","2","legacy","1024","2","48000","-16","task","5115063","odd","NA","42354","48450","44357","281766","5838","28362","19890","282269","208639","281763","282269","281705","48450","282930","39246","281205","5789","275257","Lexical Decision Task","31","107730","74","yes","1024"
"2.899638141","0","3","hapt","non-word","41.333333333333336","41.333333333333336","1456.5466666666666","1456.5466666666666","black","no","legacy","legacy","legacy","0","uniform","0","undefined","undefined","undefined","0","f","0","0","0","0","74","0","0","0","74","0","70","74","70","0","70","3","74","0","74","Wed Feb 17 16:38:18 2021","The main experiment item","yes","Lexical_Decision_Task.osexp","/Users/loradimitrova","no","Andale Mono","no","18","no","white","no","yes","576","legacy","70","70","3","/Users/loradimitrova/subject-5115063.csv","legacy","Lentiform Loewenfeld","3.3.7","yes","yes","600bd7cfb6416f0113b04181","602110864497cf011d9c0822","0","j","NA","j","j","j","j","j","1511","NA","4092","14028","8467","18742","1511","2","legacy","1024","2","48000","-16","task","5115063","odd","NA","42354","48450","44357","283495","5838","28362","19890","283998","208639","283492","283998","283434","48450","285510","39246","282934","5789","275257","Lexical Decision Task","31","109241","75","yes","1024"
"2.86332286","6.71","2","feud","word","42.10526315789474","42.10526315789474","1446.75","1446.75","black","no","legacy","legacy","legacy","0","uniform","1","undefined","undefined","undefined","1","j","0","0","0","0","75","0","0","0","75","0","71","75","71","0","71","3","75","0","75","Wed Feb 17 16:38:18 2021","The main experiment item","yes","Lexical_Decision_Task.osexp","/Users/loradimitrova","no","Andale Mono","no","18","no","white","no","yes","576","legacy","71","71","3","/Users/loradimitrova/subject-5115063.csv","legacy","Lentiform Loewenfeld","3.3.7","yes","yes","600bd7cfb6416f0113b04181","602110864497cf011d9c0822","0","j","NA","j","j","j","j","j","712","NA","4092","14028","8467","18742","712","2","legacy","1024","2","48000","-16","task","5115063","odd","NA","42354","48450","44357","287086","5838","28362","19890","287589","208639","287082","287589","287014","48450","288302","39246","282934","5789","285514","Lexical Decision Task","32","109953","76","yes","1024"
"2.767650507","0","6","yolt","non-word","41.55844155844156","41.55844155844156","1439.6753246753246","1439.6753246753246","black","no","legacy","legacy","legacy","0","uniform","0","undefined","undefined","undefined","0","f","0","0","0","0","76","0","0","0","76","0","72","76","72","0","72","3","76","0","76","Wed Feb 17 16:38:18 2021","The main experiment item","yes","Lexical_Decision_Task.osexp","/Users/loradimitrova","no","Andale Mono","no","18","no","white","no","yes","576","legacy","72","72","3","/Users/loradimitrova/subject-5115063.csv","legacy","Lentiform Loewenfeld","3.3.7","yes","yes","600bd7cfb6416f0113b04181","602110864497cf011d9c0822","0","j","NA","j","j","j","j","j","902","NA","4092","14028","8467","18742","902","2","legacy","1024","2","48000","-16","task","5115063","odd","NA","42354","48450","44357","288867","5838","28362","19890","289370","208639","288864","289370","288806","48450","290273","39246","288306","5789","285514","Lexical Decision Task","32","110855","77","yes","1024"
"2.6599162","0","2","saff","non-word","41.02564102564103","41.02564102564103","1435.628205128205","1435.628205128205","black","no","legacy","legacy","legacy","0","uniform","0","undefined","undefined","undefined","0","f","0","0","0","0","77","0","0","0","77","0","73","77","73","0","73","3","77","0","77","Wed Feb 17 16:38:18 2021","The main experiment item","yes","Lexical_Decision_Task.osexp","/Users/loradimitrova","no","Andale Mono","no","18","no","white","no","yes","576","legacy","73","73","3","/Users/loradimitrova/subject-5115063.csv","legacy","Lentiform Loewenfeld","3.3.7","yes","yes","600bd7cfb6416f0113b04181","602110864497cf011d9c0822","0","j","NA","j","j","j","j","j","1124","NA","4092","14028","8467","18742","1124","2","legacy","1024","2","48000","-16","task","5115063","odd","NA","42354","48450","44357","291843","5838","28362","19890","292346","208639","291840","292346","291778","48450","293471","39246","288306","5789","290278","Lexical Decision Task","32","111979","78","yes","1024"
"2.6599162","0","6","flug","non-word","40.50632911392405","40.50632911392405","1435.2151898734178","1435.2151898734178","black","no","legacy","legacy","legacy","0","uniform","0","undefined","undefined","undefined","0","f","0","0","0","0","78","0","0","0","78","0","74","78","74","0","74","3","78","0","78","Wed Feb 17 16:38:18 2021","The main experiment item","yes","Lexical_Decision_Task.osexp","/Users/loradimitrova","no","Andale Mono","no","18","no","white","no","yes","576","legacy","74","74","3","/Users/loradimitrova/subject-5115063.csv","legacy","Lentiform Loewenfeld","3.3.7","yes","yes","600bd7cfb6416f0113b04181","602110864497cf011d9c0822","0","j","NA","j","j","j","j","j","1403","NA","4092","14028","8467","18742","1403","2","legacy","1024","2","48000","-16","task","5115063","odd","NA","42354","48450","44357","295039","5838","28362","19890","295542","208639","295036","295542","294975","48450","296946","39246","288306","5789","293475","Lexical Decision Task","32","113382","79","yes","1024"
"2.996511672","0","7","hoil","non-word","40","40","1430.925","1430.925","black","no","legacy","legacy","legacy","0","uniform","0","undefined","undefined","undefined","0","f","0","0","0","0","79","0","0","0","79","0","75","79","75","0","75","3","79","0","79","Wed Feb 17 16:38:18 2021","The main experiment item","yes","Lexical_Decision_Task.osexp","/Users/loradimitrova","no","Andale Mono","no","18","no","white","no","yes","576","legacy","75","75","3","/Users/loradimitrova/subject-5115063.csv","legacy","Lentiform Loewenfeld","3.3.7","yes","yes","600bd7cfb6416f0113b04181","602110864497cf011d9c0822","0","j","NA","j","j","j","j","j","1092","NA","4092","14028","8467","18742","1092","2","legacy","1024","2","48000","-16","task","5115063","odd","NA","42354","48450","44357","298515","5838","28362","19890","299018","208639","298512","299018","298450","48450","300111","39246","288306","5789","296950","Lexical Decision Task","32","114474","80","yes","1024"
"2.693726949","5.08","3","swig","word","40.74074074074074","40.74074074074074","1433.567901234568","1433.567901234568","black","no","legacy","legacy","legacy","0","uniform","1","undefined","undefined","undefined","1","j","0","0","0","0","80","0","0","0","80","0","76","80","76","0","76","3","80","0","80","Wed Feb 17 16:38:18 2021","The main experiment item","yes","Lexical_Decision_Task.osexp","/Users/loradimitrova","no","Andale Mono","no","18","no","white","no","yes","576","legacy","76","76","3","/Users/loradimitrova/subject-5115063.csv","legacy","Lentiform Loewenfeld","3.3.7","yes","yes","600bd7cfb6416f0113b04181","602110864497cf011d9c0822","0","j","NA","j","j","j","j","j","1645","NA","4092","14028","8467","18742","1645","2","legacy","1024","2","48000","-16","task","5115063","odd","NA","42354","48450","44357","301680","5838","28362","19890","302183","208639","301677","302183","301616","48450","303829","39246","288306","5789","300115","Lexical Decision Task","33","116119","81","yes","1024"
"3.208978517","10.33","4","fish","word","41.46341463414634","41.46341463414634","1427.658536585366","1427.658536585366","black","no","legacy","legacy","legacy","0","uniform","1","undefined","undefined","undefined","1","j","0","0","0","0","81","0","0","0","81","0","77","81","77","0","77","3","81","0","81","Wed Feb 17 16:38:18 2021","The main experiment item","yes","Lexical_Decision_Task.osexp","/Users/loradimitrova","no","Andale Mono","no","18","no","white","no","yes","576","legacy","77","77","3","/Users/loradimitrova/subject-5115063.csv","legacy","Lentiform Loewenfeld","3.3.7","yes","yes","600bd7cfb6416f0113b04181","602110864497cf011d9c0822","0","j","NA","j","j","j","j","j","949","NA","4092","14028","8467","18742","949","2","legacy","1024","2","48000","-16","task","5115063","odd","NA","42354","48450","44357","304394","5838","28362","19890","304897","208639","304391","304897","304333","48450","305847","39246","303833","5789","300115","Lexical Decision Task","34","117068","82","yes","1024"
"3.003891166","8.05","2","frog","word","42.16867469879518","42.16867469879518","1418.3855421686746","1418.3855421686746","black","no","legacy","legacy","legacy","0","uniform","1","undefined","undefined","undefined","1","j","0","0","0","0","82","0","0","0","82","0","78","82","78","0","78","3","82","0","82","Wed Feb 17 16:38:18 2021","The main experiment item","yes","Lexical_Decision_Task.osexp","/Users/loradimitrova","no","Andale Mono","no","18","no","white","no","yes","576","legacy","78","78","3","/Users/loradimitrova/subject-5115063.csv","legacy","Lentiform Loewenfeld","3.3.7","yes","yes","600bd7cfb6416f0113b04181","602110864497cf011d9c0822","0","j","NA","j","j","j","j","j","658","NA","4092","14028","8467","18742","658","2","legacy","1024","2","48000","-16","task","5115063","odd","NA","42354","48450","44357","306412","5838","28362","19890","306915","208639","306409","306915","306351","48450","307574","39246","305851","5789","300115","Lexical Decision Task","35","117726","83","yes","1024"
"3.248054965","7.86","5","glow","word","42.857142857142854","42.857142857142854","1409.0595238095239","1409.0595238095239","black","no","legacy","legacy","legacy","0","uniform","1","undefined","undefined","undefined","1","j","0","0","0","0","83","0","0","0","83","0","79","83","79","0","79","3","83","0","83","Wed Feb 17 16:38:18 2021","The main experiment item","yes","Lexical_Decision_Task.osexp","/Users/loradimitrova","no","Andale Mono","no","18","no","white","no","yes","576","legacy","79","79","3","/Users/loradimitrova/subject-5115063.csv","legacy","Lentiform Loewenfeld","3.3.7","yes","yes","600bd7cfb6416f0113b04181","602110864497cf011d9c0822","0","j","NA","j","j","j","j","j","635","NA","4092","14028","8467","18742","635","2","legacy","1024","2","48000","-16","task","5115063","odd","NA","42354","48450","44357","308138","5838","28362","19890","308640","208639","308136","308640","308078","48450","309276","39246","307578","5789","300115","Lexical Decision Task","36","118361","84","yes","1024"
"2.594027722","9.08","8","skip","word","43.529411764705884","43.529411764705884","1400.0941176470587","1400.0941176470587","black","no","legacy","legacy","legacy","0","uniform","1","undefined","undefined","undefined","1","j","0","0","0","0","84","0","0","0","84","0","80","84","80","0","80","3","84","0","84","Wed Feb 17 16:38:18 2021","The main experiment item","yes","Lexical_Decision_Task.osexp","/Users/loradimitrova","no","Andale Mono","no","18","no","white","no","yes","576","legacy","80","80","3","/Users/loradimitrova/subject-5115063.csv","legacy","Lentiform Loewenfeld","3.3.7","yes","yes","600bd7cfb6416f0113b04181","602110864497cf011d9c0822","0","j","NA","j","j","j","j","j","647","NA","4092","14028","8467","18742","647","2","legacy","1024","2","48000","-16","task","5115063","odd","NA","42354","48450","44357","309840","5838","28362","19890","310343","208639","309838","310343","309780","48450","310991","39246","309280","5789","300115","Lexical Decision Task","37","119008","85","yes","1024"
"2.784379519","0","2","snaf","non-word","44.18604651162791","44.18604651162791","1395.046511627907","1395.046511627907","black","no","legacy","legacy","legacy","0","uniform","1","undefined","undefined","undefined","1","f","0","0","0","0","85","0","0","0","85","0","81","85","81","0","81","3","85","0","85","Wed Feb 17 16:38:18 2021","The main experiment item","yes","Lexical_Decision_Task.osexp","/Users/loradimitrova","no","Andale Mono","no","18","no","white","no","yes","576","legacy","81","81","3","/Users/loradimitrova/subject-5115063.csv","legacy","Lentiform Loewenfeld","3.3.7","yes","yes","600bd7cfb6416f0113b04181","602110864497cf011d9c0822","0","f","NA","j","j","j","j","f","966","NA","4092","14028","8467","18742","966","2","legacy","1024","2","48000","-16","task","5115063","odd","NA","42354","48450","44357","311556","5838","28362","19890","312058","208639","311553","312058","311495","48450","313025","39246","310995","5789","300115","Lexical Decision Task","38","119974","86","yes","1024"
"2.979548375","8.71","4","soup","word","44.827586206896555","44.827586206896555","1385.712643678161","1385.712643678161","black","no","legacy","legacy","legacy","0","uniform","1","undefined","undefined","undefined","1","j","0","0","0","0","86","0","0","0","86","0","82","86","82","0","82","3","86","0","86","Wed Feb 17 16:38:18 2021","The main experiment item","yes","Lexical_Decision_Task.osexp","/Users/loradimitrova","no","Andale Mono","no","18","no","white","no","yes","576","legacy","82","82","3","/Users/loradimitrova/subject-5115063.csv","legacy","Lentiform Loewenfeld","3.3.7","yes","yes","600bd7cfb6416f0113b04181","602110864497cf011d9c0822","0","j","NA","j","j","j","j","j","583","NA","4092","14028","8467","18742","583","2","legacy","1024","2","48000","-16","task","5115063","odd","NA","42354","48450","44357","313589","5838","28362","19890","314092","208639","313586","314092","313528","48450","314676","39246","313028","5789","300115","Lexical Decision Task","39","120557","87","yes","1024"
"3.105055783","0","2","norp","non-word","45.45454545454545","45.45454545454545","1387.8863636363637","1387.8863636363637","black","no","legacy","legacy","legacy","0","uniform","1","undefined","undefined","undefined","1","f","0","0","0","0","87","0","0","0","87","0","83","87","83","0","83","3","87","0","87","Wed Feb 17 16:38:18 2021","The main experiment item","yes","Lexical_Decision_Task.osexp","/Users/loradimitrova","no","Andale Mono","no","18","no","white","no","yes","576","legacy","83","83","3","/Users/loradimitrova/subject-5115063.csv","legacy","Lentiform Loewenfeld","3.3.7","yes","yes","600bd7cfb6416f0113b04181","602110864497cf011d9c0822","0","f","NA","j","j","j","j","f","1577","NA","4092","14028","8467","18742","1577","2","legacy","1024","2","48000","-16","task","5115063","odd","NA","42354","48450","44357","315241","5838","28362","19890","315744","208639","315238","315744","315180","48450","317322","39246","314680","5789","300115","Lexical Decision Task","40","122134","88","yes","1024"
"3.194328374","9.42","6","harm","word","46.06741573033708","46.06741573033708","1379.6741573033707","1379.6741573033707","black","no","legacy","legacy","legacy","0","uniform","1","undefined","undefined","undefined","1","j","0","0","0","0","88","0","0","0","88","0","84","88","84","0","84","3","88","0","88","Wed Feb 17 16:38:18 2021","The main experiment item","yes","Lexical_Decision_Task.osexp","/Users/loradimitrova","no","Andale Mono","no","18","no","white","no","yes","576","legacy","84","84","3","/Users/loradimitrova/subject-5115063.csv","legacy","Lentiform Loewenfeld","3.3.7","yes","yes","600bd7cfb6416f0113b04181","602110864497cf011d9c0822","0","j","NA","j","j","j","j","j","657","NA","4092","14028","8467","18742","657","2","legacy","1024","2","48000","-16","task","5115063","odd","NA","42354","48450","44357","317888","5838","28362","19890","318391","208639","317886","318391","317827","48450","319049","39246","317327","5789","300115","Lexical Decision Task","41","122791","89","yes","1024"
"2.907588697","8.91","9","mood","word","46.666666666666664","46.666666666666664","1369.9666666666667","1369.9666666666667","black","no","legacy","legacy","legacy","0","uniform","1","undefined","undefined","undefined","1","j","0","0","0","0","89","0","0","0","89","0","85","89","85","0","85","3","89","0","89","Wed Feb 17 16:38:18 2021","The main experiment item","yes","Lexical_Decision_Task.osexp","/Users/loradimitrova","no","Andale Mono","no","18","no","white","no","yes","576","legacy","85","85","3","/Users/loradimitrova/subject-5115063.csv","legacy","Lentiform Loewenfeld","3.3.7","yes","yes","600bd7cfb6416f0113b04181","602110864497cf011d9c0822","0","j","NA","j","j","j","j","j","506","NA","4092","14028","8467","18742","506","2","legacy","1024","2","48000","-16","task","5115063","odd","NA","42354","48450","44357","319614","5838","28362","19890","320117","208639","319611","320117","319553","48450","320624","39246","319053","5789","300115","Lexical Decision Task","42","123297","90","yes","1024"
"2.95456409","0","4","taud","non-word","47.252747252747255","47.252747252747255","1369.2967032967033","1369.2967032967033","black","no","legacy","legacy","legacy","0","uniform","1","undefined","undefined","undefined","1","f","0","0","0","0","90","0","0","0","90","0","86","90","86","0","86","3","90","0","90","Wed Feb 17 16:38:18 2021","The main experiment item","yes","Lexical_Decision_Task.osexp","/Users/loradimitrova","no","Andale Mono","no","18","no","white","no","yes","576","legacy","86","86","3","/Users/loradimitrova/subject-5115063.csv","legacy","Lentiform Loewenfeld","3.3.7","yes","yes","600bd7cfb6416f0113b04181","602110864497cf011d9c0822","0","f","NA","j","j","j","j","f","1309","NA","4092","14028","8467","18742","1309","2","legacy","1024","2","48000","-16","task","5115063","odd","NA","42354","48450","44357","321189","5838","28362","19890","321692","208639","321186","321692","321128","48450","323002","39246","320628","5789","300115","Lexical Decision Task","43","124606","91","yes","1024"
"3.378276681","6.39","8","bran","word","46.73913043478261","46.73913043478261","1363.2717391304348","1363.2717391304348","black","no","legacy","legacy","legacy","0","uniform","0","undefined","undefined","undefined","0","j","0","0","0","0","91","0","0","0","91","0","87","91","87","0","87","3","91","0","91","Wed Feb 17 16:38:18 2021","The main experiment item","yes","Lexical_Decision_Task.osexp","/Users/loradimitrova","no","Andale Mono","no","18","no","white","no","yes","576","legacy","87","87","3","/Users/loradimitrova/subject-5115063.csv","legacy","Lentiform Loewenfeld","3.3.7","yes","yes","600bd7cfb6416f0113b04181","602110864497cf011d9c0822","0","f","NA","j","j","j","j","f","815","NA","4092","14028","8467","18742","815","2","legacy","1024","2","48000","-16","task","5115063","odd","NA","42354","48450","44357","323568","5838","28362","19890","324071","208639","323565","324071","323507","48450","324887","39246","323006","5789","300115","Lexical Decision Task","43","125421","92","yes","1024"
"2.696356389","0","1","pizz","non-word","47.31182795698925","47.31182795698925","1357.989247311828","1357.989247311828","black","no","legacy","legacy","legacy","0","uniform","1","undefined","undefined","undefined","1","f","0","0","0","0","92","0","0","0","92","0","88","92","88","0","88","3","92","0","92","Wed Feb 17 16:38:18 2021","The main experiment item","yes","Lexical_Decision_Task.osexp","/Users/loradimitrova","no","Andale Mono","no","18","no","white","no","yes","576","legacy","88","88","3","/Users/loradimitrova/subject-5115063.csv","legacy","Lentiform Loewenfeld","3.3.7","yes","yes","600bd7cfb6416f0113b04181","602110864497cf011d9c0822","0","f","NA","j","j","j","j","f","872","NA","4092","14028","8467","18742","872","2","legacy","1024","2","48000","-16","task","5115063","odd","NA","42354","48450","44357","326457","5838","28362","19890","326960","208639","326454","326960","326392","48450","327833","39246","323006","5789","324891","Lexical Decision Task","44","126293","93","yes","1024"
"3.043885998","0","9","gome","non-word","47.87234042553192","47.87234042553192","1352.7446808510638","1352.7446808510638","black","no","legacy","legacy","legacy","0","uniform","1","undefined","undefined","undefined","1","f","0","0","0","0","93","0","0","0","93","0","89","93","89","0","89","3","93","0","93","Wed Feb 17 16:38:18 2021","The main experiment item","yes","Lexical_Decision_Task.osexp","/Users/loradimitrova","no","Andale Mono","no","18","no","white","no","yes","576","legacy","89","89","3","/Users/loradimitrova/subject-5115063.csv","legacy","Lentiform Loewenfeld","3.3.7","yes","yes","600bd7cfb6416f0113b04181","602110864497cf011d9c0822","0","f","NA","j","j","j","j","f","865","NA","4092","14028","8467","18742","865","2","legacy","1024","2","48000","-16","task","5115063","odd","NA","42354","48450","44357","328398","5838","28362","19890","328901","208639","328395","328901","328337","48450","329767","39246","327837","5789","324891","Lexical Decision Task","45","127158","94","yes","1024"
"3.031812271","6.52","3","gulp","word","48.421052631578945","48.421052631578945","1346.5473684210526","1346.5473684210526","black","no","legacy","legacy","legacy","0","uniform","1","undefined","undefined","undefined","1","j","0","0","0","0","94","0","0","0","94","0","90","94","90","0","90","3","94","0","94","Wed Feb 17 16:38:18 2021","The main experiment item","yes","Lexical_Decision_Task.osexp","/Users/loradimitrova","no","Andale Mono","no","18","no","white","no","yes","576","legacy","90","90","3","/Users/loradimitrova/subject-5115063.csv","legacy","Lentiform Loewenfeld","3.3.7","yes","yes","600bd7cfb6416f0113b04181","602110864497cf011d9c0822","0","j","NA","j","j","j","j","j","764","NA","4092","14028","8467","18742","764","2","legacy","1024","2","48000","-16","task","5115063","odd","NA","42354","48450","44357","330332","5838","28362","19890","330835","208639","330329","330835","330271","48450","331600","39246","329771","5789","324891","Lexical Decision Task","46","127922","95","yes","1024"
"3.068433376","8.09","2","bulb","word","48.958333333333336","48.958333333333336","1338.28125","1338.28125","black","no","legacy","legacy","legacy","0","uniform","1","undefined","undefined","undefined","1","j","0","0","0","0","95","0","0","0","95","0","91","95","91","0","91","3","95","0","95","Wed Feb 17 16:38:18 2021","The main experiment item","yes","Lexical_Decision_Task.osexp","/Users/loradimitrova","no","Andale Mono","no","18","no","white","no","yes","576","legacy","91","91","3","/Users/loradimitrova/subject-5115063.csv","legacy","Lentiform Loewenfeld","3.3.7","yes","yes","600bd7cfb6416f0113b04181","602110864497cf011d9c0822","0","j","NA","j","j","j","j","j","553","NA","4092","14028","8467","18742","553","2","legacy","1024","2","48000","-16","task","5115063","odd","NA","42354","48450","44357","332164","5838","28362","19890","332667","208639","332161","332667","332104","48450","333221","39246","331604","5789","324891","Lexical Decision Task","47","128475","96","yes","1024"
"3.132473155","0","4","glim","non-word","48.45360824742268","48.45360824742268","1331.5257731958764","1331.5257731958764","black","no","legacy","legacy","legacy","0","uniform","0","undefined","undefined","undefined","0","f","0","0","0","0","96","0","0","0","96","0","92","96","92","0","92","3","96","0","96","Wed Feb 17 16:38:18 2021","The main experiment item","yes","Lexical_Decision_Task.osexp","/Users/loradimitrova","no","Andale Mono","no","18","no","white","no","yes","576","legacy","92","92","3","/Users/loradimitrova/subject-5115063.csv","legacy","Lentiform Loewenfeld","3.3.7","yes","yes","600bd7cfb6416f0113b04181","602110864497cf011d9c0822","0","j","NA","j","j","j","j","j","683","NA","4092","14028","8467","18742","683","2","legacy","1024","2","48000","-16","task","5115063","odd","NA","42354","48450","44357","333785","5838","28362","19890","334288","208639","333783","334288","333725","48450","334972","39246","333225","5789","324891","Lexical Decision Task","47","129158","97","yes","1024"
"3.261341392","5.08","8","reek","word","47.95918367346939","47.95918367346939","1325.8673469387754","1325.8673469387754","black","no","legacy","legacy","legacy","0","uniform","0","undefined","undefined","undefined","0","j","0","0","0","0","97","0","0","0","97","0","93","97","93","0","93","3","97","0","97","Wed Feb 17 16:38:18 2021","The main experiment item","yes","Lexical_Decision_Task.osexp","/Users/loradimitrova","no","Andale Mono","no","18","no","white","no","yes","576","legacy","93","93","3","/Users/loradimitrova/subject-5115063.csv","legacy","Lentiform Loewenfeld","3.3.7","yes","yes","600bd7cfb6416f0113b04181","602110864497cf011d9c0822","0","f","NA","j","j","j","j","f","777","NA","4092","14028","8467","18742","777","2","legacy","1024","2","48000","-16","task","5115063","odd","NA","42354","48450","44357","336541","5838","28362","19890","337044","208639","336537","337044","336476","48450","337822","39246","333225","5789","334976","Lexical Decision Task","47","129935","98","yes","1024"
"3.384413096","10.15","3","glad","word","48.484848484848484","48.484848484848484","1319.1919191919192","1319.1919191919192","black","no","legacy","legacy","legacy","0","uniform","1","undefined","undefined","undefined","1","j","0","0","0","0","98","0","0","0","98","0","94","98","94","0","94","3","98","0","98","Wed Feb 17 16:38:18 2021","The main experiment item","yes","Lexical_Decision_Task.osexp","/Users/loradimitrova","no","Andale Mono","no","18","no","white","no","yes","576","legacy","94","94","3","/Users/loradimitrova/subject-5115063.csv","legacy","Lentiform Loewenfeld","3.3.7","yes","yes","600bd7cfb6416f0113b04181","602110864497cf011d9c0822","0","j","NA","j","j","j","j","j","665","NA","4092","14028","8467","18742","665","2","legacy","1024","2","48000","-16","task","5115063","odd","NA","42354","48450","44357","339391","5838","28362","19890","339894","208639","339388","339894","339326","48450","340560","39246","333225","5789","337826","Lexical Decision Task","48","130600","99","yes","1024"
"3.082307743","9.68","8","camp","word","49","49","1315.43","1315.43","black","no","legacy","legacy","legacy","0","uniform","1","undefined","undefined","undefined","1","j","0","0","0","0","99","0","0","0","99","0","95","99","95","0","95","3","99","0","99","Wed Feb 17 16:38:18 2021","The main experiment item","yes","Lexical_Decision_Task.osexp","/Users/loradimitrova","no","Andale Mono","no","18","no","white","no","yes","576","legacy","95","95","3","/Users/loradimitrova/subject-5115063.csv","legacy","Lentiform Loewenfeld","3.3.7","yes","yes","600bd7cfb6416f0113b04181","602110864497cf011d9c0822","0","j","NA","j","j","j","j","j","943","NA","4092","14028","8467","18742","943","2","legacy","1024","2","48000","-16","task","5115063","odd","NA","42354","48450","44357","341124","5838","28362","19890","341627","208639","341121","341627","341063","48450","342571","39246","340563","5789","337826","Lexical Decision Task","49","131543","100","yes","1024"
"3.353210739","0","9","reet","non-word","49.504950495049506","49.504950495049506","1315.118811881188","1315.118811881188","black","no","legacy","legacy","legacy","0","uniform","1","undefined","undefined","undefined","1","f","0","0","0","0","100","0","0","0","100","0","96","100","96","0","96","3","100","0","100","Wed Feb 17 16:38:18 2021","The main experiment item","yes","Lexical_Decision_Task.osexp","/Users/loradimitrova","no","Andale Mono","no","18","no","white","no","yes","576","legacy","96","96","3","/Users/loradimitrova/subject-5115063.csv","legacy","Lentiform Loewenfeld","3.3.7","yes","yes","600bd7cfb6416f0113b04181","602110864497cf011d9c0822","0","f","NA","j","j","j","j","f","1284","NA","4092","14028","8467","18742","1284","2","legacy","1024","2","48000","-16","task","5115063","odd","NA","42354","48450","44357","343136","5838","28362","19890","343639","208639","343133","343639","343075","48450","344924","39246","342575","5789","337826","Lexical Decision Task","50","132827","101","yes","1024"
"3.22685757","9.99","7","roll","word","50","50","1309.362745098039","1309.362745098039","black","no","legacy","legacy","legacy","0","uniform","1","undefined","undefined","undefined","1","j","0","0","0","0","101","0","0","0","101","0","97","101","97","0","97","3","101","0","101","Wed Feb 17 16:38:18 2021","The main experiment item","yes","Lexical_Decision_Task.osexp","/Users/loradimitrova","no","Andale Mono","no","18","no","white","no","yes","576","legacy","97","97","3","/Users/loradimitrova/subject-5115063.csv","legacy","Lentiform Loewenfeld","3.3.7","yes","yes","600bd7cfb6416f0113b04181","602110864497cf011d9c0822","0","j","NA","j","j","j","j","j","728","NA","4092","14028","8467","18742","728","2","legacy","1024","2","48000","-16","task","5115063","odd","NA","42354","48450","44357","345488","5838","28362","19890","345991","208639","345485","345991","345428","48450","346720","39246","344928","5789","337826","Lexical Decision Task","51","133555","102","yes","1024"
