"Log_BG","Log_Freq_HAL","Ortho_N","Stimulus","Type","acc","accuracy","average_response_time","avg_rt","background","bidi","canvas_backend","clock_backend","color_backend","compensation","coordinates","correct","correct_Experimental_intro","correct_Introduction","correct_Practice_intro","correct_experimenter_kb","correct_response","count_End_Of_Experiment","count_End_Of_Practice","count_Experimental_Loop","count_Experimental_intro","count_Fixation","count_Introduction","count_Practice_Loop","count_Practice_intro","count_Stimulus","count_block_break_feedback","count_experimental_sequence","count_experimenter_kb","count_increment_trial_count","count_init_trial_count","count_logger","count_practice_sequence","count_right","count_task","count_wrong","datetime","description","disable_garbage_collection","experiment_file","experiment_path","font_bold","font_family","font_italic","font_size","font_underline","foreground","form_clicks","fullscreen","height","keyboard_backend","live_row","live_row_Experimental_Loop","live_row_Practice_Loop","logfile","mouse_backend","opensesame_codename","opensesame_version","osf_always_upload_data","osf_always_upload_experiment","osf_datanode_id","osf_id","repeat_cycle","response","response_End_Of_Experiment","response_Experimental_intro","response_Introduction","response_Practice_intro","response_block_break_feedback","response_experimenter_kb","response_time","response_time_End_Of_Experiment","response_time_Experimental_intro","response_time_Introduction","response_time_Practice_intro","response_time_block_break_feedback","response_time_experimenter_kb","round_decimals","sampler_backend","sound_buf_size","sound_channels","sound_freq","sound_sample_size","start","subject_nr","subject_parity","time_End_Of_Experiment","time_End_Of_Practice","time_Experimental_Loop","time_Experimental_intro","time_Fixation","time_Introduction","time_Practice_Loop","time_Practice_intro","time_Stimulus","time_block_break_feedback","time_experimental_sequence","time_experimenter_kb","time_increment_trial_count","time_init_trial_count","time_logger","time_practice_sequence","time_right","time_task","time_wrong","title","total_correct","total_response_time","total_responses","uniform_coordinates","width"
"2.698100546","0","9","mulk","non-word","100","100","642.2","642.2","black","no","legacy","legacy","legacy","0","uniform","1","undefined","undefined","undefined","1","f","0","0","0","0","4","0","0","0","4","NA","0","4","0","0","0","3","4","0","4","Thu Feb 18 11:39:57 2021","The main experiment item","yes","Lexical_Decision_Task.osexp","C:/Users/georg","no","Andale Mono","no","18","no","white","no","yes","576","legacy","0","0","3","C:/Users/georg/subject-5205095.csv","legacy","Lentiform Loewenfeld","3.3.7","yes","yes","600bd7cfb6416f0113b04181","602110864497cf011d9c0822","0","f","NA","j","j","j","NA","f","760","NA","2431","45796","1007","NA","760","2","legacy","1024","2","48000","-16","task","5205095","odd","NA","58552","62988","60556","63075","4588","51396","50388","63579","NA","63073","63580","NA","62988","64341","56916","57985","4576","NA","Lexical Decision Task","5","3211","5","yes","1024"
"3.134602053","0","8","jart","non-word","100","100","635.3333333333334","635.3333333333334","black","no","legacy","legacy","legacy","0","uniform","1","undefined","undefined","undefined","1","f","0","0","0","0","5","0","0","0","5","NA","1","5","1","0","1","3","5","0","5","Thu Feb 18 11:39:57 2021","The main experiment item","yes","Lexical_Decision_Task.osexp","C:/Users/georg","no","Andale Mono","no","18","no","white","no","yes","576","legacy","1","1","3","C:/Users/georg/subject-5205095.csv","legacy","Lentiform Loewenfeld","3.3.7","yes","yes","600bd7cfb6416f0113b04181","602110864497cf011d9c0822","0","f","NA","j","j","j","NA","f","601","NA","2431","45796","1007","NA","601","2","legacy","1024","2","48000","-16","task","5205095","odd","NA","58552","62988","60556","65016","4588","51396","50388","65519","NA","65014","65519","64864","62988","66122","56916","64363","4576","NA","Lexical Decision Task","6","3812","6","yes","1024"
"3.274543461","7.46","7","scar","word","100","100","625","625","black","no","legacy","legacy","legacy","0","uniform","1","undefined","undefined","undefined","1","j","0","0","0","0","6","0","0","0","6","NA","2","6","2","0","2","3","6","0","6","Thu Feb 18 11:39:57 2021","The main experiment item","yes","Lexical_Decision_Task.osexp","C:/Users/georg","no","Andale Mono","no","18","no","white","no","yes","576","legacy","2","2","3","C:/Users/georg/subject-5205095.csv","legacy","Lentiform Loewenfeld","3.3.7","yes","yes","600bd7cfb6416f0113b04181","602110864497cf011d9c0822","0","j","NA","j","j","j","NA","j","563","NA","2431","45796","1007","NA","563","2","legacy","1024","2","48000","-16","task","5205095","odd","NA","58552","62988","60556","66788","4588","51396","50388","67292","NA","66784","67292","66638","62988","67857","56916","66138","4576","NA","Lexical Decision Task","7","4375","7","yes","1024"
"3.368162872","0","4","ferk","non-word","100","100","613.125","613.125","black","no","legacy","legacy","legacy","0","uniform","1","undefined","undefined","undefined","1","f","0","0","0","0","7","0","0","0","7","NA","3","7","3","0","3","3","7","0","7","Thu Feb 18 11:39:57 2021","The main experiment item","yes","Lexical_Decision_Task.osexp","C:/Users/georg","no","Andale Mono","no","18","no","white","no","yes","576","legacy","3","3","3","C:/Users/georg/subject-5205095.csv","legacy","Lentiform Loewenfeld","3.3.7","yes","yes","600bd7cfb6416f0113b04181","602110864497cf011d9c0822","0","f","NA","j","j","j","NA","f","530","NA","2431","45796","1007","NA","530","2","legacy","1024","2","48000","-16","task","5205095","odd","NA","58552","62988","60556","68564","4588","51396","50388","69068","NA","68562","69069","68376","62988","69600","56916","67876","4576","NA","Lexical Decision Task","8","4905","8","yes","1024"
"3.088136089","8.32","9","worm","word","100","100","621.3333333333334","621.3333333333334","black","no","legacy","legacy","legacy","0","uniform","1","undefined","undefined","undefined","1","j","0","0","0","0","8","0","0","0","8","NA","4","8","4","0","4","3","8","0","8","Thu Feb 18 11:39:57 2021","The main experiment item","yes","Lexical_Decision_Task.osexp","C:/Users/georg","no","Andale Mono","no","18","no","white","no","yes","576","legacy","4","4","3","C:/Users/georg/subject-5205095.csv","legacy","Lentiform Loewenfeld","3.3.7","yes","yes","600bd7cfb6416f0113b04181","602110864497cf011d9c0822","0","j","NA","j","j","j","NA","j","687","NA","2431","45796","1007","NA","687","2","legacy","1024","2","48000","-16","task","5205095","odd","NA","58552","62988","60556","70251","4588","51396","50388","70755","NA","70248","70755","70114","62988","71443","56916","69614","4576","NA","Lexical Decision Task","9","5592","9","yes","1024"
"2.9737419","7.69","7","claw","word","100","100","625.5","625.5","black","no","legacy","legacy","legacy","0","uniform","1","undefined","undefined","undefined","1","j","0","0","0","0","9","0","0","0","9","NA","5","9","5","0","5","3","9","0","9","Thu Feb 18 11:39:57 2021","The main experiment item","yes","Lexical_Decision_Task.osexp","C:/Users/georg","no","Andale Mono","no","18","no","white","no","yes","576","legacy","5","5","3","C:/Users/georg/subject-5205095.csv","legacy","Lentiform Loewenfeld","3.3.7","yes","yes","600bd7cfb6416f0113b04181","602110864497cf011d9c0822","0","j","NA","j","j","j","NA","j","663","NA","2431","45796","1007","NA","663","2","legacy","1024","2","48000","-16","task","5205095","odd","NA","58552","62988","60556","72091","4588","51396","50388","72595","NA","72089","72595","71959","62988","73259","56916","71459","4576","NA","Lexical Decision Task","10","6255","10","yes","1024"
"2.884795364","0","6","flob","non-word","100","100","620.7272727272727","620.7272727272727","black","no","legacy","legacy","legacy","0","uniform","1","undefined","undefined","undefined","1","f","0","0","0","0","10","0","0","0","10","NA","6","10","6","0","6","3","10","0","10","Thu Feb 18 11:39:57 2021","The main experiment item","yes","Lexical_Decision_Task.osexp","C:/Users/georg","no","Andale Mono","no","18","no","white","no","yes","576","legacy","6","6","3","C:/Users/georg/subject-5205095.csv","legacy","Lentiform Loewenfeld","3.3.7","yes","yes","600bd7cfb6416f0113b04181","602110864497cf011d9c0822","0","f","NA","j","j","j","NA","f","573","NA","2431","45796","1007","NA","573","2","legacy","1024","2","48000","-16","task","5205095","odd","NA","58552","62988","60556","73910","4588","51396","50388","74414","NA","73907","74414","73773","62988","74988","56916","73273","4576","NA","Lexical Decision Task","11","6828","11","yes","1024"
"2.858136002","0","4","phip","non-word","100","100","629.5","629.5","black","no","legacy","legacy","legacy","0","uniform","1","undefined","undefined","undefined","1","f","0","0","0","0","11","0","0","0","11","NA","7","11","7","0","7","3","11","0","11","Thu Feb 18 11:39:57 2021","The main experiment item","yes","Lexical_Decision_Task.osexp","C:/Users/georg","no","Andale Mono","no","18","no","white","no","yes","576","legacy","7","7","3","C:/Users/georg/subject-5205095.csv","legacy","Lentiform Loewenfeld","3.3.7","yes","yes","600bd7cfb6416f0113b04181","602110864497cf011d9c0822","0","f","NA","j","j","j","NA","f","726","NA","2431","45796","1007","NA","726","2","legacy","1024","2","48000","-16","task","5205095","odd","NA","58552","62988","60556","75659","4588","51396","50388","76163","NA","75656","76164","75507","62988","76890","56916","75007","4576","NA","Lexical Decision Task","12","7554","12","yes","1024"
"2.744553742","0","2","nawk","non-word","100","100","650.6923076923077","650.6923076923077","black","no","legacy","legacy","legacy","0","uniform","1","undefined","undefined","undefined","1","f","0","0","0","0","12","0","0","0","12","NA","8","12","8","0","8","3","12","0","12","Thu Feb 18 11:39:57 2021","The main experiment item","yes","Lexical_Decision_Task.osexp","C:/Users/georg","no","Andale Mono","no","18","no","white","no","yes","576","legacy","8","8","3","C:/Users/georg/subject-5205095.csv","legacy","Lentiform Loewenfeld","3.3.7","yes","yes","600bd7cfb6416f0113b04181","602110864497cf011d9c0822","0","f","NA","j","j","j","NA","f","905","NA","2431","45796","1007","NA","905","2","legacy","1024","2","48000","-16","task","5205095","odd","NA","58552","62988","60556","77574","4588","51396","50388","78078","NA","77571","78078","77403","62988","78988","56916","76903","4576","NA","Lexical Decision Task","13","8459","13","yes","1024"
"2.728085817","10.02","9","bike","word","100","100","636","636","black","no","legacy","legacy","legacy","0","uniform","1","undefined","undefined","undefined","1","j","0","0","0","0","13","0","0","0","13","NA","9","13","9","0","9","3","13","0","13","Thu Feb 18 11:39:57 2021","The main experiment item","yes","Lexical_Decision_Task.osexp","C:/Users/georg","no","Andale Mono","no","18","no","white","no","yes","576","legacy","9","9","3","C:/Users/georg/subject-5205095.csv","legacy","Lentiform Loewenfeld","3.3.7","yes","yes","600bd7cfb6416f0113b04181","602110864497cf011d9c0822","0","j","NA","j","j","j","NA","j","445","NA","2431","45796","1007","NA","445","2","legacy","1024","2","48000","-16","task","5205095","odd","NA","58552","62988","60556","79637","4588","51396","50388","80141","NA","79634","80141","79502","62988","80587","56916","79002","4576","NA","Lexical Decision Task","14","8904","14","yes","1024"
"3.067070856","9.39","3","loud","word","100","100","640.5333333333333","640.5333333333333","black","no","legacy","legacy","legacy","0","uniform","1","undefined","undefined","undefined","1","j","0","0","0","0","14","0","0","0","14","NA","10","14","10","0","10","3","14","0","14","Thu Feb 18 11:39:57 2021","The main experiment item","yes","Lexical_Decision_Task.osexp","C:/Users/georg","no","Andale Mono","no","18","no","white","no","yes","576","legacy","10","10","3","C:/Users/georg/subject-5205095.csv","legacy","Lentiform Loewenfeld","3.3.7","yes","yes","600bd7cfb6416f0113b04181","602110864497cf011d9c0822","0","j","NA","j","j","j","NA","j","704","NA","2431","45796","1007","NA","704","2","legacy","1024","2","48000","-16","task","5205095","odd","NA","58552","62988","60556","81234","4588","51396","50388","81738","NA","81232","81739","81101","62988","82444","56916","80601","4576","NA","Lexical Decision Task","15","9608","15","yes","1024"
"3.378276681","6.39","8","bran","word","93.75","93.75","638.8125","638.8125","black","no","legacy","legacy","legacy","0","uniform","0","undefined","undefined","undefined","0","j","0","0","0","0","15","0","0","0","15","NA","11","15","11","0","11","3","15","0","15","Thu Feb 18 11:39:57 2021","The main experiment item","yes","Lexical_Decision_Task.osexp","C:/Users/georg","no","Andale Mono","no","18","no","white","no","yes","576","legacy","11","11","3","C:/Users/georg/subject-5205095.csv","legacy","Lentiform Loewenfeld","3.3.7","yes","yes","600bd7cfb6416f0113b04181","602110864497cf011d9c0822","0","f","NA","j","j","j","NA","f","613","NA","2431","45796","1007","NA","613","2","legacy","1024","2","48000","-16","task","5205095","odd","NA","58552","62988","60556","83111","4588","51396","50388","83615","NA","83109","83615","82959","62988","84229","56916","82459","4576","NA","Lexical Decision Task","15","10221","16","yes","1024"
"3.366547468","0","6","plat","non-word","94.11764705882354","94.11764705882354","639.9411764705883","639.9411764705883","black","no","legacy","legacy","legacy","0","uniform","1","undefined","undefined","undefined","1","f","0","0","0","0","16","0","0","0","16","NA","12","16","12","0","12","3","16","0","16","Thu Feb 18 11:39:57 2021","The main experiment item","yes","Lexical_Decision_Task.osexp","C:/Users/georg","no","Andale Mono","no","18","no","white","no","yes","576","legacy","12","12","3","C:/Users/georg/subject-5205095.csv","legacy","Lentiform Loewenfeld","3.3.7","yes","yes","600bd7cfb6416f0113b04181","602110864497cf011d9c0822","0","f","NA","j","j","j","NA","f","658","NA","2431","45796","1007","NA","658","2","legacy","1024","2","48000","-16","task","5205095","odd","NA","58552","62988","60556","85880","4588","51396","50388","86384","NA","85878","86384","85743","62988","87047","56916","82459","4576","84243","Lexical Decision Task","16","10879","17","yes","1024"
"3.168890155","0","6","thet","non-word","94.44444444444444","94.44444444444444","667.9444444444445","667.9444444444445","black","no","legacy","legacy","legacy","0","uniform","1","undefined","undefined","undefined","1","f","0","0","0","0","17","0","0","0","17","NA","13","17","13","0","13","3","17","0","17","Thu Feb 18 11:39:57 2021","The main experiment item","yes","Lexical_Decision_Task.osexp","C:/Users/georg","no","Andale Mono","no","18","no","white","no","yes","576","legacy","13","13","3","C:/Users/georg/subject-5205095.csv","legacy","Lentiform Loewenfeld","3.3.7","yes","yes","600bd7cfb6416f0113b04181","602110864497cf011d9c0822","0","f","NA","j","j","j","NA","f","1144","NA","2431","45796","1007","NA","1144","2","legacy","1024","2","48000","-16","task","5205095","odd","NA","58552","62988","60556","87704","4588","51396","50388","88208","NA","87702","88209","87565","62988","89354","56916","87065","4576","84243","Lexical Decision Task","17","12023","18","yes","1024"
"2.966923697","5.4","2","fume","word","94.73684210526316","94.73684210526316","676.3684210526316","676.3684210526316","black","no","legacy","legacy","legacy","0","uniform","1","undefined","undefined","undefined","1","j","0","0","0","0","18","0","0","0","18","NA","14","18","14","0","14","3","18","0","18","Thu Feb 18 11:39:57 2021","The main experiment item","yes","Lexical_Decision_Task.osexp","C:/Users/georg","no","Andale Mono","no","18","no","white","no","yes","576","legacy","14","14","3","C:/Users/georg/subject-5205095.csv","legacy","Lentiform Loewenfeld","3.3.7","yes","yes","600bd7cfb6416f0113b04181","602110864497cf011d9c0822","0","j","NA","j","j","j","NA","j","828","NA","2431","45796","1007","NA","828","2","legacy","1024","2","48000","-16","task","5205095","odd","NA","58552","62988","60556","90005","4588","51396","50388","90509","NA","90002","90509","89871","62988","91339","56916","89371","4576","84243","Lexical Decision Task","18","12851","19","yes","1024"
"2.64476673","0","5","moft","non-word","95","95","685.25","685.25","black","no","legacy","legacy","legacy","0","uniform","1","undefined","undefined","undefined","1","f","0","0","0","0","19","0","0","0","19","NA","15","19","15","0","15","3","19","0","19","Thu Feb 18 11:39:57 2021","The main experiment item","yes","Lexical_Decision_Task.osexp","C:/Users/georg","no","Andale Mono","no","18","no","white","no","yes","576","legacy","15","15","3","C:/Users/georg/subject-5205095.csv","legacy","Lentiform Loewenfeld","3.3.7","yes","yes","600bd7cfb6416f0113b04181","602110864497cf011d9c0822","0","f","NA","j","j","j","NA","f","854","NA","2431","45796","1007","NA","854","2","legacy","1024","2","48000","-16","task","5205095","odd","NA","58552","62988","60556","91980","4588","51396","50388","92484","NA","91977","92484","91853","62988","93339","56916","91353","4576","84243","Lexical Decision Task","19","13705","20","yes","1024"
"3.397302518","7.01","2","knit","word","95.23809523809524","95.23809523809524","681.7142857142857","681.7142857142857","black","no","legacy","legacy","legacy","0","uniform","1","undefined","undefined","undefined","1","j","0","0","0","0","20","0","0","0","20","NA","16","20","16","0","16","3","20","0","20","Thu Feb 18 11:39:57 2021","The main experiment item","yes","Lexical_Decision_Task.osexp","C:/Users/georg","no","Andale Mono","no","18","no","white","no","yes","576","legacy","16","16","3","C:/Users/georg/subject-5205095.csv","legacy","Lentiform Loewenfeld","3.3.7","yes","yes","600bd7cfb6416f0113b04181","602110864497cf011d9c0822","0","j","NA","j","j","j","NA","j","611","NA","2431","45796","1007","NA","611","2","legacy","1024","2","48000","-16","task","5205095","odd","NA","58552","62988","60556","93992","4588","51396","50388","94496","NA","93989","94497","93857","62988","95110","56916","93357","4576","84243","Lexical Decision Task","20","14316","21","yes","1024"
"2.839268497","0","8","maft","non-word","95.45454545454545","95.45454545454545","686.6363636363636","686.6363636363636","black","no","legacy","legacy","legacy","0","uniform","1","undefined","undefined","undefined","1","f","0","0","0","0","21","0","0","0","21","NA","17","21","17","0","17","3","21","0","21","Thu Feb 18 11:39:57 2021","The main experiment item","yes","Lexical_Decision_Task.osexp","C:/Users/georg","no","Andale Mono","no","18","no","white","no","yes","576","legacy","17","17","3","C:/Users/georg/subject-5205095.csv","legacy","Lentiform Loewenfeld","3.3.7","yes","yes","600bd7cfb6416f0113b04181","602110864497cf011d9c0822","0","f","NA","j","j","j","NA","f","790","NA","2431","45796","1007","NA","790","2","legacy","1024","2","48000","-16","task","5205095","odd","NA","58552","62988","60556","95752","4588","51396","50388","96257","NA","95749","96257","95623","62988","97049","56916","95123","4576","84243","Lexical Decision Task","21","15106","22","yes","1024"
"3.043885998","0","9","gome","non-word","91.30434782608695","91.30434782608695","701.3478260869565","701.3478260869565","black","no","legacy","legacy","legacy","0","uniform","0","undefined","undefined","undefined","0","f","0","0","0","0","22","0","0","0","22","NA","18","22","18","0","18","3","22","0","22","Thu Feb 18 11:39:57 2021","The main experiment item","yes","Lexical_Decision_Task.osexp","C:/Users/georg","no","Andale Mono","no","18","no","white","no","yes","576","legacy","18","18","3","C:/Users/georg/subject-5205095.csv","legacy","Lentiform Loewenfeld","3.3.7","yes","yes","600bd7cfb6416f0113b04181","602110864497cf011d9c0822","0","j","NA","j","j","j","NA","j","1025","NA","2431","45796","1007","NA","1025","2","legacy","1024","2","48000","-16","task","5205095","odd","NA","58552","62988","60556","97762","4588","51396","50388","98266","NA","97759","98266","97568","62988","99292","56916","97068","4576","84243","Lexical Decision Task","21","16131","23","yes","1024"
"3.303771854","0","9","dath","non-word","91.66666666666667","91.66666666666667","702.7916666666666","702.7916666666666","black","no","legacy","legacy","legacy","0","uniform","1","undefined","undefined","undefined","1","f","0","0","0","0","23","0","0","0","23","NA","19","23","19","0","19","3","23","0","23","Thu Feb 18 11:39:57 2021","The main experiment item","yes","Lexical_Decision_Task.osexp","C:/Users/georg","no","Andale Mono","no","18","no","white","no","yes","576","legacy","19","19","3","C:/Users/georg/subject-5205095.csv","legacy","Lentiform Loewenfeld","3.3.7","yes","yes","600bd7cfb6416f0113b04181","602110864497cf011d9c0822","0","f","NA","j","j","j","NA","f","736","NA","2431","45796","1007","NA","736","2","legacy","1024","2","48000","-16","task","5205095","odd","NA","58552","62988","60556","100940","4588","51396","50388","101444","NA","100938","101444","100806","62988","102181","56916","97068","4576","99305","Lexical Decision Task","22","16867","24","yes","1024"
"3.076883066","0","8","mout","non-word","92","92","704.84","704.84","black","no","legacy","legacy","legacy","0","uniform","1","undefined","undefined","undefined","1","f","0","0","0","0","24","0","0","0","24","NA","20","24","20","0","20","3","24","0","24","Thu Feb 18 11:39:57 2021","The main experiment item","yes","Lexical_Decision_Task.osexp","C:/Users/georg","no","Andale Mono","no","18","no","white","no","yes","576","legacy","20","20","3","C:/Users/georg/subject-5205095.csv","legacy","Lentiform Loewenfeld","3.3.7","yes","yes","600bd7cfb6416f0113b04181","602110864497cf011d9c0822","0","f","NA","j","j","j","NA","f","754","NA","2431","45796","1007","NA","754","2","legacy","1024","2","48000","-16","task","5205095","odd","NA","58552","62988","60556","102828","4588","51396","50388","103331","NA","102825","103331","102696","62988","104087","56916","102195","4576","99305","Lexical Decision Task","23","17621","25","yes","1024"
"2.807758206","6.25","4","hurl","word","92.3076923076923","92.3076923076923","707.5384615384615","707.5384615384615","black","no","legacy","legacy","legacy","0","uniform","1","undefined","undefined","undefined","1","j","0","0","0","0","25","0","0","0","25","NA","21","25","21","0","21","3","25","0","25","Thu Feb 18 11:39:57 2021","The main experiment item","yes","Lexical_Decision_Task.osexp","C:/Users/georg","no","Andale Mono","no","18","no","white","no","yes","576","legacy","21","21","3","C:/Users/georg/subject-5205095.csv","legacy","Lentiform Loewenfeld","3.3.7","yes","yes","600bd7cfb6416f0113b04181","602110864497cf011d9c0822","0","j","NA","j","j","j","NA","j","775","NA","2431","45796","1007","NA","775","2","legacy","1024","2","48000","-16","task","5205095","odd","NA","58552","62988","60556","104735","4588","51396","50388","105239","NA","104732","105239","104606","62988","106018","56916","104104","4576","99305","Lexical Decision Task","24","18396","26","yes","1024"
"2.814027728","8.2","4","foam","word","92.5925925925926","92.5925925925926","704.1851851851852","704.1851851851852","black","no","legacy","legacy","legacy","0","uniform","1","undefined","undefined","undefined","1","j","0","0","0","0","26","0","0","0","26","NA","22","26","22","0","22","3","26","0","26","Thu Feb 18 11:39:57 2021","The main experiment item","yes","Lexical_Decision_Task.osexp","C:/Users/georg","no","Andale Mono","no","18","no","white","no","yes","576","legacy","22","22","3","C:/Users/georg/subject-5205095.csv","legacy","Lentiform Loewenfeld","3.3.7","yes","yes","600bd7cfb6416f0113b04181","602110864497cf011d9c0822","0","j","NA","j","j","j","NA","j","617","NA","2431","45796","1007","NA","617","2","legacy","1024","2","48000","-16","task","5205095","odd","NA","58552","62988","60556","106663","4588","51396","50388","107167","NA","106660","107167","106535","62988","107785","56916","106035","4576","99305","Lexical Decision Task","25","19013","27","yes","1024"
"2.6599162","0","6","flug","non-word","92.85714285714286","92.85714285714286","701.8571428571429","701.8571428571429","black","no","legacy","legacy","legacy","0","uniform","1","undefined","undefined","undefined","1","f","0","0","0","0","27","0","0","0","27","NA","23","27","23","0","23","3","27","0","27","Thu Feb 18 11:39:57 2021","The main experiment item","yes","Lexical_Decision_Task.osexp","C:/Users/georg","no","Andale Mono","no","18","no","white","no","yes","576","legacy","23","23","3","C:/Users/georg/subject-5205095.csv","legacy","Lentiform Loewenfeld","3.3.7","yes","yes","600bd7cfb6416f0113b04181","602110864497cf011d9c0822","0","f","NA","j","j","j","NA","f","639","NA","2431","45796","1007","NA","639","2","legacy","1024","2","48000","-16","task","5205095","odd","NA","58552","62988","60556","108489","4588","51396","50388","108993","NA","108486","108993","108300","62988","109633","56916","107800","4576","99305","Lexical Decision Task","26","19652","28","yes","1024"
"2.668385917","5.48","4","twig","word","93.10344827586206","93.10344827586206","697.4827586206897","697.4827586206897","black","no","legacy","legacy","legacy","0","uniform","1","undefined","undefined","undefined","1","j","0","0","0","0","28","0","0","0","28","NA","24","28","24","0","24","3","28","0","28","Thu Feb 18 11:39:57 2021","The main experiment item","yes","Lexical_Decision_Task.osexp","C:/Users/georg","no","Andale Mono","no","18","no","white","no","yes","576","legacy","24","24","3","C:/Users/georg/subject-5205095.csv","legacy","Lentiform Loewenfeld","3.3.7","yes","yes","600bd7cfb6416f0113b04181","602110864497cf011d9c0822","0","j","NA","j","j","j","NA","j","575","NA","2431","45796","1007","NA","575","2","legacy","1024","2","48000","-16","task","5205095","odd","NA","58552","62988","60556","110277","4588","51396","50388","110782","NA","110274","110782","110151","62988","111358","56916","109650","4576","99305","Lexical Decision Task","27","20227","29","yes","1024"
"2.713490543","0","3","feps","non-word","93.33333333333333","93.33333333333333","692.3666666666667","692.3666666666667","black","no","legacy","legacy","legacy","0","uniform","1","undefined","undefined","undefined","1","f","0","0","0","0","29","0","0","0","29","NA","25","29","25","0","25","3","29","0","29","Thu Feb 18 11:39:57 2021","The main experiment item","yes","Lexical_Decision_Task.osexp","C:/Users/georg","no","Andale Mono","no","18","no","white","no","yes","576","legacy","25","25","3","C:/Users/georg/subject-5205095.csv","legacy","Lentiform Loewenfeld","3.3.7","yes","yes","600bd7cfb6416f0113b04181","602110864497cf011d9c0822","0","f","NA","j","j","j","NA","f","544","NA","2431","45796","1007","NA","544","2","legacy","1024","2","48000","-16","task","5205095","odd","NA","58552","62988","60556","112009","4588","51396","50388","112513","NA","112007","112513","111872","62988","113059","56916","111372","4576","99305","Lexical Decision Task","28","20771","30","yes","1024"
"2.95456409","0","4","taud","non-word","90.3225806451613","90.3225806451613","688.3225806451613","688.3225806451613","black","no","legacy","legacy","legacy","0","uniform","0","undefined","undefined","undefined","0","f","0","0","0","0","30","0","0","0","30","NA","26","30","26","0","26","3","30","0","30","Thu Feb 18 11:39:57 2021","The main experiment item","yes","Lexical_Decision_Task.osexp","C:/Users/georg","no","Andale Mono","no","18","no","white","no","yes","576","legacy","26","26","3","C:/Users/georg/subject-5205095.csv","legacy","Lentiform Loewenfeld","3.3.7","yes","yes","600bd7cfb6416f0113b04181","602110864497cf011d9c0822","0","j","NA","j","j","j","NA","j","567","NA","2431","45796","1007","NA","567","2","legacy","1024","2","48000","-16","task","5205095","odd","NA","58552","62988","60556","113707","4588","51396","50388","114211","NA","113704","114211","113573","62988","114778","56916","113073","4576","99305","Lexical Decision Task","28","21338","31","yes","1024"
"3.031812271","6.52","3","gulp","word","87.5","87.5","703.0625","703.0625","black","no","legacy","legacy","legacy","0","uniform","0","undefined","undefined","undefined","0","j","0","0","0","0","31","0","0","0","31","NA","27","31","27","0","27","3","31","0","31","Thu Feb 18 11:39:57 2021","The main experiment item","yes","Lexical_Decision_Task.osexp","C:/Users/georg","no","Andale Mono","no","18","no","white","no","yes","576","legacy","27","27","3","C:/Users/georg/subject-5205095.csv","legacy","Lentiform Loewenfeld","3.3.7","yes","yes","600bd7cfb6416f0113b04181","602110864497cf011d9c0822","0","f","NA","j","j","j","NA","f","1160","NA","2431","45796","1007","NA","1160","2","legacy","1024","2","48000","-16","task","5205095","odd","NA","58552","62988","60556","116420","4588","51396","50388","116924","NA","116417","116924","116292","62988","118084","56916","113073","4576","114792","Lexical Decision Task","28","22498","32","yes","1024"
"3.081107167","0","6","chot","non-word","87.87878787878788","87.87878787878788","707.939393939394","707.939393939394","black","no","legacy","legacy","legacy","0","uniform","1","undefined","undefined","undefined","1","f","0","0","0","0","32","0","0","0","32","NA","28","32","28","0","28","3","32","0","32","Thu Feb 18 11:39:57 2021","The main experiment item","yes","Lexical_Decision_Task.osexp","C:/Users/georg","no","Andale Mono","no","18","no","white","no","yes","576","legacy","28","28","3","C:/Users/georg/subject-5205095.csv","legacy","Lentiform Loewenfeld","3.3.7","yes","yes","600bd7cfb6416f0113b04181","602110864497cf011d9c0822","0","f","NA","j","j","j","NA","f","864","NA","2431","45796","1007","NA","864","2","legacy","1024","2","48000","-16","task","5205095","odd","NA","58552","62988","60556","119732","4588","51396","50388","120236","NA","119730","120236","119600","62988","121104","56916","113073","4576","118098","Lexical Decision Task","29","23362","33","yes","1024"
"2.664011697","8.19","4","hawk","word","88.23529411764706","88.23529411764706","706.8529411764706","706.8529411764706","black","no","legacy","legacy","legacy","0","uniform","1","undefined","undefined","undefined","1","j","0","0","0","0","33","0","0","0","33","NA","29","33","29","0","29","3","33","0","33","Thu Feb 18 11:39:57 2021","The main experiment item","yes","Lexical_Decision_Task.osexp","C:/Users/georg","no","Andale Mono","no","18","no","white","no","yes","576","legacy","29","29","3","C:/Users/georg/subject-5205095.csv","legacy","Lentiform Loewenfeld","3.3.7","yes","yes","600bd7cfb6416f0113b04181","602110864497cf011d9c0822","0","j","NA","j","j","j","NA","j","671","NA","2431","45796","1007","NA","671","2","legacy","1024","2","48000","-16","task","5205095","odd","NA","58552","62988","60556","121751","4588","51396","50388","122255","NA","121749","122255","121617","62988","122927","56916","121117","4576","118098","Lexical Decision Task","30","24033","34","yes","1024"
"2.719886232","7.98","2","quiz","word","88.57142857142857","88.57142857142857","704.8285714285714","704.8285714285714","black","no","legacy","legacy","legacy","0","uniform","1","undefined","undefined","undefined","1","j","0","0","0","0","34","0","0","0","34","NA","30","34","30","0","30","3","34","0","34","Thu Feb 18 11:39:57 2021","The main experiment item","yes","Lexical_Decision_Task.osexp","C:/Users/georg","no","Andale Mono","no","18","no","white","no","yes","576","legacy","30","30","3","C:/Users/georg/subject-5205095.csv","legacy","Lentiform Loewenfeld","3.3.7","yes","yes","600bd7cfb6416f0113b04181","602110864497cf011d9c0822","0","j","NA","j","j","j","NA","j","636","NA","2431","45796","1007","NA","636","2","legacy","1024","2","48000","-16","task","5205095","odd","NA","58552","62988","60556","123570","4588","51396","50388","124074","NA","123569","124074","123441","62988","124711","56916","122941","4576","118098","Lexical Decision Task","31","24669","35","yes","1024"
"3.156347201","0","8","lasp","non-word","88.88888888888889","88.88888888888889","708.5833333333334","708.5833333333334","black","no","legacy","legacy","legacy","0","uniform","1","undefined","undefined","undefined","1","f","0","0","0","0","35","0","0","0","35","NA","31","35","31","0","31","3","35","0","35","Thu Feb 18 11:39:57 2021","The main experiment item","yes","Lexical_Decision_Task.osexp","C:/Users/georg","no","Andale Mono","no","18","no","white","no","yes","576","legacy","31","31","3","C:/Users/georg/subject-5205095.csv","legacy","Lentiform Loewenfeld","3.3.7","yes","yes","600bd7cfb6416f0113b04181","602110864497cf011d9c0822","0","f","NA","j","j","j","NA","f","840","NA","2431","45796","1007","NA","840","2","legacy","1024","2","48000","-16","task","5205095","odd","NA","58552","62988","60556","125366","4588","51396","50388","125869","NA","125363","125869","125230","62988","126711","56916","124729","4576","118098","Lexical Decision Task","32","25509","36","yes","1024"
"3.276537627","9.15","5","trap","word","89.1891891891892","89.1891891891892","704.027027027027","704.027027027027","black","no","legacy","legacy","legacy","0","uniform","1","undefined","undefined","undefined","1","j","0","0","0","0","36","0","0","0","36","NA","32","36","32","0","32","3","36","0","36","Thu Feb 18 11:39:57 2021","The main experiment item","yes","Lexical_Decision_Task.osexp","C:/Users/georg","no","Andale Mono","no","18","no","white","no","yes","576","legacy","32","32","3","C:/Users/georg/subject-5205095.csv","legacy","Lentiform Loewenfeld","3.3.7","yes","yes","600bd7cfb6416f0113b04181","602110864497cf011d9c0822","0","j","NA","j","j","j","NA","j","540","NA","2431","45796","1007","NA","540","2","legacy","1024","2","48000","-16","task","5205095","odd","NA","58552","62988","60556","127362","4588","51396","50388","127868","NA","127360","127868","127224","62988","128410","56916","126724","4576","118098","Lexical Decision Task","33","26049","37","yes","1024"
"3.705778213","0","6","stin","non-word","89.47368421052632","89.47368421052632","702.4473684210526","702.4473684210526","black","no","legacy","legacy","legacy","0","uniform","1","undefined","undefined","undefined","1","f","0","0","0","0","37","0","0","0","37","NA","33","37","33","0","33","3","37","0","37","Thu Feb 18 11:39:57 2021","The main experiment item","yes","Lexical_Decision_Task.osexp","C:/Users/georg","no","Andale Mono","no","18","no","white","no","yes","576","legacy","33","33","3","C:/Users/georg/subject-5205095.csv","legacy","Lentiform Loewenfeld","3.3.7","yes","yes","600bd7cfb6416f0113b04181","602110864497cf011d9c0822","0","f","NA","j","j","j","NA","f","644","NA","2431","45796","1007","NA","644","2","legacy","1024","2","48000","-16","task","5205095","odd","NA","58552","62988","60556","129073","4588","51396","50388","129577","NA","129070","129577","128930","62988","130225","56916","128429","4576","118098","Lexical Decision Task","34","26693","38","yes","1024"
"2.675164031","8.57","6","glue","word","89.74358974358974","89.74358974358974","699.6666666666666","699.6666666666666","black","no","legacy","legacy","legacy","0","uniform","1","undefined","undefined","undefined","1","j","0","0","0","0","38","0","0","0","38","NA","34","38","34","0","34","3","38","0","38","Thu Feb 18 11:39:57 2021","The main experiment item","yes","Lexical_Decision_Task.osexp","C:/Users/georg","no","Andale Mono","no","18","no","white","no","yes","576","legacy","34","34","3","C:/Users/georg/subject-5205095.csv","legacy","Lentiform Loewenfeld","3.3.7","yes","yes","600bd7cfb6416f0113b04181","602110864497cf011d9c0822","0","j","NA","j","j","j","NA","j","594","NA","2431","45796","1007","NA","594","2","legacy","1024","2","48000","-16","task","5205095","odd","NA","58552","62988","60556","130867","4588","51396","50388","131372","NA","130865","131372","130739","62988","131971","56916","130239","4576","118098","Lexical Decision Task","35","27287","39","yes","1024"
"3.22685757","9.99","7","roll","word","90","90","698.325","698.325","black","no","legacy","legacy","legacy","0","uniform","1","undefined","undefined","undefined","1","j","0","0","0","0","39","0","0","0","39","NA","35","39","35","0","35","3","39","0","39","Thu Feb 18 11:39:57 2021","The main experiment item","yes","Lexical_Decision_Task.osexp","C:/Users/georg","no","Andale Mono","no","18","no","white","no","yes","576","legacy","35","35","3","C:/Users/georg/subject-5205095.csv","legacy","Lentiform Loewenfeld","3.3.7","yes","yes","600bd7cfb6416f0113b04181","602110864497cf011d9c0822","0","j","NA","j","j","j","NA","j","646","NA","2431","45796","1007","NA","646","2","legacy","1024","2","48000","-16","task","5205095","odd","NA","58552","62988","60556","132617","4588","51396","50388","133121","NA","132615","133121","132486","62988","133768","56916","131986","4576","118098","Lexical Decision Task","36","27933","40","yes","1024"
"3.062080345","0","6","tomp","non-word","90.2439024390244","90.2439024390244","695.3658536585366","695.3658536585366","black","no","legacy","legacy","legacy","0","uniform","1","undefined","undefined","undefined","1","f","0","0","0","0","40","0","0","0","40","NA","36","40","36","0","36","3","40","0","40","Thu Feb 18 11:39:57 2021","The main experiment item","yes","Lexical_Decision_Task.osexp","C:/Users/georg","no","Andale Mono","no","18","no","white","no","yes","576","legacy","36","36","3","C:/Users/georg/subject-5205095.csv","legacy","Lentiform Loewenfeld","3.3.7","yes","yes","600bd7cfb6416f0113b04181","602110864497cf011d9c0822","0","f","NA","j","j","j","NA","f","577","NA","2431","45796","1007","NA","577","2","legacy","1024","2","48000","-16","task","5205095","odd","NA","58552","62988","60556","134434","4588","51396","50388","134939","NA","134431","134939","134286","62988","135518","56916","133785","4576","118098","Lexical Decision Task","37","28510","41","yes","1024"
"2.819763221","0","2","durp","non-word","90.47619047619048","90.47619047619048","694.0714285714286","694.0714285714286","black","no","legacy","legacy","legacy","0","uniform","1","undefined","undefined","undefined","1","f","0","0","0","0","41","0","0","0","41","NA","37","41","37","0","37","3","41","0","41","Thu Feb 18 11:39:57 2021","The main experiment item","yes","Lexical_Decision_Task.osexp","C:/Users/georg","no","Andale Mono","no","18","no","white","no","yes","576","legacy","37","37","3","C:/Users/georg/subject-5205095.csv","legacy","Lentiform Loewenfeld","3.3.7","yes","yes","600bd7cfb6416f0113b04181","602110864497cf011d9c0822","0","f","NA","j","j","j","NA","f","641","NA","2431","45796","1007","NA","641","2","legacy","1024","2","48000","-16","task","5205095","odd","NA","58552","62988","60556","136164","4588","51396","50388","136668","NA","136162","136668","136034","62988","137310","56916","135533","4576","118098","Lexical Decision Task","38","29151","42","yes","1024"
"2.920123326","7.43","4","duel","word","90.69767441860465","90.69767441860465","693.0930232558139","693.0930232558139","black","no","legacy","legacy","legacy","0","uniform","1","undefined","undefined","undefined","1","j","0","0","0","0","42","0","0","0","42","NA","38","42","38","0","38","3","42","0","42","Thu Feb 18 11:39:57 2021","The main experiment item","yes","Lexical_Decision_Task.osexp","C:/Users/georg","no","Andale Mono","no","18","no","white","no","yes","576","legacy","38","38","3","C:/Users/georg/subject-5205095.csv","legacy","Lentiform Loewenfeld","3.3.7","yes","yes","600bd7cfb6416f0113b04181","602110864497cf011d9c0822","0","j","NA","j","j","j","NA","j","652","NA","2431","45796","1007","NA","652","2","legacy","1024","2","48000","-16","task","5205095","odd","NA","58552","62988","60556","137954","4588","51396","50388","138458","NA","137951","138458","137825","62988","139112","56916","137325","4576","118098","Lexical Decision Task","39","29803","43","yes","1024"
"2.843025032","0","9","pusk","non-word","90.9090909090909","90.9090909090909","696.6363636363636","696.6363636363636","black","no","legacy","legacy","legacy","0","uniform","1","undefined","undefined","undefined","1","f","0","0","0","0","43","0","0","0","43","NA","39","43","39","0","39","3","43","0","43","Thu Feb 18 11:39:57 2021","The main experiment item","yes","Lexical_Decision_Task.osexp","C:/Users/georg","no","Andale Mono","no","18","no","white","no","yes","576","legacy","39","39","3","C:/Users/georg/subject-5205095.csv","legacy","Lentiform Loewenfeld","3.3.7","yes","yes","600bd7cfb6416f0113b04181","602110864497cf011d9c0822","0","f","NA","j","j","j","NA","f","849","NA","2431","45796","1007","NA","849","2","legacy","1024","2","48000","-16","task","5205095","odd","NA","58552","62988","60556","139763","4588","51396","50388","140267","NA","139761","140267","139626","62988","141119","56916","139126","4576","118098","Lexical Decision Task","40","30652","44","yes","1024"
"2.696356389","0","1","pizz","non-word","91.11111111111111","91.11111111111111","701.3777777777777","701.3777777777777","black","no","legacy","legacy","legacy","0","uniform","1","undefined","undefined","undefined","1","f","0","0","0","0","44","0","0","0","44","NA","40","44","40","0","40","3","44","0","44","Thu Feb 18 11:39:57 2021","The main experiment item","yes","Lexical_Decision_Task.osexp","C:/Users/georg","no","Andale Mono","no","18","no","white","no","yes","576","legacy","40","40","3","C:/Users/georg/subject-5205095.csv","legacy","Lentiform Loewenfeld","3.3.7","yes","yes","600bd7cfb6416f0113b04181","602110864497cf011d9c0822","0","f","NA","j","j","j","NA","f","910","NA","2431","45796","1007","NA","910","2","legacy","1024","2","48000","-16","task","5205095","odd","NA","58552","62988","60556","141761","4588","51396","50388","142265","NA","141758","142265","141634","62988","143177","56916","141133","4576","118098","Lexical Decision Task","41","31562","45","yes","1024"
"3.094121596","0","8","fode","non-word","91.30434782608695","91.30434782608695","703.6521739130435","703.6521739130435","black","no","legacy","legacy","legacy","0","uniform","1","undefined","undefined","undefined","1","f","0","0","0","0","45","0","0","0","45","NA","41","45","41","0","41","3","45","0","45","Thu Feb 18 11:39:57 2021","The main experiment item","yes","Lexical_Decision_Task.osexp","C:/Users/georg","no","Andale Mono","no","18","no","white","no","yes","576","legacy","41","41","3","C:/Users/georg/subject-5205095.csv","legacy","Lentiform Loewenfeld","3.3.7","yes","yes","600bd7cfb6416f0113b04181","602110864497cf011d9c0822","0","f","NA","j","j","j","NA","f","806","NA","2431","45796","1007","NA","806","2","legacy","1024","2","48000","-16","task","5205095","odd","NA","58552","62988","60556","143845","4588","51396","50388","144350","NA","143842","144350","143692","62988","145159","56916","143192","4576","118098","Lexical Decision Task","42","32368","46","yes","1024"
"2.75025376","10.2","6","jump","word","91.48936170212765","91.48936170212765","698.5744680851063","698.5744680851063","black","no","legacy","legacy","legacy","0","uniform","1","undefined","undefined","undefined","1","j","0","0","0","0","46","0","0","0","46","NA","42","46","42","0","42","3","46","0","46","Thu Feb 18 11:39:57 2021","The main experiment item","yes","Lexical_Decision_Task.osexp","C:/Users/georg","no","Andale Mono","no","18","no","white","no","yes","576","legacy","42","42","3","C:/Users/georg/subject-5205095.csv","legacy","Lentiform Loewenfeld","3.3.7","yes","yes","600bd7cfb6416f0113b04181","602110864497cf011d9c0822","0","j","NA","j","j","j","NA","j","465","NA","2431","45796","1007","NA","465","2","legacy","1024","2","48000","-16","task","5205095","odd","NA","58552","62988","60556","145809","4588","51396","50388","146313","NA","145807","146313","145676","62988","146780","56916","145176","4576","118098","Lexical Decision Task","43","32833","47","yes","1024"
"2.703007489","8.37","3","pulp","word","91.66666666666667","91.66666666666667","700.4583333333334","700.4583333333334","black","no","legacy","legacy","legacy","0","uniform","1","undefined","undefined","undefined","1","j","0","0","0","0","47","0","0","0","47","NA","43","47","43","0","43","3","47","0","47","Thu Feb 18 11:39:57 2021","The main experiment item","yes","Lexical_Decision_Task.osexp","C:/Users/georg","no","Andale Mono","no","18","no","white","no","yes","576","legacy","43","43","3","C:/Users/georg/subject-5205095.csv","legacy","Lentiform Loewenfeld","3.3.7","yes","yes","600bd7cfb6416f0113b04181","602110864497cf011d9c0822","0","j","NA","j","j","j","NA","j","789","NA","2431","45796","1007","NA","789","2","legacy","1024","2","48000","-16","task","5205095","odd","NA","58552","62988","60556","147429","4588","51396","50388","147932","NA","147426","147932","147293","62988","148723","56916","146793","4576","118098","Lexical Decision Task","44","33622","48","yes","1024"
"2.983324025","9.56","2","debt","word","91.83673469387755","91.83673469387755","700.1020408163265","700.1020408163265","black","no","legacy","legacy","legacy","0","uniform","1","undefined","undefined","undefined","1","j","0","0","0","0","48","0","0","0","48","NA","44","48","44","0","44","3","48","0","48","Thu Feb 18 11:39:57 2021","The main experiment item","yes","Lexical_Decision_Task.osexp","C:/Users/georg","no","Andale Mono","no","18","no","white","no","yes","576","legacy","44","44","3","C:/Users/georg/subject-5205095.csv","legacy","Lentiform Loewenfeld","3.3.7","yes","yes","600bd7cfb6416f0113b04181","602110864497cf011d9c0822","0","j","NA","j","j","j","NA","j","683","NA","2431","45796","1007","NA","683","2","legacy","1024","2","48000","-16","task","5205095","odd","NA","58552","62988","60556","149394","4588","51396","50388","149898","NA","149392","149899","149239","62988","150583","56916","148738","4576","118098","Lexical Decision Task","45","34305","49","yes","1024"
"2.68604012","0","4","pumb","non-word","92","92","700.16","700.16","black","no","legacy","legacy","legacy","0","uniform","1","undefined","undefined","undefined","1","f","0","0","0","0","49","0","0","0","49","NA","45","49","45","0","45","3","49","0","49","Thu Feb 18 11:39:57 2021","The main experiment item","yes","Lexical_Decision_Task.osexp","C:/Users/georg","no","Andale Mono","no","18","no","white","no","yes","576","legacy","45","45","3","C:/Users/georg/subject-5205095.csv","legacy","Lentiform Loewenfeld","3.3.7","yes","yes","600bd7cfb6416f0113b04181","602110864497cf011d9c0822","0","f","NA","j","j","j","NA","f","703","NA","2431","45796","1007","NA","703","2","legacy","1024","2","48000","-16","task","5205095","odd","NA","58552","62988","60556","151233","4588","51396","50388","151737","NA","151230","151737","151099","62988","152443","56916","150599","4576","118098","Lexical Decision Task","46","35008","50","yes","1024"
"2.952953801","0","8","clax","non-word","92.15686274509804","92.15686274509804","700.6274509803922","700.6274509803922","black","no","legacy","legacy","legacy","0","uniform","1","undefined","undefined","undefined","1","f","0","0","0","0","50","0","0","0","50","NA","46","50","46","0","46","3","50","0","50","Thu Feb 18 11:39:57 2021","The main experiment item","yes","Lexical_Decision_Task.osexp","C:/Users/georg","no","Andale Mono","no","18","no","white","no","yes","576","legacy","46","46","3","C:/Users/georg/subject-5205095.csv","legacy","Lentiform Loewenfeld","3.3.7","yes","yes","600bd7cfb6416f0113b04181","602110864497cf011d9c0822","0","f","NA","j","j","j","NA","f","724","NA","2431","45796","1007","NA","724","2","legacy","1024","2","48000","-16","task","5205095","odd","NA","58552","62988","60556","153156","4588","51396","50388","153660","NA","153153","153660","152951","62988","154385","56916","152450","4576","118098","Lexical Decision Task","47","35732","51","yes","1024"
"3.140404328","10.66","9","deep","word","92.3076923076923","92.3076923076923","697.7884615384615","697.7884615384615","black","no","legacy","legacy","legacy","0","uniform","1","undefined","undefined","undefined","1","j","0","0","0","0","51","0","0","0","51","NA","47","51","47","0","47","3","51","0","51","Thu Feb 18 11:39:57 2021","The main experiment item","yes","Lexical_Decision_Task.osexp","C:/Users/georg","no","Andale Mono","no","18","no","white","no","yes","576","legacy","47","47","3","C:/Users/georg/subject-5205095.csv","legacy","Lentiform Loewenfeld","3.3.7","yes","yes","600bd7cfb6416f0113b04181","602110864497cf011d9c0822","0","j","NA","j","j","j","NA","j","553","NA","2431","45796","1007","NA","553","2","legacy","1024","2","48000","-16","task","5205095","odd","NA","58552","62988","60556","155033","4588","51396","50388","155537","NA","155030","155538","154901","62988","156092","56916","154401","4576","118098","Lexical Decision Task","48","36285","52","yes","1024"
"3.259832699","0","9","flar","non-word","92.45283018867924","92.45283018867924","700.7547169811321","700.7547169811321","black","no","legacy","legacy","legacy","0","uniform","1","undefined","undefined","undefined","1","f","0","0","0","0","52","0","0","0","52","NA","48","52","48","0","48","3","52","0","52","Thu Feb 18 11:39:57 2021","The main experiment item","yes","Lexical_Decision_Task.osexp","C:/Users/georg","no","Andale Mono","no","18","no","white","no","yes","576","legacy","48","48","3","C:/Users/georg/subject-5205095.csv","legacy","Lentiform Loewenfeld","3.3.7","yes","yes","600bd7cfb6416f0113b04181","602110864497cf011d9c0822","0","f","NA","j","j","j","NA","f","855","NA","2431","45796","1007","NA","855","2","legacy","1024","2","48000","-16","task","5205095","odd","NA","58552","62988","60556","156791","4588","51396","50388","157295","NA","156789","157295","156607","62988","158152","56916","156106","4576","118098","Lexical Decision Task","49","37140","53","yes","1024"
"3.091901331","0","9","nipe","non-word","92.5925925925926","92.5925925925926","703.1481481481482","703.1481481481482","black","no","legacy","legacy","legacy","0","uniform","1","undefined","undefined","undefined","1","f","0","0","0","0","53","0","0","0","53","NA","49","53","49","0","49","3","53","0","53","Thu Feb 18 11:39:57 2021","The main experiment item","yes","Lexical_Decision_Task.osexp","C:/Users/georg","no","Andale Mono","no","18","no","white","no","yes","576","legacy","49","49","3","C:/Users/georg/subject-5205095.csv","legacy","Lentiform Loewenfeld","3.3.7","yes","yes","600bd7cfb6416f0113b04181","602110864497cf011d9c0822","0","f","NA","j","j","j","NA","f","830","NA","2431","45796","1007","NA","830","2","legacy","1024","2","48000","-16","task","5205095","odd","NA","58552","62988","60556","158793","4588","51396","50388","159297","NA","158791","159297","158667","62988","160129","56916","158167","4576","118098","Lexical Decision Task","50","37970","54","yes","1024"
"3.010582609","0","2","drod","non-word","92.72727272727273","92.72727272727273","739.3090909090909","739.3090909090909","black","no","legacy","legacy","legacy","0","uniform","1","undefined","undefined","undefined","1","f","0","0","0","0","54","0","0","0","54","0","50","54","50","0","50","3","54","0","54","Thu Feb 18 11:39:57 2021","The main experiment item","yes","Lexical_Decision_Task.osexp","C:/Users/georg","no","Andale Mono","no","18","no","white","no","yes","576","legacy","50","50","3","C:/Users/georg/subject-5205095.csv","legacy","Lentiform Loewenfeld","3.3.7","yes","yes","600bd7cfb6416f0113b04181","602110864497cf011d9c0822","0","f","NA","j","j","j","l","f","2692","NA","2431","45796","1007","46779","2692","2","legacy","1024","2","48000","-16","task","5205095","odd","NA","58552","62988","60556","207671","4588","51396","50388","208174","160773","207669","208176","160641","62988","210870","56916","160141","4576","118098","Lexical Decision Task","51","40662","55","yes","1024"
"2.696644658","5.78","2","yolk","word","92.85714285714286","92.85714285714286","736.3035714285714","736.3035714285714","black","no","legacy","legacy","legacy","0","uniform","1","undefined","undefined","undefined","1","j","0","0","0","0","55","0","0","0","55","0","51","55","51","0","51","3","55","0","55","Thu Feb 18 11:39:57 2021","The main experiment item","yes","Lexical_Decision_Task.osexp","C:/Users/georg","no","Andale Mono","no","18","no","white","no","yes","576","legacy","51","51","3","C:/Users/georg/subject-5205095.csv","legacy","Lentiform Loewenfeld","3.3.7","yes","yes","600bd7cfb6416f0113b04181","602110864497cf011d9c0822","0","j","NA","j","j","j","l","j","571","NA","2431","45796","1007","46779","571","2","legacy","1024","2","48000","-16","task","5205095","odd","NA","58552","62988","60556","211537","4588","51396","50388","212043","160773","211534","212043","211384","62988","212616","56916","210884","4576","118098","Lexical Decision Task","52","41233","56","yes","1024"
"3.481012421","8.34","5","teen","word","92.98245614035088","92.98245614035088","733.1052631578947","733.1052631578947","black","no","legacy","legacy","legacy","0","uniform","1","undefined","undefined","undefined","1","j","0","0","0","0","56","0","0","0","56","0","52","56","52","0","52","3","56","0","56","Thu Feb 18 11:39:57 2021","The main experiment item","yes","Lexical_Decision_Task.osexp","C:/Users/georg","no","Andale Mono","no","18","no","white","no","yes","576","legacy","52","52","3","C:/Users/georg/subject-5205095.csv","legacy","Lentiform Loewenfeld","3.3.7","yes","yes","600bd7cfb6416f0113b04181","602110864497cf011d9c0822","0","j","NA","j","j","j","l","j","554","NA","2431","45796","1007","46779","554","2","legacy","1024","2","48000","-16","task","5205095","odd","NA","58552","62988","60556","213274","4588","51396","50388","213778","160773","213271","213778","213130","62988","214335","56916","212630","4576","118098","Lexical Decision Task","53","41787","57","yes","1024"
"3.003891166","8.05","2","frog","word","93.10344827586206","93.10344827586206","732.1379310344828","732.1379310344828","black","no","legacy","legacy","legacy","0","uniform","1","undefined","undefined","undefined","1","j","0","0","0","0","57","0","0","0","57","0","53","57","53","0","53","3","57","0","57","Thu Feb 18 11:39:57 2021","The main experiment item","yes","Lexical_Decision_Task.osexp","C:/Users/georg","no","Andale Mono","no","18","no","white","no","yes","576","legacy","53","53","3","C:/Users/georg/subject-5205095.csv","legacy","Lentiform Loewenfeld","3.3.7","yes","yes","600bd7cfb6416f0113b04181","602110864497cf011d9c0822","0","j","NA","j","j","j","l","j","677","NA","2431","45796","1007","46779","677","2","legacy","1024","2","48000","-16","task","5205095","odd","NA","58552","62988","60556","214990","4588","51396","50388","215493","160773","214988","215493","214852","62988","216171","56916","214352","4576","118098","Lexical Decision Task","54","42464","58","yes","1024"
"2.821076612","0","4","lult","non-word","93.22033898305085","93.22033898305085","735.9661016949152","735.9661016949152","black","no","legacy","legacy","legacy","0","uniform","1","undefined","undefined","undefined","1","f","0","0","0","0","58","0","0","0","58","0","54","58","54","0","54","3","58","0","58","Thu Feb 18 11:39:57 2021","The main experiment item","yes","Lexical_Decision_Task.osexp","C:/Users/georg","no","Andale Mono","no","18","no","white","no","yes","576","legacy","54","54","3","C:/Users/georg/subject-5205095.csv","legacy","Lentiform Loewenfeld","3.3.7","yes","yes","600bd7cfb6416f0113b04181","602110864497cf011d9c0822","0","f","NA","j","j","j","l","f","958","NA","2431","45796","1007","46779","958","2","legacy","1024","2","48000","-16","task","5205095","odd","NA","58552","62988","60556","216834","4588","51396","50388","217338","160773","216831","217338","216684","62988","218302","56916","216184","4576","118098","Lexical Decision Task","55","43422","59","yes","1024"
"3.20996159","0","4","clee","non-word","93.33333333333333","93.33333333333333","735.9333333333333","735.9333333333333","black","no","legacy","legacy","legacy","0","uniform","1","undefined","undefined","undefined","1","f","0","0","0","0","59","0","0","0","59","0","55","59","55","0","55","3","59","0","59","Thu Feb 18 11:39:57 2021","The main experiment item","yes","Lexical_Decision_Task.osexp","C:/Users/georg","no","Andale Mono","no","18","no","white","no","yes","576","legacy","55","55","3","C:/Users/georg/subject-5205095.csv","legacy","Lentiform Loewenfeld","3.3.7","yes","yes","600bd7cfb6416f0113b04181","602110864497cf011d9c0822","0","f","NA","j","j","j","l","f","734","NA","2431","45796","1007","46779","734","2","legacy","1024","2","48000","-16","task","5205095","odd","NA","58552","62988","60556","218985","4588","51396","50388","219489","160773","218982","219489","218819","62988","220225","56916","218319","4576","118098","Lexical Decision Task","56","44156","60","yes","1024"
"2.972357144","0","5","dasp","non-word","93.44262295081967","93.44262295081967","736.1147540983607","736.1147540983607","black","no","legacy","legacy","legacy","0","uniform","1","undefined","undefined","undefined","1","f","0","0","0","0","60","0","0","0","60","0","56","60","56","0","56","3","60","0","60","Thu Feb 18 11:39:57 2021","The main experiment item","yes","Lexical_Decision_Task.osexp","C:/Users/georg","no","Andale Mono","no","18","no","white","no","yes","576","legacy","56","56","3","C:/Users/georg/subject-5205095.csv","legacy","Lentiform Loewenfeld","3.3.7","yes","yes","600bd7cfb6416f0113b04181","602110864497cf011d9c0822","0","f","NA","j","j","j","l","f","747","NA","2431","45796","1007","46779","747","2","legacy","1024","2","48000","-16","task","5205095","odd","NA","58552","62988","60556","220873","4588","51396","50388","221377","160773","220871","221377","220740","62988","222126","56916","220240","4576","118098","Lexical Decision Task","57","44903","61","yes","1024"
"2.892836167","10.01","5","soft","word","93.54838709677419","93.54838709677419","733.5967741935484","733.5967741935484","black","no","legacy","legacy","legacy","0","uniform","1","undefined","undefined","undefined","1","j","0","0","0","0","61","0","0","0","61","0","57","61","57","0","57","3","61","0","61","Thu Feb 18 11:39:57 2021","The main experiment item","yes","Lexical_Decision_Task.osexp","C:/Users/georg","no","Andale Mono","no","18","no","white","no","yes","576","legacy","57","57","3","C:/Users/georg/subject-5205095.csv","legacy","Lentiform Loewenfeld","3.3.7","yes","yes","600bd7cfb6416f0113b04181","602110864497cf011d9c0822","0","j","NA","j","j","j","l","j","580","NA","2431","45796","1007","46779","580","2","legacy","1024","2","48000","-16","task","5205095","odd","NA","58552","62988","60556","222779","4588","51396","50388","223283","160773","222776","223283","222641","62988","223865","56916","222141","4576","118098","Lexical Decision Task","58","45483","62","yes","1024"
"2.990042563","6.64","9","plow","word","93.65079365079364","93.65079365079364","733.047619047619","733.047619047619","black","no","legacy","legacy","legacy","0","uniform","1","undefined","undefined","undefined","1","j","0","0","0","0","62","0","0","0","62","0","58","62","58","0","58","3","62","0","62","Thu Feb 18 11:39:57 2021","The main experiment item","yes","Lexical_Decision_Task.osexp","C:/Users/georg","no","Andale Mono","no","18","no","white","no","yes","576","legacy","58","58","3","C:/Users/georg/subject-5205095.csv","legacy","Lentiform Loewenfeld","3.3.7","yes","yes","600bd7cfb6416f0113b04181","602110864497cf011d9c0822","0","j","NA","j","j","j","l","j","699","NA","2431","45796","1007","46779","699","2","legacy","1024","2","48000","-16","task","5205095","odd","NA","58552","62988","60556","224528","4588","51396","50388","225033","160773","224524","225033","224383","62988","225736","56916","223882","4576","118098","Lexical Decision Task","59","46182","63","yes","1024"
"3.028977705","0","7","frow","non-word","92.1875","92.1875","739.234375","739.234375","black","no","legacy","legacy","legacy","0","uniform","0","undefined","undefined","undefined","0","f","0","0","0","0","63","0","0","0","63","0","59","63","59","0","59","3","63","0","63","Thu Feb 18 11:39:57 2021","The main experiment item","yes","Lexical_Decision_Task.osexp","C:/Users/georg","no","Andale Mono","no","18","no","white","no","yes","576","legacy","59","59","3","C:/Users/georg/subject-5205095.csv","legacy","Lentiform Loewenfeld","3.3.7","yes","yes","600bd7cfb6416f0113b04181","602110864497cf011d9c0822","0","j","NA","j","j","j","l","j","1129","NA","2431","45796","1007","46779","1129","2","legacy","1024","2","48000","-16","task","5205095","odd","NA","58552","62988","60556","226384","4588","51396","50388","226888","160773","226381","226889","226249","62988","228023","56916","225749","4576","118098","Lexical Decision Task","59","47311","64","yes","1024"
"2.68604012","0","3","mulb","non-word","92.3076923076923","92.3076923076923","737.4923076923077","737.4923076923077","black","no","legacy","legacy","legacy","0","uniform","1","undefined","undefined","undefined","1","f","0","0","0","0","64","0","0","0","64","0","60","64","60","0","60","3","64","0","64","Thu Feb 18 11:39:57 2021","The main experiment item","yes","Lexical_Decision_Task.osexp","C:/Users/georg","no","Andale Mono","no","18","no","white","no","yes","576","legacy","60","60","3","C:/Users/georg/subject-5205095.csv","legacy","Lentiform Loewenfeld","3.3.7","yes","yes","600bd7cfb6416f0113b04181","602110864497cf011d9c0822","0","f","NA","j","j","j","l","f","626","NA","2431","45796","1007","46779","626","2","legacy","1024","2","48000","-16","task","5205095","odd","NA","58552","62988","60556","229686","4588","51396","50388","230190","160773","229683","230190","229541","62988","230820","56916","225749","4576","228041","Lexical Decision Task","60","47937","65","yes","1024"
"3.29439347","8.6","9","wand","word","92.42424242424242","92.42424242424242","733.939393939394","733.939393939394","black","no","legacy","legacy","legacy","0","uniform","1","undefined","undefined","undefined","1","j","0","0","0","0","65","0","0","0","65","0","61","65","61","0","61","3","65","0","65","Thu Feb 18 11:39:57 2021","The main experiment item","yes","Lexical_Decision_Task.osexp","C:/Users/georg","no","Andale Mono","no","18","no","white","no","yes","576","legacy","61","61","3","C:/Users/georg/subject-5205095.csv","legacy","Lentiform Loewenfeld","3.3.7","yes","yes","600bd7cfb6416f0113b04181","602110864497cf011d9c0822","0","j","NA","j","j","j","l","j","503","NA","2431","45796","1007","46779","503","2","legacy","1024","2","48000","-16","task","5205095","odd","NA","58552","62988","60556","231522","4588","51396","50388","232025","160773","231519","232026","231338","62988","232532","56916","230838","4576","228041","Lexical Decision Task","61","48440","66","yes","1024"
"2.980306438","0","7","slun","non-word","92.53731343283582","92.53731343283582","733.1492537313433","733.1492537313433","black","no","legacy","legacy","legacy","0","uniform","1","undefined","undefined","undefined","1","f","0","0","0","0","66","0","0","0","66","0","62","66","62","0","62","3","66","0","66","Thu Feb 18 11:39:57 2021","The main experiment item","yes","Lexical_Decision_Task.osexp","C:/Users/georg","no","Andale Mono","no","18","no","white","no","yes","576","legacy","62","62","3","C:/Users/georg/subject-5205095.csv","legacy","Lentiform Loewenfeld","3.3.7","yes","yes","600bd7cfb6416f0113b04181","602110864497cf011d9c0822","0","f","NA","j","j","j","l","f","681","NA","2431","45796","1007","46779","681","2","legacy","1024","2","48000","-16","task","5205095","odd","NA","58552","62988","60556","233167","4588","51396","50388","233670","160773","233164","233671","233045","62988","234354","56916","232545","4576","228041","Lexical Decision Task","62","49121","67","yes","1024"
"3.14849993","10.75","7","hour","word","92.6470588235294","92.6470588235294","730.1911764705883","730.1911764705883","black","no","legacy","legacy","legacy","0","uniform","1","undefined","undefined","undefined","1","j","0","0","0","0","67","0","0","0","67","0","63","67","63","0","63","3","67","0","67","Thu Feb 18 11:39:57 2021","The main experiment item","yes","Lexical_Decision_Task.osexp","C:/Users/georg","no","Andale Mono","no","18","no","white","no","yes","576","legacy","63","63","3","C:/Users/georg/subject-5205095.csv","legacy","Lentiform Loewenfeld","3.3.7","yes","yes","600bd7cfb6416f0113b04181","602110864497cf011d9c0822","0","j","NA","j","j","j","l","j","532","NA","2431","45796","1007","46779","532","2","legacy","1024","2","48000","-16","task","5205095","odd","NA","58552","62988","60556","235000","4588","51396","50388","235504","160773","234997","235504","234870","62988","236037","56916","234370","4576","228041","Lexical Decision Task","63","49653","68","yes","1024"
"2.899638141","0","3","hapt","non-word","92.7536231884058","92.7536231884058","729.1449275362319","729.1449275362319","black","no","legacy","legacy","legacy","0","uniform","1","undefined","undefined","undefined","1","f","0","0","0","0","68","0","0","0","68","0","64","68","64","0","64","3","68","0","68","Thu Feb 18 11:39:57 2021","The main experiment item","yes","Lexical_Decision_Task.osexp","C:/Users/georg","no","Andale Mono","no","18","no","white","no","yes","576","legacy","64","64","3","C:/Users/georg/subject-5205095.csv","legacy","Lentiform Loewenfeld","3.3.7","yes","yes","600bd7cfb6416f0113b04181","602110864497cf011d9c0822","0","f","NA","j","j","j","l","f","658","NA","2431","45796","1007","46779","658","2","legacy","1024","2","48000","-16","task","5205095","odd","NA","58552","62988","60556","236683","4588","51396","50388","237187","160773","236681","237187","236552","62988","237848","56916","236052","4576","228041","Lexical Decision Task","64","50311","69","yes","1024"
"2.898725182","0","7","turl","non-word","92.85714285714286","92.85714285714286","731.9","731.9","black","no","legacy","legacy","legacy","0","uniform","1","undefined","undefined","undefined","1","f","0","0","0","0","69","0","0","0","69","0","65","69","65","0","65","3","69","0","69","Thu Feb 18 11:39:57 2021","The main experiment item","yes","Lexical_Decision_Task.osexp","C:/Users/georg","no","Andale Mono","no","18","no","white","no","yes","576","legacy","65","65","3","C:/Users/georg/subject-5205095.csv","legacy","Lentiform Loewenfeld","3.3.7","yes","yes","600bd7cfb6416f0113b04181","602110864497cf011d9c0822","0","f","NA","j","j","j","l","f","922","NA","2431","45796","1007","46779","922","2","legacy","1024","2","48000","-16","task","5205095","odd","NA","58552","62988","60556","238502","4588","51396","50388","239005","160773","238499","239005","238362","62988","239930","56916","237862","4576","228041","Lexical Decision Task","65","51233","70","yes","1024"
"2.838639236","0","4","furg","non-word","92.95774647887323","92.95774647887323","731.7183098591549","731.7183098591549","black","no","legacy","legacy","legacy","0","uniform","1","undefined","undefined","undefined","1","f","0","0","0","0","70","0","0","0","70","0","66","70","66","0","66","3","70","0","70","Thu Feb 18 11:39:57 2021","The main experiment item","yes","Lexical_Decision_Task.osexp","C:/Users/georg","no","Andale Mono","no","18","no","white","no","yes","576","legacy","66","66","3","C:/Users/georg/subject-5205095.csv","legacy","Lentiform Loewenfeld","3.3.7","yes","yes","600bd7cfb6416f0113b04181","602110864497cf011d9c0822","0","f","NA","j","j","j","l","f","719","NA","2431","45796","1007","46779","719","2","legacy","1024","2","48000","-16","task","5205095","odd","NA","58552","62988","60556","240579","4588","51396","50388","241083","160773","240577","241083","240448","62988","241804","56916","239947","4576","228041","Lexical Decision Task","66","51952","71","yes","1024"
"3.230789326","5.38","5","prim","word","93.05555555555556","93.05555555555556","729.7777777777778","729.7777777777778","black","no","legacy","legacy","legacy","0","uniform","1","undefined","undefined","undefined","1","j","0","0","0","0","71","0","0","0","71","0","67","71","67","0","67","3","71","0","71","Thu Feb 18 11:39:57 2021","The main experiment item","yes","Lexical_Decision_Task.osexp","C:/Users/georg","no","Andale Mono","no","18","no","white","no","yes","576","legacy","67","67","3","C:/Users/georg/subject-5205095.csv","legacy","Lentiform Loewenfeld","3.3.7","yes","yes","600bd7cfb6416f0113b04181","602110864497cf011d9c0822","0","j","NA","j","j","j","l","j","592","NA","2431","45796","1007","46779","592","2","legacy","1024","2","48000","-16","task","5205095","odd","NA","58552","62988","60556","242490","4588","51396","50388","242994","160773","242487","242994","242318","62988","243589","56916","241818","4576","228041","Lexical Decision Task","67","52544","72","yes","1024"
"3.316948329","0","1","besc","non-word","93.15068493150685","93.15068493150685","727.6438356164383","727.6438356164383","black","no","legacy","legacy","legacy","0","uniform","1","undefined","undefined","undefined","1","f","0","0","0","0","72","0","0","0","72","0","68","72","68","0","68","3","72","0","72","Thu Feb 18 11:39:57 2021","The main experiment item","yes","Lexical_Decision_Task.osexp","C:/Users/georg","no","Andale Mono","no","18","no","white","no","yes","576","legacy","68","68","3","C:/Users/georg/subject-5205095.csv","legacy","Lentiform Loewenfeld","3.3.7","yes","yes","600bd7cfb6416f0113b04181","602110864497cf011d9c0822","0","f","NA","j","j","j","l","f","574","NA","2431","45796","1007","46779","574","2","legacy","1024","2","48000","-16","task","5205095","odd","NA","58552","62988","60556","244249","4588","51396","50388","244753","160773","244246","244753","244107","62988","245330","56916","243606","4576","228041","Lexical Decision Task","68","53118","73","yes","1024"
"2.873320602","0","4","lurg","non-word","93.24324324324324","93.24324324324324","729.2837837837837","729.2837837837837","black","no","legacy","legacy","legacy","0","uniform","1","undefined","undefined","undefined","1","f","0","0","0","0","73","0","0","0","73","0","69","73","69","0","69","3","73","0","73","Thu Feb 18 11:39:57 2021","The main experiment item","yes","Lexical_Decision_Task.osexp","C:/Users/georg","no","Andale Mono","no","18","no","white","no","yes","576","legacy","69","69","3","C:/Users/georg/subject-5205095.csv","legacy","Lentiform Loewenfeld","3.3.7","yes","yes","600bd7cfb6416f0113b04181","602110864497cf011d9c0822","0","f","NA","j","j","j","l","f","849","NA","2431","45796","1007","46779","849","2","legacy","1024","2","48000","-16","task","5205095","odd","NA","58552","62988","60556","245979","4588","51396","50388","246483","160773","245977","246483","245846","62988","247338","56916","245346","4576","228041","Lexical Decision Task","69","53967","74","yes","1024"
"2.664328519","0","4","plux","non-word","93.33333333333333","93.33333333333333","729.64","729.64","black","no","legacy","legacy","legacy","0","uniform","1","undefined","undefined","undefined","1","f","0","0","0","0","74","0","0","0","74","0","70","74","70","0","70","3","74","0","74","Thu Feb 18 11:39:57 2021","The main experiment item","yes","Lexical_Decision_Task.osexp","C:/Users/georg","no","Andale Mono","no","18","no","white","no","yes","576","legacy","70","70","3","C:/Users/georg/subject-5205095.csv","legacy","Lentiform Loewenfeld","3.3.7","yes","yes","600bd7cfb6416f0113b04181","602110864497cf011d9c0822","0","f","NA","j","j","j","l","f","756","NA","2431","45796","1007","46779","756","2","legacy","1024","2","48000","-16","task","5205095","odd","NA","58552","62988","60556","248017","4588","51396","50388","248521","160773","248015","248521","247854","62988","249280","56916","247354","4576","228041","Lexical Decision Task","70","54723","75","yes","1024"
"3.037294994","8.64","7","roof","word","93.42105263157895","93.42105263157895","729.7236842105264","729.7236842105264","black","no","legacy","legacy","legacy","0","uniform","1","undefined","undefined","undefined","1","j","0","0","0","0","75","0","0","0","75","0","71","75","71","0","71","3","75","0","75","Thu Feb 18 11:39:57 2021","The main experiment item","yes","Lexical_Decision_Task.osexp","C:/Users/georg","no","Andale Mono","no","18","no","white","no","yes","576","legacy","71","71","3","C:/Users/georg/subject-5205095.csv","legacy","Lentiform Loewenfeld","3.3.7","yes","yes","600bd7cfb6416f0113b04181","602110864497cf011d9c0822","0","j","NA","j","j","j","l","j","736","NA","2431","45796","1007","46779","736","2","legacy","1024","2","48000","-16","task","5205095","odd","NA","58552","62988","60556","249996","4588","51396","50388","250500","160773","249992","250500","249797","62988","251239","56916","249297","4576","228041","Lexical Decision Task","71","55459","76","yes","1024"
"3.195807436","0","6","stup","non-word","93.50649350649351","93.50649350649351","734.0909090909091","734.0909090909091","black","no","legacy","legacy","legacy","0","uniform","1","undefined","undefined","undefined","1","f","0","0","0","0","76","0","0","0","76","0","72","76","72","0","72","3","76","0","76","Thu Feb 18 11:39:57 2021","The main experiment item","yes","Lexical_Decision_Task.osexp","C:/Users/georg","no","Andale Mono","no","18","no","white","no","yes","576","legacy","72","72","3","C:/Users/georg/subject-5205095.csv","legacy","Lentiform Loewenfeld","3.3.7","yes","yes","600bd7cfb6416f0113b04181","602110864497cf011d9c0822","0","f","NA","j","j","j","l","f","1066","NA","2431","45796","1007","46779","1066","2","legacy","1024","2","48000","-16","task","5205095","odd","NA","58552","62988","60556","251901","4588","51396","50388","252405","160773","251899","252405","251756","62988","253473","56916","251256","4576","228041","Lexical Decision Task","72","56525","77","yes","1024"
"3.145920145","8.51","8","flew","word","93.58974358974359","93.58974358974359","732.3333333333334","732.3333333333334","black","no","legacy","legacy","legacy","0","uniform","1","undefined","undefined","undefined","1","j","0","0","0","0","77","0","0","0","77","0","73","77","73","0","73","3","77","0","77","Thu Feb 18 11:39:57 2021","The main experiment item","yes","Lexical_Decision_Task.osexp","C:/Users/georg","no","Andale Mono","no","18","no","white","no","yes","576","legacy","73","73","3","C:/Users/georg/subject-5205095.csv","legacy","Lentiform Loewenfeld","3.3.7","yes","yes","600bd7cfb6416f0113b04181","602110864497cf011d9c0822","0","j","NA","j","j","j","l","j","597","NA","2431","45796","1007","46779","597","2","legacy","1024","2","48000","-16","task","5205095","odd","NA","58552","62988","60556","254128","4588","51396","50388","254633","160773","254126","254633","253991","62988","255233","56916","253491","4576","228041","Lexical Decision Task","73","57122","78","yes","1024"
"2.6599162","0","2","saff","non-word","93.67088607594937","93.67088607594937","731.1392405063291","731.1392405063291","black","no","legacy","legacy","legacy","0","uniform","1","undefined","undefined","undefined","1","f","0","0","0","0","78","0","0","0","78","0","74","78","74","0","74","3","78","0","78","Thu Feb 18 11:39:57 2021","The main experiment item","yes","Lexical_Decision_Task.osexp","C:/Users/georg","no","Andale Mono","no","18","no","white","no","yes","576","legacy","74","74","3","C:/Users/georg/subject-5205095.csv","legacy","Lentiform Loewenfeld","3.3.7","yes","yes","600bd7cfb6416f0113b04181","602110864497cf011d9c0822","0","f","NA","j","j","j","l","f","638","NA","2431","45796","1007","46779","638","2","legacy","1024","2","48000","-16","task","5205095","odd","NA","58552","62988","60556","255883","4588","51396","50388","256387","160773","255880","256388","255751","62988","257027","56916","255251","4576","228041","Lexical Decision Task","74","57760","79","yes","1024"
"2.953276337","6.32","4","thaw","word","93.75","93.75","729.95","729.95","black","no","legacy","legacy","legacy","0","uniform","1","undefined","undefined","undefined","1","j","0","0","0","0","79","0","0","0","79","0","75","79","75","0","75","3","79","0","79","Thu Feb 18 11:39:57 2021","The main experiment item","yes","Lexical_Decision_Task.osexp","C:/Users/georg","no","Andale Mono","no","18","no","white","no","yes","576","legacy","75","75","3","C:/Users/georg/subject-5205095.csv","legacy","Lentiform Loewenfeld","3.3.7","yes","yes","600bd7cfb6416f0113b04181","602110864497cf011d9c0822","0","j","NA","j","j","j","l","j","636","NA","2431","45796","1007","46779","636","2","legacy","1024","2","48000","-16","task","5205095","odd","NA","58552","62988","60556","257672","4588","51396","50388","258177","160773","257670","258177","257541","62988","258816","56916","257041","4576","228041","Lexical Decision Task","75","58396","80","yes","1024"
"2.875447132","0","9","jelt","non-word","93.82716049382717","93.82716049382717","729.4197530864197","729.4197530864197","black","no","legacy","legacy","legacy","0","uniform","1","undefined","undefined","undefined","1","f","0","0","0","0","80","0","0","0","80","0","76","80","76","0","76","3","80","0","80","Thu Feb 18 11:39:57 2021","The main experiment item","yes","Lexical_Decision_Task.osexp","C:/Users/georg","no","Andale Mono","no","18","no","white","no","yes","576","legacy","76","76","3","C:/Users/georg/subject-5205095.csv","legacy","Lentiform Loewenfeld","3.3.7","yes","yes","600bd7cfb6416f0113b04181","602110864497cf011d9c0822","0","f","NA","j","j","j","l","f","687","NA","2431","45796","1007","46779","687","2","legacy","1024","2","48000","-16","task","5205095","odd","NA","58552","62988","60556","259495","4588","51396","50388","259999","160773","259492","260000","259332","62988","260690","56916","258831","4576","228041","Lexical Decision Task","76","59083","81","yes","1024"
"2.812467698","0","7","hafe","non-word","93.90243902439025","93.90243902439025","728.9878048780488","728.9878048780488","black","no","legacy","legacy","legacy","0","uniform","1","undefined","undefined","undefined","1","f","0","0","0","0","81","0","0","0","81","0","77","81","77","0","77","3","81","0","81","Thu Feb 18 11:39:57 2021","The main experiment item","yes","Lexical_Decision_Task.osexp","C:/Users/georg","no","Andale Mono","no","18","no","white","no","yes","576","legacy","77","77","3","C:/Users/georg/subject-5205095.csv","legacy","Lentiform Loewenfeld","3.3.7","yes","yes","600bd7cfb6416f0113b04181","602110864497cf011d9c0822","0","f","NA","j","j","j","l","f","694","NA","2431","45796","1007","46779","694","2","legacy","1024","2","48000","-16","task","5205095","odd","NA","58552","62988","60556","261331","4588","51396","50388","261835","160773","261329","261835","261204","62988","262532","56916","260703","4576","228041","Lexical Decision Task","77","59777","82","yes","1024"
"3.066077331","0","7","vorn","non-word","93.97590361445783","93.97590361445783","728.7590361445783","728.7590361445783","black","no","legacy","legacy","legacy","0","uniform","1","undefined","undefined","undefined","1","f","0","0","0","0","82","0","0","0","82","0","78","82","78","0","78","3","82","0","82","Thu Feb 18 11:39:57 2021","The main experiment item","yes","Lexical_Decision_Task.osexp","C:/Users/georg","no","Andale Mono","no","18","no","white","no","yes","576","legacy","78","78","3","C:/Users/georg/subject-5205095.csv","legacy","Lentiform Loewenfeld","3.3.7","yes","yes","600bd7cfb6416f0113b04181","602110864497cf011d9c0822","0","f","NA","j","j","j","l","f","710","NA","2431","45796","1007","46779","710","2","legacy","1024","2","48000","-16","task","5205095","odd","NA","58552","62988","60556","263213","4588","51396","50388","263717","160773","263210","263717","263047","62988","264429","56916","262547","4576","228041","Lexical Decision Task","78","60487","83","yes","1024"
"2.69019608","9.01","2","myth","word","94.04761904761905","94.04761904761905","729.3571428571429","729.3571428571429","black","no","legacy","legacy","legacy","0","uniform","1","undefined","undefined","undefined","1","j","0","0","0","0","83","0","0","0","83","0","79","83","79","0","79","3","83","0","83","Thu Feb 18 11:39:57 2021","The main experiment item","yes","Lexical_Decision_Task.osexp","C:/Users/georg","no","Andale Mono","no","18","no","white","no","yes","576","legacy","79","79","3","C:/Users/georg/subject-5205095.csv","legacy","Lentiform Loewenfeld","3.3.7","yes","yes","600bd7cfb6416f0113b04181","602110864497cf011d9c0822","0","j","NA","j","j","j","l","j","779","NA","2431","45796","1007","46779","779","2","legacy","1024","2","48000","-16","task","5205095","odd","NA","58552","62988","60556","265081","4588","51396","50388","265585","160773","265078","265585","264944","62988","266369","56916","264444","4576","228041","Lexical Decision Task","79","61266","84","yes","1024"
"2.67699827","0","6","hulf","non-word","94.11764705882354","94.11764705882354","728.9294117647058","728.9294117647058","black","no","legacy","legacy","legacy","0","uniform","1","undefined","undefined","undefined","1","f","0","0","0","0","84","0","0","0","84","0","80","84","80","0","80","3","84","0","84","Thu Feb 18 11:39:57 2021","The main experiment item","yes","Lexical_Decision_Task.osexp","C:/Users/georg","no","Andale Mono","no","18","no","white","no","yes","576","legacy","80","80","3","C:/Users/georg/subject-5205095.csv","legacy","Lentiform Loewenfeld","3.3.7","yes","yes","600bd7cfb6416f0113b04181","602110864497cf011d9c0822","0","f","NA","j","j","j","l","f","693","NA","2431","45796","1007","46779","693","2","legacy","1024","2","48000","-16","task","5205095","odd","NA","58552","62988","60556","267021","4588","51396","50388","267525","160773","267019","267525","266886","62988","268219","56916","266386","4576","228041","Lexical Decision Task","80","61959","85","yes","1024"
"2.986323777","10.85","8","ship","word","94.18604651162791","94.18604651162791","727.4302325581396","727.4302325581396","black","no","legacy","legacy","legacy","0","uniform","1","undefined","undefined","undefined","1","j","0","0","0","0","85","0","0","0","85","0","81","85","81","0","81","3","85","0","85","Thu Feb 18 11:39:57 2021","The main experiment item","yes","Lexical_Decision_Task.osexp","C:/Users/georg","no","Andale Mono","no","18","no","white","no","yes","576","legacy","81","81","3","C:/Users/georg/subject-5205095.csv","legacy","Lentiform Loewenfeld","3.3.7","yes","yes","600bd7cfb6416f0113b04181","602110864497cf011d9c0822","0","j","NA","j","j","j","l","j","600","NA","2431","45796","1007","46779","600","2","legacy","1024","2","48000","-16","task","5205095","odd","NA","58552","62988","60556","268866","4588","51396","50388","269370","160773","268863","269371","268733","62988","269972","56916","268232","4576","228041","Lexical Decision Task","81","62559","86","yes","1024"
"2.695770526","7.34","6","pawn","word","93.10344827586206","93.10344827586206","725.7241379310345","725.7241379310345","black","no","legacy","legacy","legacy","0","uniform","0","undefined","undefined","undefined","0","j","0","0","0","0","86","0","0","0","86","0","82","86","82","0","82","3","86","0","86","Thu Feb 18 11:39:57 2021","The main experiment item","yes","Lexical_Decision_Task.osexp","C:/Users/georg","no","Andale Mono","no","18","no","white","no","yes","576","legacy","82","82","3","C:/Users/georg/subject-5205095.csv","legacy","Lentiform Loewenfeld","3.3.7","yes","yes","600bd7cfb6416f0113b04181","602110864497cf011d9c0822","0","f","NA","j","j","j","l","f","579","NA","2431","45796","1007","46779","579","2","legacy","1024","2","48000","-16","task","5205095","odd","NA","58552","62988","60556","270619","4588","51396","50388","271123","160773","270616","271123","270487","62988","271707","56916","269987","4576","228041","Lexical Decision Task","81","63138","87","yes","1024"
"3.165936429","0","7","leps","non-word","93.18181818181819","93.18181818181819","723.9772727272727","723.9772727272727","black","no","legacy","legacy","legacy","0","uniform","1","undefined","undefined","undefined","1","f","0","0","0","0","87","0","0","0","87","0","83","87","83","0","83","3","87","0","87","Thu Feb 18 11:39:57 2021","The main experiment item","yes","Lexical_Decision_Task.osexp","C:/Users/georg","no","Andale Mono","no","18","no","white","no","yes","576","legacy","83","83","3","C:/Users/georg/subject-5205095.csv","legacy","Lentiform Loewenfeld","3.3.7","yes","yes","600bd7cfb6416f0113b04181","602110864497cf011d9c0822","0","f","NA","j","j","j","l","f","572","NA","2431","45796","1007","46779","572","2","legacy","1024","2","48000","-16","task","5205095","odd","NA","58552","62988","60556","273361","4588","51396","50388","273865","160773","273359","273865","273224","62988","274440","56916","269987","4576","271724","Lexical Decision Task","82","63710","88","yes","1024"
"2.924968096","0","4","phim","non-word","93.25842696629213","93.25842696629213","726.5730337078652","726.5730337078652","black","no","legacy","legacy","legacy","0","uniform","1","undefined","undefined","undefined","1","f","0","0","0","0","88","0","0","0","88","0","84","88","84","0","84","3","88","0","88","Thu Feb 18 11:39:57 2021","The main experiment item","yes","Lexical_Decision_Task.osexp","C:/Users/georg","no","Andale Mono","no","18","no","white","no","yes","576","legacy","84","84","3","C:/Users/georg/subject-5205095.csv","legacy","Lentiform Loewenfeld","3.3.7","yes","yes","600bd7cfb6416f0113b04181","602110864497cf011d9c0822","0","f","NA","j","j","j","l","f","955","NA","2431","45796","1007","46779","955","2","legacy","1024","2","48000","-16","task","5205095","odd","NA","58552","62988","60556","275086","4588","51396","50388","275590","160773","275084","275590","274957","62988","276547","56916","274457","4576","271724","Lexical Decision Task","83","64665","89","yes","1024"
"3.531734309","0","6","lerd","non-word","93.33333333333333","93.33333333333333","726.8555555555556","726.8555555555556","black","no","legacy","legacy","legacy","0","uniform","1","undefined","undefined","undefined","1","f","0","0","0","0","89","0","0","0","89","0","85","89","85","0","85","3","89","0","89","Thu Feb 18 11:39:57 2021","The main experiment item","yes","Lexical_Decision_Task.osexp","C:/Users/georg","no","Andale Mono","no","18","no","white","no","yes","576","legacy","85","85","3","C:/Users/georg/subject-5205095.csv","legacy","Lentiform Loewenfeld","3.3.7","yes","yes","600bd7cfb6416f0113b04181","602110864497cf011d9c0822","0","f","NA","j","j","j","l","f","752","NA","2431","45796","1007","46779","752","2","legacy","1024","2","48000","-16","task","5205095","odd","NA","58552","62988","60556","277235","4588","51396","50388","277740","160773","277234","277740","277064","62988","278495","56916","276562","4576","271724","Lexical Decision Task","84","65417","90","yes","1024"
"2.845304797","0","6","buct","non-word","93.4065934065934","93.4065934065934","726.0439560439561","726.0439560439561","black","no","legacy","legacy","legacy","0","uniform","1","undefined","undefined","undefined","1","f","0","0","0","0","90","0","0","0","90","0","86","90","86","0","86","3","90","0","90","Thu Feb 18 11:39:57 2021","The main experiment item","yes","Lexical_Decision_Task.osexp","C:/Users/georg","no","Andale Mono","no","18","no","white","no","yes","576","legacy","86","86","3","C:/Users/georg/subject-5205095.csv","legacy","Lentiform Loewenfeld","3.3.7","yes","yes","600bd7cfb6416f0113b04181","602110864497cf011d9c0822","0","f","NA","j","j","j","l","f","653","NA","2431","45796","1007","46779","653","2","legacy","1024","2","48000","-16","task","5205095","odd","NA","58552","62988","60556","279141","4588","51396","50388","279646","160773","279139","279646","279011","62988","280303","56916","278511","4576","271724","Lexical Decision Task","85","66070","91","yes","1024"
"3.225825991","0","7","talm","non-word","93.47826086956522","93.47826086956522","725.5869565217391","725.5869565217391","black","no","legacy","legacy","legacy","0","uniform","1","undefined","undefined","undefined","1","f","0","0","0","0","91","0","0","0","91","0","87","91","87","0","87","3","91","0","91","Thu Feb 18 11:39:57 2021","The main experiment item","yes","Lexical_Decision_Task.osexp","C:/Users/georg","no","Andale Mono","no","18","no","white","no","yes","576","legacy","87","87","3","C:/Users/georg/subject-5205095.csv","legacy","Lentiform Loewenfeld","3.3.7","yes","yes","600bd7cfb6416f0113b04181","602110864497cf011d9c0822","0","f","NA","j","j","j","l","f","684","NA","2431","45796","1007","46779","684","2","legacy","1024","2","48000","-16","task","5205095","odd","NA","58552","62988","60556","281015","4588","51396","50388","281519","160773","281013","281519","280822","62988","282208","56916","280322","4576","271724","Lexical Decision Task","86","66754","92","yes","1024"
"2.793790385","5.67","9","swab","word","93.54838709677419","93.54838709677419","723.6344086021505","723.6344086021505","black","no","legacy","legacy","legacy","0","uniform","1","undefined","undefined","undefined","1","j","0","0","0","0","92","0","0","0","92","0","88","92","88","0","88","3","92","0","92","Thu Feb 18 11:39:57 2021","The main experiment item","yes","Lexical_Decision_Task.osexp","C:/Users/georg","no","Andale Mono","no","18","no","white","no","yes","576","legacy","88","88","3","C:/Users/georg/subject-5205095.csv","legacy","Lentiform Loewenfeld","3.3.7","yes","yes","600bd7cfb6416f0113b04181","602110864497cf011d9c0822","0","j","NA","j","j","j","l","j","544","NA","2431","45796","1007","46779","544","2","legacy","1024","2","48000","-16","task","5205095","odd","NA","58552","62988","60556","282864","4588","51396","50388","283368","160773","282862","283368","282727","62988","283916","56916","282226","4576","271724","Lexical Decision Task","87","67298","93","yes","1024"
"3.492014979","0","9","yine","non-word","93.61702127659575","93.61702127659575","724.8723404255319","724.8723404255319","black","no","legacy","legacy","legacy","0","uniform","1","undefined","undefined","undefined","1","f","0","0","0","0","93","0","0","0","93","0","89","93","89","0","89","3","93","0","93","Thu Feb 18 11:39:57 2021","The main experiment item","yes","Lexical_Decision_Task.osexp","C:/Users/georg","no","Andale Mono","no","18","no","white","no","yes","576","legacy","89","89","3","C:/Users/georg/subject-5205095.csv","legacy","Lentiform Loewenfeld","3.3.7","yes","yes","600bd7cfb6416f0113b04181","602110864497cf011d9c0822","0","f","NA","j","j","j","l","f","840","NA","2431","45796","1007","46779","840","2","legacy","1024","2","48000","-16","task","5205095","odd","NA","58552","62988","60556","284563","4588","51396","50388","285067","160773","284560","285068","284432","62988","285911","56916","283932","4576","271724","Lexical Decision Task","88","68138","94","yes","1024"
"2.695481676","0","7","goke","non-word","93.6842105263158","93.6842105263158","724.4736842105264","724.4736842105264","black","no","legacy","legacy","legacy","0","uniform","1","undefined","undefined","undefined","1","f","0","0","0","0","94","0","0","0","94","0","90","94","90","0","90","3","94","0","94","Thu Feb 18 11:39:57 2021","The main experiment item","yes","Lexical_Decision_Task.osexp","C:/Users/georg","no","Andale Mono","no","18","no","white","no","yes","576","legacy","90","90","3","C:/Users/georg/subject-5205095.csv","legacy","Lentiform Loewenfeld","3.3.7","yes","yes","600bd7cfb6416f0113b04181","602110864497cf011d9c0822","0","f","NA","j","j","j","l","f","687","NA","2431","45796","1007","46779","687","2","legacy","1024","2","48000","-16","task","5205095","odd","NA","58552","62988","60556","286641","4588","51396","50388","287145","160773","286636","287145","286426","62988","287834","56916","285925","4576","271724","Lexical Decision Task","89","68825","95","yes","1024"
"3.209246849","0","7","slem","non-word","93.75","93.75","723.2395833333334","723.2395833333334","black","no","legacy","legacy","legacy","0","uniform","1","undefined","undefined","undefined","1","f","0","0","0","0","95","0","0","0","95","0","91","95","91","0","91","3","95","0","95","Thu Feb 18 11:39:57 2021","The main experiment item","yes","Lexical_Decision_Task.osexp","C:/Users/georg","no","Andale Mono","no","18","no","white","no","yes","576","legacy","91","91","3","C:/Users/georg/subject-5205095.csv","legacy","Lentiform Loewenfeld","3.3.7","yes","yes","600bd7cfb6416f0113b04181","602110864497cf011d9c0822","0","f","NA","j","j","j","l","f","606","NA","2431","45796","1007","46779","606","2","legacy","1024","2","48000","-16","task","5205095","odd","NA","58552","62988","60556","288495","4588","51396","50388","288998","160773","288492","288999","288348","62988","289609","56916","287848","4576","271724","Lexical Decision Task","90","69431","96","yes","1024"
"2.893578687","8.69","3","surf","word","93.81443298969072","93.81443298969072","722.7525773195877","722.7525773195877","black","no","legacy","legacy","legacy","0","uniform","1","undefined","undefined","undefined","1","j","0","0","0","0","96","0","0","0","96","0","92","96","92","0","92","3","96","0","96","Thu Feb 18 11:39:57 2021","The main experiment item","yes","Lexical_Decision_Task.osexp","C:/Users/georg","no","Andale Mono","no","18","no","white","no","yes","576","legacy","92","92","3","C:/Users/georg/subject-5205095.csv","legacy","Lentiform Loewenfeld","3.3.7","yes","yes","600bd7cfb6416f0113b04181","602110864497cf011d9c0822","0","j","NA","j","j","j","l","j","676","NA","2431","45796","1007","46779","676","2","legacy","1024","2","48000","-16","task","5205095","odd","NA","58552","62988","60556","290270","4588","51396","50388","290774","160773","290268","290774","290127","62988","291452","56916","289627","4576","271724","Lexical Decision Task","91","70107","97","yes","1024"
"2.7084209","0","8","vump","non-word","93.87755102040816","93.87755102040816","723.3061224489796","723.3061224489796","black","no","legacy","legacy","legacy","0","uniform","1","undefined","undefined","undefined","1","f","0","0","0","0","97","0","0","0","97","0","93","97","93","0","93","3","97","0","97","Thu Feb 18 11:39:57 2021","The main experiment item","yes","Lexical_Decision_Task.osexp","C:/Users/georg","no","Andale Mono","no","18","no","white","no","yes","576","legacy","93","93","3","C:/Users/georg/subject-5205095.csv","legacy","Lentiform Loewenfeld","3.3.7","yes","yes","600bd7cfb6416f0113b04181","602110864497cf011d9c0822","0","f","NA","j","j","j","l","f","777","NA","2431","45796","1007","46779","777","2","legacy","1024","2","48000","-16","task","5205095","odd","NA","58552","62988","60556","292098","4588","51396","50388","292602","160773","292096","292602","291960","62988","293382","56916","291459","4576","271724","Lexical Decision Task","92","70884","98","yes","1024"
"3.090140555","5.81","8","pout","word","93.93939393939394","93.93939393939394","723.3434343434343","723.3434343434343","black","no","legacy","legacy","legacy","0","uniform","1","undefined","undefined","undefined","1","j","0","0","0","0","98","0","0","0","98","0","94","98","94","0","94","3","98","0","98","Thu Feb 18 11:39:57 2021","The main experiment item","yes","Lexical_Decision_Task.osexp","C:/Users/georg","no","Andale Mono","no","18","no","white","no","yes","576","legacy","94","94","3","C:/Users/georg/subject-5205095.csv","legacy","Lentiform Loewenfeld","3.3.7","yes","yes","600bd7cfb6416f0113b04181","602110864497cf011d9c0822","0","j","NA","j","j","j","l","j","727","NA","2431","45796","1007","46779","727","2","legacy","1024","2","48000","-16","task","5205095","odd","NA","58552","62988","60556","294035","4588","51396","50388","294539","160773","294033","294539","293898","62988","295270","56916","293398","4576","271724","Lexical Decision Task","93","71611","99","yes","1024"
"2.782472624","10.55","2","huge","word","94","94","721.99","721.99","black","no","legacy","legacy","legacy","0","uniform","1","undefined","undefined","undefined","1","j","0","0","0","0","99","0","0","0","99","0","95","99","95","0","95","3","99","0","99","Thu Feb 18 11:39:57 2021","The main experiment item","yes","Lexical_Decision_Task.osexp","C:/Users/georg","no","Andale Mono","no","18","no","white","no","yes","576","legacy","95","95","3","C:/Users/georg/subject-5205095.csv","legacy","Lentiform Loewenfeld","3.3.7","yes","yes","600bd7cfb6416f0113b04181","602110864497cf011d9c0822","0","j","NA","j","j","j","l","j","588","NA","2431","45796","1007","46779","588","2","legacy","1024","2","48000","-16","task","5205095","odd","NA","58552","62988","60556","295979","4588","51396","50388","296484","160773","295974","296484","295788","62988","297074","56916","295288","4576","271724","Lexical Decision Task","94","72199","100","yes","1024"
"3.064581521","5.51","6","cask","word","94.05940594059406","94.05940594059406","726.039603960396","726.039603960396","black","no","legacy","legacy","legacy","0","uniform","1","undefined","undefined","undefined","1","j","0","0","0","0","100","0","0","0","100","0","96","100","96","0","96","3","100","0","100","Thu Feb 18 11:39:57 2021","The main experiment item","yes","Lexical_Decision_Task.osexp","C:/Users/georg","no","Andale Mono","no","18","no","white","no","yes","576","legacy","96","96","3","C:/Users/georg/subject-5205095.csv","legacy","Lentiform Loewenfeld","3.3.7","yes","yes","600bd7cfb6416f0113b04181","602110864497cf011d9c0822","0","j","NA","j","j","j","l","j","1131","NA","2431","45796","1007","46779","1131","2","legacy","1024","2","48000","-16","task","5205095","odd","NA","58552","62988","60556","297748","4588","51396","50388","298252","160773","297744","298253","297591","62988","299386","56916","297089","4576","271724","Lexical Decision Task","95","73330","101","yes","1024"
"2.897810299","0","5","glur","non-word","94.11764705882354","94.11764705882354","725.4411764705883","725.4411764705883","black","no","legacy","legacy","legacy","0","uniform","1","undefined","undefined","undefined","1","f","0","0","0","0","101","0","0","0","101","0","97","101","97","0","97","3","101","0","101","Thu Feb 18 11:39:57 2021","The main experiment item","yes","Lexical_Decision_Task.osexp","C:/Users/georg","no","Andale Mono","no","18","no","white","no","yes","576","legacy","97","97","3","C:/Users/georg/subject-5205095.csv","legacy","Lentiform Loewenfeld","3.3.7","yes","yes","600bd7cfb6416f0113b04181","602110864497cf011d9c0822","0","f","NA","j","j","j","l","f","665","NA","2431","45796","1007","46779","665","2","legacy","1024","2","48000","-16","task","5205095","odd","NA","58552","62988","60556","300081","4588","51396","50388","300586","160773","300079","300586","299901","62988","301253","56916","299400","4576","271724","Lexical Decision Task","96","73995","102","yes","1024"
"2.937852093","0","7","bamp","non-word","94.1747572815534","94.1747572815534","726.0873786407767","726.0873786407767","black","no","legacy","legacy","legacy","0","uniform","1","undefined","undefined","undefined","1","f","0","0","0","0","102","0","0","0","102","0","98","102","98","0","98","3","102","0","102","Thu Feb 18 11:39:57 2021","The main experiment item","yes","Lexical_Decision_Task.osexp","C:/Users/georg","no","Andale Mono","no","18","no","white","no","yes","576","legacy","98","98","3","C:/Users/georg/subject-5205095.csv","legacy","Lentiform Loewenfeld","3.3.7","yes","yes","600bd7cfb6416f0113b04181","602110864497cf011d9c0822","0","f","NA","j","j","j","l","f","792","NA","2431","45796","1007","46779","792","2","legacy","1024","2","48000","-16","task","5205095","odd","NA","58552","62988","60556","301914","4588","51396","50388","302418","160773","301912","302418","301768","62988","303212","56916","301268","4576","271724","Lexical Decision Task","97","74787","103","yes","1024"
"3.363486562","6.93","9","lush","word","94.23076923076923","94.23076923076923","723.6346153846154","723.6346153846154","black","no","legacy","legacy","legacy","0","uniform","1","undefined","undefined","undefined","1","j","0","0","0","0","103","0","0","0","103","0","99","103","99","0","99","3","103","0","103","Thu Feb 18 11:39:57 2021","The main experiment item","yes","Lexical_Decision_Task.osexp","C:/Users/georg","no","Andale Mono","no","18","no","white","no","yes","576","legacy","99","99","3","C:/Users/georg/subject-5205095.csv","legacy","Lentiform Loewenfeld","3.3.7","yes","yes","600bd7cfb6416f0113b04181","602110864497cf011d9c0822","0","j","NA","j","j","j","l","j","471","NA","2431","45796","1007","46779","471","2","legacy","1024","2","48000","-16","task","5205095","odd","NA","58552","62988","60556","303862","4588","51396","50388","304366","160773","303860","304366","303727","62988","304839","56916","303227","4576","271724","Lexical Decision Task","98","75258","104","yes","1024"
