"Log_BG","Log_Freq_HAL","Ortho_N","Stimulus","Type","acc","accuracy","average_response_time","avg_rt","background","bidi","canvas_backend","clock_backend","color_backend","compensation","coordinates","correct","correct_Experimental_intro","correct_Introduction","correct_Practice_intro","correct_experimenter_kb","correct_response","count_End_Of_Experiment","count_End_Of_Practice","count_Experimental_Loop","count_Experimental_intro","count_Fixation","count_Introduction","count_Practice_Loop","count_Practice_intro","count_Stimulus","count_block_break_feedback","count_experimental_sequence","count_experimenter_kb","count_increment_trial_count","count_init_trial_count","count_logger","count_practice_sequence","count_right","count_task","count_wrong","datetime","description","disable_garbage_collection","experiment_file","experiment_path","font_bold","font_family","font_italic","font_size","font_underline","foreground","form_clicks","fullscreen","height","keyboard_backend","live_row","live_row_Experimental_Loop","live_row_Practice_Loop","logfile","mouse_backend","opensesame_codename","opensesame_version","osf_always_upload_data","osf_always_upload_experiment","osf_datanode_id","osf_id","repeat_cycle","response","response_End_Of_Experiment","response_Experimental_intro","response_Introduction","response_Practice_intro","response_block_break_feedback","response_experimenter_kb","response_time","response_time_End_Of_Experiment","response_time_Experimental_intro","response_time_Introduction","response_time_Practice_intro","response_time_block_break_feedback","response_time_experimenter_kb","round_decimals","sampler_backend","sound_buf_size","sound_channels","sound_freq","sound_sample_size","start","subject_nr","subject_parity","time_End_Of_Experiment","time_End_Of_Practice","time_Experimental_Loop","time_Experimental_intro","time_Fixation","time_Introduction","time_Practice_Loop","time_Practice_intro","time_Stimulus","time_block_break_feedback","time_experimental_sequence","time_experimenter_kb","time_increment_trial_count","time_init_trial_count","time_logger","time_practice_sequence","time_right","time_task","time_wrong","title","total_correct","total_response_time","total_responses","uniform_coordinates","width"
"2.983324025","9.56","2","debt","word","100","100","1405.6","1405.6","black","no","legacy","legacy","legacy","0","uniform","1","undefined","undefined","undefined","1","j","0","0","0","0","4","0","0","0","4","NA","0","4","0","0","0","3","4","0","4","Thu Feb 18 16:04:45 2021","The main experiment item","yes","Lexical_Decision_Task.osexp","C:/Users/laure/OneDrive/Desktop","no","Andale Mono","no","18","no","white","no","yes","576","legacy","0","0","3","C:/Users/laure/OneDrive/Desktop/subject-5222796.csv","legacy","Lentiform Loewenfeld","3.3.7","yes","yes","600bd7cfb6416f0113b04181","602110864497cf011d9c0822","0","j","NA","j","j","j","NA","j","1325","NA","7056","26272","10318","NA","1325","2","legacy","1024","2","48000","-16","task","5222796","even","NA","67222","76280","69223","76325","20459","57054","46735","76826","NA","76324","76826","NA","76280","78152","65091","66688","20454","NA","Lexical Decision Task","5","7028","5","yes","1024"
"2.812467698","0","7","hafe","non-word","100","100","1326.6666666666667","1326.6666666666667","black","no","legacy","legacy","legacy","0","uniform","1","undefined","undefined","undefined","1","f","0","0","0","0","5","0","0","0","5","NA","1","5","1","0","1","3","5","0","5","Thu Feb 18 16:04:45 2021","The main experiment item","yes","Lexical_Decision_Task.osexp","C:/Users/laure/OneDrive/Desktop","no","Andale Mono","no","18","no","white","no","yes","576","legacy","1","1","3","C:/Users/laure/OneDrive/Desktop/subject-5222796.csv","legacy","Lentiform Loewenfeld","3.3.7","yes","yes","600bd7cfb6416f0113b04181","602110864497cf011d9c0822","0","f","NA","j","j","j","NA","f","932","NA","7056","26272","10318","NA","932","2","legacy","1024","2","48000","-16","task","5222796","even","NA","67222","76280","69223","78806","20459","57054","46735","79308","NA","78805","79308","78713","76280","80240","65091","78213","20454","NA","Lexical Decision Task","6","7960","6","yes","1024"
"3.316948329","0","1","besc","non-word","100","100","1251","1251","black","no","legacy","legacy","legacy","0","uniform","1","undefined","undefined","undefined","1","f","0","0","0","0","6","0","0","0","6","NA","2","6","2","0","2","3","6","0","6","Thu Feb 18 16:04:45 2021","The main experiment item","yes","Lexical_Decision_Task.osexp","C:/Users/laure/OneDrive/Desktop","no","Andale Mono","no","18","no","white","no","yes","576","legacy","2","2","3","C:/Users/laure/OneDrive/Desktop/subject-5222796.csv","legacy","Lentiform Loewenfeld","3.3.7","yes","yes","600bd7cfb6416f0113b04181","602110864497cf011d9c0822","0","f","NA","j","j","j","NA","f","797","NA","7056","26272","10318","NA","797","2","legacy","1024","2","48000","-16","task","5222796","even","NA","67222","76280","69223","80854","20459","57054","46735","81355","NA","80853","81355","80784","76280","82152","65091","80284","20454","NA","Lexical Decision Task","7","8757","7","yes","1024"
"2.713490543","0","3","feps","non-word","100","100","1222.875","1222.875","black","no","legacy","legacy","legacy","0","uniform","1","undefined","undefined","undefined","1","f","0","0","0","0","7","0","0","0","7","NA","3","7","3","0","3","3","7","0","7","Thu Feb 18 16:04:45 2021","The main experiment item","yes","Lexical_Decision_Task.osexp","C:/Users/laure/OneDrive/Desktop","no","Andale Mono","no","18","no","white","no","yes","576","legacy","3","3","3","C:/Users/laure/OneDrive/Desktop/subject-5222796.csv","legacy","Lentiform Loewenfeld","3.3.7","yes","yes","600bd7cfb6416f0113b04181","602110864497cf011d9c0822","0","f","NA","j","j","j","NA","f","1026","NA","7056","26272","10318","NA","1026","2","legacy","1024","2","48000","-16","task","5222796","even","NA","67222","76280","69223","82746","20459","57054","46735","83247","NA","82744","83247","82674","76280","84273","65091","82174","20454","NA","Lexical Decision Task","8","9783","8","yes","1024"
"3.120135028","0","3","vals","non-word","100","100","1219.5555555555557","1219.5555555555557","black","no","legacy","legacy","legacy","0","uniform","1","undefined","undefined","undefined","1","f","0","0","0","0","8","0","0","0","8","NA","4","8","4","0","4","3","8","0","8","Thu Feb 18 16:04:45 2021","The main experiment item","yes","Lexical_Decision_Task.osexp","C:/Users/laure/OneDrive/Desktop","no","Andale Mono","no","18","no","white","no","yes","576","legacy","4","4","3","C:/Users/laure/OneDrive/Desktop/subject-5222796.csv","legacy","Lentiform Loewenfeld","3.3.7","yes","yes","600bd7cfb6416f0113b04181","602110864497cf011d9c0822","0","f","NA","j","j","j","NA","f","1193","NA","7056","26272","10318","NA","1193","2","legacy","1024","2","48000","-16","task","5222796","even","NA","67222","76280","69223","84883","20459","57054","46735","85384","NA","84881","85384","84809","76280","86577","65091","84309","20454","NA","Lexical Decision Task","9","10976","9","yes","1024"
"2.937852093","0","7","bamp","non-word","100","100","1262.6","1262.6","black","no","legacy","legacy","legacy","0","uniform","1","undefined","undefined","undefined","1","f","0","0","0","0","9","0","0","0","9","NA","5","9","5","0","5","3","9","0","9","Thu Feb 18 16:04:45 2021","The main experiment item","yes","Lexical_Decision_Task.osexp","C:/Users/laure/OneDrive/Desktop","no","Andale Mono","no","18","no","white","no","yes","576","legacy","5","5","3","C:/Users/laure/OneDrive/Desktop/subject-5222796.csv","legacy","Lentiform Loewenfeld","3.3.7","yes","yes","600bd7cfb6416f0113b04181","602110864497cf011d9c0822","0","f","NA","j","j","j","NA","f","1650","NA","7056","26272","10318","NA","1650","2","legacy","1024","2","48000","-16","task","5222796","even","NA","67222","76280","69223","87177","20459","57054","46735","87678","NA","87175","87678","87101","76280","89329","65091","86601","20454","NA","Lexical Decision Task","10","12626","10","yes","1024"
"3.068433376","8.09","2","bulb","word","100","100","1217","1217","black","no","legacy","legacy","legacy","0","uniform","1","undefined","undefined","undefined","1","j","0","0","0","0","10","0","0","0","10","NA","6","10","6","0","6","3","10","0","10","Thu Feb 18 16:04:45 2021","The main experiment item","yes","Lexical_Decision_Task.osexp","C:/Users/laure/OneDrive/Desktop","no","Andale Mono","no","18","no","white","no","yes","576","legacy","6","6","3","C:/Users/laure/OneDrive/Desktop/subject-5222796.csv","legacy","Lentiform Loewenfeld","3.3.7","yes","yes","600bd7cfb6416f0113b04181","602110864497cf011d9c0822","0","j","NA","j","j","j","NA","j","761","NA","7056","26272","10318","NA","761","2","legacy","1024","2","48000","-16","task","5222796","even","NA","67222","76280","69223","89947","20459","57054","46735","90448","NA","89946","90448","89869","76280","91209","65091","89369","20454","NA","Lexical Decision Task","11","13387","11","yes","1024"
"3.372543801","9.24","8","coat","word","100","100","1166.6666666666667","1166.6666666666667","black","no","legacy","legacy","legacy","0","uniform","1","undefined","undefined","undefined","1","j","0","0","0","0","11","0","0","0","11","NA","7","11","7","0","7","3","11","0","11","Thu Feb 18 16:04:45 2021","The main experiment item","yes","Lexical_Decision_Task.osexp","C:/Users/laure/OneDrive/Desktop","no","Andale Mono","no","18","no","white","no","yes","576","legacy","7","7","3","C:/Users/laure/OneDrive/Desktop/subject-5222796.csv","legacy","Lentiform Loewenfeld","3.3.7","yes","yes","600bd7cfb6416f0113b04181","602110864497cf011d9c0822","0","j","NA","j","j","j","NA","j","613","NA","7056","26272","10318","NA","613","2","legacy","1024","2","48000","-16","task","5222796","even","NA","67222","76280","69223","91807","20459","57054","46735","92308","NA","91805","92308","91727","76280","92922","65091","91227","20454","NA","Lexical Decision Task","12","14000","12","yes","1024"
"3.311895072","0","9","gung","non-word","100","100","1131.8461538461538","1131.8461538461538","black","no","legacy","legacy","legacy","0","uniform","1","undefined","undefined","undefined","1","f","0","0","0","0","12","0","0","0","12","NA","8","12","8","0","8","3","12","0","12","Thu Feb 18 16:04:45 2021","The main experiment item","yes","Lexical_Decision_Task.osexp","C:/Users/laure/OneDrive/Desktop","no","Andale Mono","no","18","no","white","no","yes","576","legacy","8","8","3","C:/Users/laure/OneDrive/Desktop/subject-5222796.csv","legacy","Lentiform Loewenfeld","3.3.7","yes","yes","600bd7cfb6416f0113b04181","602110864497cf011d9c0822","0","f","NA","j","j","j","NA","f","714","NA","7056","26272","10318","NA","714","2","legacy","1024","2","48000","-16","task","5222796","even","NA","67222","76280","69223","93514","20459","57054","46735","94015","NA","93513","94015","93445","76280","94729","65091","92945","20454","NA","Lexical Decision Task","13","14714","13","yes","1024"
"2.845304797","0","6","buct","non-word","100","100","1114","1114","black","no","legacy","legacy","legacy","0","uniform","1","undefined","undefined","undefined","1","f","0","0","0","0","13","0","0","0","13","NA","9","13","9","0","9","3","13","0","13","Thu Feb 18 16:04:45 2021","The main experiment item","yes","Lexical_Decision_Task.osexp","C:/Users/laure/OneDrive/Desktop","no","Andale Mono","no","18","no","white","no","yes","576","legacy","9","9","3","C:/Users/laure/OneDrive/Desktop/subject-5222796.csv","legacy","Lentiform Loewenfeld","3.3.7","yes","yes","600bd7cfb6416f0113b04181","602110864497cf011d9c0822","0","f","NA","j","j","j","NA","f","882","NA","7056","26272","10318","NA","882","2","legacy","1024","2","48000","-16","task","5222796","even","NA","67222","76280","69223","95323","20459","57054","46735","95824","NA","95321","95824","95255","76280","96707","65091","94755","20454","NA","Lexical Decision Task","14","15596","14","yes","1024"
"3.067193647","6.73","6","raft","word","100","100","1079.8666666666666","1079.8666666666666","black","no","legacy","legacy","legacy","0","uniform","1","undefined","undefined","undefined","1","j","0","0","0","0","14","0","0","0","14","NA","10","14","10","0","10","3","14","0","14","Thu Feb 18 16:04:45 2021","The main experiment item","yes","Lexical_Decision_Task.osexp","C:/Users/laure/OneDrive/Desktop","no","Andale Mono","no","18","no","white","no","yes","576","legacy","10","10","3","C:/Users/laure/OneDrive/Desktop/subject-5222796.csv","legacy","Lentiform Loewenfeld","3.3.7","yes","yes","600bd7cfb6416f0113b04181","602110864497cf011d9c0822","0","j","NA","j","j","j","NA","j","602","NA","7056","26272","10318","NA","602","2","legacy","1024","2","48000","-16","task","5222796","even","NA","67222","76280","69223","97299","20459","57054","46735","97800","NA","97297","97800","97230","76280","98403","65091","96730","20454","NA","Lexical Decision Task","15","16198","15","yes","1024"
"2.979548375","8.71","4","soup","word","100","100","1059.375","1059.375","black","no","legacy","legacy","legacy","0","uniform","1","undefined","undefined","undefined","1","j","0","0","0","0","15","0","0","0","15","NA","11","15","11","0","11","3","15","0","15","Thu Feb 18 16:04:45 2021","The main experiment item","yes","Lexical_Decision_Task.osexp","C:/Users/laure/OneDrive/Desktop","no","Andale Mono","no","18","no","white","no","yes","576","legacy","11","11","3","C:/Users/laure/OneDrive/Desktop/subject-5222796.csv","legacy","Lentiform Loewenfeld","3.3.7","yes","yes","600bd7cfb6416f0113b04181","602110864497cf011d9c0822","0","j","NA","j","j","j","NA","j","752","NA","7056","26272","10318","NA","752","2","legacy","1024","2","48000","-16","task","5222796","even","NA","67222","76280","69223","98989","20459","57054","46735","99490","NA","98987","99490","98922","76280","100243","65091","98422","20454","NA","Lexical Decision Task","16","16950","16","yes","1024"
"2.719886232","7.98","2","quiz","word","100","100","1036.1176470588234","1036.1176470588234","black","no","legacy","legacy","legacy","0","uniform","1","undefined","undefined","undefined","1","j","0","0","0","0","16","0","0","0","16","NA","12","16","12","0","12","3","16","0","16","Thu Feb 18 16:04:45 2021","The main experiment item","yes","Lexical_Decision_Task.osexp","C:/Users/laure/OneDrive/Desktop","no","Andale Mono","no","18","no","white","no","yes","576","legacy","12","12","3","C:/Users/laure/OneDrive/Desktop/subject-5222796.csv","legacy","Lentiform Loewenfeld","3.3.7","yes","yes","600bd7cfb6416f0113b04181","602110864497cf011d9c0822","0","j","NA","j","j","j","NA","j","664","NA","7056","26272","10318","NA","664","2","legacy","1024","2","48000","-16","task","5222796","even","NA","67222","76280","69223","100837","20459","57054","46735","101338","NA","100836","101338","100765","76280","102002","65091","100265","20454","NA","Lexical Decision Task","17","17614","17","yes","1024"
"2.705007959","6.01","4","wept","word","100","100","1017.5","1017.5","black","no","legacy","legacy","legacy","0","uniform","1","undefined","undefined","undefined","1","j","0","0","0","0","17","0","0","0","17","NA","13","17","13","0","13","3","17","0","17","Thu Feb 18 16:04:45 2021","The main experiment item","yes","Lexical_Decision_Task.osexp","C:/Users/laure/OneDrive/Desktop","no","Andale Mono","no","18","no","white","no","yes","576","legacy","13","13","3","C:/Users/laure/OneDrive/Desktop/subject-5222796.csv","legacy","Lentiform Loewenfeld","3.3.7","yes","yes","600bd7cfb6416f0113b04181","602110864497cf011d9c0822","0","j","NA","j","j","j","NA","j","701","NA","7056","26272","10318","NA","701","2","legacy","1024","2","48000","-16","task","5222796","even","NA","67222","76280","69223","102592","20459","57054","46735","103093","NA","102591","103093","102523","76280","103795","65091","102023","20454","NA","Lexical Decision Task","18","18315","18","yes","1024"
"3.216517684","10.87","3","film","word","100","100","997.4736842105264","997.4736842105264","black","no","legacy","legacy","legacy","0","uniform","1","undefined","undefined","undefined","1","j","0","0","0","0","18","0","0","0","18","NA","14","18","14","0","14","3","18","0","18","Thu Feb 18 16:04:45 2021","The main experiment item","yes","Lexical_Decision_Task.osexp","C:/Users/laure/OneDrive/Desktop","no","Andale Mono","no","18","no","white","no","yes","576","legacy","14","14","3","C:/Users/laure/OneDrive/Desktop/subject-5222796.csv","legacy","Lentiform Loewenfeld","3.3.7","yes","yes","600bd7cfb6416f0113b04181","602110864497cf011d9c0822","0","j","NA","j","j","j","NA","j","637","NA","7056","26272","10318","NA","637","2","legacy","1024","2","48000","-16","task","5222796","even","NA","67222","76280","69223","104393","20459","57054","46735","104894","NA","104392","104894","104325","76280","105532","65091","103825","20454","NA","Lexical Decision Task","19","18952","19","yes","1024"
"2.873320602","0","4","lurg","non-word","100","100","979.65","979.65","black","no","legacy","legacy","legacy","0","uniform","1","undefined","undefined","undefined","1","f","0","0","0","0","19","0","0","0","19","NA","15","19","15","0","15","3","19","0","19","Thu Feb 18 16:04:45 2021","The main experiment item","yes","Lexical_Decision_Task.osexp","C:/Users/laure/OneDrive/Desktop","no","Andale Mono","no","18","no","white","no","yes","576","legacy","15","15","3","C:/Users/laure/OneDrive/Desktop/subject-5222796.csv","legacy","Lentiform Loewenfeld","3.3.7","yes","yes","600bd7cfb6416f0113b04181","602110864497cf011d9c0822","0","f","NA","j","j","j","NA","f","641","NA","7056","26272","10318","NA","641","2","legacy","1024","2","48000","-16","task","5222796","even","NA","67222","76280","69223","106133","20459","57054","46735","106634","NA","106131","106634","106049","76280","107276","65091","105549","20454","NA","Lexical Decision Task","20","19593","20","yes","1024"
"2.706148589","0","4","hube","non-word","100","100","966.8095238095239","966.8095238095239","black","no","legacy","legacy","legacy","0","uniform","1","undefined","undefined","undefined","1","f","0","0","0","0","20","0","0","0","20","NA","16","20","16","0","16","3","20","0","20","Thu Feb 18 16:04:45 2021","The main experiment item","yes","Lexical_Decision_Task.osexp","C:/Users/laure/OneDrive/Desktop","no","Andale Mono","no","18","no","white","no","yes","576","legacy","16","16","3","C:/Users/laure/OneDrive/Desktop/subject-5222796.csv","legacy","Lentiform Loewenfeld","3.3.7","yes","yes","600bd7cfb6416f0113b04181","602110864497cf011d9c0822","0","f","NA","j","j","j","NA","f","710","NA","7056","26272","10318","NA","710","2","legacy","1024","2","48000","-16","task","5222796","even","NA","67222","76280","69223","107864","20459","57054","46735","108365","NA","107862","108365","107791","76280","109076","65091","107291","20454","NA","Lexical Decision Task","21","20303","21","yes","1024"
"3.230789326","5.38","5","prim","word","100","100","987.7727272727273","987.7727272727273","black","no","legacy","legacy","legacy","0","uniform","1","undefined","undefined","undefined","1","j","0","0","0","0","21","0","0","0","21","NA","17","21","17","0","17","3","21","0","21","Thu Feb 18 16:04:45 2021","The main experiment item","yes","Lexical_Decision_Task.osexp","C:/Users/laure/OneDrive/Desktop","no","Andale Mono","no","18","no","white","no","yes","576","legacy","17","17","3","C:/Users/laure/OneDrive/Desktop/subject-5222796.csv","legacy","Lentiform Loewenfeld","3.3.7","yes","yes","600bd7cfb6416f0113b04181","602110864497cf011d9c0822","0","j","NA","j","j","j","NA","j","1428","NA","7056","26272","10318","NA","1428","2","legacy","1024","2","48000","-16","task","5222796","even","NA","67222","76280","69223","109674","20459","57054","46735","110175","NA","109672","110175","109601","76280","111603","65091","109101","20454","NA","Lexical Decision Task","22","21731","22","yes","1024"
"2.6599162","0","2","saff","non-word","100","100","989.0434782608696","989.0434782608696","black","no","legacy","legacy","legacy","0","uniform","1","undefined","undefined","undefined","1","f","0","0","0","0","22","0","0","0","22","NA","18","22","18","0","18","3","22","0","22","Thu Feb 18 16:04:45 2021","The main experiment item","yes","Lexical_Decision_Task.osexp","C:/Users/laure/OneDrive/Desktop","no","Andale Mono","no","18","no","white","no","yes","576","legacy","18","18","3","C:/Users/laure/OneDrive/Desktop/subject-5222796.csv","legacy","Lentiform Loewenfeld","3.3.7","yes","yes","600bd7cfb6416f0113b04181","602110864497cf011d9c0822","0","f","NA","j","j","j","NA","f","1017","NA","7056","26272","10318","NA","1017","2","legacy","1024","2","48000","-16","task","5222796","even","NA","67222","76280","69223","112189","20459","57054","46735","112690","NA","112188","112690","112118","76280","113708","65091","111618","20454","NA","Lexical Decision Task","23","22748","23","yes","1024"
"3.174641193","0","3","ramb","non-word","100","100","1004","1004","black","no","legacy","legacy","legacy","0","uniform","1","undefined","undefined","undefined","1","f","0","0","0","0","23","0","0","0","23","NA","19","23","19","0","19","3","23","0","23","Thu Feb 18 16:04:45 2021","The main experiment item","yes","Lexical_Decision_Task.osexp","C:/Users/laure/OneDrive/Desktop","no","Andale Mono","no","18","no","white","no","yes","576","legacy","19","19","3","C:/Users/laure/OneDrive/Desktop/subject-5222796.csv","legacy","Lentiform Loewenfeld","3.3.7","yes","yes","600bd7cfb6416f0113b04181","602110864497cf011d9c0822","0","f","NA","j","j","j","NA","f","1348","NA","7056","26272","10318","NA","1348","2","legacy","1024","2","48000","-16","task","5222796","even","NA","67222","76280","69223","114306","20459","57054","46735","114808","NA","114305","114808","114228","76280","116157","65091","113728","20454","NA","Lexical Decision Task","24","24096","24","yes","1024"
"2.728085817","10.02","9","bike","word","100","100","988.24","988.24","black","no","legacy","legacy","legacy","0","uniform","1","undefined","undefined","undefined","1","j","0","0","0","0","24","0","0","0","24","NA","20","24","20","0","20","3","24","0","24","Thu Feb 18 16:04:45 2021","The main experiment item","yes","Lexical_Decision_Task.osexp","C:/Users/laure/OneDrive/Desktop","no","Andale Mono","no","18","no","white","no","yes","576","legacy","20","20","3","C:/Users/laure/OneDrive/Desktop/subject-5222796.csv","legacy","Lentiform Loewenfeld","3.3.7","yes","yes","600bd7cfb6416f0113b04181","602110864497cf011d9c0822","0","j","NA","j","j","j","NA","j","610","NA","7056","26272","10318","NA","610","2","legacy","1024","2","48000","-16","task","5222796","even","NA","67222","76280","69223","116757","20459","57054","46735","117258","NA","116755","117258","116688","76280","117869","65091","116188","20454","NA","Lexical Decision Task","25","24706","25","yes","1024"
"2.893578687","8.69","3","surf","word","100","100","978.8076923076923","978.8076923076923","black","no","legacy","legacy","legacy","0","uniform","1","undefined","undefined","undefined","1","j","0","0","0","0","25","0","0","0","25","NA","21","25","21","0","21","3","25","0","25","Thu Feb 18 16:04:45 2021","The main experiment item","yes","Lexical_Decision_Task.osexp","C:/Users/laure/OneDrive/Desktop","no","Andale Mono","no","18","no","white","no","yes","576","legacy","21","21","3","C:/Users/laure/OneDrive/Desktop/subject-5222796.csv","legacy","Lentiform Loewenfeld","3.3.7","yes","yes","600bd7cfb6416f0113b04181","602110864497cf011d9c0822","0","j","NA","j","j","j","NA","j","743","NA","7056","26272","10318","NA","743","2","legacy","1024","2","48000","-16","task","5222796","even","NA","67222","76280","69223","118464","20459","57054","46735","118965","NA","118463","118965","118396","76280","119709","65091","117896","20454","NA","Lexical Decision Task","26","25449","26","yes","1024"
"3.031812271","6.52","3","gulp","word","100","100","971.3703703703703","971.3703703703703","black","no","legacy","legacy","legacy","0","uniform","1","undefined","undefined","undefined","1","j","0","0","0","0","26","0","0","0","26","NA","22","26","22","0","22","3","26","0","26","Thu Feb 18 16:04:45 2021","The main experiment item","yes","Lexical_Decision_Task.osexp","C:/Users/laure/OneDrive/Desktop","no","Andale Mono","no","18","no","white","no","yes","576","legacy","22","22","3","C:/Users/laure/OneDrive/Desktop/subject-5222796.csv","legacy","Lentiform Loewenfeld","3.3.7","yes","yes","600bd7cfb6416f0113b04181","602110864497cf011d9c0822","0","j","NA","j","j","j","NA","j","778","NA","7056","26272","10318","NA","778","2","legacy","1024","2","48000","-16","task","5222796","even","NA","67222","76280","69223","120309","20459","57054","46735","120810","NA","120308","120810","120230","76280","121589","65091","119730","20454","NA","Lexical Decision Task","27","26227","27","yes","1024"
"2.803231716","5.26","3","kiln","word","100","100","1017.3214285714286","1017.3214285714286","black","no","legacy","legacy","legacy","0","uniform","1","undefined","undefined","undefined","1","j","0","0","0","0","27","0","0","0","27","NA","23","27","23","0","23","3","27","0","27","Thu Feb 18 16:04:45 2021","The main experiment item","yes","Lexical_Decision_Task.osexp","C:/Users/laure/OneDrive/Desktop","no","Andale Mono","no","18","no","white","no","yes","576","legacy","23","23","3","C:/Users/laure/OneDrive/Desktop/subject-5222796.csv","legacy","Lentiform Loewenfeld","3.3.7","yes","yes","600bd7cfb6416f0113b04181","602110864497cf011d9c0822","0","j","NA","j","j","j","NA","j","2258","NA","7056","26272","10318","NA","2258","2","legacy","1024","2","48000","-16","task","5222796","even","NA","67222","76280","69223","122198","20459","57054","46735","122699","NA","122196","122699","122130","76280","124958","65091","121629","20454","NA","Lexical Decision Task","28","28485","28","yes","1024"
"3.488597715","0","9","nain","non-word","100","100","1022.5172413793103","1022.5172413793103","black","no","legacy","legacy","legacy","0","uniform","1","undefined","undefined","undefined","1","f","0","0","0","0","28","0","0","0","28","NA","24","28","24","0","24","3","28","0","28","Thu Feb 18 16:04:45 2021","The main experiment item","yes","Lexical_Decision_Task.osexp","C:/Users/laure/OneDrive/Desktop","no","Andale Mono","no","18","no","white","no","yes","576","legacy","24","24","3","C:/Users/laure/OneDrive/Desktop/subject-5222796.csv","legacy","Lentiform Loewenfeld","3.3.7","yes","yes","600bd7cfb6416f0113b04181","602110864497cf011d9c0822","0","f","NA","j","j","j","NA","f","1168","NA","7056","26272","10318","NA","1168","2","legacy","1024","2","48000","-16","task","5222796","even","NA","67222","76280","69223","125560","20459","57054","46735","126061","NA","125558","126061","125481","76280","127230","65091","124981","20454","NA","Lexical Decision Task","29","29653","29","yes","1024"
"3.076883066","0","8","mout","non-word","96.66666666666667","96.66666666666667","1018.6","1018.6","black","no","legacy","legacy","legacy","0","uniform","0","undefined","undefined","undefined","0","f","0","0","0","0","29","0","0","0","29","NA","25","29","25","0","25","3","29","0","29","Thu Feb 18 16:04:45 2021","The main experiment item","yes","Lexical_Decision_Task.osexp","C:/Users/laure/OneDrive/Desktop","no","Andale Mono","no","18","no","white","no","yes","576","legacy","25","25","3","C:/Users/laure/OneDrive/Desktop/subject-5222796.csv","legacy","Lentiform Loewenfeld","3.3.7","yes","yes","600bd7cfb6416f0113b04181","602110864497cf011d9c0822","0","j","NA","j","j","j","NA","j","905","NA","7056","26272","10318","NA","905","2","legacy","1024","2","48000","-16","task","5222796","even","NA","67222","76280","69223","127831","20459","57054","46735","128332","NA","127830","128332","127758","76280","129238","65091","127258","20454","NA","Lexical Decision Task","29","30558","30","yes","1024"
"3.168890155","0","6","thet","non-word","93.54838709677419","93.54838709677419","1082.516129032258","1082.516129032258","black","no","legacy","legacy","legacy","0","uniform","0","undefined","undefined","undefined","0","f","0","0","0","0","30","0","0","0","30","NA","26","30","26","0","26","3","30","0","30","Thu Feb 18 16:04:45 2021","The main experiment item","yes","Lexical_Decision_Task.osexp","C:/Users/laure/OneDrive/Desktop","no","Andale Mono","no","18","no","white","no","yes","576","legacy","26","26","3","C:/Users/laure/OneDrive/Desktop/subject-5222796.csv","legacy","Lentiform Loewenfeld","3.3.7","yes","yes","600bd7cfb6416f0113b04181","602110864497cf011d9c0822","0","None","NA","j","j","j","NA","None","3000","NA","7056","26272","10318","NA","3000","2","legacy","1024","2","48000","-16","task","5222796","even","NA","67222","76280","69223","130832","20459","57054","46735","131333","NA","130831","131333","130759","76280","134333","65091","127258","20454","129259","Lexical Decision Task","29","33558","31","yes","1024"
"2.771097306","0","9","jold","non-word","93.75","93.75","1076.78125","1076.78125","black","no","legacy","legacy","legacy","0","uniform","1","undefined","undefined","undefined","1","f","0","0","0","0","31","0","0","0","31","NA","27","31","27","0","27","3","31","0","31","Thu Feb 18 16:04:45 2021","The main experiment item","yes","Lexical_Decision_Task.osexp","C:/Users/laure/OneDrive/Desktop","no","Andale Mono","no","18","no","white","no","yes","576","legacy","27","27","3","C:/Users/laure/OneDrive/Desktop/subject-5222796.csv","legacy","Lentiform Loewenfeld","3.3.7","yes","yes","600bd7cfb6416f0113b04181","602110864497cf011d9c0822","0","f","NA","j","j","j","NA","f","899","NA","7056","26272","10318","NA","899","2","legacy","1024","2","48000","-16","task","5222796","even","NA","67222","76280","69223","135950","20459","57054","46735","136451","NA","135949","136451","135869","76280","137351","65091","127258","20454","134369","Lexical Decision Task","30","34457","32","yes","1024"
"3.137775856","7.39","5","comb","word","93.93939393939394","93.93939393939394","1061.6363636363637","1061.6363636363637","black","no","legacy","legacy","legacy","0","uniform","1","undefined","undefined","undefined","1","j","0","0","0","0","32","0","0","0","32","NA","28","32","28","0","28","3","32","0","32","Thu Feb 18 16:04:45 2021","The main experiment item","yes","Lexical_Decision_Task.osexp","C:/Users/laure/OneDrive/Desktop","no","Andale Mono","no","18","no","white","no","yes","576","legacy","28","28","3","C:/Users/laure/OneDrive/Desktop/subject-5222796.csv","legacy","Lentiform Loewenfeld","3.3.7","yes","yes","600bd7cfb6416f0113b04181","602110864497cf011d9c0822","0","j","NA","j","j","j","NA","j","577","NA","7056","26272","10318","NA","577","2","legacy","1024","2","48000","-16","task","5222796","even","NA","67222","76280","69223","137976","20459","57054","46735","138477","NA","137975","138477","137906","76280","139055","65091","137406","20454","134369","Lexical Decision Task","31","35034","33","yes","1024"
"3.132473155","0","4","glim","non-word","94.11764705882354","94.11764705882354","1064.4411764705883","1064.4411764705883","black","no","legacy","legacy","legacy","0","uniform","1","undefined","undefined","undefined","1","f","0","0","0","0","33","0","0","0","33","NA","29","33","29","0","29","3","33","0","33","Thu Feb 18 16:04:45 2021","The main experiment item","yes","Lexical_Decision_Task.osexp","C:/Users/laure/OneDrive/Desktop","no","Andale Mono","no","18","no","white","no","yes","576","legacy","29","29","3","C:/Users/laure/OneDrive/Desktop/subject-5222796.csv","legacy","Lentiform Loewenfeld","3.3.7","yes","yes","600bd7cfb6416f0113b04181","602110864497cf011d9c0822","0","f","NA","j","j","j","NA","f","1157","NA","7056","26272","10318","NA","1157","2","legacy","1024","2","48000","-16","task","5222796","even","NA","67222","76280","69223","139677","20459","57054","46735","140178","NA","139675","140178","139598","76280","141336","65091","139098","20454","134369","Lexical Decision Task","32","36191","34","yes","1024"
"3.062080345","0","6","tomp","non-word","94.28571428571429","94.28571428571429","1061","1061","black","no","legacy","legacy","legacy","0","uniform","1","undefined","undefined","undefined","1","f","0","0","0","0","34","0","0","0","34","NA","30","34","30","0","30","3","34","0","34","Thu Feb 18 16:04:45 2021","The main experiment item","yes","Lexical_Decision_Task.osexp","C:/Users/laure/OneDrive/Desktop","no","Andale Mono","no","18","no","white","no","yes","576","legacy","30","30","3","C:/Users/laure/OneDrive/Desktop/subject-5222796.csv","legacy","Lentiform Loewenfeld","3.3.7","yes","yes","600bd7cfb6416f0113b04181","602110864497cf011d9c0822","0","f","NA","j","j","j","NA","f","944","NA","7056","26272","10318","NA","944","2","legacy","1024","2","48000","-16","task","5222796","even","NA","67222","76280","69223","141938","20459","57054","46735","142439","NA","141936","142439","141857","76280","143384","65091","141357","20454","134369","Lexical Decision Task","33","37135","35","yes","1024"
"3.705778213","0","6","stin","non-word","94.44444444444444","94.44444444444444","1052.0833333333333","1052.0833333333333","black","no","legacy","legacy","legacy","0","uniform","1","undefined","undefined","undefined","1","f","0","0","0","0","35","0","0","0","35","NA","31","35","31","0","31","3","35","0","35","Thu Feb 18 16:04:45 2021","The main experiment item","yes","Lexical_Decision_Task.osexp","C:/Users/laure/OneDrive/Desktop","no","Andale Mono","no","18","no","white","no","yes","576","legacy","31","31","3","C:/Users/laure/OneDrive/Desktop/subject-5222796.csv","legacy","Lentiform Loewenfeld","3.3.7","yes","yes","600bd7cfb6416f0113b04181","602110864497cf011d9c0822","0","f","NA","j","j","j","NA","f","740","NA","7056","26272","10318","NA","740","2","legacy","1024","2","48000","-16","task","5222796","even","NA","67222","76280","69223","143966","20459","57054","46735","144467","NA","143965","144467","143896","76280","145208","65091","143396","20454","134369","Lexical Decision Task","34","37875","36","yes","1024"
"3.066077331","0","7","vorn","non-word","94.5945945945946","94.5945945945946","1042","1042","black","no","legacy","legacy","legacy","0","uniform","1","undefined","undefined","undefined","1","f","0","0","0","0","36","0","0","0","36","NA","32","36","32","0","32","3","36","0","36","Thu Feb 18 16:04:45 2021","The main experiment item","yes","Lexical_Decision_Task.osexp","C:/Users/laure/OneDrive/Desktop","no","Andale Mono","no","18","no","white","no","yes","576","legacy","32","32","3","C:/Users/laure/OneDrive/Desktop/subject-5222796.csv","legacy","Lentiform Loewenfeld","3.3.7","yes","yes","600bd7cfb6416f0113b04181","602110864497cf011d9c0822","0","f","NA","j","j","j","NA","f","679","NA","7056","26272","10318","NA","679","2","legacy","1024","2","48000","-16","task","5222796","even","NA","67222","76280","69223","145811","20459","57054","46735","146312","NA","145809","146312","145733","76280","146992","65091","145233","20454","134369","Lexical Decision Task","35","38554","37","yes","1024"
"2.868644438","10.52","4","town","word","94.73684210526316","94.73684210526316","1029.1842105263158","1029.1842105263158","black","no","legacy","legacy","legacy","0","uniform","1","undefined","undefined","undefined","1","j","0","0","0","0","37","0","0","0","37","NA","33","37","33","0","33","3","37","0","37","Thu Feb 18 16:04:45 2021","The main experiment item","yes","Lexical_Decision_Task.osexp","C:/Users/laure/OneDrive/Desktop","no","Andale Mono","no","18","no","white","no","yes","576","legacy","33","33","3","C:/Users/laure/OneDrive/Desktop/subject-5222796.csv","legacy","Lentiform Loewenfeld","3.3.7","yes","yes","600bd7cfb6416f0113b04181","602110864497cf011d9c0822","0","j","NA","j","j","j","NA","j","555","NA","7056","26272","10318","NA","555","2","legacy","1024","2","48000","-16","task","5222796","even","NA","67222","76280","69223","147591","20459","57054","46735","148092","NA","147589","148092","147518","76280","148648","65091","147017","20454","134369","Lexical Decision Task","36","39109","38","yes","1024"
"2.843025032","0","9","pusk","non-word","94.87179487179488","94.87179487179488","1018.3846153846154","1018.3846153846154","black","no","legacy","legacy","legacy","0","uniform","1","undefined","undefined","undefined","1","f","0","0","0","0","38","0","0","0","38","NA","34","38","34","0","34","3","38","0","38","Thu Feb 18 16:04:45 2021","The main experiment item","yes","Lexical_Decision_Task.osexp","C:/Users/laure/OneDrive/Desktop","no","Andale Mono","no","18","no","white","no","yes","576","legacy","34","34","3","C:/Users/laure/OneDrive/Desktop/subject-5222796.csv","legacy","Lentiform Loewenfeld","3.3.7","yes","yes","600bd7cfb6416f0113b04181","602110864497cf011d9c0822","0","f","NA","j","j","j","NA","f","608","NA","7056","26272","10318","NA","608","2","legacy","1024","2","48000","-16","task","5222796","even","NA","67222","76280","69223","149234","20459","57054","46735","149735","NA","149233","149735","149164","76280","150344","65091","148664","20454","134369","Lexical Decision Task","37","39717","39","yes","1024"
"2.807758206","6.25","4","hurl","word","92.5","92.5","1008.725","1008.725","black","no","legacy","legacy","legacy","0","uniform","0","undefined","undefined","undefined","0","j","0","0","0","0","39","0","0","0","39","NA","35","39","35","0","35","3","39","0","39","Thu Feb 18 16:04:45 2021","The main experiment item","yes","Lexical_Decision_Task.osexp","C:/Users/laure/OneDrive/Desktop","no","Andale Mono","no","18","no","white","no","yes","576","legacy","35","35","3","C:/Users/laure/OneDrive/Desktop/subject-5222796.csv","legacy","Lentiform Loewenfeld","3.3.7","yes","yes","600bd7cfb6416f0113b04181","602110864497cf011d9c0822","0","f","NA","j","j","j","NA","f","632","NA","7056","26272","10318","NA","632","2","legacy","1024","2","48000","-16","task","5222796","even","NA","67222","76280","69223","150955","20459","57054","46735","151456","NA","150954","151456","150885","76280","152089","65091","150385","20454","134369","Lexical Decision Task","37","40349","40","yes","1024"
"3.037294994","8.64","7","roof","word","92.6829268292683","92.6829268292683","998.560975609756","998.560975609756","black","no","legacy","legacy","legacy","0","uniform","1","undefined","undefined","undefined","1","j","0","0","0","0","40","0","0","0","40","NA","36","40","36","0","36","3","40","0","40","Thu Feb 18 16:04:45 2021","The main experiment item","yes","Lexical_Decision_Task.osexp","C:/Users/laure/OneDrive/Desktop","no","Andale Mono","no","18","no","white","no","yes","576","legacy","36","36","3","C:/Users/laure/OneDrive/Desktop/subject-5222796.csv","legacy","Lentiform Loewenfeld","3.3.7","yes","yes","600bd7cfb6416f0113b04181","602110864497cf011d9c0822","0","j","NA","j","j","j","NA","j","592","NA","7056","26272","10318","NA","592","2","legacy","1024","2","48000","-16","task","5222796","even","NA","67222","76280","69223","153683","20459","57054","46735","154184","NA","153682","154184","153611","76280","154777","65091","150385","20454","152111","Lexical Decision Task","38","40941","41","yes","1024"
"3.263399331","0","8","cour","non-word","92.85714285714286","92.85714285714286","999.8571428571429","999.8571428571429","black","no","legacy","legacy","legacy","0","uniform","1","undefined","undefined","undefined","1","f","0","0","0","0","41","0","0","0","41","NA","37","41","37","0","37","3","41","0","41","Thu Feb 18 16:04:45 2021","The main experiment item","yes","Lexical_Decision_Task.osexp","C:/Users/laure/OneDrive/Desktop","no","Andale Mono","no","18","no","white","no","yes","576","legacy","37","37","3","C:/Users/laure/OneDrive/Desktop/subject-5222796.csv","legacy","Lentiform Loewenfeld","3.3.7","yes","yes","600bd7cfb6416f0113b04181","602110864497cf011d9c0822","0","f","NA","j","j","j","NA","f","1053","NA","7056","26272","10318","NA","1053","2","legacy","1024","2","48000","-16","task","5222796","even","NA","67222","76280","69223","155375","20459","57054","46735","155876","NA","155374","155876","155297","76280","156929","65091","154797","20454","152111","Lexical Decision Task","39","41994","42","yes","1024"
"3.303771854","0","9","dath","non-word","93.02325581395348","93.02325581395348","991.2325581395348","991.2325581395348","black","no","legacy","legacy","legacy","0","uniform","1","undefined","undefined","undefined","1","f","0","0","0","0","42","0","0","0","42","NA","38","42","38","0","38","3","42","0","42","Thu Feb 18 16:04:45 2021","The main experiment item","yes","Lexical_Decision_Task.osexp","C:/Users/laure/OneDrive/Desktop","no","Andale Mono","no","18","no","white","no","yes","576","legacy","38","38","3","C:/Users/laure/OneDrive/Desktop/subject-5222796.csv","legacy","Lentiform Loewenfeld","3.3.7","yes","yes","600bd7cfb6416f0113b04181","602110864497cf011d9c0822","0","f","NA","j","j","j","NA","f","629","NA","7056","26272","10318","NA","629","2","legacy","1024","2","48000","-16","task","5222796","even","NA","67222","76280","69223","157519","20459","57054","46735","158020","NA","157517","158020","157443","76280","158650","65091","156943","20454","152111","Lexical Decision Task","40","42623","43","yes","1024"
"2.778633532","0","3","jurp","non-word","93.18181818181819","93.18181818181819","996.7045454545455","996.7045454545455","black","no","legacy","legacy","legacy","0","uniform","1","undefined","undefined","undefined","1","f","0","0","0","0","43","0","0","0","43","NA","39","43","39","0","39","3","43","0","43","Thu Feb 18 16:04:45 2021","The main experiment item","yes","Lexical_Decision_Task.osexp","C:/Users/laure/OneDrive/Desktop","no","Andale Mono","no","18","no","white","no","yes","576","legacy","39","39","3","C:/Users/laure/OneDrive/Desktop/subject-5222796.csv","legacy","Lentiform Loewenfeld","3.3.7","yes","yes","600bd7cfb6416f0113b04181","602110864497cf011d9c0822","0","f","NA","j","j","j","NA","f","1232","NA","7056","26272","10318","NA","1232","2","legacy","1024","2","48000","-16","task","5222796","even","NA","67222","76280","69223","159252","20459","57054","46735","159753","NA","159251","159753","159172","76280","160986","65091","158672","20454","152111","Lexical Decision Task","41","43855","44","yes","1024"
"3.145920145","8.51","8","flew","word","93.33333333333333","93.33333333333333","990.3555555555556","990.3555555555556","black","no","legacy","legacy","legacy","0","uniform","1","undefined","undefined","undefined","1","j","0","0","0","0","44","0","0","0","44","NA","40","44","40","0","40","3","44","0","44","Thu Feb 18 16:04:45 2021","The main experiment item","yes","Lexical_Decision_Task.osexp","C:/Users/laure/OneDrive/Desktop","no","Andale Mono","no","18","no","white","no","yes","576","legacy","40","40","3","C:/Users/laure/OneDrive/Desktop/subject-5222796.csv","legacy","Lentiform Loewenfeld","3.3.7","yes","yes","600bd7cfb6416f0113b04181","602110864497cf011d9c0822","0","j","NA","j","j","j","NA","j","711","NA","7056","26272","10318","NA","711","2","legacy","1024","2","48000","-16","task","5222796","even","NA","67222","76280","69223","161581","20459","57054","46735","162082","NA","161580","162082","161506","76280","162794","65091","161006","20454","152111","Lexical Decision Task","42","44566","45","yes","1024"
"2.899638141","0","3","hapt","non-word","93.47826086956522","93.47826086956522","986.2608695652174","986.2608695652174","black","no","legacy","legacy","legacy","0","uniform","1","undefined","undefined","undefined","1","f","0","0","0","0","45","0","0","0","45","NA","41","45","41","0","41","3","45","0","45","Thu Feb 18 16:04:45 2021","The main experiment item","yes","Lexical_Decision_Task.osexp","C:/Users/laure/OneDrive/Desktop","no","Andale Mono","no","18","no","white","no","yes","576","legacy","41","41","3","C:/Users/laure/OneDrive/Desktop/subject-5222796.csv","legacy","Lentiform Loewenfeld","3.3.7","yes","yes","600bd7cfb6416f0113b04181","602110864497cf011d9c0822","0","f","NA","j","j","j","NA","f","802","NA","7056","26272","10318","NA","802","2","legacy","1024","2","48000","-16","task","5222796","even","NA","67222","76280","69223","163425","20459","57054","46735","163926","NA","163423","163927","163346","76280","164730","65091","162846","20454","152111","Lexical Decision Task","43","45368","46","yes","1024"
"3.440331212","7.35","6","stew","word","93.61702127659575","93.61702127659575","979.7446808510638","979.7446808510638","black","no","legacy","legacy","legacy","0","uniform","1","undefined","undefined","undefined","1","j","0","0","0","0","46","0","0","0","46","NA","42","46","42","0","42","3","46","0","46","Thu Feb 18 16:04:45 2021","The main experiment item","yes","Lexical_Decision_Task.osexp","C:/Users/laure/OneDrive/Desktop","no","Andale Mono","no","18","no","white","no","yes","576","legacy","42","42","3","C:/Users/laure/OneDrive/Desktop/subject-5222796.csv","legacy","Lentiform Loewenfeld","3.3.7","yes","yes","600bd7cfb6416f0113b04181","602110864497cf011d9c0822","0","j","NA","j","j","j","NA","j","680","NA","7056","26272","10318","NA","680","2","legacy","1024","2","48000","-16","task","5222796","even","NA","67222","76280","69223","165349","20459","57054","46735","165850","NA","165347","165850","165270","76280","166531","65091","164770","20454","152111","Lexical Decision Task","44","46048","47","yes","1024"
"3.299579929","0","2","flis","non-word","93.75","93.75","976.3125","976.3125","black","no","legacy","legacy","legacy","0","uniform","1","undefined","undefined","undefined","1","f","0","0","0","0","47","0","0","0","47","NA","43","47","43","0","43","3","47","0","47","Thu Feb 18 16:04:45 2021","The main experiment item","yes","Lexical_Decision_Task.osexp","C:/Users/laure/OneDrive/Desktop","no","Andale Mono","no","18","no","white","no","yes","576","legacy","43","43","3","C:/Users/laure/OneDrive/Desktop/subject-5222796.csv","legacy","Lentiform Loewenfeld","3.3.7","yes","yes","600bd7cfb6416f0113b04181","602110864497cf011d9c0822","0","f","NA","j","j","j","NA","f","815","NA","7056","26272","10318","NA","815","2","legacy","1024","2","48000","-16","task","5222796","even","NA","67222","76280","69223","167134","20459","57054","46735","167635","NA","167132","167635","167059","76280","168451","65091","166559","20454","152111","Lexical Decision Task","45","46863","48","yes","1024"
"2.7084209","0","8","vump","non-word","93.87755102040816","93.87755102040816","972.8367346938776","972.8367346938776","black","no","legacy","legacy","legacy","0","uniform","1","undefined","undefined","undefined","1","f","0","0","0","0","48","0","0","0","48","NA","44","48","44","0","44","3","48","0","48","Thu Feb 18 16:04:45 2021","The main experiment item","yes","Lexical_Decision_Task.osexp","C:/Users/laure/OneDrive/Desktop","no","Andale Mono","no","18","no","white","no","yes","576","legacy","44","44","3","C:/Users/laure/OneDrive/Desktop/subject-5222796.csv","legacy","Lentiform Loewenfeld","3.3.7","yes","yes","600bd7cfb6416f0113b04181","602110864497cf011d9c0822","0","f","NA","j","j","j","NA","f","806","NA","7056","26272","10318","NA","806","2","legacy","1024","2","48000","-16","task","5222796","even","NA","67222","76280","69223","169071","20459","57054","46735","169572","NA","169069","169572","168997","76280","170379","65091","168497","20454","152111","Lexical Decision Task","46","47669","49","yes","1024"
"3.090140555","5.81","8","pout","word","94","94","966.56","966.56","black","no","legacy","legacy","legacy","0","uniform","1","undefined","undefined","undefined","1","j","0","0","0","0","49","0","0","0","49","NA","45","49","45","0","45","3","49","0","49","Thu Feb 18 16:04:45 2021","The main experiment item","yes","Lexical_Decision_Task.osexp","C:/Users/laure/OneDrive/Desktop","no","Andale Mono","no","18","no","white","no","yes","576","legacy","45","45","3","C:/Users/laure/OneDrive/Desktop/subject-5222796.csv","legacy","Lentiform Loewenfeld","3.3.7","yes","yes","600bd7cfb6416f0113b04181","602110864497cf011d9c0822","0","j","NA","j","j","j","NA","j","659","NA","7056","26272","10318","NA","659","2","legacy","1024","2","48000","-16","task","5222796","even","NA","67222","76280","69223","170978","20459","57054","46735","171479","NA","170976","171479","170901","76280","172139","65091","170401","20454","152111","Lexical Decision Task","47","48328","50","yes","1024"
"3.374137706","10.21","4","tree","word","94.11764705882354","94.11764705882354","959.7647058823529","959.7647058823529","black","no","legacy","legacy","legacy","0","uniform","1","undefined","undefined","undefined","1","j","0","0","0","0","50","0","0","0","50","NA","46","50","46","0","46","3","50","0","50","Thu Feb 18 16:04:45 2021","The main experiment item","yes","Lexical_Decision_Task.osexp","C:/Users/laure/OneDrive/Desktop","no","Andale Mono","no","18","no","white","no","yes","576","legacy","46","46","3","C:/Users/laure/OneDrive/Desktop/subject-5222796.csv","legacy","Lentiform Loewenfeld","3.3.7","yes","yes","600bd7cfb6416f0113b04181","602110864497cf011d9c0822","0","j","NA","j","j","j","NA","j","620","NA","7056","26272","10318","NA","620","2","legacy","1024","2","48000","-16","task","5222796","even","NA","67222","76280","69223","172738","20459","57054","46735","173239","NA","172737","173239","172665","76280","173860","65091","172165","20454","152111","Lexical Decision Task","48","48948","51","yes","1024"
"2.668385917","5.48","4","twig","word","94.23076923076923","94.23076923076923","953.5769230769231","953.5769230769231","black","no","legacy","legacy","legacy","0","uniform","1","undefined","undefined","undefined","1","j","0","0","0","0","51","0","0","0","51","NA","47","51","47","0","47","3","51","0","51","Thu Feb 18 16:04:45 2021","The main experiment item","yes","Lexical_Decision_Task.osexp","C:/Users/laure/OneDrive/Desktop","no","Andale Mono","no","18","no","white","no","yes","576","legacy","47","47","3","C:/Users/laure/OneDrive/Desktop/subject-5222796.csv","legacy","Lentiform Loewenfeld","3.3.7","yes","yes","600bd7cfb6416f0113b04181","602110864497cf011d9c0822","0","j","NA","j","j","j","NA","j","638","NA","7056","26272","10318","NA","638","2","legacy","1024","2","48000","-16","task","5222796","even","NA","67222","76280","69223","174448","20459","57054","46735","174949","NA","174446","174949","174374","76280","175588","65091","173874","20454","152111","Lexical Decision Task","49","49586","52","yes","1024"
"2.695770526","7.34","6","pawn","word","94.33962264150944","94.33962264150944","951.3207547169811","951.3207547169811","black","no","legacy","legacy","legacy","0","uniform","1","undefined","undefined","undefined","1","j","0","0","0","0","52","0","0","0","52","NA","48","52","48","0","48","3","52","0","52","Thu Feb 18 16:04:45 2021","The main experiment item","yes","Lexical_Decision_Task.osexp","C:/Users/laure/OneDrive/Desktop","no","Andale Mono","no","18","no","white","no","yes","576","legacy","48","48","3","C:/Users/laure/OneDrive/Desktop/subject-5222796.csv","legacy","Lentiform Loewenfeld","3.3.7","yes","yes","600bd7cfb6416f0113b04181","602110864497cf011d9c0822","0","j","NA","j","j","j","NA","j","834","NA","7056","26272","10318","NA","834","2","legacy","1024","2","48000","-16","task","5222796","even","NA","67222","76280","69223","176196","20459","57054","46735","176697","NA","176194","176697","176116","76280","177532","65091","175616","20454","152111","Lexical Decision Task","50","50420","53","yes","1024"
"3.209246849","0","7","slem","non-word","94.44444444444444","94.44444444444444","946.2037037037037","946.2037037037037","black","no","legacy","legacy","legacy","0","uniform","1","undefined","undefined","undefined","1","f","0","0","0","0","53","0","0","0","53","NA","49","53","49","0","49","3","53","0","53","Thu Feb 18 16:04:45 2021","The main experiment item","yes","Lexical_Decision_Task.osexp","C:/Users/laure/OneDrive/Desktop","no","Andale Mono","no","18","no","white","no","yes","576","legacy","49","49","3","C:/Users/laure/OneDrive/Desktop/subject-5222796.csv","legacy","Lentiform Loewenfeld","3.3.7","yes","yes","600bd7cfb6416f0113b04181","602110864497cf011d9c0822","0","f","NA","j","j","j","NA","f","675","NA","7056","26272","10318","NA","675","2","legacy","1024","2","48000","-16","task","5222796","even","NA","67222","76280","69223","178131","20459","57054","46735","178632","NA","178130","178632","178055","76280","179308","65091","177555","20454","152111","Lexical Decision Task","51","51095","54","yes","1024"
"2.693726949","5.08","3","swig","word","92.72727272727273","92.72727272727273","983.5454545454545","983.5454545454545","black","no","legacy","legacy","legacy","0","uniform","0","undefined","undefined","undefined","0","j","0","0","0","0","54","0","0","0","54","0","50","54","50","0","50","3","54","0","54","Thu Feb 18 16:04:45 2021","The main experiment item","yes","Lexical_Decision_Task.osexp","C:/Users/laure/OneDrive/Desktop","no","Andale Mono","no","18","no","white","no","yes","576","legacy","50","50","3","C:/Users/laure/OneDrive/Desktop/subject-5222796.csv","legacy","Lentiform Loewenfeld","3.3.7","yes","yes","600bd7cfb6416f0113b04181","602110864497cf011d9c0822","0","None","NA","j","j","j","j","None","3000","NA","7056","26272","10318","17610","3000","2","legacy","1024","2","48000","-16","task","5222796","even","NA","67222","76280","69223","197557","20459","57054","46735","198058","179875","197556","198058","179838","76280","201058","65091","179338","20454","152111","Lexical Decision Task","51","54095","55","yes","1024"
"3.208172527","10.27","7","deck","word","92.85714285714286","92.85714285714286","979.0357142857143","979.0357142857143","black","no","legacy","legacy","legacy","0","uniform","1","undefined","undefined","undefined","1","j","0","0","0","0","55","0","0","0","55","0","51","55","51","0","51","3","55","0","55","Thu Feb 18 16:04:45 2021","The main experiment item","yes","Lexical_Decision_Task.osexp","C:/Users/laure/OneDrive/Desktop","no","Andale Mono","no","18","no","white","no","yes","576","legacy","51","51","3","C:/Users/laure/OneDrive/Desktop/subject-5222796.csv","legacy","Lentiform Loewenfeld","3.3.7","yes","yes","600bd7cfb6416f0113b04181","602110864497cf011d9c0822","0","j","NA","j","j","j","j","j","731","NA","7056","26272","10318","17610","731","2","legacy","1024","2","48000","-16","task","5222796","even","NA","67222","76280","69223","202686","20459","57054","46735","203187","179875","202684","203187","202604","76280","203919","65091","179338","20454","201104","Lexical Decision Task","52","54826","56","yes","1024"
"2.8162413","0","5","nusk","non-word","92.98245614035088","92.98245614035088","973.9473684210526","973.9473684210526","black","no","legacy","legacy","legacy","0","uniform","1","undefined","undefined","undefined","1","f","0","0","0","0","56","0","0","0","56","0","52","56","52","0","52","3","56","0","56","Thu Feb 18 16:04:45 2021","The main experiment item","yes","Lexical_Decision_Task.osexp","C:/Users/laure/OneDrive/Desktop","no","Andale Mono","no","18","no","white","no","yes","576","legacy","52","52","3","C:/Users/laure/OneDrive/Desktop/subject-5222796.csv","legacy","Lentiform Loewenfeld","3.3.7","yes","yes","600bd7cfb6416f0113b04181","602110864497cf011d9c0822","0","f","NA","j","j","j","j","f","689","NA","7056","26272","10318","17610","689","2","legacy","1024","2","48000","-16","task","5222796","even","NA","67222","76280","69223","204536","20459","57054","46735","205037","179875","204534","205037","204456","76280","205727","65091","203956","20454","201104","Lexical Decision Task","53","55515","57","yes","1024"
"3.257359335","8","6","brew","word","93.10344827586206","93.10344827586206","968.6034482758621","968.6034482758621","black","no","legacy","legacy","legacy","0","uniform","1","undefined","undefined","undefined","1","j","0","0","0","0","57","0","0","0","57","0","53","57","53","0","53","3","57","0","57","Thu Feb 18 16:04:45 2021","The main experiment item","yes","Lexical_Decision_Task.osexp","C:/Users/laure/OneDrive/Desktop","no","Andale Mono","no","18","no","white","no","yes","576","legacy","53","53","3","C:/Users/laure/OneDrive/Desktop/subject-5222796.csv","legacy","Lentiform Loewenfeld","3.3.7","yes","yes","600bd7cfb6416f0113b04181","602110864497cf011d9c0822","0","j","NA","j","j","j","j","j","664","NA","7056","26272","10318","17610","664","2","legacy","1024","2","48000","-16","task","5222796","even","NA","67222","76280","69223","206329","20459","57054","46735","206830","179875","206328","206830","206248","76280","207495","65091","205748","20454","201104","Lexical Decision Task","54","56179","58","yes","1024"
"2.996511672","0","7","hoil","non-word","93.22033898305085","93.22033898305085","977.0338983050848","977.0338983050848","black","no","legacy","legacy","legacy","0","uniform","1","undefined","undefined","undefined","1","f","0","0","0","0","58","0","0","0","58","0","54","58","54","0","54","3","58","0","58","Thu Feb 18 16:04:45 2021","The main experiment item","yes","Lexical_Decision_Task.osexp","C:/Users/laure/OneDrive/Desktop","no","Andale Mono","no","18","no","white","no","yes","576","legacy","54","54","3","C:/Users/laure/OneDrive/Desktop/subject-5222796.csv","legacy","Lentiform Loewenfeld","3.3.7","yes","yes","600bd7cfb6416f0113b04181","602110864497cf011d9c0822","0","f","NA","j","j","j","j","f","1466","NA","7056","26272","10318","17610","1466","2","legacy","1024","2","48000","-16","task","5222796","even","NA","67222","76280","69223","208112","20459","57054","46735","208613","179875","208111","208613","208032","76280","210080","65091","207532","20454","201104","Lexical Decision Task","55","57645","59","yes","1024"
"2.971428938","9.86","7","spot","word","93.33333333333333","93.33333333333333","971.6166666666667","971.6166666666667","black","no","legacy","legacy","legacy","0","uniform","1","undefined","undefined","undefined","1","j","0","0","0","0","59","0","0","0","59","0","55","59","55","0","55","3","59","0","59","Thu Feb 18 16:04:45 2021","The main experiment item","yes","Lexical_Decision_Task.osexp","C:/Users/laure/OneDrive/Desktop","no","Andale Mono","no","18","no","white","no","yes","576","legacy","55","55","3","C:/Users/laure/OneDrive/Desktop/subject-5222796.csv","legacy","Lentiform Loewenfeld","3.3.7","yes","yes","600bd7cfb6416f0113b04181","602110864497cf011d9c0822","0","j","NA","j","j","j","j","j","652","NA","7056","26272","10318","17610","652","2","legacy","1024","2","48000","-16","task","5222796","even","NA","67222","76280","69223","210686","20459","57054","46735","211187","179875","210685","211187","210616","76280","211840","65091","210116","20454","201104","Lexical Decision Task","56","58297","60","yes","1024"
"2.68604012","0","3","mulb","non-word","93.44262295081967","93.44262295081967","965.4262295081967","965.4262295081967","black","no","legacy","legacy","legacy","0","uniform","1","undefined","undefined","undefined","1","f","0","0","0","0","60","0","0","0","60","0","56","60","56","0","56","3","60","0","60","Thu Feb 18 16:04:45 2021","The main experiment item","yes","Lexical_Decision_Task.osexp","C:/Users/laure/OneDrive/Desktop","no","Andale Mono","no","18","no","white","no","yes","576","legacy","56","56","3","C:/Users/laure/OneDrive/Desktop/subject-5222796.csv","legacy","Lentiform Loewenfeld","3.3.7","yes","yes","600bd7cfb6416f0113b04181","602110864497cf011d9c0822","0","f","NA","j","j","j","j","f","594","NA","7056","26272","10318","17610","594","2","legacy","1024","2","48000","-16","task","5222796","even","NA","67222","76280","69223","212432","20459","57054","46735","212933","179875","212430","212933","212359","76280","213528","65091","211859","20454","201104","Lexical Decision Task","57","58891","61","yes","1024"
"2.68604012","0","4","pumb","non-word","93.54838709677419","93.54838709677419","964.0322580645161","964.0322580645161","black","no","legacy","legacy","legacy","0","uniform","1","undefined","undefined","undefined","1","f","0","0","0","0","61","0","0","0","61","0","57","61","57","0","57","3","61","0","61","Thu Feb 18 16:04:45 2021","The main experiment item","yes","Lexical_Decision_Task.osexp","C:/Users/laure/OneDrive/Desktop","no","Andale Mono","no","18","no","white","no","yes","576","legacy","57","57","3","C:/Users/laure/OneDrive/Desktop/subject-5222796.csv","legacy","Lentiform Loewenfeld","3.3.7","yes","yes","600bd7cfb6416f0113b04181","602110864497cf011d9c0822","0","f","NA","j","j","j","j","f","879","NA","7056","26272","10318","17610","879","2","legacy","1024","2","48000","-16","task","5222796","even","NA","67222","76280","69223","214131","20459","57054","46735","214632","179875","214130","214632","214051","76280","215512","65091","213551","20454","201104","Lexical Decision Task","58","59770","62","yes","1024"
"2.703007489","8.37","3","pulp","word","93.65079365079364","93.65079365079364","958.047619047619","958.047619047619","black","no","legacy","legacy","legacy","0","uniform","1","undefined","undefined","undefined","1","j","0","0","0","0","62","0","0","0","62","0","58","62","58","0","58","3","62","0","62","Thu Feb 18 16:04:45 2021","The main experiment item","yes","Lexical_Decision_Task.osexp","C:/Users/laure/OneDrive/Desktop","no","Andale Mono","no","18","no","white","no","yes","576","legacy","58","58","3","C:/Users/laure/OneDrive/Desktop/subject-5222796.csv","legacy","Lentiform Loewenfeld","3.3.7","yes","yes","600bd7cfb6416f0113b04181","602110864497cf011d9c0822","0","j","NA","j","j","j","j","j","587","NA","7056","26272","10318","17610","587","2","legacy","1024","2","48000","-16","task","5222796","even","NA","67222","76280","69223","216111","20459","57054","46735","216612","179875","216109","216612","216035","76280","217200","65091","215535","20454","201104","Lexical Decision Task","59","60357","63","yes","1024"
"3.460446784","0","5","dess","non-word","93.75","93.75","954.75","954.75","black","no","legacy","legacy","legacy","0","uniform","1","undefined","undefined","undefined","1","f","0","0","0","0","63","0","0","0","63","0","59","63","59","0","59","3","63","0","63","Thu Feb 18 16:04:45 2021","The main experiment item","yes","Lexical_Decision_Task.osexp","C:/Users/laure/OneDrive/Desktop","no","Andale Mono","no","18","no","white","no","yes","576","legacy","59","59","3","C:/Users/laure/OneDrive/Desktop/subject-5222796.csv","legacy","Lentiform Loewenfeld","3.3.7","yes","yes","600bd7cfb6416f0113b04181","602110864497cf011d9c0822","0","f","NA","j","j","j","j","f","747","NA","7056","26272","10318","17610","747","2","legacy","1024","2","48000","-16","task","5222796","even","NA","67222","76280","69223","217799","20459","57054","46735","218300","179875","217798","218300","217730","76280","219048","65091","217230","20454","201104","Lexical Decision Task","60","61104","64","yes","1024"
"2.880623071","0","9","curp","non-word","93.84615384615384","93.84615384615384","953.1384615384616","953.1384615384616","black","no","legacy","legacy","legacy","0","uniform","1","undefined","undefined","undefined","1","f","0","0","0","0","64","0","0","0","64","0","60","64","60","0","60","3","64","0","64","Thu Feb 18 16:04:45 2021","The main experiment item","yes","Lexical_Decision_Task.osexp","C:/Users/laure/OneDrive/Desktop","no","Andale Mono","no","18","no","white","no","yes","576","legacy","60","60","3","C:/Users/laure/OneDrive/Desktop/subject-5222796.csv","legacy","Lentiform Loewenfeld","3.3.7","yes","yes","600bd7cfb6416f0113b04181","602110864497cf011d9c0822","0","f","NA","j","j","j","j","f","850","NA","7056","26272","10318","17610","850","2","legacy","1024","2","48000","-16","task","5222796","even","NA","67222","76280","69223","219673","20459","57054","46735","220174","179875","219672","220174","219594","76280","221025","65091","219094","20454","201104","Lexical Decision Task","61","61954","65","yes","1024"
"2.842815106","7.86","8","lump","word","93.93939393939394","93.93939393939394","952.3787878787879","952.3787878787879","black","no","legacy","legacy","legacy","0","uniform","1","undefined","undefined","undefined","1","j","0","0","0","0","65","0","0","0","65","0","61","65","61","0","61","3","65","0","65","Thu Feb 18 16:04:45 2021","The main experiment item","yes","Lexical_Decision_Task.osexp","C:/Users/laure/OneDrive/Desktop","no","Andale Mono","no","18","no","white","no","yes","576","legacy","61","61","3","C:/Users/laure/OneDrive/Desktop/subject-5222796.csv","legacy","Lentiform Loewenfeld","3.3.7","yes","yes","600bd7cfb6416f0113b04181","602110864497cf011d9c0822","0","j","NA","j","j","j","j","j","903","NA","7056","26272","10318","17610","903","2","legacy","1024","2","48000","-16","task","5222796","even","NA","67222","76280","69223","221652","20459","57054","46735","222154","179875","221650","222154","221570","76280","223058","65091","221070","20454","201104","Lexical Decision Task","62","62857","66","yes","1024"
"2.920123326","7.43","4","duel","word","94.02985074626865","94.02985074626865","949.179104477612","949.179104477612","black","no","legacy","legacy","legacy","0","uniform","1","undefined","undefined","undefined","1","j","0","0","0","0","66","0","0","0","66","0","62","66","62","0","62","3","66","0","66","Thu Feb 18 16:04:45 2021","The main experiment item","yes","Lexical_Decision_Task.osexp","C:/Users/laure/OneDrive/Desktop","no","Andale Mono","no","18","no","white","no","yes","576","legacy","62","62","3","C:/Users/laure/OneDrive/Desktop/subject-5222796.csv","legacy","Lentiform Loewenfeld","3.3.7","yes","yes","600bd7cfb6416f0113b04181","602110864497cf011d9c0822","0","j","NA","j","j","j","j","j","738","NA","7056","26272","10318","17610","738","2","legacy","1024","2","48000","-16","task","5222796","even","NA","67222","76280","69223","223666","20459","57054","46735","224167","179875","223664","224167","223588","76280","224906","65091","223088","20454","201104","Lexical Decision Task","63","63595","67","yes","1024"
"2.6599162","0","6","flug","non-word","94.11764705882354","94.11764705882354","946.9852941176471","946.9852941176471","black","no","legacy","legacy","legacy","0","uniform","1","undefined","undefined","undefined","1","f","0","0","0","0","67","0","0","0","67","0","63","67","63","0","63","3","67","0","67","Thu Feb 18 16:04:45 2021","The main experiment item","yes","Lexical_Decision_Task.osexp","C:/Users/laure/OneDrive/Desktop","no","Andale Mono","no","18","no","white","no","yes","576","legacy","63","63","3","C:/Users/laure/OneDrive/Desktop/subject-5222796.csv","legacy","Lentiform Loewenfeld","3.3.7","yes","yes","600bd7cfb6416f0113b04181","602110864497cf011d9c0822","0","f","NA","j","j","j","j","f","800","NA","7056","26272","10318","17610","800","2","legacy","1024","2","48000","-16","task","5222796","even","NA","67222","76280","69223","225515","20459","57054","46735","226016","179875","225513","226016","225430","76280","226818","65091","224930","20454","201104","Lexical Decision Task","64","64395","68","yes","1024"
"3.248054965","7.86","5","glow","word","94.20289855072464","94.20289855072464","941.7246376811594","941.7246376811594","black","no","legacy","legacy","legacy","0","uniform","1","undefined","undefined","undefined","1","j","0","0","0","0","68","0","0","0","68","0","64","68","64","0","64","3","68","0","68","Thu Feb 18 16:04:45 2021","The main experiment item","yes","Lexical_Decision_Task.osexp","C:/Users/laure/OneDrive/Desktop","no","Andale Mono","no","18","no","white","no","yes","576","legacy","64","64","3","C:/Users/laure/OneDrive/Desktop/subject-5222796.csv","legacy","Lentiform Loewenfeld","3.3.7","yes","yes","600bd7cfb6416f0113b04181","602110864497cf011d9c0822","0","j","NA","j","j","j","j","j","584","NA","7056","26272","10318","17610","584","2","legacy","1024","2","48000","-16","task","5222796","even","NA","67222","76280","69223","227419","20459","57054","46735","227920","179875","227417","227920","227339","76280","228506","65091","226839","20454","201104","Lexical Decision Task","65","64979","69","yes","1024"
"3.218535505","7.85","7","goat","word","94.28571428571429","94.28571428571429","937.2","937.2","black","no","legacy","legacy","legacy","0","uniform","1","undefined","undefined","undefined","1","j","0","0","0","0","69","0","0","0","69","0","65","69","65","0","65","3","69","0","69","Thu Feb 18 16:04:45 2021","The main experiment item","yes","Lexical_Decision_Task.osexp","C:/Users/laure/OneDrive/Desktop","no","Andale Mono","no","18","no","white","no","yes","576","legacy","65","65","3","C:/Users/laure/OneDrive/Desktop/subject-5222796.csv","legacy","Lentiform Loewenfeld","3.3.7","yes","yes","600bd7cfb6416f0113b04181","602110864497cf011d9c0822","0","j","NA","j","j","j","j","j","625","NA","7056","26272","10318","17610","625","2","legacy","1024","2","48000","-16","task","5222796","even","NA","67222","76280","69223","229099","20459","57054","46735","229600","179875","229098","229600","229019","76280","230226","65091","228519","20454","201104","Lexical Decision Task","66","65604","70","yes","1024"
"3.091901331","0","9","nipe","non-word","94.36619718309859","94.36619718309859","932.7042253521126","932.7042253521126","black","no","legacy","legacy","legacy","0","uniform","1","undefined","undefined","undefined","1","f","0","0","0","0","70","0","0","0","70","0","66","70","66","0","66","3","70","0","70","Thu Feb 18 16:04:45 2021","The main experiment item","yes","Lexical_Decision_Task.osexp","C:/Users/laure/OneDrive/Desktop","no","Andale Mono","no","18","no","white","no","yes","576","legacy","66","66","3","C:/Users/laure/OneDrive/Desktop/subject-5222796.csv","legacy","Lentiform Loewenfeld","3.3.7","yes","yes","600bd7cfb6416f0113b04181","602110864497cf011d9c0822","0","f","NA","j","j","j","j","f","618","NA","7056","26272","10318","17610","618","2","legacy","1024","2","48000","-16","task","5222796","even","NA","67222","76280","69223","230826","20459","57054","46735","231327","179875","230824","231327","230748","76280","231946","65091","230248","20454","201104","Lexical Decision Task","67","66222","71","yes","1024"
"2.899092422","7.27","6","snag","word","94.44444444444444","94.44444444444444","933.5555555555555","933.5555555555555","black","no","legacy","legacy","legacy","0","uniform","1","undefined","undefined","undefined","1","j","0","0","0","0","71","0","0","0","71","0","67","71","67","0","67","3","71","0","71","Thu Feb 18 16:04:45 2021","The main experiment item","yes","Lexical_Decision_Task.osexp","C:/Users/laure/OneDrive/Desktop","no","Andale Mono","no","18","no","white","no","yes","576","legacy","67","67","3","C:/Users/laure/OneDrive/Desktop/subject-5222796.csv","legacy","Lentiform Loewenfeld","3.3.7","yes","yes","600bd7cfb6416f0113b04181","602110864497cf011d9c0822","0","j","NA","j","j","j","j","j","994","NA","7056","26272","10318","17610","994","2","legacy","1024","2","48000","-16","task","5222796","even","NA","67222","76280","69223","232555","20459","57054","46735","233056","179875","232553","233056","232479","76280","234051","65091","231979","20454","201104","Lexical Decision Task","68","67216","72","yes","1024"
"3.2757719","0","5","slea","non-word","94.52054794520548","94.52054794520548","930.1232876712329","930.1232876712329","black","no","legacy","legacy","legacy","0","uniform","1","undefined","undefined","undefined","1","f","0","0","0","0","72","0","0","0","72","0","68","72","68","0","68","3","72","0","72","Thu Feb 18 16:04:45 2021","The main experiment item","yes","Lexical_Decision_Task.osexp","C:/Users/laure/OneDrive/Desktop","no","Andale Mono","no","18","no","white","no","yes","576","legacy","68","68","3","C:/Users/laure/OneDrive/Desktop/subject-5222796.csv","legacy","Lentiform Loewenfeld","3.3.7","yes","yes","600bd7cfb6416f0113b04181","602110864497cf011d9c0822","0","f","NA","j","j","j","j","f","683","NA","7056","26272","10318","17610","683","2","legacy","1024","2","48000","-16","task","5222796","even","NA","67222","76280","69223","234681","20459","57054","46735","235182","179875","234680","235182","234600","76280","235866","65091","234100","20454","201104","Lexical Decision Task","69","67899","73","yes","1024"
"3.003891166","8.05","2","frog","word","94.5945945945946","94.5945945945946","925.3378378378378","925.3378378378378","black","no","legacy","legacy","legacy","0","uniform","1","undefined","undefined","undefined","1","j","0","0","0","0","73","0","0","0","73","0","69","73","69","0","69","3","73","0","73","Thu Feb 18 16:04:45 2021","The main experiment item","yes","Lexical_Decision_Task.osexp","C:/Users/laure/OneDrive/Desktop","no","Andale Mono","no","18","no","white","no","yes","576","legacy","69","69","3","C:/Users/laure/OneDrive/Desktop/subject-5222796.csv","legacy","Lentiform Loewenfeld","3.3.7","yes","yes","600bd7cfb6416f0113b04181","602110864497cf011d9c0822","0","j","NA","j","j","j","j","j","576","NA","7056","26272","10318","17610","576","2","legacy","1024","2","48000","-16","task","5222796","even","NA","67222","76280","69223","236469","20459","57054","46735","236970","179875","236468","236970","236392","76280","237547","65091","235892","20454","201104","Lexical Decision Task","70","68475","74","yes","1024"
"3.531734309","0","6","lerd","non-word","94.66666666666667","94.66666666666667","922.1333333333333","922.1333333333333","black","no","legacy","legacy","legacy","0","uniform","1","undefined","undefined","undefined","1","f","0","0","0","0","74","0","0","0","74","0","70","74","70","0","70","3","74","0","74","Thu Feb 18 16:04:45 2021","The main experiment item","yes","Lexical_Decision_Task.osexp","C:/Users/laure/OneDrive/Desktop","no","Andale Mono","no","18","no","white","no","yes","576","legacy","70","70","3","C:/Users/laure/OneDrive/Desktop/subject-5222796.csv","legacy","Lentiform Loewenfeld","3.3.7","yes","yes","600bd7cfb6416f0113b04181","602110864497cf011d9c0822","0","f","NA","j","j","j","j","f","685","NA","7056","26272","10318","17610","685","2","legacy","1024","2","48000","-16","task","5222796","even","NA","67222","76280","69223","238136","20459","57054","46735","238637","179875","238134","238637","238068","76280","239323","65091","237568","20454","201104","Lexical Decision Task","71","69160","75","yes","1024"
"2.980306438","0","7","slun","non-word","94.73684210526316","94.73684210526316","919.8947368421053","919.8947368421053","black","no","legacy","legacy","legacy","0","uniform","1","undefined","undefined","undefined","1","f","0","0","0","0","75","0","0","0","75","0","71","75","71","0","71","3","75","0","75","Thu Feb 18 16:04:45 2021","The main experiment item","yes","Lexical_Decision_Task.osexp","C:/Users/laure/OneDrive/Desktop","no","Andale Mono","no","18","no","white","no","yes","576","legacy","71","71","3","C:/Users/laure/OneDrive/Desktop/subject-5222796.csv","legacy","Lentiform Loewenfeld","3.3.7","yes","yes","600bd7cfb6416f0113b04181","602110864497cf011d9c0822","0","f","NA","j","j","j","j","f","752","NA","7056","26272","10318","17610","752","2","legacy","1024","2","48000","-16","task","5222796","even","NA","67222","76280","69223","239925","20459","57054","46735","240426","179875","239924","240426","239844","76280","241179","65091","239344","20454","201104","Lexical Decision Task","72","69912","76","yes","1024"
"3.495914186","0","4","peng","non-word","94.8051948051948","94.8051948051948","915.4025974025974","915.4025974025974","black","no","legacy","legacy","legacy","0","uniform","1","undefined","undefined","undefined","1","f","0","0","0","0","76","0","0","0","76","0","72","76","72","0","72","3","76","0","76","Thu Feb 18 16:04:45 2021","The main experiment item","yes","Lexical_Decision_Task.osexp","C:/Users/laure/OneDrive/Desktop","no","Andale Mono","no","18","no","white","no","yes","576","legacy","72","72","3","C:/Users/laure/OneDrive/Desktop/subject-5222796.csv","legacy","Lentiform Loewenfeld","3.3.7","yes","yes","600bd7cfb6416f0113b04181","602110864497cf011d9c0822","0","f","NA","j","j","j","j","f","574","NA","7056","26272","10318","17610","574","2","legacy","1024","2","48000","-16","task","5222796","even","NA","67222","76280","69223","241799","20459","57054","46735","242300","179875","241797","242300","241725","76280","242876","65091","241225","20454","201104","Lexical Decision Task","73","70486","77","yes","1024"
"3.039414119","0","9","meep","non-word","93.58974358974359","93.58974358974359","926.6025641025641","926.6025641025641","black","no","legacy","legacy","legacy","0","uniform","0","undefined","undefined","undefined","0","f","0","0","0","0","77","0","0","0","77","0","73","77","73","0","73","3","77","0","77","Thu Feb 18 16:04:45 2021","The main experiment item","yes","Lexical_Decision_Task.osexp","C:/Users/laure/OneDrive/Desktop","no","Andale Mono","no","18","no","white","no","yes","576","legacy","73","73","3","C:/Users/laure/OneDrive/Desktop/subject-5222796.csv","legacy","Lentiform Loewenfeld","3.3.7","yes","yes","600bd7cfb6416f0113b04181","602110864497cf011d9c0822","0","j","NA","j","j","j","j","j","1789","NA","7056","26272","10318","17610","1789","2","legacy","1024","2","48000","-16","task","5222796","even","NA","67222","76280","69223","243489","20459","57054","46735","243990","179875","243488","243990","243408","76280","245780","65091","242908","20454","201104","Lexical Decision Task","73","72275","78","yes","1024"
"2.616654026","9.37","5","gift","word","92.40506329113924","92.40506329113924","934","934","black","no","legacy","legacy","legacy","0","uniform","0","undefined","undefined","undefined","0","j","0","0","0","0","78","0","0","0","78","0","74","78","74","0","74","3","78","0","78","Thu Feb 18 16:04:45 2021","The main experiment item","yes","Lexical_Decision_Task.osexp","C:/Users/laure/OneDrive/Desktop","no","Andale Mono","no","18","no","white","no","yes","576","legacy","74","74","3","C:/Users/laure/OneDrive/Desktop/subject-5222796.csv","legacy","Lentiform Loewenfeld","3.3.7","yes","yes","600bd7cfb6416f0113b04181","602110864497cf011d9c0822","0","f","NA","j","j","j","j","f","1511","NA","7056","26272","10318","17610","1511","2","legacy","1024","2","48000","-16","task","5222796","even","NA","67222","76280","69223","247383","20459","57054","46735","247884","179875","247381","247884","247301","76280","249396","65091","242908","20454","245801","Lexical Decision Task","73","73786","79","yes","1024"
"2.675164031","8.57","6","glue","word","92.5","92.5","945.9","945.9","black","no","legacy","legacy","legacy","0","uniform","1","undefined","undefined","undefined","1","j","0","0","0","0","79","0","0","0","79","0","75","79","75","0","75","3","79","0","79","Thu Feb 18 16:04:45 2021","The main experiment item","yes","Lexical_Decision_Task.osexp","C:/Users/laure/OneDrive/Desktop","no","Andale Mono","no","18","no","white","no","yes","576","legacy","75","75","3","C:/Users/laure/OneDrive/Desktop/subject-5222796.csv","legacy","Lentiform Loewenfeld","3.3.7","yes","yes","600bd7cfb6416f0113b04181","602110864497cf011d9c0822","0","j","NA","j","j","j","j","j","1886","NA","7056","26272","10318","17610","1886","2","legacy","1024","2","48000","-16","task","5222796","even","NA","67222","76280","69223","251008","20459","57054","46735","251509","179875","251007","251509","250928","76280","253396","65091","242908","20454","249428","Lexical Decision Task","74","75672","80","yes","1024"
"2.809559715","8.44","4","volt","word","92.5925925925926","92.5925925925926","943.5308641975308","943.5308641975308","black","no","legacy","legacy","legacy","0","uniform","1","undefined","undefined","undefined","1","j","0","0","0","0","80","0","0","0","80","0","76","80","76","0","76","3","80","0","80","Thu Feb 18 16:04:45 2021","The main experiment item","yes","Lexical_Decision_Task.osexp","C:/Users/laure/OneDrive/Desktop","no","Andale Mono","no","18","no","white","no","yes","576","legacy","76","76","3","C:/Users/laure/OneDrive/Desktop/subject-5222796.csv","legacy","Lentiform Loewenfeld","3.3.7","yes","yes","600bd7cfb6416f0113b04181","602110864497cf011d9c0822","0","j","NA","j","j","j","j","j","754","NA","7056","26272","10318","17610","754","2","legacy","1024","2","48000","-16","task","5222796","even","NA","67222","76280","69223","253988","20459","57054","46735","254489","179875","253987","254489","253911","76280","255246","65091","253411","20454","249428","Lexical Decision Task","75","76426","81","yes","1024"
"3.276537627","9.15","5","trap","word","92.6829268292683","92.6829268292683","944.2560975609756","944.2560975609756","black","no","legacy","legacy","legacy","0","uniform","1","undefined","undefined","undefined","1","j","0","0","0","0","81","0","0","0","81","0","77","81","77","0","77","3","81","0","81","Thu Feb 18 16:04:45 2021","The main experiment item","yes","Lexical_Decision_Task.osexp","C:/Users/laure/OneDrive/Desktop","no","Andale Mono","no","18","no","white","no","yes","576","legacy","77","77","3","C:/Users/laure/OneDrive/Desktop/subject-5222796.csv","legacy","Lentiform Loewenfeld","3.3.7","yes","yes","600bd7cfb6416f0113b04181","602110864497cf011d9c0822","0","j","NA","j","j","j","j","j","1003","NA","7056","26272","10318","17610","1003","2","legacy","1024","2","48000","-16","task","5222796","even","NA","67222","76280","69223","255836","20459","57054","46735","256337","179875","255835","256337","255763","76280","257341","65091","255263","20454","249428","Lexical Decision Task","76","77429","82","yes","1024"
"2.708989954","9.28","9","bowl","word","92.7710843373494","92.7710843373494","941.6265060240963","941.6265060240963","black","no","legacy","legacy","legacy","0","uniform","1","undefined","undefined","undefined","1","j","0","0","0","0","82","0","0","0","82","0","78","82","78","0","78","3","82","0","82","Thu Feb 18 16:04:45 2021","The main experiment item","yes","Lexical_Decision_Task.osexp","C:/Users/laure/OneDrive/Desktop","no","Andale Mono","no","18","no","white","no","yes","576","legacy","78","78","3","C:/Users/laure/OneDrive/Desktop/subject-5222796.csv","legacy","Lentiform Loewenfeld","3.3.7","yes","yes","600bd7cfb6416f0113b04181","602110864497cf011d9c0822","0","j","NA","j","j","j","j","j","726","NA","7056","26272","10318","17610","726","2","legacy","1024","2","48000","-16","task","5222796","even","NA","67222","76280","69223","257946","20459","57054","46735","258447","179875","257944","258447","257867","76280","259174","65091","257367","20454","249428","Lexical Decision Task","77","78155","83","yes","1024"
"2.838639236","0","4","furg","non-word","92.85714285714286","92.85714285714286","938.2619047619048","938.2619047619048","black","no","legacy","legacy","legacy","0","uniform","1","undefined","undefined","undefined","1","f","0","0","0","0","83","0","0","0","83","0","79","83","79","0","79","3","83","0","83","Thu Feb 18 16:04:45 2021","The main experiment item","yes","Lexical_Decision_Task.osexp","C:/Users/laure/OneDrive/Desktop","no","Andale Mono","no","18","no","white","no","yes","576","legacy","79","79","3","C:/Users/laure/OneDrive/Desktop/subject-5222796.csv","legacy","Lentiform Loewenfeld","3.3.7","yes","yes","600bd7cfb6416f0113b04181","602110864497cf011d9c0822","0","f","NA","j","j","j","j","f","659","NA","7056","26272","10318","17610","659","2","legacy","1024","2","48000","-16","task","5222796","even","NA","67222","76280","69223","259764","20459","57054","46735","260265","179875","259763","260265","259693","76280","260926","65091","259193","20454","249428","Lexical Decision Task","78","78814","84","yes","1024"
"3.282244367","0","6","fute","non-word","92.94117647058823","92.94117647058823","939.3058823529411","939.3058823529411","black","no","legacy","legacy","legacy","0","uniform","1","undefined","undefined","undefined","1","f","0","0","0","0","84","0","0","0","84","0","80","84","80","0","80","3","84","0","84","Thu Feb 18 16:04:45 2021","The main experiment item","yes","Lexical_Decision_Task.osexp","C:/Users/laure/OneDrive/Desktop","no","Andale Mono","no","18","no","white","no","yes","576","legacy","80","80","3","C:/Users/laure/OneDrive/Desktop/subject-5222796.csv","legacy","Lentiform Loewenfeld","3.3.7","yes","yes","600bd7cfb6416f0113b04181","602110864497cf011d9c0822","0","f","NA","j","j","j","j","f","1027","NA","7056","26272","10318","17610","1027","2","legacy","1024","2","48000","-16","task","5222796","even","NA","67222","76280","69223","261508","20459","57054","46735","262009","179875","261507","262009","261440","76280","263038","65091","260940","20454","249428","Lexical Decision Task","79","79841","85","yes","1024"
"3.481012421","8.34","5","teen","word","93.02325581395348","93.02325581395348","940.5813953488372","940.5813953488372","black","no","legacy","legacy","legacy","0","uniform","1","undefined","undefined","undefined","1","j","0","0","0","0","85","0","0","0","85","0","81","85","81","0","81","3","85","0","85","Thu Feb 18 16:04:45 2021","The main experiment item","yes","Lexical_Decision_Task.osexp","C:/Users/laure/OneDrive/Desktop","no","Andale Mono","no","18","no","white","no","yes","576","legacy","81","81","3","C:/Users/laure/OneDrive/Desktop/subject-5222796.csv","legacy","Lentiform Loewenfeld","3.3.7","yes","yes","600bd7cfb6416f0113b04181","602110864497cf011d9c0822","0","j","NA","j","j","j","j","j","1049","NA","7056","26272","10318","17610","1049","2","legacy","1024","2","48000","-16","task","5222796","even","NA","67222","76280","69223","263639","20459","57054","46735","264140","179875","263638","264140","263561","76280","265190","65091","263061","20454","249428","Lexical Decision Task","80","80890","86","yes","1024"
"2.594027722","9.08","8","skip","word","93.10344827586206","93.10344827586206","943.3103448275862","943.3103448275862","black","no","legacy","legacy","legacy","0","uniform","1","undefined","undefined","undefined","1","j","0","0","0","0","86","0","0","0","86","0","82","86","82","0","82","3","86","0","86","Thu Feb 18 16:04:45 2021","The main experiment item","yes","Lexical_Decision_Task.osexp","C:/Users/laure/OneDrive/Desktop","no","Andale Mono","no","18","no","white","no","yes","576","legacy","82","82","3","C:/Users/laure/OneDrive/Desktop/subject-5222796.csv","legacy","Lentiform Loewenfeld","3.3.7","yes","yes","600bd7cfb6416f0113b04181","602110864497cf011d9c0822","0","j","NA","j","j","j","j","j","1178","NA","7056","26272","10318","17610","1178","2","legacy","1024","2","48000","-16","task","5222796","even","NA","67222","76280","69223","265814","20459","57054","46735","266315","179875","265812","266315","265736","76280","267494","65091","265236","20454","249428","Lexical Decision Task","81","82068","87","yes","1024"
"3.363486562","6.93","9","lush","word","93.18181818181819","93.18181818181819","944.7386363636364","944.7386363636364","black","no","legacy","legacy","legacy","0","uniform","1","undefined","undefined","undefined","1","j","0","0","0","0","87","0","0","0","87","0","83","87","83","0","83","3","87","0","87","Thu Feb 18 16:04:45 2021","The main experiment item","yes","Lexical_Decision_Task.osexp","C:/Users/laure/OneDrive/Desktop","no","Andale Mono","no","18","no","white","no","yes","576","legacy","83","83","3","C:/Users/laure/OneDrive/Desktop/subject-5222796.csv","legacy","Lentiform Loewenfeld","3.3.7","yes","yes","600bd7cfb6416f0113b04181","602110864497cf011d9c0822","0","j","NA","j","j","j","j","j","1069","NA","7056","26272","10318","17610","1069","2","legacy","1024","2","48000","-16","task","5222796","even","NA","67222","76280","69223","268098","20459","57054","46735","268600","179875","268097","268600","268017","76280","269671","65091","267517","20454","249428","Lexical Decision Task","82","83137","88","yes","1024"
"3.102203805","7.21","3","drip","word","93.25842696629213","93.25842696629213","950.5842696629213","950.5842696629213","black","no","legacy","legacy","legacy","0","uniform","1","undefined","undefined","undefined","1","j","0","0","0","0","88","0","0","0","88","0","84","88","84","0","84","3","88","0","88","Thu Feb 18 16:04:45 2021","The main experiment item","yes","Lexical_Decision_Task.osexp","C:/Users/laure/OneDrive/Desktop","no","Andale Mono","no","18","no","white","no","yes","576","legacy","84","84","3","C:/Users/laure/OneDrive/Desktop/subject-5222796.csv","legacy","Lentiform Loewenfeld","3.3.7","yes","yes","600bd7cfb6416f0113b04181","602110864497cf011d9c0822","0","j","NA","j","j","j","j","j","1465","NA","7056","26272","10318","17610","1465","2","legacy","1024","2","48000","-16","task","5222796","even","NA","67222","76280","69223","270264","20459","57054","46735","270765","179875","270262","270765","270188","76280","272231","65091","269688","20454","249428","Lexical Decision Task","83","84602","89","yes","1024"
"2.858136002","0","4","phip","non-word","93.33333333333333","93.33333333333333","948.4888888888889","948.4888888888889","black","no","legacy","legacy","legacy","0","uniform","1","undefined","undefined","undefined","1","f","0","0","0","0","89","0","0","0","89","0","85","89","85","0","85","3","89","0","89","Thu Feb 18 16:04:45 2021","The main experiment item","yes","Lexical_Decision_Task.osexp","C:/Users/laure/OneDrive/Desktop","no","Andale Mono","no","18","no","white","no","yes","576","legacy","85","85","3","C:/Users/laure/OneDrive/Desktop/subject-5222796.csv","legacy","Lentiform Loewenfeld","3.3.7","yes","yes","600bd7cfb6416f0113b04181","602110864497cf011d9c0822","0","f","NA","j","j","j","j","f","762","NA","7056","26272","10318","17610","762","2","legacy","1024","2","48000","-16","task","5222796","even","NA","67222","76280","69223","272839","20459","57054","46735","273340","179875","272838","273340","272761","76280","274103","65091","272261","20454","249428","Lexical Decision Task","84","85364","90","yes","1024"
"3.064581521","5.51","6","cask","word","93.4065934065934","93.4065934065934","949.010989010989","949.010989010989","black","no","legacy","legacy","legacy","0","uniform","1","undefined","undefined","undefined","1","j","0","0","0","0","90","0","0","0","90","0","86","90","86","0","86","3","90","0","90","Thu Feb 18 16:04:45 2021","The main experiment item","yes","Lexical_Decision_Task.osexp","C:/Users/laure/OneDrive/Desktop","no","Andale Mono","no","18","no","white","no","yes","576","legacy","86","86","3","C:/Users/laure/OneDrive/Desktop/subject-5222796.csv","legacy","Lentiform Loewenfeld","3.3.7","yes","yes","600bd7cfb6416f0113b04181","602110864497cf011d9c0822","0","j","NA","j","j","j","j","j","996","NA","7056","26272","10318","17610","996","2","legacy","1024","2","48000","-16","task","5222796","even","NA","67222","76280","69223","274700","20459","57054","46735","275202","179875","274699","275202","274623","76280","276199","65091","274123","20454","249428","Lexical Decision Task","85","86360","91","yes","1024"
"3.120025233","0","2","nyst","non-word","93.47826086956522","93.47826086956522","946.6413043478261","946.6413043478261","black","no","legacy","legacy","legacy","0","uniform","1","undefined","undefined","undefined","1","f","0","0","0","0","91","0","0","0","91","0","87","91","87","0","87","3","91","0","91","Thu Feb 18 16:04:45 2021","The main experiment item","yes","Lexical_Decision_Task.osexp","C:/Users/laure/OneDrive/Desktop","no","Andale Mono","no","18","no","white","no","yes","576","legacy","87","87","3","C:/Users/laure/OneDrive/Desktop/subject-5222796.csv","legacy","Lentiform Loewenfeld","3.3.7","yes","yes","600bd7cfb6416f0113b04181","602110864497cf011d9c0822","0","f","NA","j","j","j","j","f","731","NA","7056","26272","10318","17610","731","2","legacy","1024","2","48000","-16","task","5222796","even","NA","67222","76280","69223","276791","20459","57054","46735","277292","179875","276789","277292","276712","76280","278024","65091","276212","20454","249428","Lexical Decision Task","86","87091","92","yes","1024"
"2.576725172","0","8","gowl","non-word","93.54838709677419","93.54838709677419","957.3655913978495","957.3655913978495","black","no","legacy","legacy","legacy","0","uniform","1","undefined","undefined","undefined","1","f","0","0","0","0","92","0","0","0","92","0","88","92","88","0","88","3","92","0","92","Thu Feb 18 16:04:45 2021","The main experiment item","yes","Lexical_Decision_Task.osexp","C:/Users/laure/OneDrive/Desktop","no","Andale Mono","no","18","no","white","no","yes","576","legacy","88","88","3","C:/Users/laure/OneDrive/Desktop/subject-5222796.csv","legacy","Lentiform Loewenfeld","3.3.7","yes","yes","600bd7cfb6416f0113b04181","602110864497cf011d9c0822","0","f","NA","j","j","j","j","f","1944","NA","7056","26272","10318","17610","1944","2","legacy","1024","2","48000","-16","task","5222796","even","NA","67222","76280","69223","278618","20459","57054","46735","279119","179875","278617","279119","278550","76280","281064","65091","278050","20454","249428","Lexical Decision Task","87","89035","93","yes","1024"
"2.793790385","5.67","9","swab","word","93.61702127659575","93.61702127659575","960.6702127659574","960.6702127659574","black","no","legacy","legacy","legacy","0","uniform","1","undefined","undefined","undefined","1","j","0","0","0","0","93","0","0","0","93","0","89","93","89","0","89","3","93","0","93","Thu Feb 18 16:04:45 2021","The main experiment item","yes","Lexical_Decision_Task.osexp","C:/Users/laure/OneDrive/Desktop","no","Andale Mono","no","18","no","white","no","yes","576","legacy","89","89","3","C:/Users/laure/OneDrive/Desktop/subject-5222796.csv","legacy","Lentiform Loewenfeld","3.3.7","yes","yes","600bd7cfb6416f0113b04181","602110864497cf011d9c0822","0","j","NA","j","j","j","j","j","1268","NA","7056","26272","10318","17610","1268","2","legacy","1024","2","48000","-16","task","5222796","even","NA","67222","76280","69223","281678","20459","57054","46735","282179","179875","281676","282179","281601","76280","283448","65091","281101","20454","249428","Lexical Decision Task","88","90303","94","yes","1024"
"2.709837904","6.85","8","skim","word","93.6842105263158","93.6842105263158","965.3789473684211","965.3789473684211","black","no","legacy","legacy","legacy","0","uniform","1","undefined","undefined","undefined","1","j","0","0","0","0","94","0","0","0","94","0","90","94","90","0","90","3","94","0","94","Thu Feb 18 16:04:45 2021","The main experiment item","yes","Lexical_Decision_Task.osexp","C:/Users/laure/OneDrive/Desktop","no","Andale Mono","no","18","no","white","no","yes","576","legacy","90","90","3","C:/Users/laure/OneDrive/Desktop/subject-5222796.csv","legacy","Lentiform Loewenfeld","3.3.7","yes","yes","600bd7cfb6416f0113b04181","602110864497cf011d9c0822","0","j","NA","j","j","j","j","j","1408","NA","7056","26272","10318","17610","1408","2","legacy","1024","2","48000","-16","task","5222796","even","NA","67222","76280","69223","284043","20459","57054","46735","284544","179875","284042","284544","283964","76280","285953","65091","283464","20454","249428","Lexical Decision Task","89","91711","95","yes","1024"
"3.140404328","10.66","9","deep","word","93.75","93.75","962.6458333333334","962.6458333333334","black","no","legacy","legacy","legacy","0","uniform","1","undefined","undefined","undefined","1","j","0","0","0","0","95","0","0","0","95","0","91","95","91","0","91","3","95","0","95","Thu Feb 18 16:04:45 2021","The main experiment item","yes","Lexical_Decision_Task.osexp","C:/Users/laure/OneDrive/Desktop","no","Andale Mono","no","18","no","white","no","yes","576","legacy","91","91","3","C:/Users/laure/OneDrive/Desktop/subject-5222796.csv","legacy","Lentiform Loewenfeld","3.3.7","yes","yes","600bd7cfb6416f0113b04181","602110864497cf011d9c0822","0","j","NA","j","j","j","j","j","703","NA","7056","26272","10318","17610","703","2","legacy","1024","2","48000","-16","task","5222796","even","NA","67222","76280","69223","286555","20459","57054","46735","287056","179875","286553","287056","286478","76280","287761","65091","285978","20454","249428","Lexical Decision Task","90","92414","96","yes","1024"
"2.746890964","9.67","3","plug","word","93.81443298969072","93.81443298969072","960.5463917525773","960.5463917525773","black","no","legacy","legacy","legacy","0","uniform","1","undefined","undefined","undefined","1","j","0","0","0","0","96","0","0","0","96","0","92","96","92","0","92","3","96","0","96","Thu Feb 18 16:04:45 2021","The main experiment item","yes","Lexical_Decision_Task.osexp","C:/Users/laure/OneDrive/Desktop","no","Andale Mono","no","18","no","white","no","yes","576","legacy","92","92","3","C:/Users/laure/OneDrive/Desktop/subject-5222796.csv","legacy","Lentiform Loewenfeld","3.3.7","yes","yes","600bd7cfb6416f0113b04181","602110864497cf011d9c0822","0","j","NA","j","j","j","j","j","759","NA","7056","26272","10318","17610","759","2","legacy","1024","2","48000","-16","task","5222796","even","NA","67222","76280","69223","288364","20459","57054","46735","288865","179875","288363","288865","288286","76280","289625","65091","287786","20454","249428","Lexical Decision Task","91","93173","97","yes","1024"
"2.664011697","8.19","4","hawk","word","93.87755102040816","93.87755102040816","963.5714285714286","963.5714285714286","black","no","legacy","legacy","legacy","0","uniform","1","undefined","undefined","undefined","1","j","0","0","0","0","97","0","0","0","97","0","93","97","93","0","93","3","97","0","97","Thu Feb 18 16:04:45 2021","The main experiment item","yes","Lexical_Decision_Task.osexp","C:/Users/laure/OneDrive/Desktop","no","Andale Mono","no","18","no","white","no","yes","576","legacy","93","93","3","C:/Users/laure/OneDrive/Desktop/subject-5222796.csv","legacy","Lentiform Loewenfeld","3.3.7","yes","yes","600bd7cfb6416f0113b04181","602110864497cf011d9c0822","0","j","NA","j","j","j","j","j","1257","NA","7056","26272","10318","17610","1257","2","legacy","1024","2","48000","-16","task","5222796","even","NA","67222","76280","69223","290226","20459","57054","46735","290727","179875","290224","290727","290146","76280","291985","65091","289646","20454","249428","Lexical Decision Task","92","94430","98","yes","1024"
"2.813801082","5.47","7","nook","word","92.92929292929293","92.92929292929293","960.8282828282828","960.8282828282828","black","no","legacy","legacy","legacy","0","uniform","0","undefined","undefined","undefined","0","j","0","0","0","0","98","0","0","0","98","0","94","98","94","0","94","3","98","0","98","Thu Feb 18 16:04:45 2021","The main experiment item","yes","Lexical_Decision_Task.osexp","C:/Users/laure/OneDrive/Desktop","no","Andale Mono","no","18","no","white","no","yes","576","legacy","94","94","3","C:/Users/laure/OneDrive/Desktop/subject-5222796.csv","legacy","Lentiform Loewenfeld","3.3.7","yes","yes","600bd7cfb6416f0113b04181","602110864497cf011d9c0822","0","f","NA","j","j","j","j","f","692","NA","7056","26272","10318","17610","692","2","legacy","1024","2","48000","-16","task","5222796","even","NA","67222","76280","69223","292583","20459","57054","46735","293084","179875","292581","293084","292504","76280","293777","65091","292004","20454","249428","Lexical Decision Task","92","95122","99","yes","1024"
"2.695481676","0","7","goke","non-word","93","93","969.54","969.54","black","no","legacy","legacy","legacy","0","uniform","1","undefined","undefined","undefined","1","f","0","0","0","0","99","0","0","0","99","0","95","99","95","0","95","3","99","0","99","Thu Feb 18 16:04:45 2021","The main experiment item","yes","Lexical_Decision_Task.osexp","C:/Users/laure/OneDrive/Desktop","no","Andale Mono","no","18","no","white","no","yes","576","legacy","95","95","3","C:/Users/laure/OneDrive/Desktop/subject-5222796.csv","legacy","Lentiform Loewenfeld","3.3.7","yes","yes","600bd7cfb6416f0113b04181","602110864497cf011d9c0822","0","f","NA","j","j","j","j","f","1832","NA","7056","26272","10318","17610","1832","2","legacy","1024","2","48000","-16","task","5222796","even","NA","67222","76280","69223","295372","20459","57054","46735","295873","179875","295370","295873","295297","76280","297706","65091","292004","20454","293797","Lexical Decision Task","93","96954","100","yes","1024"
