"Log_BG","Log_Freq_HAL","Ortho_N","Stimulus","Type","acc","accuracy","average_response_time","avg_rt","background","bidi","canvas_backend","clock_backend","color_backend","compensation","coordinates","correct","correct_Experimental_intro","correct_Introduction","correct_Practice_intro","correct_experimenter_kb","correct_response","count_End_Of_Experiment","count_End_Of_Practice","count_Experimental_Loop","count_Experimental_intro","count_Fixation","count_Introduction","count_Practice_Loop","count_Practice_intro","count_Stimulus","count_block_break_feedback","count_experimental_sequence","count_experimenter_kb","count_increment_trial_count","count_init_trial_count","count_logger","count_practice_sequence","count_right","count_task","count_wrong","datetime","description","disable_garbage_collection","experiment_file","experiment_path","font_bold","font_family","font_italic","font_size","font_underline","foreground","form_clicks","fullscreen","height","keyboard_backend","live_row","live_row_Experimental_Loop","live_row_Practice_Loop","logfile","mouse_backend","opensesame_codename","opensesame_version","osf_always_upload_data","osf_always_upload_experiment","osf_datanode_id","osf_id","repeat_cycle","response","response_End_Of_Experiment","response_Experimental_intro","response_Introduction","response_Practice_intro","response_block_break_feedback","response_experimenter_kb","response_time","response_time_End_Of_Experiment","response_time_Experimental_intro","response_time_Introduction","response_time_Practice_intro","response_time_block_break_feedback","response_time_experimenter_kb","round_decimals","sampler_backend","sound_buf_size","sound_channels","sound_freq","sound_sample_size","start","subject_nr","subject_parity","time_End_Of_Experiment","time_End_Of_Practice","time_Experimental_Loop","time_Experimental_intro","time_Fixation","time_Introduction","time_Practice_Loop","time_Practice_intro","time_Stimulus","time_block_break_feedback","time_experimental_sequence","time_experimenter_kb","time_increment_trial_count","time_init_trial_count","time_logger","time_practice_sequence","time_right","time_task","time_wrong","title","total_correct","total_response_time","total_responses","uniform_coordinates","width"
"3.20996159","0","4","clee","non-word","100","100","1075","1075","black","no","legacy","legacy","legacy","0","uniform","1","undefined","undefined","undefined","1","f","0","0","0","0","4","0","0","0","4","NA","0","4","0","0","0","3","4","0","4","Wed Feb 17 11:49:39 2021","The main experiment item","yes","Lexical_Decision_Task.osexp","C:/Users/beth1/Documents/Psychology/Second Year/Cognition and language","no","Andale Mono","no","18","no","white","no","yes","576","legacy","0","0","3","C:/Users/beth1/Documents/Psychology/Second Year/Cognition and language/subject-5205359.csv","legacy","Lentiform Loewenfeld","3.3.7","yes","yes","600bd7cfb6416f0113b04181","602110864497cf011d9c0822","0","f","NA","space","space","space","NA","f","851","NA","1950","8568","7446","NA","851","2","legacy","1024","2","48000","-16","task","5205359","odd","NA","29364","33321","31370","33360","4303","20322","12876","33864","NA","33358","33865","NA","33321","34717","27690","28814","4289","NA","Lexical Decision Task","5","5375","5","yes","1024"
"3.194328374","9.42","6","harm","word","100","100","982.5","982.5","black","no","legacy","legacy","legacy","0","uniform","1","undefined","undefined","undefined","1","j","0","0","0","0","5","0","0","0","5","NA","1","5","1","0","1","3","5","0","5","Wed Feb 17 11:49:39 2021","The main experiment item","yes","Lexical_Decision_Task.osexp","C:/Users/beth1/Documents/Psychology/Second Year/Cognition and language","no","Andale Mono","no","18","no","white","no","yes","576","legacy","1","1","3","C:/Users/beth1/Documents/Psychology/Second Year/Cognition and language/subject-5205359.csv","legacy","Lentiform Loewenfeld","3.3.7","yes","yes","600bd7cfb6416f0113b04181","602110864497cf011d9c0822","0","j","NA","space","space","space","NA","j","520","NA","1950","8568","7446","NA","520","2","legacy","1024","2","48000","-16","task","5205359","odd","NA","29364","33321","31370","35363","4303","20322","12876","35868","NA","35360","35868","35230","33321","36389","27690","34729","4289","NA","Lexical Decision Task","6","5895","6","yes","1024"
"2.6599162","0","6","flug","non-word","85.71428571428571","85.71428571428571","915.1428571428571","915.1428571428571","black","no","legacy","legacy","legacy","0","uniform","0","undefined","undefined","undefined","0","f","0","0","0","0","6","0","0","0","6","NA","2","6","2","0","2","3","6","0","6","Wed Feb 17 11:49:39 2021","The main experiment item","yes","Lexical_Decision_Task.osexp","C:/Users/beth1/Documents/Psychology/Second Year/Cognition and language","no","Andale Mono","no","18","no","white","no","yes","576","legacy","2","2","3","C:/Users/beth1/Documents/Psychology/Second Year/Cognition and language/subject-5205359.csv","legacy","Lentiform Loewenfeld","3.3.7","yes","yes","600bd7cfb6416f0113b04181","602110864497cf011d9c0822","0","j","NA","space","space","space","NA","j","511","NA","1950","8568","7446","NA","511","2","legacy","1024","2","48000","-16","task","5205359","odd","NA","29364","33321","31370","37024","4303","20322","12876","37528","NA","37022","37529","36894","33321","38040","27690","36394","4289","NA","Lexical Decision Task","6","6406","7","yes","1024"
"2.838639236","0","4","furg","non-word","87.5","87.5","888.5","888.5","black","no","legacy","legacy","legacy","0","uniform","1","undefined","undefined","undefined","1","f","0","0","0","0","7","0","0","0","7","NA","3","7","3","0","3","3","7","0","7","Wed Feb 17 11:49:39 2021","The main experiment item","yes","Lexical_Decision_Task.osexp","C:/Users/beth1/Documents/Psychology/Second Year/Cognition and language","no","Andale Mono","no","18","no","white","no","yes","576","legacy","3","3","3","C:/Users/beth1/Documents/Psychology/Second Year/Cognition and language/subject-5205359.csv","legacy","Lentiform Loewenfeld","3.3.7","yes","yes","600bd7cfb6416f0113b04181","602110864497cf011d9c0822","0","f","NA","space","space","space","NA","f","702","NA","1950","8568","7446","NA","702","2","legacy","1024","2","48000","-16","task","5205359","odd","NA","29364","33321","31370","39631","4303","20322","12876","40135","NA","39629","40135","39546","33321","40837","27690","36394","4289","38046","Lexical Decision Task","7","7108","8","yes","1024"
"2.8162413","0","5","nusk","non-word","88.88888888888889","88.88888888888889","860.5555555555555","860.5555555555555","black","no","legacy","legacy","legacy","0","uniform","1","undefined","undefined","undefined","1","f","0","0","0","0","8","0","0","0","8","NA","4","8","4","0","4","3","8","0","8","Wed Feb 17 11:49:39 2021","The main experiment item","yes","Lexical_Decision_Task.osexp","C:/Users/beth1/Documents/Psychology/Second Year/Cognition and language","no","Andale Mono","no","18","no","white","no","yes","576","legacy","4","4","3","C:/Users/beth1/Documents/Psychology/Second Year/Cognition and language/subject-5205359.csv","legacy","Lentiform Loewenfeld","3.3.7","yes","yes","600bd7cfb6416f0113b04181","602110864497cf011d9c0822","0","f","NA","space","space","space","NA","f","637","NA","1950","8568","7446","NA","637","2","legacy","1024","2","48000","-16","task","5205359","odd","NA","29364","33321","31370","41432","4303","20322","12876","41935","NA","41431","41936","41343","33321","42574","27690","40843","4289","38046","Lexical Decision Task","8","7745","9","yes","1024"
"3.208172527","10.27","7","deck","word","90","90","824.4","824.4","black","no","legacy","legacy","legacy","0","uniform","1","undefined","undefined","undefined","1","j","0","0","0","0","9","0","0","0","9","NA","5","9","5","0","5","3","9","0","9","Wed Feb 17 11:49:39 2021","The main experiment item","yes","Lexical_Decision_Task.osexp","C:/Users/beth1/Documents/Psychology/Second Year/Cognition and language","no","Andale Mono","no","18","no","white","no","yes","576","legacy","5","5","3","C:/Users/beth1/Documents/Psychology/Second Year/Cognition and language/subject-5205359.csv","legacy","Lentiform Loewenfeld","3.3.7","yes","yes","600bd7cfb6416f0113b04181","602110864497cf011d9c0822","0","j","NA","space","space","space","NA","j","499","NA","1950","8568","7446","NA","499","2","legacy","1024","2","48000","-16","task","5205359","odd","NA","29364","33321","31370","43172","4303","20322","12876","43676","NA","43171","43676","43079","33321","44175","27690","42579","4289","38046","Lexical Decision Task","9","8244","10","yes","1024"
"2.990042563","6.64","9","plow","word","90.9090909090909","90.9090909090909","797.8181818181819","797.8181818181819","black","no","legacy","legacy","legacy","0","uniform","1","undefined","undefined","undefined","1","j","0","0","0","0","10","0","0","0","10","NA","6","10","6","0","6","3","10","0","10","Wed Feb 17 11:49:39 2021","The main experiment item","yes","Lexical_Decision_Task.osexp","C:/Users/beth1/Documents/Psychology/Second Year/Cognition and language","no","Andale Mono","no","18","no","white","no","yes","576","legacy","6","6","3","C:/Users/beth1/Documents/Psychology/Second Year/Cognition and language/subject-5205359.csv","legacy","Lentiform Loewenfeld","3.3.7","yes","yes","600bd7cfb6416f0113b04181","602110864497cf011d9c0822","0","j","NA","space","space","space","NA","j","532","NA","1950","8568","7446","NA","532","2","legacy","1024","2","48000","-16","task","5205359","odd","NA","29364","33321","31370","44771","4303","20322","12876","45275","NA","44770","45276","44680","33321","45808","27690","44180","4289","38046","Lexical Decision Task","10","8776","11","yes","1024"
"3.028977705","0","7","frow","non-word","83.33333333333333","83.33333333333333","775.6666666666666","775.6666666666666","black","no","legacy","legacy","legacy","0","uniform","0","undefined","undefined","undefined","0","f","0","0","0","0","11","0","0","0","11","NA","7","11","7","0","7","3","11","0","11","Wed Feb 17 11:49:39 2021","The main experiment item","yes","Lexical_Decision_Task.osexp","C:/Users/beth1/Documents/Psychology/Second Year/Cognition and language","no","Andale Mono","no","18","no","white","no","yes","576","legacy","7","7","3","C:/Users/beth1/Documents/Psychology/Second Year/Cognition and language/subject-5205359.csv","legacy","Lentiform Loewenfeld","3.3.7","yes","yes","600bd7cfb6416f0113b04181","602110864497cf011d9c0822","0","j","NA","space","space","space","NA","j","532","NA","1950","8568","7446","NA","532","2","legacy","1024","2","48000","-16","task","5205359","odd","NA","29364","33321","31370","46401","4303","20322","12876","46905","NA","46400","46905","46314","33321","47438","27690","45813","4289","38046","Lexical Decision Task","10","9308","12","yes","1024"
"2.972819734","0","4","scew","non-word","84.61538461538461","84.61538461538461","792.3076923076923","792.3076923076923","black","no","legacy","legacy","legacy","0","uniform","1","undefined","undefined","undefined","1","f","0","0","0","0","12","0","0","0","12","NA","8","12","8","0","8","3","12","0","12","Wed Feb 17 11:49:39 2021","The main experiment item","yes","Lexical_Decision_Task.osexp","C:/Users/beth1/Documents/Psychology/Second Year/Cognition and language","no","Andale Mono","no","18","no","white","no","yes","576","legacy","8","8","3","C:/Users/beth1/Documents/Psychology/Second Year/Cognition and language/subject-5205359.csv","legacy","Lentiform Loewenfeld","3.3.7","yes","yes","600bd7cfb6416f0113b04181","602110864497cf011d9c0822","0","f","NA","space","space","space","NA","f","992","NA","1950","8568","7446","NA","992","2","legacy","1024","2","48000","-16","task","5205359","odd","NA","29364","33321","31370","49048","4303","20322","12876","49552","NA","49046","49552","48943","33321","50545","27690","45813","4289","47443","Lexical Decision Task","11","10300","13","yes","1024"
"2.845304797","0","6","buct","non-word","85.71428571428571","85.71428571428571","789.7142857142857","789.7142857142857","black","no","legacy","legacy","legacy","0","uniform","1","undefined","undefined","undefined","1","f","0","0","0","0","13","0","0","0","13","NA","9","13","9","0","9","3","13","0","13","Wed Feb 17 11:49:39 2021","The main experiment item","yes","Lexical_Decision_Task.osexp","C:/Users/beth1/Documents/Psychology/Second Year/Cognition and language","no","Andale Mono","no","18","no","white","no","yes","576","legacy","9","9","3","C:/Users/beth1/Documents/Psychology/Second Year/Cognition and language/subject-5205359.csv","legacy","Lentiform Loewenfeld","3.3.7","yes","yes","600bd7cfb6416f0113b04181","602110864497cf011d9c0822","0","f","NA","space","space","space","NA","f","756","NA","1950","8568","7446","NA","756","2","legacy","1024","2","48000","-16","task","5205359","odd","NA","29364","33321","31370","51151","4303","20322","12876","51655","NA","51149","51655","51051","33321","52411","27690","50551","4289","47443","Lexical Decision Task","12","11056","14","yes","1024"
"2.803231716","5.26","3","kiln","word","80","80","773.5333333333333","773.5333333333333","black","no","legacy","legacy","legacy","0","uniform","0","undefined","undefined","undefined","0","j","0","0","0","0","14","0","0","0","14","NA","10","14","10","0","10","3","14","0","14","Wed Feb 17 11:49:39 2021","The main experiment item","yes","Lexical_Decision_Task.osexp","C:/Users/beth1/Documents/Psychology/Second Year/Cognition and language","no","Andale Mono","no","18","no","white","no","yes","576","legacy","10","10","3","C:/Users/beth1/Documents/Psychology/Second Year/Cognition and language/subject-5205359.csv","legacy","Lentiform Loewenfeld","3.3.7","yes","yes","600bd7cfb6416f0113b04181","602110864497cf011d9c0822","0","f","NA","space","space","space","NA","f","547","NA","1950","8568","7446","NA","547","2","legacy","1024","2","48000","-16","task","5205359","odd","NA","29364","33321","31370","53031","4303","20322","12876","53533","NA","53029","53533","52917","33321","54081","27690","52417","4289","47443","Lexical Decision Task","12","11603","15","yes","1024"
"3.261341392","5.08","8","reek","word","81.25","81.25","791.4375","791.4375","black","no","legacy","legacy","legacy","0","uniform","1","undefined","undefined","undefined","1","j","0","0","0","0","15","0","0","0","15","NA","11","15","11","0","11","3","15","0","15","Wed Feb 17 11:49:39 2021","The main experiment item","yes","Lexical_Decision_Task.osexp","C:/Users/beth1/Documents/Psychology/Second Year/Cognition and language","no","Andale Mono","no","18","no","white","no","yes","576","legacy","11","11","3","C:/Users/beth1/Documents/Psychology/Second Year/Cognition and language/subject-5205359.csv","legacy","Lentiform Loewenfeld","3.3.7","yes","yes","600bd7cfb6416f0113b04181","602110864497cf011d9c0822","0","j","NA","space","space","space","NA","j","1060","NA","1950","8568","7446","NA","1060","2","legacy","1024","2","48000","-16","task","5205359","odd","NA","29364","33321","31370","55683","4303","20322","12876","56188","NA","55682","56189","55588","33321","57250","27690","52417","4289","54088","Lexical Decision Task","13","12663","16","yes","1024"
"3.481012421","8.34","5","teen","word","82.3529411764706","82.3529411764706","777.7058823529412","777.7058823529412","black","no","legacy","legacy","legacy","0","uniform","1","undefined","undefined","undefined","1","j","0","0","0","0","16","0","0","0","16","NA","12","16","12","0","12","3","16","0","16","Wed Feb 17 11:49:39 2021","The main experiment item","yes","Lexical_Decision_Task.osexp","C:/Users/beth1/Documents/Psychology/Second Year/Cognition and language","no","Andale Mono","no","18","no","white","no","yes","576","legacy","12","12","3","C:/Users/beth1/Documents/Psychology/Second Year/Cognition and language/subject-5205359.csv","legacy","Lentiform Loewenfeld","3.3.7","yes","yes","600bd7cfb6416f0113b04181","602110864497cf011d9c0822","0","j","NA","space","space","space","NA","j","558","NA","1950","8568","7446","NA","558","2","legacy","1024","2","48000","-16","task","5205359","odd","NA","29364","33321","31370","57831","4303","20322","12876","58334","NA","57830","58334","57755","33321","58893","27690","57255","4289","54088","Lexical Decision Task","14","13221","17","yes","1024"
"2.693726949","5.08","3","swig","word","83.33333333333333","83.33333333333333","774.6111111111111","774.6111111111111","black","no","legacy","legacy","legacy","0","uniform","1","undefined","undefined","undefined","1","j","0","0","0","0","17","0","0","0","17","NA","13","17","13","0","13","3","17","0","17","Wed Feb 17 11:49:39 2021","The main experiment item","yes","Lexical_Decision_Task.osexp","C:/Users/beth1/Documents/Psychology/Second Year/Cognition and language","no","Andale Mono","no","18","no","white","no","yes","576","legacy","13","13","3","C:/Users/beth1/Documents/Psychology/Second Year/Cognition and language/subject-5205359.csv","legacy","Lentiform Loewenfeld","3.3.7","yes","yes","600bd7cfb6416f0113b04181","602110864497cf011d9c0822","0","j","NA","space","space","space","NA","j","722","NA","1950","8568","7446","NA","722","2","legacy","1024","2","48000","-16","task","5205359","odd","NA","29364","33321","31370","59474","4303","20322","12876","59975","NA","59472","59976","59399","33321","60699","27690","58899","4289","54088","Lexical Decision Task","15","13943","18","yes","1024"
"3.443783828","7.65","3","verb","word","84.21052631578948","84.21052631578948","761.2105263157895","761.2105263157895","black","no","legacy","legacy","legacy","0","uniform","1","undefined","undefined","undefined","1","j","0","0","0","0","18","0","0","0","18","NA","14","18","14","0","14","3","18","0","18","Wed Feb 17 11:49:39 2021","The main experiment item","yes","Lexical_Decision_Task.osexp","C:/Users/beth1/Documents/Psychology/Second Year/Cognition and language","no","Andale Mono","no","18","no","white","no","yes","576","legacy","14","14","3","C:/Users/beth1/Documents/Psychology/Second Year/Cognition and language/subject-5205359.csv","legacy","Lentiform Loewenfeld","3.3.7","yes","yes","600bd7cfb6416f0113b04181","602110864497cf011d9c0822","0","j","NA","space","space","space","NA","j","520","NA","1950","8568","7446","NA","520","2","legacy","1024","2","48000","-16","task","5205359","odd","NA","29364","33321","31370","61296","4303","20322","12876","61799","NA","61294","61799","61205","33321","62320","27690","60705","4289","54088","Lexical Decision Task","16","14463","19","yes","1024"
"2.983324025","9.56","2","debt","word","85","85","752.35","752.35","black","no","legacy","legacy","legacy","0","uniform","1","undefined","undefined","undefined","1","j","0","0","0","0","19","0","0","0","19","NA","15","19","15","0","15","3","19","0","19","Wed Feb 17 11:49:39 2021","The main experiment item","yes","Lexical_Decision_Task.osexp","C:/Users/beth1/Documents/Psychology/Second Year/Cognition and language","no","Andale Mono","no","18","no","white","no","yes","576","legacy","15","15","3","C:/Users/beth1/Documents/Psychology/Second Year/Cognition and language/subject-5205359.csv","legacy","Lentiform Loewenfeld","3.3.7","yes","yes","600bd7cfb6416f0113b04181","602110864497cf011d9c0822","0","j","NA","space","space","space","NA","j","584","NA","1950","8568","7446","NA","584","2","legacy","1024","2","48000","-16","task","5205359","odd","NA","29364","33321","31370","62931","4303","20322","12876","63436","NA","62929","63436","62827","33321","64021","27690","62327","4289","54088","Lexical Decision Task","17","15047","20","yes","1024"
"3.081107167","0","6","chot","non-word","85.71428571428571","85.71428571428571","748.2380952380952","748.2380952380952","black","no","legacy","legacy","legacy","0","uniform","1","undefined","undefined","undefined","1","f","0","0","0","0","20","0","0","0","20","NA","16","20","16","0","16","3","20","0","20","Wed Feb 17 11:49:39 2021","The main experiment item","yes","Lexical_Decision_Task.osexp","C:/Users/beth1/Documents/Psychology/Second Year/Cognition and language","no","Andale Mono","no","18","no","white","no","yes","576","legacy","16","16","3","C:/Users/beth1/Documents/Psychology/Second Year/Cognition and language/subject-5205359.csv","legacy","Lentiform Loewenfeld","3.3.7","yes","yes","600bd7cfb6416f0113b04181","602110864497cf011d9c0822","0","f","NA","space","space","space","NA","f","666","NA","1950","8568","7446","NA","666","2","legacy","1024","2","48000","-16","task","5205359","odd","NA","29364","33321","31370","64619","4303","20322","12876","65123","NA","64618","65123","64526","33321","65790","27690","64026","4289","54088","Lexical Decision Task","18","15713","21","yes","1024"
"2.744553742","0","2","nawk","non-word","86.36363636363636","86.36363636363636","746.8181818181819","746.8181818181819","black","no","legacy","legacy","legacy","0","uniform","1","undefined","undefined","undefined","1","f","0","0","0","0","21","0","0","0","21","NA","17","21","17","0","17","3","21","0","21","Wed Feb 17 11:49:39 2021","The main experiment item","yes","Lexical_Decision_Task.osexp","C:/Users/beth1/Documents/Psychology/Second Year/Cognition and language","no","Andale Mono","no","18","no","white","no","yes","576","legacy","17","17","3","C:/Users/beth1/Documents/Psychology/Second Year/Cognition and language/subject-5205359.csv","legacy","Lentiform Loewenfeld","3.3.7","yes","yes","600bd7cfb6416f0113b04181","602110864497cf011d9c0822","0","f","NA","space","space","space","NA","f","717","NA","1950","8568","7446","NA","717","2","legacy","1024","2","48000","-16","task","5205359","odd","NA","29364","33321","31370","66391","4303","20322","12876","66893","NA","66389","66893","66295","33321","67610","27690","65795","4289","54088","Lexical Decision Task","19","16430","22","yes","1024"
"2.713490543","0","3","feps","non-word","86.95652173913044","86.95652173913044","739.5652173913044","739.5652173913044","black","no","legacy","legacy","legacy","0","uniform","1","undefined","undefined","undefined","1","f","0","0","0","0","22","0","0","0","22","NA","18","22","18","0","18","3","22","0","22","Wed Feb 17 11:49:39 2021","The main experiment item","yes","Lexical_Decision_Task.osexp","C:/Users/beth1/Documents/Psychology/Second Year/Cognition and language","no","Andale Mono","no","18","no","white","no","yes","576","legacy","18","18","3","C:/Users/beth1/Documents/Psychology/Second Year/Cognition and language/subject-5205359.csv","legacy","Lentiform Loewenfeld","3.3.7","yes","yes","600bd7cfb6416f0113b04181","602110864497cf011d9c0822","0","f","NA","space","space","space","NA","f","580","NA","1950","8568","7446","NA","580","2","legacy","1024","2","48000","-16","task","5205359","odd","NA","29364","33321","31370","68194","4303","20322","12876","68698","NA","68192","68698","68116","33321","69278","27690","67616","4289","54088","Lexical Decision Task","20","17010","23","yes","1024"
"3.252447662","9.67","9","boat","word","87.5","87.5","741.625","741.625","black","no","legacy","legacy","legacy","0","uniform","1","undefined","undefined","undefined","1","j","0","0","0","0","23","0","0","0","23","NA","19","23","19","0","19","3","23","0","23","Wed Feb 17 11:49:39 2021","The main experiment item","yes","Lexical_Decision_Task.osexp","C:/Users/beth1/Documents/Psychology/Second Year/Cognition and language","no","Andale Mono","no","18","no","white","no","yes","576","legacy","19","19","3","C:/Users/beth1/Documents/Psychology/Second Year/Cognition and language/subject-5205359.csv","legacy","Lentiform Loewenfeld","3.3.7","yes","yes","600bd7cfb6416f0113b04181","602110864497cf011d9c0822","0","j","NA","space","space","space","NA","j","789","NA","1950","8568","7446","NA","789","2","legacy","1024","2","48000","-16","task","5205359","odd","NA","29364","33321","31370","69853","4303","20322","12876","70358","NA","69852","70358","69784","33321","71148","27690","69284","4289","54088","Lexical Decision Task","21","17799","24","yes","1024"
"3.2757719","0","5","slea","non-word","88","88","736.04","736.04","black","no","legacy","legacy","legacy","0","uniform","1","undefined","undefined","undefined","1","f","0","0","0","0","24","0","0","0","24","NA","20","24","20","0","20","3","24","0","24","Wed Feb 17 11:49:39 2021","The main experiment item","yes","Lexical_Decision_Task.osexp","C:/Users/beth1/Documents/Psychology/Second Year/Cognition and language","no","Andale Mono","no","18","no","white","no","yes","576","legacy","20","20","3","C:/Users/beth1/Documents/Psychology/Second Year/Cognition and language/subject-5205359.csv","legacy","Lentiform Loewenfeld","3.3.7","yes","yes","600bd7cfb6416f0113b04181","602110864497cf011d9c0822","0","f","NA","space","space","space","NA","f","602","NA","1950","8568","7446","NA","602","2","legacy","1024","2","48000","-16","task","5205359","odd","NA","29364","33321","31370","71758","4303","20322","12876","72262","NA","71756","72263","71654","33321","72865","27690","71153","4289","54088","Lexical Decision Task","22","18401","25","yes","1024"
"3.174641193","0","3","ramb","non-word","88.46153846153847","88.46153846153847","737.6923076923077","737.6923076923077","black","no","legacy","legacy","legacy","0","uniform","1","undefined","undefined","undefined","1","f","0","0","0","0","25","0","0","0","25","NA","21","25","21","0","21","3","25","0","25","Wed Feb 17 11:49:39 2021","The main experiment item","yes","Lexical_Decision_Task.osexp","C:/Users/beth1/Documents/Psychology/Second Year/Cognition and language","no","Andale Mono","no","18","no","white","no","yes","576","legacy","21","21","3","C:/Users/beth1/Documents/Psychology/Second Year/Cognition and language/subject-5205359.csv","legacy","Lentiform Loewenfeld","3.3.7","yes","yes","600bd7cfb6416f0113b04181","602110864497cf011d9c0822","0","f","NA","space","space","space","NA","f","779","NA","1950","8568","7446","NA","779","2","legacy","1024","2","48000","-16","task","5205359","odd","NA","29364","33321","31370","73480","4303","20322","12876","73984","NA","73478","73984","73371","33321","74764","27690","72871","4289","54088","Lexical Decision Task","23","19180","26","yes","1024"
"3.064581521","5.51","6","cask","word","85.18518518518519","85.18518518518519","730.2592592592592","730.2592592592592","black","no","legacy","legacy","legacy","0","uniform","0","undefined","undefined","undefined","0","j","0","0","0","0","26","0","0","0","26","NA","22","26","22","0","22","3","26","0","26","Wed Feb 17 11:49:39 2021","The main experiment item","yes","Lexical_Decision_Task.osexp","C:/Users/beth1/Documents/Psychology/Second Year/Cognition and language","no","Andale Mono","no","18","no","white","no","yes","576","legacy","22","22","3","C:/Users/beth1/Documents/Psychology/Second Year/Cognition and language/subject-5205359.csv","legacy","Lentiform Loewenfeld","3.3.7","yes","yes","600bd7cfb6416f0113b04181","602110864497cf011d9c0822","0","f","NA","space","space","space","NA","f","537","NA","1950","8568","7446","NA","537","2","legacy","1024","2","48000","-16","task","5205359","odd","NA","29364","33321","31370","75381","4303","20322","12876","75885","NA","75380","75885","75269","33321","76422","27690","74769","4289","54088","Lexical Decision Task","23","19717","27","yes","1024"
"3.090140555","5.81","8","pout","word","85.71428571428571","85.71428571428571","725.6428571428571","725.6428571428571","black","no","legacy","legacy","legacy","0","uniform","1","undefined","undefined","undefined","1","j","0","0","0","0","27","0","0","0","27","NA","23","27","23","0","23","3","27","0","27","Wed Feb 17 11:49:39 2021","The main experiment item","yes","Lexical_Decision_Task.osexp","C:/Users/beth1/Documents/Psychology/Second Year/Cognition and language","no","Andale Mono","no","18","no","white","no","yes","576","legacy","23","23","3","C:/Users/beth1/Documents/Psychology/Second Year/Cognition and language/subject-5205359.csv","legacy","Lentiform Loewenfeld","3.3.7","yes","yes","600bd7cfb6416f0113b04181","602110864497cf011d9c0822","0","j","NA","space","space","space","NA","j","601","NA","1950","8568","7446","NA","601","2","legacy","1024","2","48000","-16","task","5205359","odd","NA","29364","33321","31370","78028","4303","20322","12876","78532","NA","78026","78533","77927","33321","79134","27690","74769","4289","76427","Lexical Decision Task","24","20318","28","yes","1024"
"3.15462682","0","6","noal","non-word","86.20689655172414","86.20689655172414","721.3103448275862","721.3103448275862","black","no","legacy","legacy","legacy","0","uniform","1","undefined","undefined","undefined","1","f","0","0","0","0","28","0","0","0","28","NA","24","28","24","0","24","3","28","0","28","Wed Feb 17 11:49:39 2021","The main experiment item","yes","Lexical_Decision_Task.osexp","C:/Users/beth1/Documents/Psychology/Second Year/Cognition and language","no","Andale Mono","no","18","no","white","no","yes","576","legacy","24","24","3","C:/Users/beth1/Documents/Psychology/Second Year/Cognition and language/subject-5205359.csv","legacy","Lentiform Loewenfeld","3.3.7","yes","yes","600bd7cfb6416f0113b04181","602110864497cf011d9c0822","0","f","NA","space","space","space","NA","f","600","NA","1950","8568","7446","NA","600","2","legacy","1024","2","48000","-16","task","5205359","odd","NA","29364","33321","31370","79713","4303","20322","12876","80217","NA","79711","80218","79640","33321","80819","27690","79140","4289","76427","Lexical Decision Task","25","20918","29","yes","1024"
"3.039414119","0","9","meep","non-word","86.66666666666667","86.66666666666667","716.7","716.7","black","no","legacy","legacy","legacy","0","uniform","1","undefined","undefined","undefined","1","f","0","0","0","0","29","0","0","0","29","NA","25","29","25","0","25","3","29","0","29","Wed Feb 17 11:49:39 2021","The main experiment item","yes","Lexical_Decision_Task.osexp","C:/Users/beth1/Documents/Psychology/Second Year/Cognition and language","no","Andale Mono","no","18","no","white","no","yes","576","legacy","25","25","3","C:/Users/beth1/Documents/Psychology/Second Year/Cognition and language/subject-5205359.csv","legacy","Lentiform Loewenfeld","3.3.7","yes","yes","600bd7cfb6416f0113b04181","602110864497cf011d9c0822","0","f","NA","space","space","space","NA","f","583","NA","1950","8568","7446","NA","583","2","legacy","1024","2","48000","-16","task","5205359","odd","NA","29364","33321","31370","81399","4303","20322","12876","81903","NA","81398","81903","81325","33321","82487","27690","80824","4289","76427","Lexical Decision Task","26","21501","30","yes","1024"
"3.082307743","9.68","8","camp","word","87.09677419354838","87.09677419354838","711.9032258064516","711.9032258064516","black","no","legacy","legacy","legacy","0","uniform","1","undefined","undefined","undefined","1","j","0","0","0","0","30","0","0","0","30","NA","26","30","26","0","26","3","30","0","30","Wed Feb 17 11:49:39 2021","The main experiment item","yes","Lexical_Decision_Task.osexp","C:/Users/beth1/Documents/Psychology/Second Year/Cognition and language","no","Andale Mono","no","18","no","white","no","yes","576","legacy","26","26","3","C:/Users/beth1/Documents/Psychology/Second Year/Cognition and language/subject-5205359.csv","legacy","Lentiform Loewenfeld","3.3.7","yes","yes","600bd7cfb6416f0113b04181","602110864497cf011d9c0822","0","j","NA","space","space","space","NA","j","568","NA","1950","8568","7446","NA","568","2","legacy","1024","2","48000","-16","task","5205359","odd","NA","29364","33321","31370","83075","4303","20322","12876","83577","NA","83073","83577","82993","33321","84146","27690","82493","4289","76427","Lexical Decision Task","27","22069","31","yes","1024"
"3.149629599","0","2","cleb","non-word","87.5","87.5","707.6875","707.6875","black","no","legacy","legacy","legacy","0","uniform","1","undefined","undefined","undefined","1","f","0","0","0","0","31","0","0","0","31","NA","27","31","27","0","27","3","31","0","31","Wed Feb 17 11:49:39 2021","The main experiment item","yes","Lexical_Decision_Task.osexp","C:/Users/beth1/Documents/Psychology/Second Year/Cognition and language","no","Andale Mono","no","18","no","white","no","yes","576","legacy","27","27","3","C:/Users/beth1/Documents/Psychology/Second Year/Cognition and language/subject-5205359.csv","legacy","Lentiform Loewenfeld","3.3.7","yes","yes","600bd7cfb6416f0113b04181","602110864497cf011d9c0822","0","f","NA","space","space","space","NA","f","577","NA","1950","8568","7446","NA","577","2","legacy","1024","2","48000","-16","task","5205359","odd","NA","29364","33321","31370","84763","4303","20322","12876","85267","NA","84761","85267","84653","33321","85844","27690","84153","4289","76427","Lexical Decision Task","28","22646","32","yes","1024"
"3.140404328","10.66","9","deep","word","87.87878787878788","87.87878787878788","704.6969696969697","704.6969696969697","black","no","legacy","legacy","legacy","0","uniform","1","undefined","undefined","undefined","1","j","0","0","0","0","32","0","0","0","32","NA","28","32","28","0","28","3","32","0","32","Wed Feb 17 11:49:39 2021","The main experiment item","yes","Lexical_Decision_Task.osexp","C:/Users/beth1/Documents/Psychology/Second Year/Cognition and language","no","Andale Mono","no","18","no","white","no","yes","576","legacy","28","28","3","C:/Users/beth1/Documents/Psychology/Second Year/Cognition and language/subject-5205359.csv","legacy","Lentiform Loewenfeld","3.3.7","yes","yes","600bd7cfb6416f0113b04181","602110864497cf011d9c0822","0","j","NA","space","space","space","NA","j","609","NA","1950","8568","7446","NA","609","2","legacy","1024","2","48000","-16","task","5205359","odd","NA","29364","33321","31370","86434","4303","20322","12876","86938","NA","86432","86938","86350","33321","87548","27690","85850","4289","76427","Lexical Decision Task","29","23255","33","yes","1024"
"2.842815106","7.86","8","lump","word","88.23529411764706","88.23529411764706","699.7647058823529","699.7647058823529","black","no","legacy","legacy","legacy","0","uniform","1","undefined","undefined","undefined","1","j","0","0","0","0","33","0","0","0","33","NA","29","33","29","0","29","3","33","0","33","Wed Feb 17 11:49:39 2021","The main experiment item","yes","Lexical_Decision_Task.osexp","C:/Users/beth1/Documents/Psychology/Second Year/Cognition and language","no","Andale Mono","no","18","no","white","no","yes","576","legacy","29","29","3","C:/Users/beth1/Documents/Psychology/Second Year/Cognition and language/subject-5205359.csv","legacy","Lentiform Loewenfeld","3.3.7","yes","yes","600bd7cfb6416f0113b04181","602110864497cf011d9c0822","0","j","NA","space","space","space","NA","j","537","NA","1950","8568","7446","NA","537","2","legacy","1024","2","48000","-16","task","5205359","odd","NA","29364","33321","31370","88155","4303","20322","12876","88658","NA","88154","88659","88053","33321","89197","27690","87553","4289","76427","Lexical Decision Task","30","23792","34","yes","1024"
"3.067193647","6.73","6","raft","word","88.57142857142857","88.57142857142857","697.6857142857143","697.6857142857143","black","no","legacy","legacy","legacy","0","uniform","1","undefined","undefined","undefined","1","j","0","0","0","0","34","0","0","0","34","NA","30","34","30","0","30","3","34","0","34","Wed Feb 17 11:49:39 2021","The main experiment item","yes","Lexical_Decision_Task.osexp","C:/Users/beth1/Documents/Psychology/Second Year/Cognition and language","no","Andale Mono","no","18","no","white","no","yes","576","legacy","30","30","3","C:/Users/beth1/Documents/Psychology/Second Year/Cognition and language/subject-5205359.csv","legacy","Lentiform Loewenfeld","3.3.7","yes","yes","600bd7cfb6416f0113b04181","602110864497cf011d9c0822","0","j","NA","space","space","space","NA","j","627","NA","1950","8568","7446","NA","627","2","legacy","1024","2","48000","-16","task","5205359","odd","NA","29364","33321","31370","89787","4303","20322","12876","90292","NA","89786","90292","89703","33321","90920","27690","89203","4289","76427","Lexical Decision Task","31","24419","35","yes","1024"
"2.698100546","0","9","mulk","non-word","88.88888888888889","88.88888888888889","690.6388888888889","690.6388888888889","black","no","legacy","legacy","legacy","0","uniform","1","undefined","undefined","undefined","1","f","0","0","0","0","35","0","0","0","35","NA","31","35","31","0","31","3","35","0","35","Wed Feb 17 11:49:39 2021","The main experiment item","yes","Lexical_Decision_Task.osexp","C:/Users/beth1/Documents/Psychology/Second Year/Cognition and language","no","Andale Mono","no","18","no","white","no","yes","576","legacy","31","31","3","C:/Users/beth1/Documents/Psychology/Second Year/Cognition and language/subject-5205359.csv","legacy","Lentiform Loewenfeld","3.3.7","yes","yes","600bd7cfb6416f0113b04181","602110864497cf011d9c0822","0","f","NA","space","space","space","NA","f","444","NA","1950","8568","7446","NA","444","2","legacy","1024","2","48000","-16","task","5205359","odd","NA","29364","33321","31370","91520","4303","20322","12876","92024","NA","91518","92024","91425","33321","92468","27690","90925","4289","76427","Lexical Decision Task","32","24863","36","yes","1024"
"3.705778213","0","6","stin","non-word","89.1891891891892","89.1891891891892","690.2702702702703","690.2702702702703","black","no","legacy","legacy","legacy","0","uniform","1","undefined","undefined","undefined","1","f","0","0","0","0","36","0","0","0","36","NA","32","36","32","0","32","3","36","0","36","Wed Feb 17 11:49:39 2021","The main experiment item","yes","Lexical_Decision_Task.osexp","C:/Users/beth1/Documents/Psychology/Second Year/Cognition and language","no","Andale Mono","no","18","no","white","no","yes","576","legacy","32","32","3","C:/Users/beth1/Documents/Psychology/Second Year/Cognition and language/subject-5205359.csv","legacy","Lentiform Loewenfeld","3.3.7","yes","yes","600bd7cfb6416f0113b04181","602110864497cf011d9c0822","0","f","NA","space","space","space","NA","f","677","NA","1950","8568","7446","NA","677","2","legacy","1024","2","48000","-16","task","5205359","odd","NA","29364","33321","31370","93078","4303","20322","12876","93581","NA","93076","93581","92974","33321","94259","27690","92474","4289","76427","Lexical Decision Task","33","25540","37","yes","1024"
"2.892836167","10.01","5","soft","word","89.47368421052632","89.47368421052632","685.6315789473684","685.6315789473684","black","no","legacy","legacy","legacy","0","uniform","1","undefined","undefined","undefined","1","j","0","0","0","0","37","0","0","0","37","NA","33","37","33","0","33","3","37","0","37","Wed Feb 17 11:49:39 2021","The main experiment item","yes","Lexical_Decision_Task.osexp","C:/Users/beth1/Documents/Psychology/Second Year/Cognition and language","no","Andale Mono","no","18","no","white","no","yes","576","legacy","33","33","3","C:/Users/beth1/Documents/Psychology/Second Year/Cognition and language/subject-5205359.csv","legacy","Lentiform Loewenfeld","3.3.7","yes","yes","600bd7cfb6416f0113b04181","602110864497cf011d9c0822","0","j","NA","space","space","space","NA","j","514","NA","1950","8568","7446","NA","514","2","legacy","1024","2","48000","-16","task","5205359","odd","NA","29364","33321","31370","94861","4303","20322","12876","95364","NA","94859","95365","94765","33321","95880","27690","94265","4289","76427","Lexical Decision Task","34","26054","38","yes","1024"
"2.868644438","10.52","4","town","word","89.74358974358974","89.74358974358974","680.7692307692307","680.7692307692307","black","no","legacy","legacy","legacy","0","uniform","1","undefined","undefined","undefined","1","j","0","0","0","0","38","0","0","0","38","NA","34","38","34","0","34","3","38","0","38","Wed Feb 17 11:49:39 2021","The main experiment item","yes","Lexical_Decision_Task.osexp","C:/Users/beth1/Documents/Psychology/Second Year/Cognition and language","no","Andale Mono","no","18","no","white","no","yes","576","legacy","34","34","3","C:/Users/beth1/Documents/Psychology/Second Year/Cognition and language/subject-5205359.csv","legacy","Lentiform Loewenfeld","3.3.7","yes","yes","600bd7cfb6416f0113b04181","602110864497cf011d9c0822","0","j","NA","space","space","space","NA","j","496","NA","1950","8568","7446","NA","496","2","legacy","1024","2","48000","-16","task","5205359","odd","NA","29364","33321","31370","96480","4303","20322","12876","96984","NA","96479","96984","96388","33321","97481","27690","95888","4289","76427","Lexical Decision Task","35","26550","39","yes","1024"
"2.696356389","0","1","pizz","non-word","87.5","87.5","676.425","676.425","black","no","legacy","legacy","legacy","0","uniform","0","undefined","undefined","undefined","0","f","0","0","0","0","39","0","0","0","39","NA","35","39","35","0","35","3","39","0","39","Wed Feb 17 11:49:39 2021","The main experiment item","yes","Lexical_Decision_Task.osexp","C:/Users/beth1/Documents/Psychology/Second Year/Cognition and language","no","Andale Mono","no","18","no","white","no","yes","576","legacy","35","35","3","C:/Users/beth1/Documents/Psychology/Second Year/Cognition and language/subject-5205359.csv","legacy","Lentiform Loewenfeld","3.3.7","yes","yes","600bd7cfb6416f0113b04181","602110864497cf011d9c0822","0","j","NA","space","space","space","NA","j","507","NA","1950","8568","7446","NA","507","2","legacy","1024","2","48000","-16","task","5205359","odd","NA","29364","33321","31370","98093","4303","20322","12876","98595","NA","98092","98595","97987","33321","99103","27690","97487","4289","76427","Lexical Decision Task","35","27057","40","yes","1024"
"3.068433376","8.09","2","bulb","word","87.8048780487805","87.8048780487805","674.9024390243902","674.9024390243902","black","no","legacy","legacy","legacy","0","uniform","1","undefined","undefined","undefined","1","j","0","0","0","0","40","0","0","0","40","NA","36","40","36","0","36","3","40","0","40","Wed Feb 17 11:49:39 2021","The main experiment item","yes","Lexical_Decision_Task.osexp","C:/Users/beth1/Documents/Psychology/Second Year/Cognition and language","no","Andale Mono","no","18","no","white","no","yes","576","legacy","36","36","3","C:/Users/beth1/Documents/Psychology/Second Year/Cognition and language/subject-5205359.csv","legacy","Lentiform Loewenfeld","3.3.7","yes","yes","600bd7cfb6416f0113b04181","602110864497cf011d9c0822","0","j","NA","space","space","space","NA","j","614","NA","1950","8568","7446","NA","614","2","legacy","1024","2","48000","-16","task","5205359","odd","NA","29364","33321","31370","100709","4303","20322","12876","101213","NA","100707","101213","100609","33321","101828","27690","97487","4289","99109","Lexical Decision Task","36","27671","41","yes","1024"
"2.7084209","0","8","vump","non-word","88.0952380952381","88.0952380952381","670.4761904761905","670.4761904761905","black","no","legacy","legacy","legacy","0","uniform","1","undefined","undefined","undefined","1","f","0","0","0","0","41","0","0","0","41","NA","37","41","37","0","37","3","41","0","41","Wed Feb 17 11:49:39 2021","The main experiment item","yes","Lexical_Decision_Task.osexp","C:/Users/beth1/Documents/Psychology/Second Year/Cognition and language","no","Andale Mono","no","18","no","white","no","yes","576","legacy","37","37","3","C:/Users/beth1/Documents/Psychology/Second Year/Cognition and language/subject-5205359.csv","legacy","Lentiform Loewenfeld","3.3.7","yes","yes","600bd7cfb6416f0113b04181","602110864497cf011d9c0822","0","f","NA","space","space","space","NA","f","489","NA","1950","8568","7446","NA","489","2","legacy","1024","2","48000","-16","task","5205359","odd","NA","29364","33321","31370","102445","4303","20322","12876","102947","NA","102444","102947","102333","33321","103437","27690","101833","4289","99109","Lexical Decision Task","37","28160","42","yes","1024"
"3.120135028","0","3","vals","non-word","88.37209302325581","88.37209302325581","670.1627906976744","670.1627906976744","black","no","legacy","legacy","legacy","0","uniform","1","undefined","undefined","undefined","1","f","0","0","0","0","42","0","0","0","42","NA","38","42","38","0","38","3","42","0","42","Wed Feb 17 11:49:39 2021","The main experiment item","yes","Lexical_Decision_Task.osexp","C:/Users/beth1/Documents/Psychology/Second Year/Cognition and language","no","Andale Mono","no","18","no","white","no","yes","576","legacy","38","38","3","C:/Users/beth1/Documents/Psychology/Second Year/Cognition and language/subject-5205359.csv","legacy","Lentiform Loewenfeld","3.3.7","yes","yes","600bd7cfb6416f0113b04181","602110864497cf011d9c0822","0","f","NA","space","space","space","NA","f","657","NA","1950","8568","7446","NA","657","2","legacy","1024","2","48000","-16","task","5205359","odd","NA","29364","33321","31370","104056","4303","20322","12876","104558","NA","104055","104559","103943","33321","105216","27690","103443","4289","99109","Lexical Decision Task","38","28817","43","yes","1024"
"2.843025032","0","9","pusk","non-word","88.63636363636364","88.63636363636364","673.4318181818181","673.4318181818181","black","no","legacy","legacy","legacy","0","uniform","1","undefined","undefined","undefined","1","f","0","0","0","0","43","0","0","0","43","NA","39","43","39","0","39","3","43","0","43","Wed Feb 17 11:49:39 2021","The main experiment item","yes","Lexical_Decision_Task.osexp","C:/Users/beth1/Documents/Psychology/Second Year/Cognition and language","no","Andale Mono","no","18","no","white","no","yes","576","legacy","39","39","3","C:/Users/beth1/Documents/Psychology/Second Year/Cognition and language/subject-5205359.csv","legacy","Lentiform Loewenfeld","3.3.7","yes","yes","600bd7cfb6416f0113b04181","602110864497cf011d9c0822","0","f","NA","space","space","space","NA","f","814","NA","1950","8568","7446","NA","814","2","legacy","1024","2","48000","-16","task","5205359","odd","NA","29364","33321","31370","105821","4303","20322","12876","106326","NA","105819","106326","105722","33321","107141","27690","105222","4289","99109","Lexical Decision Task","39","29631","44","yes","1024"
"3.460446784","0","5","dess","non-word","88.88888888888889","88.88888888888889","673.2222222222222","673.2222222222222","black","no","legacy","legacy","legacy","0","uniform","1","undefined","undefined","undefined","1","f","0","0","0","0","44","0","0","0","44","NA","40","44","40","0","40","3","44","0","44","Wed Feb 17 11:49:39 2021","The main experiment item","yes","Lexical_Decision_Task.osexp","C:/Users/beth1/Documents/Psychology/Second Year/Cognition and language","no","Andale Mono","no","18","no","white","no","yes","576","legacy","40","40","3","C:/Users/beth1/Documents/Psychology/Second Year/Cognition and language/subject-5205359.csv","legacy","Lentiform Loewenfeld","3.3.7","yes","yes","600bd7cfb6416f0113b04181","602110864497cf011d9c0822","0","f","NA","space","space","space","NA","f","664","NA","1950","8568","7446","NA","664","2","legacy","1024","2","48000","-16","task","5205359","odd","NA","29364","33321","31370","107744","4303","20322","12876","108248","NA","107743","108249","107648","33321","108913","27690","107148","4289","99109","Lexical Decision Task","40","30295","45","yes","1024"
"3.276537627","9.15","5","trap","word","89.1304347826087","89.1304347826087","669.5217391304348","669.5217391304348","black","no","legacy","legacy","legacy","0","uniform","1","undefined","undefined","undefined","1","j","0","0","0","0","45","0","0","0","45","NA","41","45","41","0","41","3","45","0","45","Wed Feb 17 11:49:39 2021","The main experiment item","yes","Lexical_Decision_Task.osexp","C:/Users/beth1/Documents/Psychology/Second Year/Cognition and language","no","Andale Mono","no","18","no","white","no","yes","576","legacy","41","41","3","C:/Users/beth1/Documents/Psychology/Second Year/Cognition and language/subject-5205359.csv","legacy","Lentiform Loewenfeld","3.3.7","yes","yes","600bd7cfb6416f0113b04181","602110864497cf011d9c0822","0","j","NA","space","space","space","NA","j","503","NA","1950","8568","7446","NA","503","2","legacy","1024","2","48000","-16","task","5205359","odd","NA","29364","33321","31370","109554","4303","20322","12876","110056","NA","109552","110056","109419","33321","110559","27690","108919","4289","99109","Lexical Decision Task","41","30798","46","yes","1024"
"3.488597715","0","9","nain","non-word","89.36170212765957","89.36170212765957","667.1276595744681","667.1276595744681","black","no","legacy","legacy","legacy","0","uniform","1","undefined","undefined","undefined","1","f","0","0","0","0","46","0","0","0","46","NA","42","46","42","0","42","3","46","0","46","Wed Feb 17 11:49:39 2021","The main experiment item","yes","Lexical_Decision_Task.osexp","C:/Users/beth1/Documents/Psychology/Second Year/Cognition and language","no","Andale Mono","no","18","no","white","no","yes","576","legacy","42","42","3","C:/Users/beth1/Documents/Psychology/Second Year/Cognition and language/subject-5205359.csv","legacy","Lentiform Loewenfeld","3.3.7","yes","yes","600bd7cfb6416f0113b04181","602110864497cf011d9c0822","0","f","NA","space","space","space","NA","f","557","NA","1950","8568","7446","NA","557","2","legacy","1024","2","48000","-16","task","5205359","odd","NA","29364","33321","31370","111140","4303","20322","12876","111644","NA","111138","111644","111065","33321","112201","27690","110565","4289","99109","Lexical Decision Task","42","31355","47","yes","1024"
"2.884795364","0","6","flob","non-word","89.58333333333333","89.58333333333333","665.375","665.375","black","no","legacy","legacy","legacy","0","uniform","1","undefined","undefined","undefined","1","f","0","0","0","0","47","0","0","0","47","NA","43","47","43","0","43","3","47","0","47","Wed Feb 17 11:49:39 2021","The main experiment item","yes","Lexical_Decision_Task.osexp","C:/Users/beth1/Documents/Psychology/Second Year/Cognition and language","no","Andale Mono","no","18","no","white","no","yes","576","legacy","43","43","3","C:/Users/beth1/Documents/Psychology/Second Year/Cognition and language/subject-5205359.csv","legacy","Lentiform Loewenfeld","3.3.7","yes","yes","600bd7cfb6416f0113b04181","602110864497cf011d9c0822","0","f","NA","space","space","space","NA","f","583","NA","1950","8568","7446","NA","583","2","legacy","1024","2","48000","-16","task","5205359","odd","NA","29364","33321","31370","112802","4303","20322","12876","113306","NA","112800","113306","112708","33321","113890","27690","112208","4289","99109","Lexical Decision Task","43","31938","48","yes","1024"
"3.316948329","0","1","besc","non-word","89.79591836734694","89.79591836734694","661.3469387755102","661.3469387755102","black","no","legacy","legacy","legacy","0","uniform","1","undefined","undefined","undefined","1","f","0","0","0","0","48","0","0","0","48","NA","44","48","44","0","44","3","48","0","48","Wed Feb 17 11:49:39 2021","The main experiment item","yes","Lexical_Decision_Task.osexp","C:/Users/beth1/Documents/Psychology/Second Year/Cognition and language","no","Andale Mono","no","18","no","white","no","yes","576","legacy","44","44","3","C:/Users/beth1/Documents/Psychology/Second Year/Cognition and language/subject-5205359.csv","legacy","Lentiform Loewenfeld","3.3.7","yes","yes","600bd7cfb6416f0113b04181","602110864497cf011d9c0822","0","f","NA","space","space","space","NA","f","468","NA","1950","8568","7446","NA","468","2","legacy","1024","2","48000","-16","task","5205359","odd","NA","29364","33321","31370","114483","4303","20322","12876","114985","NA","114481","114985","114395","33321","115454","27690","113895","4289","99109","Lexical Decision Task","44","32406","49","yes","1024"
"2.675164031","8.57","6","glue","word","90","90","658.8","658.8","black","no","legacy","legacy","legacy","0","uniform","1","undefined","undefined","undefined","1","j","0","0","0","0","49","0","0","0","49","NA","45","49","45","0","45","3","49","0","49","Wed Feb 17 11:49:39 2021","The main experiment item","yes","Lexical_Decision_Task.osexp","C:/Users/beth1/Documents/Psychology/Second Year/Cognition and language","no","Andale Mono","no","18","no","white","no","yes","576","legacy","45","45","3","C:/Users/beth1/Documents/Psychology/Second Year/Cognition and language/subject-5205359.csv","legacy","Lentiform Loewenfeld","3.3.7","yes","yes","600bd7cfb6416f0113b04181","602110864497cf011d9c0822","0","j","NA","space","space","space","NA","j","534","NA","1950","8568","7446","NA","534","2","legacy","1024","2","48000","-16","task","5205359","odd","NA","29364","33321","31370","116044","4303","20322","12876","116548","NA","116042","116548","115959","33321","117083","27690","115459","4289","99109","Lexical Decision Task","45","32940","50","yes","1024"
"3.263399331","0","8","cour","non-word","90.19607843137256","90.19607843137256","657.2352941176471","657.2352941176471","black","no","legacy","legacy","legacy","0","uniform","1","undefined","undefined","undefined","1","f","0","0","0","0","50","0","0","0","50","NA","46","50","46","0","46","3","50","0","50","Wed Feb 17 11:49:39 2021","The main experiment item","yes","Lexical_Decision_Task.osexp","C:/Users/beth1/Documents/Psychology/Second Year/Cognition and language","no","Andale Mono","no","18","no","white","no","yes","576","legacy","46","46","3","C:/Users/beth1/Documents/Psychology/Second Year/Cognition and language/subject-5205359.csv","legacy","Lentiform Loewenfeld","3.3.7","yes","yes","600bd7cfb6416f0113b04181","602110864497cf011d9c0822","0","f","NA","space","space","space","NA","f","579","NA","1950","8568","7446","NA","579","2","legacy","1024","2","48000","-16","task","5205359","odd","NA","29364","33321","31370","117663","4303","20322","12876","118165","NA","117660","118165","117589","33321","118745","27690","117089","4289","99109","Lexical Decision Task","46","33519","51","yes","1024"
"3.216517684","10.87","3","film","word","90.38461538461539","90.38461538461539","658.2884615384615","658.2884615384615","black","no","legacy","legacy","legacy","0","uniform","1","undefined","undefined","undefined","1","j","0","0","0","0","51","0","0","0","51","NA","47","51","47","0","47","3","51","0","51","Wed Feb 17 11:49:39 2021","The main experiment item","yes","Lexical_Decision_Task.osexp","C:/Users/beth1/Documents/Psychology/Second Year/Cognition and language","no","Andale Mono","no","18","no","white","no","yes","576","legacy","47","47","3","C:/Users/beth1/Documents/Psychology/Second Year/Cognition and language/subject-5205359.csv","legacy","Lentiform Loewenfeld","3.3.7","yes","yes","600bd7cfb6416f0113b04181","602110864497cf011d9c0822","0","j","NA","space","space","space","NA","j","712","NA","1950","8568","7446","NA","712","2","legacy","1024","2","48000","-16","task","5205359","odd","NA","29364","33321","31370","119367","4303","20322","12876","119872","NA","119364","119873","119252","33321","120586","27690","118752","4289","99109","Lexical Decision Task","47","34231","52","yes","1024"
"3.197740804","6.74","3","ache","word","90.56603773584905","90.56603773584905","656.3396226415094","656.3396226415094","black","no","legacy","legacy","legacy","0","uniform","1","undefined","undefined","undefined","1","j","0","0","0","0","52","0","0","0","52","NA","48","52","48","0","48","3","52","0","52","Wed Feb 17 11:49:39 2021","The main experiment item","yes","Lexical_Decision_Task.osexp","C:/Users/beth1/Documents/Psychology/Second Year/Cognition and language","no","Andale Mono","no","18","no","white","no","yes","576","legacy","48","48","3","C:/Users/beth1/Documents/Psychology/Second Year/Cognition and language/subject-5205359.csv","legacy","Lentiform Loewenfeld","3.3.7","yes","yes","600bd7cfb6416f0113b04181","602110864497cf011d9c0822","0","j","NA","space","space","space","NA","j","555","NA","1950","8568","7446","NA","555","2","legacy","1024","2","48000","-16","task","5205359","odd","NA","29364","33321","31370","121173","4303","20322","12876","121677","NA","121171","121677","121092","33321","122232","27690","120592","4289","99109","Lexical Decision Task","48","34786","53","yes","1024"
"3.363486562","6.93","9","lush","word","90.74074074074075","90.74074074074075","653.7222222222222","653.7222222222222","black","no","legacy","legacy","legacy","0","uniform","1","undefined","undefined","undefined","1","j","0","0","0","0","53","0","0","0","53","NA","49","53","49","0","49","3","53","0","53","Wed Feb 17 11:49:39 2021","The main experiment item","yes","Lexical_Decision_Task.osexp","C:/Users/beth1/Documents/Psychology/Second Year/Cognition and language","no","Andale Mono","no","18","no","white","no","yes","576","legacy","49","49","3","C:/Users/beth1/Documents/Psychology/Second Year/Cognition and language/subject-5205359.csv","legacy","Lentiform Loewenfeld","3.3.7","yes","yes","600bd7cfb6416f0113b04181","602110864497cf011d9c0822","0","j","NA","space","space","space","NA","j","515","NA","1950","8568","7446","NA","515","2","legacy","1024","2","48000","-16","task","5205359","odd","NA","29364","33321","31370","122824","4303","20322","12876","123328","NA","122822","123329","122738","33321","123844","27690","122238","4289","99109","Lexical Decision Task","49","35301","54","yes","1024"
"2.907588697","8.91","9","mood","word","90.9090909090909","90.9090909090909","651.3272727272728","651.3272727272728","black","no","legacy","legacy","legacy","0","uniform","1","undefined","undefined","undefined","1","j","0","0","0","0","54","0","0","0","54","0","50","54","50","0","50","3","54","0","54","Wed Feb 17 11:49:39 2021","The main experiment item","yes","Lexical_Decision_Task.osexp","C:/Users/beth1/Documents/Psychology/Second Year/Cognition and language","no","Andale Mono","no","18","no","white","no","yes","576","legacy","50","50","3","C:/Users/beth1/Documents/Psychology/Second Year/Cognition and language/subject-5205359.csv","legacy","Lentiform Loewenfeld","3.3.7","yes","yes","600bd7cfb6416f0113b04181","602110864497cf011d9c0822","0","j","NA","space","space","space","space","j","522","NA","1950","8568","7446","5652","522","2","legacy","1024","2","48000","-16","task","5205359","odd","NA","29364","33321","31370","130167","4303","20322","12876","130670","124455","130165","130671","124350","33321","131194","27690","123850","4289","99109","Lexical Decision Task","50","35823","55","yes","1024"
"3.1430148","7.92","8","bald","word","91.07142857142857","91.07142857142857","649.5892857142857","649.5892857142857","black","no","legacy","legacy","legacy","0","uniform","1","undefined","undefined","undefined","1","j","0","0","0","0","55","0","0","0","55","0","51","55","51","0","51","3","55","0","55","Wed Feb 17 11:49:39 2021","The main experiment item","yes","Lexical_Decision_Task.osexp","C:/Users/beth1/Documents/Psychology/Second Year/Cognition and language","no","Andale Mono","no","18","no","white","no","yes","576","legacy","51","51","3","C:/Users/beth1/Documents/Psychology/Second Year/Cognition and language/subject-5205359.csv","legacy","Lentiform Loewenfeld","3.3.7","yes","yes","600bd7cfb6416f0113b04181","602110864497cf011d9c0822","0","j","NA","space","space","space","space","j","554","NA","1950","8568","7446","5652","554","2","legacy","1024","2","48000","-16","task","5205359","odd","NA","29364","33321","31370","131816","4303","20322","12876","132319","124455","131814","132319","131700","33321","132874","27690","131199","4289","99109","Lexical Decision Task","51","36377","56","yes","1024"
"2.875447132","0","9","jelt","non-word","91.2280701754386","91.2280701754386","649.1929824561404","649.1929824561404","black","no","legacy","legacy","legacy","0","uniform","1","undefined","undefined","undefined","1","f","0","0","0","0","56","0","0","0","56","0","52","56","52","0","52","3","56","0","56","Wed Feb 17 11:49:39 2021","The main experiment item","yes","Lexical_Decision_Task.osexp","C:/Users/beth1/Documents/Psychology/Second Year/Cognition and language","no","Andale Mono","no","18","no","white","no","yes","576","legacy","52","52","3","C:/Users/beth1/Documents/Psychology/Second Year/Cognition and language/subject-5205359.csv","legacy","Lentiform Loewenfeld","3.3.7","yes","yes","600bd7cfb6416f0113b04181","602110864497cf011d9c0822","0","f","NA","space","space","space","space","f","627","NA","1950","8568","7446","5652","627","2","legacy","1024","2","48000","-16","task","5205359","odd","NA","29364","33321","31370","133517","4303","20322","12876","134021","124455","133515","134021","133380","33321","134648","27690","132880","4289","99109","Lexical Decision Task","52","37004","57","yes","1024"
"2.793790385","5.67","9","swab","word","91.37931034482759","91.37931034482759","646.9310344827586","646.9310344827586","black","no","legacy","legacy","legacy","0","uniform","1","undefined","undefined","undefined","1","j","0","0","0","0","57","0","0","0","57","0","53","57","53","0","53","3","57","0","57","Wed Feb 17 11:49:39 2021","The main experiment item","yes","Lexical_Decision_Task.osexp","C:/Users/beth1/Documents/Psychology/Second Year/Cognition and language","no","Andale Mono","no","18","no","white","no","yes","576","legacy","53","53","3","C:/Users/beth1/Documents/Psychology/Second Year/Cognition and language/subject-5205359.csv","legacy","Lentiform Loewenfeld","3.3.7","yes","yes","600bd7cfb6416f0113b04181","602110864497cf011d9c0822","0","j","NA","space","space","space","space","j","518","NA","1950","8568","7446","5652","518","2","legacy","1024","2","48000","-16","task","5205359","odd","NA","29364","33321","31370","135242","4303","20322","12876","135743","124455","135241","135743","135152","33321","136262","27690","134652","4289","99109","Lexical Decision Task","53","37522","58","yes","1024"
"3.529815197","0","3","lerm","non-word","91.52542372881356","91.52542372881356","647.5084745762712","647.5084745762712","black","no","legacy","legacy","legacy","0","uniform","1","undefined","undefined","undefined","1","f","0","0","0","0","58","0","0","0","58","0","54","58","54","0","54","3","58","0","58","Wed Feb 17 11:49:39 2021","The main experiment item","yes","Lexical_Decision_Task.osexp","C:/Users/beth1/Documents/Psychology/Second Year/Cognition and language","no","Andale Mono","no","18","no","white","no","yes","576","legacy","54","54","3","C:/Users/beth1/Documents/Psychology/Second Year/Cognition and language/subject-5205359.csv","legacy","Lentiform Loewenfeld","3.3.7","yes","yes","600bd7cfb6416f0113b04181","602110864497cf011d9c0822","0","f","NA","space","space","space","space","f","681","NA","1950","8568","7446","5652","681","2","legacy","1024","2","48000","-16","task","5205359","odd","NA","29364","33321","31370","136849","4303","20322","12876","137353","124455","136847","137354","136765","33321","138038","27690","136265","4289","99109","Lexical Decision Task","54","38203","59","yes","1024"
"3.531734309","0","6","lerd","non-word","91.66666666666667","91.66666666666667","651.5666666666667","651.5666666666667","black","no","legacy","legacy","legacy","0","uniform","1","undefined","undefined","undefined","1","f","0","0","0","0","59","0","0","0","59","0","55","59","55","0","55","3","59","0","59","Wed Feb 17 11:49:39 2021","The main experiment item","yes","Lexical_Decision_Task.osexp","C:/Users/beth1/Documents/Psychology/Second Year/Cognition and language","no","Andale Mono","no","18","no","white","no","yes","576","legacy","55","55","3","C:/Users/beth1/Documents/Psychology/Second Year/Cognition and language/subject-5205359.csv","legacy","Lentiform Loewenfeld","3.3.7","yes","yes","600bd7cfb6416f0113b04181","602110864497cf011d9c0822","0","f","NA","space","space","space","space","f","891","NA","1950","8568","7446","5652","891","2","legacy","1024","2","48000","-16","task","5205359","odd","NA","29364","33321","31370","138662","4303","20322","12876","139164","124455","138659","139164","138545","33321","140057","27690","138045","4289","99109","Lexical Decision Task","55","39094","60","yes","1024"
"3.102203805","7.21","3","drip","word","91.80327868852459","91.80327868852459","649.016393442623","649.016393442623","black","no","legacy","legacy","legacy","0","uniform","1","undefined","undefined","undefined","1","j","0","0","0","0","60","0","0","0","60","0","56","60","56","0","56","3","60","0","60","Wed Feb 17 11:49:39 2021","The main experiment item","yes","Lexical_Decision_Task.osexp","C:/Users/beth1/Documents/Psychology/Second Year/Cognition and language","no","Andale Mono","no","18","no","white","no","yes","576","legacy","56","56","3","C:/Users/beth1/Documents/Psychology/Second Year/Cognition and language/subject-5205359.csv","legacy","Lentiform Loewenfeld","3.3.7","yes","yes","600bd7cfb6416f0113b04181","602110864497cf011d9c0822","0","j","NA","space","space","space","space","j","496","NA","1950","8568","7446","5652","496","2","legacy","1024","2","48000","-16","task","5205359","odd","NA","29364","33321","31370","140667","4303","20322","12876","141171","124455","140665","141171","140563","33321","141669","27690","140063","4289","99109","Lexical Decision Task","56","39590","61","yes","1024"
"2.576725172","0","8","gowl","non-word","91.93548387096774","91.93548387096774","649.016129032258","649.016129032258","black","no","legacy","legacy","legacy","0","uniform","1","undefined","undefined","undefined","1","f","0","0","0","0","61","0","0","0","61","0","57","61","57","0","57","3","61","0","61","Wed Feb 17 11:49:39 2021","The main experiment item","yes","Lexical_Decision_Task.osexp","C:/Users/beth1/Documents/Psychology/Second Year/Cognition and language","no","Andale Mono","no","18","no","white","no","yes","576","legacy","57","57","3","C:/Users/beth1/Documents/Psychology/Second Year/Cognition and language/subject-5205359.csv","legacy","Lentiform Loewenfeld","3.3.7","yes","yes","600bd7cfb6416f0113b04181","602110864497cf011d9c0822","0","f","NA","space","space","space","space","f","649","NA","1950","8568","7446","5652","649","2","legacy","1024","2","48000","-16","task","5205359","odd","NA","29364","33321","31370","142281","4303","20322","12876","142785","124455","142280","142785","142175","33321","143435","27690","141675","4289","99109","Lexical Decision Task","57","40239","62","yes","1024"
"2.746890964","9.67","3","plug","word","92.06349206349206","92.06349206349206","646.5873015873016","646.5873015873016","black","no","legacy","legacy","legacy","0","uniform","1","undefined","undefined","undefined","1","j","0","0","0","0","62","0","0","0","62","0","58","62","58","0","58","3","62","0","62","Wed Feb 17 11:49:39 2021","The main experiment item","yes","Lexical_Decision_Task.osexp","C:/Users/beth1/Documents/Psychology/Second Year/Cognition and language","no","Andale Mono","no","18","no","white","no","yes","576","legacy","58","58","3","C:/Users/beth1/Documents/Psychology/Second Year/Cognition and language/subject-5205359.csv","legacy","Lentiform Loewenfeld","3.3.7","yes","yes","600bd7cfb6416f0113b04181","602110864497cf011d9c0822","0","j","NA","space","space","space","space","j","496","NA","1950","8568","7446","5652","496","2","legacy","1024","2","48000","-16","task","5205359","odd","NA","29364","33321","31370","144027","4303","20322","12876","144529","124455","144025","144529","143940","33321","145026","27690","143440","4289","99109","Lexical Decision Task","58","40735","63","yes","1024"
"2.771097306","0","9","jold","non-word","92.1875","92.1875","646.890625","646.890625","black","no","legacy","legacy","legacy","0","uniform","1","undefined","undefined","undefined","1","f","0","0","0","0","63","0","0","0","63","0","59","63","59","0","59","3","63","0","63","Wed Feb 17 11:49:39 2021","The main experiment item","yes","Lexical_Decision_Task.osexp","C:/Users/beth1/Documents/Psychology/Second Year/Cognition and language","no","Andale Mono","no","18","no","white","no","yes","576","legacy","59","59","3","C:/Users/beth1/Documents/Psychology/Second Year/Cognition and language/subject-5205359.csv","legacy","Lentiform Loewenfeld","3.3.7","yes","yes","600bd7cfb6416f0113b04181","602110864497cf011d9c0822","0","f","NA","space","space","space","space","f","666","NA","1950","8568","7446","5652","666","2","legacy","1024","2","48000","-16","task","5205359","odd","NA","29364","33321","31370","145591","4303","20322","12876","146094","124455","145590","146094","145532","33321","146761","27690","145032","4289","99109","Lexical Decision Task","59","41401","64","yes","1024"
"3.257359335","8","6","brew","word","92.3076923076923","92.3076923076923","644.723076923077","644.723076923077","black","no","legacy","legacy","legacy","0","uniform","1","undefined","undefined","undefined","1","j","0","0","0","0","64","0","0","0","64","0","60","64","60","0","60","3","64","0","64","Wed Feb 17 11:49:39 2021","The main experiment item","yes","Lexical_Decision_Task.osexp","C:/Users/beth1/Documents/Psychology/Second Year/Cognition and language","no","Andale Mono","no","18","no","white","no","yes","576","legacy","60","60","3","C:/Users/beth1/Documents/Psychology/Second Year/Cognition and language/subject-5205359.csv","legacy","Lentiform Loewenfeld","3.3.7","yes","yes","600bd7cfb6416f0113b04181","602110864497cf011d9c0822","0","j","NA","space","space","space","space","j","506","NA","1950","8568","7446","5652","506","2","legacy","1024","2","48000","-16","task","5205359","odd","NA","29364","33321","31370","147385","4303","20322","12876","147887","124455","147384","147887","147267","33321","148394","27690","146766","4289","99109","Lexical Decision Task","60","41907","65","yes","1024"
"2.784379519","0","2","snaf","non-word","92.42424242424242","92.42424242424242","644.3939393939394","644.3939393939394","black","no","legacy","legacy","legacy","0","uniform","1","undefined","undefined","undefined","1","f","0","0","0","0","65","0","0","0","65","0","61","65","61","0","61","3","65","0","65","Wed Feb 17 11:49:39 2021","The main experiment item","yes","Lexical_Decision_Task.osexp","C:/Users/beth1/Documents/Psychology/Second Year/Cognition and language","no","Andale Mono","no","18","no","white","no","yes","576","legacy","61","61","3","C:/Users/beth1/Documents/Psychology/Second Year/Cognition and language/subject-5205359.csv","legacy","Lentiform Loewenfeld","3.3.7","yes","yes","600bd7cfb6416f0113b04181","602110864497cf011d9c0822","0","f","NA","space","space","space","space","f","623","NA","1950","8568","7446","5652","623","2","legacy","1024","2","48000","-16","task","5205359","odd","NA","29364","33321","31370","148979","4303","20322","12876","149482","124455","148977","149482","148899","33321","150106","27690","148399","4289","99109","Lexical Decision Task","61","42530","66","yes","1024"
"3.495914186","0","4","peng","non-word","91.04477611940298","91.04477611940298","641.8955223880597","641.8955223880597","black","no","legacy","legacy","legacy","0","uniform","0","undefined","undefined","undefined","0","f","0","0","0","0","66","0","0","0","66","0","62","66","62","0","62","3","66","0","66","Wed Feb 17 11:49:39 2021","The main experiment item","yes","Lexical_Decision_Task.osexp","C:/Users/beth1/Documents/Psychology/Second Year/Cognition and language","no","Andale Mono","no","18","no","white","no","yes","576","legacy","62","62","3","C:/Users/beth1/Documents/Psychology/Second Year/Cognition and language/subject-5205359.csv","legacy","Lentiform Loewenfeld","3.3.7","yes","yes","600bd7cfb6416f0113b04181","602110864497cf011d9c0822","0","j","NA","space","space","space","space","j","477","NA","1950","8568","7446","5652","477","2","legacy","1024","2","48000","-16","task","5205359","odd","NA","29364","33321","31370","150692","4303","20322","12876","151196","124455","150690","151196","150610","33321","151673","27690","150110","4289","99109","Lexical Decision Task","61","43007","67","yes","1024"
"2.728085817","10.02","9","bike","word","91.17647058823529","91.17647058823529","639.9558823529412","639.9558823529412","black","no","legacy","legacy","legacy","0","uniform","1","undefined","undefined","undefined","1","j","0","0","0","0","67","0","0","0","67","0","63","67","63","0","63","3","67","0","67","Wed Feb 17 11:49:39 2021","The main experiment item","yes","Lexical_Decision_Task.osexp","C:/Users/beth1/Documents/Psychology/Second Year/Cognition and language","no","Andale Mono","no","18","no","white","no","yes","576","legacy","63","63","3","C:/Users/beth1/Documents/Psychology/Second Year/Cognition and language/subject-5205359.csv","legacy","Lentiform Loewenfeld","3.3.7","yes","yes","600bd7cfb6416f0113b04181","602110864497cf011d9c0822","0","j","NA","space","space","space","space","j","510","NA","1950","8568","7446","5652","510","2","legacy","1024","2","48000","-16","task","5205359","odd","NA","29364","33321","31370","153245","4303","20322","12876","153746","124455","153243","153747","153179","33321","154258","27690","150110","4289","151679","Lexical Decision Task","62","43517","68","yes","1024"
"3.20871002","7.15","8","cram","word","89.85507246376811","89.85507246376811","637.9855072463768","637.9855072463768","black","no","legacy","legacy","legacy","0","uniform","0","undefined","undefined","undefined","0","j","0","0","0","0","68","0","0","0","68","0","64","68","64","0","64","3","68","0","68","Wed Feb 17 11:49:39 2021","The main experiment item","yes","Lexical_Decision_Task.osexp","C:/Users/beth1/Documents/Psychology/Second Year/Cognition and language","no","Andale Mono","no","18","no","white","no","yes","576","legacy","64","64","3","C:/Users/beth1/Documents/Psychology/Second Year/Cognition and language/subject-5205359.csv","legacy","Lentiform Loewenfeld","3.3.7","yes","yes","600bd7cfb6416f0113b04181","602110864497cf011d9c0822","0","f","NA","space","space","space","space","f","504","NA","1950","8568","7446","5652","504","2","legacy","1024","2","48000","-16","task","5205359","odd","NA","29364","33321","31370","154841","4303","20322","12876","155345","124455","154840","155345","154762","33321","155849","27690","154262","4289","151679","Lexical Decision Task","62","44021","69","yes","1024"
"3.037294994","8.64","7","roof","word","90","90","635.5714285714286","635.5714285714286","black","no","legacy","legacy","legacy","0","uniform","1","undefined","undefined","undefined","1","j","0","0","0","0","69","0","0","0","69","0","65","69","65","0","65","3","69","0","69","Wed Feb 17 11:49:39 2021","The main experiment item","yes","Lexical_Decision_Task.osexp","C:/Users/beth1/Documents/Psychology/Second Year/Cognition and language","no","Andale Mono","no","18","no","white","no","yes","576","legacy","65","65","3","C:/Users/beth1/Documents/Psychology/Second Year/Cognition and language/subject-5205359.csv","legacy","Lentiform Loewenfeld","3.3.7","yes","yes","600bd7cfb6416f0113b04181","602110864497cf011d9c0822","0","j","NA","space","space","space","space","j","469","NA","1950","8568","7446","5652","469","2","legacy","1024","2","48000","-16","task","5205359","odd","NA","29364","33321","31370","157434","4303","20322","12876","157936","124455","157432","157937","157355","33321","158406","27690","154262","4289","155855","Lexical Decision Task","63","44490","70","yes","1024"
"3.159867847","5.98","5","brim","word","88.73239436619718","88.73239436619718","633.4507042253521","633.4507042253521","black","no","legacy","legacy","legacy","0","uniform","0","undefined","undefined","undefined","0","j","0","0","0","0","70","0","0","0","70","0","66","70","66","0","66","3","70","0","70","Wed Feb 17 11:49:39 2021","The main experiment item","yes","Lexical_Decision_Task.osexp","C:/Users/beth1/Documents/Psychology/Second Year/Cognition and language","no","Andale Mono","no","18","no","white","no","yes","576","legacy","66","66","3","C:/Users/beth1/Documents/Psychology/Second Year/Cognition and language/subject-5205359.csv","legacy","Lentiform Loewenfeld","3.3.7","yes","yes","600bd7cfb6416f0113b04181","602110864497cf011d9c0822","0","f","NA","space","space","space","space","f","485","NA","1950","8568","7446","5652","485","2","legacy","1024","2","48000","-16","task","5205359","odd","NA","29364","33321","31370","159003","4303","20322","12876","159507","124455","159001","159507","158912","33321","159993","27690","158412","4289","155855","Lexical Decision Task","63","44975","71","yes","1024"
"3.031812271","6.52","3","gulp","word","88.88888888888889","88.88888888888889","634.0138888888889","634.0138888888889","black","no","legacy","legacy","legacy","0","uniform","1","undefined","undefined","undefined","1","j","0","0","0","0","71","0","0","0","71","0","67","71","67","0","67","3","71","0","71","Wed Feb 17 11:49:39 2021","The main experiment item","yes","Lexical_Decision_Task.osexp","C:/Users/beth1/Documents/Psychology/Second Year/Cognition and language","no","Andale Mono","no","18","no","white","no","yes","576","legacy","67","67","3","C:/Users/beth1/Documents/Psychology/Second Year/Cognition and language/subject-5205359.csv","legacy","Lentiform Loewenfeld","3.3.7","yes","yes","600bd7cfb6416f0113b04181","602110864497cf011d9c0822","0","j","NA","space","space","space","space","j","674","NA","1950","8568","7446","5652","674","2","legacy","1024","2","48000","-16","task","5205359","odd","NA","29364","33321","31370","161579","4303","20322","12876","162081","124455","161578","162081","161499","33321","162756","27690","158412","4289","159999","Lexical Decision Task","64","45649","72","yes","1024"
"2.895974732","6.65","5","sift","word","89.04109589041096","89.04109589041096","637.5479452054794","637.5479452054794","black","no","legacy","legacy","legacy","0","uniform","1","undefined","undefined","undefined","1","j","0","0","0","0","72","0","0","0","72","0","68","72","68","0","68","3","72","0","72","Wed Feb 17 11:49:39 2021","The main experiment item","yes","Lexical_Decision_Task.osexp","C:/Users/beth1/Documents/Psychology/Second Year/Cognition and language","no","Andale Mono","no","18","no","white","no","yes","576","legacy","68","68","3","C:/Users/beth1/Documents/Psychology/Second Year/Cognition and language/subject-5205359.csv","legacy","Lentiform Loewenfeld","3.3.7","yes","yes","600bd7cfb6416f0113b04181","602110864497cf011d9c0822","0","j","NA","space","space","space","space","j","892","NA","1950","8568","7446","5652","892","2","legacy","1024","2","48000","-16","task","5205359","odd","NA","29364","33321","31370","163364","4303","20322","12876","163868","124455","163362","163868","163260","33321","164761","27690","162760","4289","159999","Lexical Decision Task","65","46541","73","yes","1024"
"3.145920145","8.51","8","flew","word","89.1891891891892","89.1891891891892","636.3108108108108","636.3108108108108","black","no","legacy","legacy","legacy","0","uniform","1","undefined","undefined","undefined","1","j","0","0","0","0","73","0","0","0","73","0","69","73","69","0","69","3","73","0","73","Wed Feb 17 11:49:39 2021","The main experiment item","yes","Lexical_Decision_Task.osexp","C:/Users/beth1/Documents/Psychology/Second Year/Cognition and language","no","Andale Mono","no","18","no","white","no","yes","576","legacy","69","69","3","C:/Users/beth1/Documents/Psychology/Second Year/Cognition and language/subject-5205359.csv","legacy","Lentiform Loewenfeld","3.3.7","yes","yes","600bd7cfb6416f0113b04181","602110864497cf011d9c0822","0","j","NA","space","space","space","space","j","546","NA","1950","8568","7446","5652","546","2","legacy","1024","2","48000","-16","task","5205359","odd","NA","29364","33321","31370","165361","4303","20322","12876","165864","124455","165359","165864","165268","33321","166411","27690","164768","4289","159999","Lexical Decision Task","66","47087","74","yes","1024"
"3.307211407","6.07","7","honk","word","89.33333333333333","89.33333333333333","638.28","638.28","black","no","legacy","legacy","legacy","0","uniform","1","undefined","undefined","undefined","1","j","0","0","0","0","74","0","0","0","74","0","70","74","70","0","70","3","74","0","74","Wed Feb 17 11:49:39 2021","The main experiment item","yes","Lexical_Decision_Task.osexp","C:/Users/beth1/Documents/Psychology/Second Year/Cognition and language","no","Andale Mono","no","18","no","white","no","yes","576","legacy","70","70","3","C:/Users/beth1/Documents/Psychology/Second Year/Cognition and language/subject-5205359.csv","legacy","Lentiform Loewenfeld","3.3.7","yes","yes","600bd7cfb6416f0113b04181","602110864497cf011d9c0822","0","j","NA","space","space","space","space","j","784","NA","1950","8568","7446","5652","784","2","legacy","1024","2","48000","-16","task","5205359","odd","NA","29364","33321","31370","166988","4303","20322","12876","167493","124455","166987","167493","166916","33321","168278","27690","166416","4289","159999","Lexical Decision Task","67","47871","75","yes","1024"
"2.64476673","0","5","moft","non-word","89.47368421052632","89.47368421052632","639.6842105263158","639.6842105263158","black","no","legacy","legacy","legacy","0","uniform","1","undefined","undefined","undefined","1","f","0","0","0","0","75","0","0","0","75","0","71","75","71","0","71","3","75","0","75","Wed Feb 17 11:49:39 2021","The main experiment item","yes","Lexical_Decision_Task.osexp","C:/Users/beth1/Documents/Psychology/Second Year/Cognition and language","no","Andale Mono","no","18","no","white","no","yes","576","legacy","71","71","3","C:/Users/beth1/Documents/Psychology/Second Year/Cognition and language/subject-5205359.csv","legacy","Lentiform Loewenfeld","3.3.7","yes","yes","600bd7cfb6416f0113b04181","602110864497cf011d9c0822","0","f","NA","space","space","space","space","f","745","NA","1950","8568","7446","5652","745","2","legacy","1024","2","48000","-16","task","5205359","odd","NA","29364","33321","31370","168873","4303","20322","12876","169378","124455","168871","169378","168783","33321","170124","27690","168282","4289","159999","Lexical Decision Task","68","48616","76","yes","1024"
"3.067070856","9.39","3","loud","word","89.6103896103896","89.6103896103896","637.9480519480519","637.9480519480519","black","no","legacy","legacy","legacy","0","uniform","1","undefined","undefined","undefined","1","j","0","0","0","0","76","0","0","0","76","0","72","76","72","0","72","3","76","0","76","Wed Feb 17 11:49:39 2021","The main experiment item","yes","Lexical_Decision_Task.osexp","C:/Users/beth1/Documents/Psychology/Second Year/Cognition and language","no","Andale Mono","no","18","no","white","no","yes","576","legacy","72","72","3","C:/Users/beth1/Documents/Psychology/Second Year/Cognition and language/subject-5205359.csv","legacy","Lentiform Loewenfeld","3.3.7","yes","yes","600bd7cfb6416f0113b04181","602110864497cf011d9c0822","0","j","NA","space","space","space","space","j","506","NA","1950","8568","7446","5652","506","2","legacy","1024","2","48000","-16","task","5205359","odd","NA","29364","33321","31370","170720","4303","20322","12876","171224","124455","170718","171224","170630","33321","171731","27690","170129","4289","159999","Lexical Decision Task","69","49122","77","yes","1024"
"2.616654026","9.37","5","gift","word","89.74358974358974","89.74358974358974","636.025641025641","636.025641025641","black","no","legacy","legacy","legacy","0","uniform","1","undefined","undefined","undefined","1","j","0","0","0","0","77","0","0","0","77","0","73","77","73","0","73","3","77","0","77","Wed Feb 17 11:49:39 2021","The main experiment item","yes","Lexical_Decision_Task.osexp","C:/Users/beth1/Documents/Psychology/Second Year/Cognition and language","no","Andale Mono","no","18","no","white","no","yes","576","legacy","73","73","3","C:/Users/beth1/Documents/Psychology/Second Year/Cognition and language/subject-5205359.csv","legacy","Lentiform Loewenfeld","3.3.7","yes","yes","600bd7cfb6416f0113b04181","602110864497cf011d9c0822","0","j","NA","space","space","space","space","j","488","NA","1950","8568","7446","5652","488","2","legacy","1024","2","48000","-16","task","5205359","odd","NA","29364","33321","31370","172338","4303","20322","12876","172842","124455","172337","172843","172236","33321","173332","27690","171736","4289","159999","Lexical Decision Task","70","49610","78","yes","1024"
"2.80048796","0","8","pife","non-word","89.87341772151899","89.87341772151899","635.7088607594936","635.7088607594936","black","no","legacy","legacy","legacy","0","uniform","1","undefined","undefined","undefined","1","f","0","0","0","0","78","0","0","0","78","0","74","78","74","0","74","3","78","0","78","Wed Feb 17 11:49:39 2021","The main experiment item","yes","Lexical_Decision_Task.osexp","C:/Users/beth1/Documents/Psychology/Second Year/Cognition and language","no","Andale Mono","no","18","no","white","no","yes","576","legacy","74","74","3","C:/Users/beth1/Documents/Psychology/Second Year/Cognition and language/subject-5205359.csv","legacy","Lentiform Loewenfeld","3.3.7","yes","yes","600bd7cfb6416f0113b04181","602110864497cf011d9c0822","0","f","NA","space","space","space","space","f","611","NA","1950","8568","7446","5652","611","2","legacy","1024","2","48000","-16","task","5205359","odd","NA","29364","33321","31370","173934","4303","20322","12876","174436","124455","173933","174436","173837","33321","175048","27690","173337","4289","159999","Lexical Decision Task","71","50221","79","yes","1024"
"2.813801082","5.47","7","nook","word","88.75","88.75","636.9875","636.9875","black","no","legacy","legacy","legacy","0","uniform","0","undefined","undefined","undefined","0","j","0","0","0","0","79","0","0","0","79","0","75","79","75","0","75","3","79","0","79","Wed Feb 17 11:49:39 2021","The main experiment item","yes","Lexical_Decision_Task.osexp","C:/Users/beth1/Documents/Psychology/Second Year/Cognition and language","no","Andale Mono","no","18","no","white","no","yes","576","legacy","75","75","3","C:/Users/beth1/Documents/Psychology/Second Year/Cognition and language/subject-5205359.csv","legacy","Lentiform Loewenfeld","3.3.7","yes","yes","600bd7cfb6416f0113b04181","602110864497cf011d9c0822","0","f","NA","space","space","space","space","f","738","NA","1950","8568","7446","5652","738","2","legacy","1024","2","48000","-16","task","5205359","odd","NA","29364","33321","31370","175644","4303","20322","12876","176146","124455","175643","176146","175553","33321","176884","27690","175053","4289","159999","Lexical Decision Task","71","50959","80","yes","1024"
"2.920123326","7.43","4","duel","word","88.88888888888889","88.88888888888889","635.320987654321","635.320987654321","black","no","legacy","legacy","legacy","0","uniform","1","undefined","undefined","undefined","1","j","0","0","0","0","80","0","0","0","80","0","76","80","76","0","76","3","80","0","80","Wed Feb 17 11:49:39 2021","The main experiment item","yes","Lexical_Decision_Task.osexp","C:/Users/beth1/Documents/Psychology/Second Year/Cognition and language","no","Andale Mono","no","18","no","white","no","yes","576","legacy","76","76","3","C:/Users/beth1/Documents/Psychology/Second Year/Cognition and language/subject-5205359.csv","legacy","Lentiform Loewenfeld","3.3.7","yes","yes","600bd7cfb6416f0113b04181","602110864497cf011d9c0822","0","j","NA","space","space","space","space","j","502","NA","1950","8568","7446","5652","502","2","legacy","1024","2","48000","-16","task","5205359","odd","NA","29364","33321","31370","178483","4303","20322","12876","178986","124455","178481","178986","178390","33321","179489","27690","175053","4289","176890","Lexical Decision Task","72","51461","81","yes","1024"
"2.696644658","5.78","2","yolk","word","89.02439024390245","89.02439024390245","635.0365853658536","635.0365853658536","black","no","legacy","legacy","legacy","0","uniform","1","undefined","undefined","undefined","1","j","0","0","0","0","81","0","0","0","81","0","77","81","77","0","77","3","81","0","81","Wed Feb 17 11:49:39 2021","The main experiment item","yes","Lexical_Decision_Task.osexp","C:/Users/beth1/Documents/Psychology/Second Year/Cognition and language","no","Andale Mono","no","18","no","white","no","yes","576","legacy","77","77","3","C:/Users/beth1/Documents/Psychology/Second Year/Cognition and language/subject-5205359.csv","legacy","Lentiform Loewenfeld","3.3.7","yes","yes","600bd7cfb6416f0113b04181","602110864497cf011d9c0822","0","j","NA","space","space","space","space","j","612","NA","1950","8568","7446","5652","612","2","legacy","1024","2","48000","-16","task","5205359","odd","NA","29364","33321","31370","180093","4303","20322","12876","180595","124455","180092","180595","179995","33321","181208","27690","179495","4289","176890","Lexical Decision Task","73","52073","82","yes","1024"
"3.209246849","0","7","slem","non-word","89.1566265060241","89.1566265060241","634.1204819277109","634.1204819277109","black","no","legacy","legacy","legacy","0","uniform","1","undefined","undefined","undefined","1","f","0","0","0","0","82","0","0","0","82","0","78","82","78","0","78","3","82","0","82","Wed Feb 17 11:49:39 2021","The main experiment item","yes","Lexical_Decision_Task.osexp","C:/Users/beth1/Documents/Psychology/Second Year/Cognition and language","no","Andale Mono","no","18","no","white","no","yes","576","legacy","78","78","3","C:/Users/beth1/Documents/Psychology/Second Year/Cognition and language/subject-5205359.csv","legacy","Lentiform Loewenfeld","3.3.7","yes","yes","600bd7cfb6416f0113b04181","602110864497cf011d9c0822","0","f","NA","space","space","space","space","f","559","NA","1950","8568","7446","5652","559","2","legacy","1024","2","48000","-16","task","5205359","odd","NA","29364","33321","31370","181798","4303","20322","12876","182301","124455","181797","182301","181713","33321","182861","27690","181213","4289","176890","Lexical Decision Task","74","52632","83","yes","1024"
"3.259832699","0","9","flar","non-word","89.28571428571429","89.28571428571429","633.9880952380952","633.9880952380952","black","no","legacy","legacy","legacy","0","uniform","1","undefined","undefined","undefined","1","f","0","0","0","0","83","0","0","0","83","0","79","83","79","0","79","3","83","0","83","Wed Feb 17 11:49:39 2021","The main experiment item","yes","Lexical_Decision_Task.osexp","C:/Users/beth1/Documents/Psychology/Second Year/Cognition and language","no","Andale Mono","no","18","no","white","no","yes","576","legacy","79","79","3","C:/Users/beth1/Documents/Psychology/Second Year/Cognition and language/subject-5205359.csv","legacy","Lentiform Loewenfeld","3.3.7","yes","yes","600bd7cfb6416f0113b04181","602110864497cf011d9c0822","0","f","NA","space","space","space","space","f","623","NA","1950","8568","7446","5652","623","2","legacy","1024","2","48000","-16","task","5205359","odd","NA","29364","33321","31370","183450","4303","20322","12876","183954","124455","183449","183954","183366","33321","184579","27690","182866","4289","176890","Lexical Decision Task","75","53255","84","yes","1024"
"2.69019608","9.01","2","myth","word","89.41176470588235","89.41176470588235","632.7294117647059","632.7294117647059","black","no","legacy","legacy","legacy","0","uniform","1","undefined","undefined","undefined","1","j","0","0","0","0","84","0","0","0","84","0","80","84","80","0","80","3","84","0","84","Wed Feb 17 11:49:39 2021","The main experiment item","yes","Lexical_Decision_Task.osexp","C:/Users/beth1/Documents/Psychology/Second Year/Cognition and language","no","Andale Mono","no","18","no","white","no","yes","576","legacy","80","80","3","C:/Users/beth1/Documents/Psychology/Second Year/Cognition and language/subject-5205359.csv","legacy","Lentiform Loewenfeld","3.3.7","yes","yes","600bd7cfb6416f0113b04181","602110864497cf011d9c0822","0","j","NA","space","space","space","space","j","527","NA","1950","8568","7446","5652","527","2","legacy","1024","2","48000","-16","task","5205359","odd","NA","29364","33321","31370","185175","4303","20322","12876","185680","124455","185173","185681","185086","33321","186209","27690","184586","4289","176890","Lexical Decision Task","76","53782","85","yes","1024"
"3.14849993","10.75","7","hour","word","89.53488372093024","89.53488372093024","630.9883720930233","630.9883720930233","black","no","legacy","legacy","legacy","0","uniform","1","undefined","undefined","undefined","1","j","0","0","0","0","85","0","0","0","85","0","81","85","81","0","81","3","85","0","85","Wed Feb 17 11:49:39 2021","The main experiment item","yes","Lexical_Decision_Task.osexp","C:/Users/beth1/Documents/Psychology/Second Year/Cognition and language","no","Andale Mono","no","18","no","white","no","yes","576","legacy","81","81","3","C:/Users/beth1/Documents/Psychology/Second Year/Cognition and language/subject-5205359.csv","legacy","Lentiform Loewenfeld","3.3.7","yes","yes","600bd7cfb6416f0113b04181","602110864497cf011d9c0822","0","j","NA","space","space","space","space","j","483","NA","1950","8568","7446","5652","483","2","legacy","1024","2","48000","-16","task","5205359","odd","NA","29364","33321","31370","186809","4303","20322","12876","187311","124455","186807","187311","186715","33321","187795","27690","186215","4289","176890","Lexical Decision Task","77","54265","86","yes","1024"
"3.010582609","0","2","drod","non-word","89.65517241379311","89.65517241379311","630.6551724137931","630.6551724137931","black","no","legacy","legacy","legacy","0","uniform","1","undefined","undefined","undefined","1","f","0","0","0","0","86","0","0","0","86","0","82","86","82","0","82","3","86","0","86","Wed Feb 17 11:49:39 2021","The main experiment item","yes","Lexical_Decision_Task.osexp","C:/Users/beth1/Documents/Psychology/Second Year/Cognition and language","no","Andale Mono","no","18","no","white","no","yes","576","legacy","82","82","3","C:/Users/beth1/Documents/Psychology/Second Year/Cognition and language/subject-5205359.csv","legacy","Lentiform Loewenfeld","3.3.7","yes","yes","600bd7cfb6416f0113b04181","602110864497cf011d9c0822","0","f","NA","space","space","space","space","f","602","NA","1950","8568","7446","5652","602","2","legacy","1024","2","48000","-16","task","5205359","odd","NA","29364","33321","31370","188364","4303","20322","12876","188867","124455","188363","188867","188301","33321","189470","27690","187800","4289","176890","Lexical Decision Task","78","54867","87","yes","1024"
"3.153104174","10.89","6","door","word","89.77272727272727","89.77272727272727","628.7840909090909","628.7840909090909","black","no","legacy","legacy","legacy","0","uniform","1","undefined","undefined","undefined","1","j","0","0","0","0","87","0","0","0","87","0","83","87","83","0","83","3","87","0","87","Wed Feb 17 11:49:39 2021","The main experiment item","yes","Lexical_Decision_Task.osexp","C:/Users/beth1/Documents/Psychology/Second Year/Cognition and language","no","Andale Mono","no","18","no","white","no","yes","576","legacy","83","83","3","C:/Users/beth1/Documents/Psychology/Second Year/Cognition and language/subject-5205359.csv","legacy","Lentiform Loewenfeld","3.3.7","yes","yes","600bd7cfb6416f0113b04181","602110864497cf011d9c0822","0","j","NA","space","space","space","space","j","466","NA","1950","8568","7446","5652","466","2","legacy","1024","2","48000","-16","task","5205359","odd","NA","29364","33321","31370","190053","4303","20322","12876","190556","124455","190052","190556","189976","33321","191022","27690","189476","4289","176890","Lexical Decision Task","79","55333","88","yes","1024"
"2.82129731","6.72","5","plum","word","88.76404494382022","88.76404494382022","627.1573033707865","627.1573033707865","black","no","legacy","legacy","legacy","0","uniform","0","undefined","undefined","undefined","0","j","0","0","0","0","88","0","0","0","88","0","84","88","84","0","84","3","88","0","88","Wed Feb 17 11:49:39 2021","The main experiment item","yes","Lexical_Decision_Task.osexp","C:/Users/beth1/Documents/Psychology/Second Year/Cognition and language","no","Andale Mono","no","18","no","white","no","yes","576","legacy","84","84","3","C:/Users/beth1/Documents/Psychology/Second Year/Cognition and language/subject-5205359.csv","legacy","Lentiform Loewenfeld","3.3.7","yes","yes","600bd7cfb6416f0113b04181","602110864497cf011d9c0822","0","f","NA","space","space","space","space","f","484","NA","1950","8568","7446","5652","484","2","legacy","1024","2","48000","-16","task","5205359","odd","NA","29364","33321","31370","191598","4303","20322","12876","192101","124455","191596","192101","191528","33321","192586","27690","191028","4289","176890","Lexical Decision Task","79","55817","89","yes","1024"
"2.971428938","9.86","7","spot","word","88.88888888888889","88.88888888888889","624.9555555555555","624.9555555555555","black","no","legacy","legacy","legacy","0","uniform","1","undefined","undefined","undefined","1","j","0","0","0","0","89","0","0","0","89","0","85","89","85","0","85","3","89","0","89","Wed Feb 17 11:49:39 2021","The main experiment item","yes","Lexical_Decision_Task.osexp","C:/Users/beth1/Documents/Psychology/Second Year/Cognition and language","no","Andale Mono","no","18","no","white","no","yes","576","legacy","85","85","3","C:/Users/beth1/Documents/Psychology/Second Year/Cognition and language/subject-5205359.csv","legacy","Lentiform Loewenfeld","3.3.7","yes","yes","600bd7cfb6416f0113b04181","602110864497cf011d9c0822","0","j","NA","space","space","space","space","j","429","NA","1950","8568","7446","5652","429","2","legacy","1024","2","48000","-16","task","5205359","odd","NA","29364","33321","31370","194191","4303","20322","12876","194693","124455","194190","194693","194091","33321","195123","27690","191028","4289","192591","Lexical Decision Task","80","56246","90","yes","1024"
"2.981215883","10.66","5","hair","word","89.01098901098901","89.01098901098901","622.9120879120879","622.9120879120879","black","no","legacy","legacy","legacy","0","uniform","1","undefined","undefined","undefined","1","j","0","0","0","0","90","0","0","0","90","0","86","90","86","0","86","3","90","0","90","Wed Feb 17 11:49:39 2021","The main experiment item","yes","Lexical_Decision_Task.osexp","C:/Users/beth1/Documents/Psychology/Second Year/Cognition and language","no","Andale Mono","no","18","no","white","no","yes","576","legacy","86","86","3","C:/Users/beth1/Documents/Psychology/Second Year/Cognition and language/subject-5205359.csv","legacy","Lentiform Loewenfeld","3.3.7","yes","yes","600bd7cfb6416f0113b04181","602110864497cf011d9c0822","0","j","NA","space","space","space","space","j","439","NA","1950","8568","7446","5652","439","2","legacy","1024","2","48000","-16","task","5205359","odd","NA","29364","33321","31370","195723","4303","20322","12876","196225","124455","195722","196225","195629","33321","196664","27690","195129","4289","192591","Lexical Decision Task","81","56685","91","yes","1024"
"2.664011697","8.19","4","hawk","word","89.1304347826087","89.1304347826087","623.4565217391304","623.4565217391304","black","no","legacy","legacy","legacy","0","uniform","1","undefined","undefined","undefined","1","j","0","0","0","0","91","0","0","0","91","0","87","91","87","0","87","3","91","0","91","Wed Feb 17 11:49:39 2021","The main experiment item","yes","Lexical_Decision_Task.osexp","C:/Users/beth1/Documents/Psychology/Second Year/Cognition and language","no","Andale Mono","no","18","no","white","no","yes","576","legacy","87","87","3","C:/Users/beth1/Documents/Psychology/Second Year/Cognition and language/subject-5205359.csv","legacy","Lentiform Loewenfeld","3.3.7","yes","yes","600bd7cfb6416f0113b04181","602110864497cf011d9c0822","0","j","NA","space","space","space","space","j","673","NA","1950","8568","7446","5652","673","2","legacy","1024","2","48000","-16","task","5205359","odd","NA","29364","33321","31370","197263","4303","20322","12876","197767","124455","197261","197768","197169","33321","198442","27690","196669","4289","192591","Lexical Decision Task","82","57358","92","yes","1024"
"3.165936429","0","7","leps","non-word","89.24731182795699","89.24731182795699","623.9247311827957","623.9247311827957","black","no","legacy","legacy","legacy","0","uniform","1","undefined","undefined","undefined","1","f","0","0","0","0","92","0","0","0","92","0","88","92","88","0","88","3","92","0","92","Wed Feb 17 11:49:39 2021","The main experiment item","yes","Lexical_Decision_Task.osexp","C:/Users/beth1/Documents/Psychology/Second Year/Cognition and language","no","Andale Mono","no","18","no","white","no","yes","576","legacy","88","88","3","C:/Users/beth1/Documents/Psychology/Second Year/Cognition and language/subject-5205359.csv","legacy","Lentiform Loewenfeld","3.3.7","yes","yes","600bd7cfb6416f0113b04181","602110864497cf011d9c0822","0","f","NA","space","space","space","space","f","667","NA","1950","8568","7446","5652","667","2","legacy","1024","2","48000","-16","task","5205359","odd","NA","29364","33321","31370","199011","4303","20322","12876","199513","124455","199009","199514","198947","33321","200182","27690","198447","4289","192591","Lexical Decision Task","83","58025","93","yes","1024"
