"Log_BG","Log_Freq_HAL","Ortho_N","Stimulus","Type","acc","accuracy","average_response_time","avg_rt","background","bidi","canvas_backend","clock_backend","color_backend","compensation","coordinates","correct","correct_Experimental_intro","correct_Introduction","correct_Practice_intro","correct_experimenter_kb","correct_response","count_End_Of_Experiment","count_End_Of_Practice","count_Experimental_Loop","count_Experimental_intro","count_Fixation","count_Introduction","count_Practice_Loop","count_Practice_intro","count_Stimulus","count_block_break_feedback","count_experimental_sequence","count_experimenter_kb","count_increment_trial_count","count_init_trial_count","count_logger","count_practice_sequence","count_right","count_task","count_wrong","datetime","description","disable_garbage_collection","experiment_file","experiment_path","font_bold","font_family","font_italic","font_size","font_underline","foreground","form_clicks","fullscreen","height","keyboard_backend","live_row","live_row_Experimental_Loop","live_row_Practice_Loop","logfile","mouse_backend","opensesame_codename","opensesame_version","osf_always_upload_data","osf_always_upload_experiment","osf_datanode_id","osf_id","repeat_cycle","response","response_End_Of_Experiment","response_Experimental_intro","response_Introduction","response_Practice_intro","response_block_break_feedback","response_experimenter_kb","response_time","response_time_End_Of_Experiment","response_time_Experimental_intro","response_time_Introduction","response_time_Practice_intro","response_time_block_break_feedback","response_time_experimenter_kb","round_decimals","sampler_backend","sound_buf_size","sound_channels","sound_freq","sound_sample_size","start","subject_nr","subject_parity","time_End_Of_Experiment","time_End_Of_Practice","time_Experimental_Loop","time_Experimental_intro","time_Fixation","time_Introduction","time_Practice_Loop","time_Practice_intro","time_Stimulus","time_block_break_feedback","time_experimental_sequence","time_experimenter_kb","time_increment_trial_count","time_init_trial_count","time_logger","time_practice_sequence","time_right","time_task","time_wrong","title","total_correct","total_response_time","total_responses","uniform_coordinates","width"
"2.845304797","0","6","buct","non-word","100","100","1262","1262","black","no","legacy","legacy","legacy","0","uniform","1","undefined","undefined","undefined","1","f","0","0","0","0","4","0","0","0","4","NA","0","4","0","0","0","3","4","0","4","Thu Feb 18 14:36:16 2021","The main experiment item","yes","Lexical_Decision_Task.osexp","C:/Users/Steve","no","Andale Mono","no","18","no","white","no","yes","576","legacy","0","0","3","C:/Users/Steve/subject-5105824.csv","legacy","Lentiform Loewenfeld","3.3.7","yes","yes","600bd7cfb6416f0113b04181","602110864497cf011d9c0822","0","f","NA","space","space","space","NA","f","932","NA","2398","57645","3191","NA","932","2","legacy","1024","2","48000","-16","task","5105824","even","NA","78822","83225","80826","83291","7930","68771","65579","83794","NA","83289","83795","NA","83225","84728","76813","78285","7927","NA","Lexical Decision Task","5","6310","5","yes","1024"
"3.064581521","5.51","6","cask","word","100","100","1168.1666666666667","1168.1666666666667","black","no","legacy","legacy","legacy","0","uniform","1","undefined","undefined","undefined","1","j","0","0","0","0","5","0","0","0","5","NA","1","5","1","0","1","3","5","0","5","Thu Feb 18 14:36:16 2021","The main experiment item","yes","Lexical_Decision_Task.osexp","C:/Users/Steve","no","Andale Mono","no","18","no","white","no","yes","576","legacy","1","1","3","C:/Users/Steve/subject-5105824.csv","legacy","Lentiform Loewenfeld","3.3.7","yes","yes","600bd7cfb6416f0113b04181","602110864497cf011d9c0822","0","j","NA","space","space","space","NA","j","699","NA","2398","57645","3191","NA","699","2","legacy","1024","2","48000","-16","task","5105824","even","NA","78822","83225","80826","85472","7930","68771","65579","85974","NA","85469","85975","85341","83225","86675","76813","84841","7927","NA","Lexical Decision Task","6","7009","6","yes","1024"
"2.698387659","6.66","7","skid","word","100","100","1109.5714285714287","1109.5714285714287","black","no","legacy","legacy","legacy","0","uniform","1","undefined","undefined","undefined","1","j","0","0","0","0","6","0","0","0","6","NA","2","6","2","0","2","3","6","0","6","Thu Feb 18 14:36:16 2021","The main experiment item","yes","Lexical_Decision_Task.osexp","C:/Users/Steve","no","Andale Mono","no","18","no","white","no","yes","576","legacy","2","2","3","C:/Users/Steve/subject-5105824.csv","legacy","Lentiform Loewenfeld","3.3.7","yes","yes","600bd7cfb6416f0113b04181","602110864497cf011d9c0822","0","j","NA","space","space","space","NA","j","758","NA","2398","57645","3191","NA","758","2","legacy","1024","2","48000","-16","task","5105824","even","NA","78822","83225","80826","87340","7930","68771","65579","87844","NA","87338","87844","87247","83225","88603","76813","86746","7927","NA","Lexical Decision Task","7","7767","7","yes","1024"
"3.197740804","6.74","3","ache","word","100","100","1062.25","1062.25","black","no","legacy","legacy","legacy","0","uniform","1","undefined","undefined","undefined","1","j","0","0","0","0","7","0","0","0","7","NA","3","7","3","0","3","3","7","0","7","Thu Feb 18 14:36:16 2021","The main experiment item","yes","Lexical_Decision_Task.osexp","C:/Users/Steve","no","Andale Mono","no","18","no","white","no","yes","576","legacy","3","3","3","C:/Users/Steve/subject-5105824.csv","legacy","Lentiform Loewenfeld","3.3.7","yes","yes","600bd7cfb6416f0113b04181","602110864497cf011d9c0822","0","j","NA","space","space","space","NA","j","731","NA","2398","57645","3191","NA","731","2","legacy","1024","2","48000","-16","task","5105824","even","NA","78822","83225","80826","89232","7930","68771","65579","89735","NA","89229","89735","89129","83225","90467","76813","88629","7927","NA","Lexical Decision Task","8","8498","8","yes","1024"
"3.443783828","7.65","3","verb","word","100","100","1021","1021","black","no","legacy","legacy","legacy","0","uniform","1","undefined","undefined","undefined","1","j","0","0","0","0","8","0","0","0","8","NA","4","8","4","0","4","3","8","0","8","Thu Feb 18 14:36:16 2021","The main experiment item","yes","Lexical_Decision_Task.osexp","C:/Users/Steve","no","Andale Mono","no","18","no","white","no","yes","576","legacy","4","4","3","C:/Users/Steve/subject-5105824.csv","legacy","Lentiform Loewenfeld","3.3.7","yes","yes","600bd7cfb6416f0113b04181","602110864497cf011d9c0822","0","j","NA","space","space","space","NA","j","691","NA","2398","57645","3191","NA","691","2","legacy","1024","2","48000","-16","task","5105824","even","NA","78822","83225","80826","91133","7930","68771","65579","91636","NA","91131","91636","91020","83225","92328","76813","90520","7927","NA","Lexical Decision Task","9","9189","9","yes","1024"
"3.269668578","0","7","trag","non-word","100","100","1004.5","1004.5","black","no","legacy","legacy","legacy","0","uniform","1","undefined","undefined","undefined","1","f","0","0","0","0","9","0","0","0","9","NA","5","9","5","0","5","3","9","0","9","Thu Feb 18 14:36:16 2021","The main experiment item","yes","Lexical_Decision_Task.osexp","C:/Users/Steve","no","Andale Mono","no","18","no","white","no","yes","576","legacy","5","5","3","C:/Users/Steve/subject-5105824.csv","legacy","Lentiform Loewenfeld","3.3.7","yes","yes","600bd7cfb6416f0113b04181","602110864497cf011d9c0822","0","f","NA","space","space","space","NA","f","856","NA","2398","57645","3191","NA","856","2","legacy","1024","2","48000","-16","task","5105824","even","NA","78822","83225","80826","92946","7930","68771","65579","93447","NA","92944","93448","92851","83225","94304","76813","92351","7927","NA","Lexical Decision Task","10","10045","10","yes","1024"
"3.230789326","5.38","5","prim","word","90.9090909090909","90.9090909090909","1086.7272727272727","1086.7272727272727","black","no","legacy","legacy","legacy","0","uniform","0","undefined","undefined","undefined","0","j","0","0","0","0","10","0","0","0","10","NA","6","10","6","0","6","3","10","0","10","Thu Feb 18 14:36:16 2021","The main experiment item","yes","Lexical_Decision_Task.osexp","C:/Users/Steve","no","Andale Mono","no","18","no","white","no","yes","576","legacy","6","6","3","C:/Users/Steve/subject-5105824.csv","legacy","Lentiform Loewenfeld","3.3.7","yes","yes","600bd7cfb6416f0113b04181","602110864497cf011d9c0822","0","f","NA","space","space","space","NA","f","1909","NA","2398","57645","3191","NA","1909","2","legacy","1024","2","48000","-16","task","5105824","even","NA","78822","83225","80826","94938","7930","68771","65579","95442","NA","94936","95442","94840","83225","97352","76813","94340","7927","NA","Lexical Decision Task","10","11954","11","yes","1024"
"3.2757719","0","5","slea","non-word","91.66666666666667","91.66666666666667","1072.75","1072.75","black","no","legacy","legacy","legacy","0","uniform","1","undefined","undefined","undefined","1","f","0","0","0","0","11","0","0","0","11","NA","7","11","7","0","7","3","11","0","11","Thu Feb 18 14:36:16 2021","The main experiment item","yes","Lexical_Decision_Task.osexp","C:/Users/Steve","no","Andale Mono","no","18","no","white","no","yes","576","legacy","7","7","3","C:/Users/Steve/subject-5105824.csv","legacy","Lentiform Loewenfeld","3.3.7","yes","yes","600bd7cfb6416f0113b04181","602110864497cf011d9c0822","0","f","NA","space","space","space","NA","f","919","NA","2398","57645","3191","NA","919","2","legacy","1024","2","48000","-16","task","5105824","even","NA","78822","83225","80826","99043","7930","68771","65579","99546","NA","99040","99547","98944","83225","100467","76813","94340","7927","97444","Lexical Decision Task","11","12873","12","yes","1024"
"3.307211407","6.07","7","honk","word","92.3076923076923","92.3076923076923","1052.2307692307693","1052.2307692307693","black","no","legacy","legacy","legacy","0","uniform","1","undefined","undefined","undefined","1","j","0","0","0","0","12","0","0","0","12","NA","8","12","8","0","8","3","12","0","12","Thu Feb 18 14:36:16 2021","The main experiment item","yes","Lexical_Decision_Task.osexp","C:/Users/Steve","no","Andale Mono","no","18","no","white","no","yes","576","legacy","8","8","3","C:/Users/Steve/subject-5105824.csv","legacy","Lentiform Loewenfeld","3.3.7","yes","yes","600bd7cfb6416f0113b04181","602110864497cf011d9c0822","0","j","NA","space","space","space","NA","j","806","NA","2398","57645","3191","NA","806","2","legacy","1024","2","48000","-16","task","5105824","even","NA","78822","83225","80826","101133","7930","68771","65579","101636","NA","101131","101636","101031","83225","102442","76813","100530","7927","97444","Lexical Decision Task","12","13679","13","yes","1024"
"2.893578687","8.69","3","surf","word","92.85714285714286","92.85714285714286","1021.5714285714286","1021.5714285714286","black","no","legacy","legacy","legacy","0","uniform","1","undefined","undefined","undefined","1","j","0","0","0","0","13","0","0","0","13","NA","9","13","9","0","9","3","13","0","13","Thu Feb 18 14:36:16 2021","The main experiment item","yes","Lexical_Decision_Task.osexp","C:/Users/Steve","no","Andale Mono","no","18","no","white","no","yes","576","legacy","9","9","3","C:/Users/Steve/subject-5105824.csv","legacy","Lentiform Loewenfeld","3.3.7","yes","yes","600bd7cfb6416f0113b04181","602110864497cf011d9c0822","0","j","NA","space","space","space","NA","j","623","NA","2398","57645","3191","NA","623","2","legacy","1024","2","48000","-16","task","5105824","even","NA","78822","83225","80826","103108","7930","68771","65579","103612","NA","103107","103612","103021","83225","104236","76813","102521","7927","97444","Lexical Decision Task","13","14302","14","yes","1024"
"3.028977705","0","7","frow","non-word","86.66666666666667","86.66666666666667","1091.8666666666666","1091.8666666666666","black","no","legacy","legacy","legacy","0","uniform","0","undefined","undefined","undefined","0","f","0","0","0","0","14","0","0","0","14","NA","10","14","10","0","10","3","14","0","14","Thu Feb 18 14:36:16 2021","The main experiment item","yes","Lexical_Decision_Task.osexp","C:/Users/Steve","no","Andale Mono","no","18","no","white","no","yes","576","legacy","10","10","3","C:/Users/Steve/subject-5105824.csv","legacy","Lentiform Loewenfeld","3.3.7","yes","yes","600bd7cfb6416f0113b04181","602110864497cf011d9c0822","0","j","NA","space","space","space","NA","j","2076","NA","2398","57645","3191","NA","2076","2","legacy","1024","2","48000","-16","task","5105824","even","NA","78822","83225","80826","104898","7930","68771","65579","105401","NA","104896","105401","104786","83225","107478","76813","104286","7927","97444","Lexical Decision Task","13","16378","15","yes","1024"
"2.924968096","0","4","phim","non-word","87.5","87.5","1074.25","1074.25","black","no","legacy","legacy","legacy","0","uniform","1","undefined","undefined","undefined","1","f","0","0","0","0","15","0","0","0","15","NA","11","15","11","0","11","3","15","0","15","Thu Feb 18 14:36:16 2021","The main experiment item","yes","Lexical_Decision_Task.osexp","C:/Users/Steve","no","Andale Mono","no","18","no","white","no","yes","576","legacy","11","11","3","C:/Users/Steve/subject-5105824.csv","legacy","Lentiform Loewenfeld","3.3.7","yes","yes","600bd7cfb6416f0113b04181","602110864497cf011d9c0822","0","f","NA","space","space","space","NA","f","810","NA","2398","57645","3191","NA","810","2","legacy","1024","2","48000","-16","task","5105824","even","NA","78822","83225","80826","109156","7930","68771","65579","109659","NA","109154","109660","109006","83225","110471","76813","104286","7927","107506","Lexical Decision Task","14","17188","16","yes","1024"
"3.374137706","10.21","4","tree","word","88.23529411764706","88.23529411764706","1045.2941176470588","1045.2941176470588","black","no","legacy","legacy","legacy","0","uniform","1","undefined","undefined","undefined","1","j","0","0","0","0","16","0","0","0","16","NA","12","16","12","0","12","3","16","0","16","Thu Feb 18 14:36:16 2021","The main experiment item","yes","Lexical_Decision_Task.osexp","C:/Users/Steve","no","Andale Mono","no","18","no","white","no","yes","576","legacy","12","12","3","C:/Users/Steve/subject-5105824.csv","legacy","Lentiform Loewenfeld","3.3.7","yes","yes","600bd7cfb6416f0113b04181","602110864497cf011d9c0822","0","j","NA","space","space","space","NA","j","582","NA","2398","57645","3191","NA","582","2","legacy","1024","2","48000","-16","task","5105824","even","NA","78822","83225","80826","111195","7930","68771","65579","111698","NA","111193","111699","111104","83225","112282","76813","110603","7927","107506","Lexical Decision Task","15","17770","17","yes","1024"
"2.953276337","6.32","4","thaw","word","88.88888888888889","88.88888888888889","1034.9444444444443","1034.9444444444443","black","no","legacy","legacy","legacy","0","uniform","1","undefined","undefined","undefined","1","j","0","0","0","0","17","0","0","0","17","NA","13","17","13","0","13","3","17","0","17","Thu Feb 18 14:36:16 2021","The main experiment item","yes","Lexical_Decision_Task.osexp","C:/Users/Steve","no","Andale Mono","no","18","no","white","no","yes","576","legacy","13","13","3","C:/Users/Steve/subject-5105824.csv","legacy","Lentiform Loewenfeld","3.3.7","yes","yes","600bd7cfb6416f0113b04181","602110864497cf011d9c0822","0","j","NA","space","space","space","NA","j","859","NA","2398","57645","3191","NA","859","2","legacy","1024","2","48000","-16","task","5105824","even","NA","78822","83225","80826","112966","7930","68771","65579","113468","NA","112964","113468","112865","83225","114327","76813","112365","7927","107506","Lexical Decision Task","16","18629","18","yes","1024"
"2.809559715","8.44","4","volt","word","89.47368421052632","89.47368421052632","1011.6842105263158","1011.6842105263158","black","no","legacy","legacy","legacy","0","uniform","1","undefined","undefined","undefined","1","j","0","0","0","0","18","0","0","0","18","NA","14","18","14","0","14","3","18","0","18","Thu Feb 18 14:36:16 2021","The main experiment item","yes","Lexical_Decision_Task.osexp","C:/Users/Steve","no","Andale Mono","no","18","no","white","no","yes","576","legacy","14","14","3","C:/Users/Steve/subject-5105824.csv","legacy","Lentiform Loewenfeld","3.3.7","yes","yes","600bd7cfb6416f0113b04181","602110864497cf011d9c0822","0","j","NA","space","space","space","NA","j","593","NA","2398","57645","3191","NA","593","2","legacy","1024","2","48000","-16","task","5105824","even","NA","78822","83225","80826","114967","7930","68771","65579","115469","NA","114965","115469","114873","83225","116062","76813","114373","7927","107506","Lexical Decision Task","17","19222","19","yes","1024"
"2.907588697","8.91","9","mood","word","90","90","989.7","989.7","black","no","legacy","legacy","legacy","0","uniform","1","undefined","undefined","undefined","1","j","0","0","0","0","19","0","0","0","19","NA","15","19","15","0","15","3","19","0","19","Thu Feb 18 14:36:16 2021","The main experiment item","yes","Lexical_Decision_Task.osexp","C:/Users/Steve","no","Andale Mono","no","18","no","white","no","yes","576","legacy","15","15","3","C:/Users/Steve/subject-5105824.csv","legacy","Lentiform Loewenfeld","3.3.7","yes","yes","600bd7cfb6416f0113b04181","602110864497cf011d9c0822","0","j","NA","space","space","space","NA","j","572","NA","2398","57645","3191","NA","572","2","legacy","1024","2","48000","-16","task","5105824","even","NA","78822","83225","80826","116716","7930","68771","65579","117219","NA","116714","117219","116619","83225","117792","76813","116119","7927","107506","Lexical Decision Task","18","19794","20","yes","1024"
"3.174641193","0","3","ramb","non-word","90.47619047619048","90.47619047619048","988.9047619047619","988.9047619047619","black","no","legacy","legacy","legacy","0","uniform","1","undefined","undefined","undefined","1","f","0","0","0","0","20","0","0","0","20","NA","16","20","16","0","16","3","20","0","20","Thu Feb 18 14:36:16 2021","The main experiment item","yes","Lexical_Decision_Task.osexp","C:/Users/Steve","no","Andale Mono","no","18","no","white","no","yes","576","legacy","16","16","3","C:/Users/Steve/subject-5105824.csv","legacy","Lentiform Loewenfeld","3.3.7","yes","yes","600bd7cfb6416f0113b04181","602110864497cf011d9c0822","0","f","NA","space","space","space","NA","f","973","NA","2398","57645","3191","NA","973","2","legacy","1024","2","48000","-16","task","5105824","even","NA","78822","83225","80826","118458","7930","68771","65579","118960","NA","118455","118961","118343","83225","119935","76813","117843","7927","107506","Lexical Decision Task","19","20767","21","yes","1024"
"3.168890155","0","6","thet","non-word","90.9090909090909","90.9090909090909","978.8636363636364","978.8636363636364","black","no","legacy","legacy","legacy","0","uniform","1","undefined","undefined","undefined","1","f","0","0","0","0","21","0","0","0","21","NA","17","21","17","0","17","3","21","0","21","Thu Feb 18 14:36:16 2021","The main experiment item","yes","Lexical_Decision_Task.osexp","C:/Users/Steve","no","Andale Mono","no","18","no","white","no","yes","576","legacy","17","17","3","C:/Users/Steve/subject-5105824.csv","legacy","Lentiform Loewenfeld","3.3.7","yes","yes","600bd7cfb6416f0113b04181","602110864497cf011d9c0822","0","f","NA","space","space","space","NA","f","768","NA","2398","57645","3191","NA","768","2","legacy","1024","2","48000","-16","task","5105824","even","NA","78822","83225","80826","120552","7930","68771","65579","121055","NA","120550","121056","120462","83225","121825","76813","119962","7927","107506","Lexical Decision Task","20","21535","22","yes","1024"
"2.784379519","0","2","snaf","non-word","91.30434782608695","91.30434782608695","965.8260869565217","965.8260869565217","black","no","legacy","legacy","legacy","0","uniform","1","undefined","undefined","undefined","1","f","0","0","0","0","22","0","0","0","22","NA","18","22","18","0","18","3","22","0","22","Thu Feb 18 14:36:16 2021","The main experiment item","yes","Lexical_Decision_Task.osexp","C:/Users/Steve","no","Andale Mono","no","18","no","white","no","yes","576","legacy","18","18","3","C:/Users/Steve/subject-5105824.csv","legacy","Lentiform Loewenfeld","3.3.7","yes","yes","600bd7cfb6416f0113b04181","602110864497cf011d9c0822","0","f","NA","space","space","space","NA","f","679","NA","2398","57645","3191","NA","679","2","legacy","1024","2","48000","-16","task","5105824","even","NA","78822","83225","80826","122478","7930","68771","65579","122982","NA","122476","122982","122376","83225","123662","76813","121875","7927","107506","Lexical Decision Task","21","22214","23","yes","1024"
"3.209246849","0","7","slem","non-word","91.66666666666667","91.66666666666667","953.1666666666666","953.1666666666666","black","no","legacy","legacy","legacy","0","uniform","1","undefined","undefined","undefined","1","f","0","0","0","0","23","0","0","0","23","NA","19","23","19","0","19","3","23","0","23","Thu Feb 18 14:36:16 2021","The main experiment item","yes","Lexical_Decision_Task.osexp","C:/Users/Steve","no","Andale Mono","no","18","no","white","no","yes","576","legacy","19","19","3","C:/Users/Steve/subject-5105824.csv","legacy","Lentiform Loewenfeld","3.3.7","yes","yes","600bd7cfb6416f0113b04181","602110864497cf011d9c0822","0","f","NA","space","space","space","NA","f","662","NA","2398","57645","3191","NA","662","2","legacy","1024","2","48000","-16","task","5105824","even","NA","78822","83225","80826","124283","7930","68771","65579","124786","NA","124280","124786","124184","83225","125449","76813","123684","7927","107506","Lexical Decision Task","22","22876","24","yes","1024"
"3.29439347","8.6","9","wand","word","92","92","940.56","940.56","black","no","legacy","legacy","legacy","0","uniform","1","undefined","undefined","undefined","1","j","0","0","0","0","24","0","0","0","24","NA","20","24","20","0","20","3","24","0","24","Thu Feb 18 14:36:16 2021","The main experiment item","yes","Lexical_Decision_Task.osexp","C:/Users/Steve","no","Andale Mono","no","18","no","white","no","yes","576","legacy","20","20","3","C:/Users/Steve/subject-5105824.csv","legacy","Lentiform Loewenfeld","3.3.7","yes","yes","600bd7cfb6416f0113b04181","602110864497cf011d9c0822","0","j","NA","space","space","space","NA","j","638","NA","2398","57645","3191","NA","638","2","legacy","1024","2","48000","-16","task","5105824","even","NA","78822","83225","80826","126075","7930","68771","65579","126579","NA","126073","126579","125973","83225","127218","76813","125473","7927","107506","Lexical Decision Task","23","23514","25","yes","1024"
"2.839268497","0","8","maft","non-word","92.3076923076923","92.3076923076923","936.3846153846154","936.3846153846154","black","no","legacy","legacy","legacy","0","uniform","1","undefined","undefined","undefined","1","f","0","0","0","0","25","0","0","0","25","NA","21","25","21","0","21","3","25","0","25","Thu Feb 18 14:36:16 2021","The main experiment item","yes","Lexical_Decision_Task.osexp","C:/Users/Steve","no","Andale Mono","no","18","no","white","no","yes","576","legacy","21","21","3","C:/Users/Steve/subject-5105824.csv","legacy","Lentiform Loewenfeld","3.3.7","yes","yes","600bd7cfb6416f0113b04181","602110864497cf011d9c0822","0","f","NA","space","space","space","NA","f","832","NA","2398","57645","3191","NA","832","2","legacy","1024","2","48000","-16","task","5105824","even","NA","78822","83225","80826","127863","7930","68771","65579","128367","NA","127861","128367","127764","83225","129200","76813","127264","7927","107506","Lexical Decision Task","24","24346","26","yes","1024"
"3.299579929","0","2","flis","non-word","92.5925925925926","92.5925925925926","934.7407407407408","934.7407407407408","black","no","legacy","legacy","legacy","0","uniform","1","undefined","undefined","undefined","1","f","0","0","0","0","26","0","0","0","26","NA","22","26","22","0","22","3","26","0","26","Thu Feb 18 14:36:16 2021","The main experiment item","yes","Lexical_Decision_Task.osexp","C:/Users/Steve","no","Andale Mono","no","18","no","white","no","yes","576","legacy","22","22","3","C:/Users/Steve/subject-5105824.csv","legacy","Lentiform Loewenfeld","3.3.7","yes","yes","600bd7cfb6416f0113b04181","602110864497cf011d9c0822","0","f","NA","space","space","space","NA","f","892","NA","2398","57645","3191","NA","892","2","legacy","1024","2","48000","-16","task","5105824","even","NA","78822","83225","80826","129847","7930","68771","65579","130348","NA","129845","130349","129752","83225","131242","76813","129252","7927","107506","Lexical Decision Task","25","25238","27","yes","1024"
"2.746890964","9.67","3","plug","word","92.85714285714286","92.85714285714286","920.9285714285714","920.9285714285714","black","no","legacy","legacy","legacy","0","uniform","1","undefined","undefined","undefined","1","j","0","0","0","0","27","0","0","0","27","NA","23","27","23","0","23","3","27","0","27","Thu Feb 18 14:36:16 2021","The main experiment item","yes","Lexical_Decision_Task.osexp","C:/Users/Steve","no","Andale Mono","no","18","no","white","no","yes","576","legacy","23","23","3","C:/Users/Steve/subject-5105824.csv","legacy","Lentiform Loewenfeld","3.3.7","yes","yes","600bd7cfb6416f0113b04181","602110864497cf011d9c0822","0","j","NA","space","space","space","NA","j","548","NA","2398","57645","3191","NA","548","2","legacy","1024","2","48000","-16","task","5105824","even","NA","78822","83225","80826","131868","7930","68771","65579","132371","NA","131866","132372","131773","83225","132921","76813","131273","7927","107506","Lexical Decision Task","26","25786","28","yes","1024"
"3.276537627","9.15","5","trap","word","93.10344827586206","93.10344827586206","906.448275862069","906.448275862069","black","no","legacy","legacy","legacy","0","uniform","1","undefined","undefined","undefined","1","j","0","0","0","0","28","0","0","0","28","NA","24","28","24","0","24","3","28","0","28","Thu Feb 18 14:36:16 2021","The main experiment item","yes","Lexical_Decision_Task.osexp","C:/Users/Steve","no","Andale Mono","no","18","no","white","no","yes","576","legacy","24","24","3","C:/Users/Steve/subject-5105824.csv","legacy","Lentiform Loewenfeld","3.3.7","yes","yes","600bd7cfb6416f0113b04181","602110864497cf011d9c0822","0","j","NA","space","space","space","NA","j","501","NA","2398","57645","3191","NA","501","2","legacy","1024","2","48000","-16","task","5105824","even","NA","78822","83225","80826","133549","7930","68771","65579","134052","NA","133547","134053","133439","83225","134555","76813","132938","7927","107506","Lexical Decision Task","27","26287","29","yes","1024"
"2.937852093","0","7","bamp","non-word","93.33333333333333","93.33333333333333","949.0666666666667","949.0666666666667","black","no","legacy","legacy","legacy","0","uniform","1","undefined","undefined","undefined","1","f","0","0","0","0","29","0","0","0","29","NA","25","29","25","0","25","3","29","0","29","Thu Feb 18 14:36:16 2021","The main experiment item","yes","Lexical_Decision_Task.osexp","C:/Users/Steve","no","Andale Mono","no","18","no","white","no","yes","576","legacy","25","25","3","C:/Users/Steve/subject-5105824.csv","legacy","Lentiform Loewenfeld","3.3.7","yes","yes","600bd7cfb6416f0113b04181","602110864497cf011d9c0822","0","f","NA","space","space","space","NA","f","2185","NA","2398","57645","3191","NA","2185","2","legacy","1024","2","48000","-16","task","5105824","even","NA","78822","83225","80826","135198","7930","68771","65579","135701","NA","135196","135702","135105","83225","137887","76813","134605","7927","107506","Lexical Decision Task","28","28472","30","yes","1024"
"2.812467698","0","7","hafe","non-word","93.54838709677419","93.54838709677419","989.5483870967741","989.5483870967741","black","no","legacy","legacy","legacy","0","uniform","1","undefined","undefined","undefined","1","f","0","0","0","0","30","0","0","0","30","NA","26","30","26","0","26","3","30","0","30","Thu Feb 18 14:36:16 2021","The main experiment item","yes","Lexical_Decision_Task.osexp","C:/Users/Steve","no","Andale Mono","no","18","no","white","no","yes","576","legacy","26","26","3","C:/Users/Steve/subject-5105824.csv","legacy","Lentiform Loewenfeld","3.3.7","yes","yes","600bd7cfb6416f0113b04181","602110864497cf011d9c0822","0","f","NA","space","space","space","NA","f","2204","NA","2398","57645","3191","NA","2204","2","legacy","1024","2","48000","-16","task","5105824","even","NA","78822","83225","80826","138543","7930","68771","65579","139045","NA","138541","139045","138441","83225","141250","76813","137941","7927","107506","Lexical Decision Task","29","30676","31","yes","1024"
"3.248054965","7.86","5","glow","word","93.75","93.75","978.03125","978.03125","black","no","legacy","legacy","legacy","0","uniform","1","undefined","undefined","undefined","1","j","0","0","0","0","31","0","0","0","31","NA","27","31","27","0","27","3","31","0","31","Thu Feb 18 14:36:16 2021","The main experiment item","yes","Lexical_Decision_Task.osexp","C:/Users/Steve","no","Andale Mono","no","18","no","white","no","yes","576","legacy","27","27","3","C:/Users/Steve/subject-5105824.csv","legacy","Lentiform Loewenfeld","3.3.7","yes","yes","600bd7cfb6416f0113b04181","602110864497cf011d9c0822","0","j","NA","space","space","space","NA","j","621","NA","2398","57645","3191","NA","621","2","legacy","1024","2","48000","-16","task","5105824","even","NA","78822","83225","80826","141972","7930","68771","65579","142474","NA","141970","142474","141872","83225","143096","76813","141372","7927","107506","Lexical Decision Task","30","31297","32","yes","1024"
"3.088136089","8.32","9","worm","word","93.93939393939394","93.93939393939394","967.2727272727273","967.2727272727273","black","no","legacy","legacy","legacy","0","uniform","1","undefined","undefined","undefined","1","j","0","0","0","0","32","0","0","0","32","NA","28","32","28","0","28","3","32","0","32","Thu Feb 18 14:36:16 2021","The main experiment item","yes","Lexical_Decision_Task.osexp","C:/Users/Steve","no","Andale Mono","no","18","no","white","no","yes","576","legacy","28","28","3","C:/Users/Steve/subject-5105824.csv","legacy","Lentiform Loewenfeld","3.3.7","yes","yes","600bd7cfb6416f0113b04181","602110864497cf011d9c0822","0","j","NA","space","space","space","NA","j","623","NA","2398","57645","3191","NA","623","2","legacy","1024","2","48000","-16","task","5105824","even","NA","78822","83225","80826","143744","7930","68771","65579","144247","NA","143742","144247","143649","83225","144871","76813","143149","7927","107506","Lexical Decision Task","31","31920","33","yes","1024"
"3.302475237","0","7","leel","non-word","94.11764705882354","94.11764705882354","995.8529411764706","995.8529411764706","black","no","legacy","legacy","legacy","0","uniform","1","undefined","undefined","undefined","1","f","0","0","0","0","33","0","0","0","33","NA","29","33","29","0","29","3","33","0","33","Thu Feb 18 14:36:16 2021","The main experiment item","yes","Lexical_Decision_Task.osexp","C:/Users/Steve","no","Andale Mono","no","18","no","white","no","yes","576","legacy","29","29","3","C:/Users/Steve/subject-5105824.csv","legacy","Lentiform Loewenfeld","3.3.7","yes","yes","600bd7cfb6416f0113b04181","602110864497cf011d9c0822","0","f","NA","space","space","space","NA","f","1939","NA","2398","57645","3191","NA","1939","2","legacy","1024","2","48000","-16","task","5105824","even","NA","78822","83225","80826","145508","7930","68771","65579","146011","NA","145506","146012","145405","83225","147952","76813","144904","7927","107506","Lexical Decision Task","32","33859","34","yes","1024"
"3.705778213","0","6","stin","non-word","94.28571428571429","94.28571428571429","985.2571428571429","985.2571428571429","black","no","legacy","legacy","legacy","0","uniform","1","undefined","undefined","undefined","1","f","0","0","0","0","34","0","0","0","34","NA","30","34","30","0","30","3","34","0","34","Thu Feb 18 14:36:16 2021","The main experiment item","yes","Lexical_Decision_Task.osexp","C:/Users/Steve","no","Andale Mono","no","18","no","white","no","yes","576","legacy","30","30","3","C:/Users/Steve/subject-5105824.csv","legacy","Lentiform Loewenfeld","3.3.7","yes","yes","600bd7cfb6416f0113b04181","602110864497cf011d9c0822","0","f","NA","space","space","space","NA","f","625","NA","2398","57645","3191","NA","625","2","legacy","1024","2","48000","-16","task","5105824","even","NA","78822","83225","80826","148590","7930","68771","65579","149093","NA","148588","149093","148507","83225","149719","76813","148007","7927","107506","Lexical Decision Task","33","34484","35","yes","1024"
"3.165936429","0","7","leps","non-word","94.44444444444444","94.44444444444444","977.75","977.75","black","no","legacy","legacy","legacy","0","uniform","1","undefined","undefined","undefined","1","f","0","0","0","0","35","0","0","0","35","NA","31","35","31","0","31","3","35","0","35","Thu Feb 18 14:36:16 2021","The main experiment item","yes","Lexical_Decision_Task.osexp","C:/Users/Steve","no","Andale Mono","no","18","no","white","no","yes","576","legacy","31","31","3","C:/Users/Steve/subject-5105824.csv","legacy","Lentiform Loewenfeld","3.3.7","yes","yes","600bd7cfb6416f0113b04181","602110864497cf011d9c0822","0","f","NA","space","space","space","NA","f","715","NA","2398","57645","3191","NA","715","2","legacy","1024","2","48000","-16","task","5105824","even","NA","78822","83225","80826","150376","7930","68771","65579","150880","NA","150374","150880","150274","83225","151596","76813","149774","7927","107506","Lexical Decision Task","34","35199","36","yes","1024"
"3.14849993","10.75","7","hour","word","94.5945945945946","94.5945945945946","967.4054054054054","967.4054054054054","black","no","legacy","legacy","legacy","0","uniform","1","undefined","undefined","undefined","1","j","0","0","0","0","36","0","0","0","36","NA","32","36","32","0","32","3","36","0","36","Thu Feb 18 14:36:16 2021","The main experiment item","yes","Lexical_Decision_Task.osexp","C:/Users/Steve","no","Andale Mono","no","18","no","white","no","yes","576","legacy","32","32","3","C:/Users/Steve/subject-5105824.csv","legacy","Lentiform Loewenfeld","3.3.7","yes","yes","600bd7cfb6416f0113b04181","602110864497cf011d9c0822","0","j","NA","space","space","space","NA","j","595","NA","2398","57645","3191","NA","595","2","legacy","1024","2","48000","-16","task","5105824","even","NA","78822","83225","80826","152280","7930","68771","65579","152784","NA","152278","152785","152181","83225","153382","76813","151680","7927","107506","Lexical Decision Task","35","35794","37","yes","1024"
"3.372543801","9.24","8","coat","word","94.73684210526316","94.73684210526316","956.8947368421053","956.8947368421053","black","no","legacy","legacy","legacy","0","uniform","1","undefined","undefined","undefined","1","j","0","0","0","0","37","0","0","0","37","NA","33","37","33","0","33","3","37","0","37","Thu Feb 18 14:36:16 2021","The main experiment item","yes","Lexical_Decision_Task.osexp","C:/Users/Steve","no","Andale Mono","no","18","no","white","no","yes","576","legacy","33","33","3","C:/Users/Steve/subject-5105824.csv","legacy","Lentiform Loewenfeld","3.3.7","yes","yes","600bd7cfb6416f0113b04181","602110864497cf011d9c0822","0","j","NA","space","space","space","NA","j","568","NA","2398","57645","3191","NA","568","2","legacy","1024","2","48000","-16","task","5105824","even","NA","78822","83225","80826","154132","7930","68771","65579","154636","NA","154130","154636","154037","83225","155205","76813","153537","7927","107506","Lexical Decision Task","36","36362","38","yes","1024"
"3.081107167","0","6","chot","non-word","94.87179487179488","94.87179487179488","952.1794871794872","952.1794871794872","black","no","legacy","legacy","legacy","0","uniform","1","undefined","undefined","undefined","1","f","0","0","0","0","38","0","0","0","38","NA","34","38","34","0","34","3","38","0","38","Thu Feb 18 14:36:16 2021","The main experiment item","yes","Lexical_Decision_Task.osexp","C:/Users/Steve","no","Andale Mono","no","18","no","white","no","yes","576","legacy","34","34","3","C:/Users/Steve/subject-5105824.csv","legacy","Lentiform Loewenfeld","3.3.7","yes","yes","600bd7cfb6416f0113b04181","602110864497cf011d9c0822","0","f","NA","space","space","space","NA","f","773","NA","2398","57645","3191","NA","773","2","legacy","1024","2","48000","-16","task","5105824","even","NA","78822","83225","80826","155843","7930","68771","65579","156347","NA","155842","156347","155738","83225","157121","76813","155238","7927","107506","Lexical Decision Task","37","37135","39","yes","1024"
"2.6599162","0","2","saff","non-word","95","95","945.225","945.225","black","no","legacy","legacy","legacy","0","uniform","1","undefined","undefined","undefined","1","f","0","0","0","0","39","0","0","0","39","NA","35","39","35","0","35","3","39","0","39","Thu Feb 18 14:36:16 2021","The main experiment item","yes","Lexical_Decision_Task.osexp","C:/Users/Steve","no","Andale Mono","no","18","no","white","no","yes","576","legacy","35","35","3","C:/Users/Steve/subject-5105824.csv","legacy","Lentiform Loewenfeld","3.3.7","yes","yes","600bd7cfb6416f0113b04181","602110864497cf011d9c0822","0","f","NA","space","space","space","NA","f","674","NA","2398","57645","3191","NA","674","2","legacy","1024","2","48000","-16","task","5105824","even","NA","78822","83225","80826","157785","7930","68771","65579","158289","NA","157784","158289","157673","83225","158964","76813","157173","7927","107506","Lexical Decision Task","38","37809","40","yes","1024"
"2.7084209","0","8","vump","non-word","95.1219512195122","95.1219512195122","975.560975609756","975.560975609756","black","no","legacy","legacy","legacy","0","uniform","1","undefined","undefined","undefined","1","f","0","0","0","0","40","0","0","0","40","NA","36","40","36","0","36","3","40","0","40","Thu Feb 18 14:36:16 2021","The main experiment item","yes","Lexical_Decision_Task.osexp","C:/Users/Steve","no","Andale Mono","no","18","no","white","no","yes","576","legacy","36","36","3","C:/Users/Steve/subject-5105824.csv","legacy","Lentiform Loewenfeld","3.3.7","yes","yes","600bd7cfb6416f0113b04181","602110864497cf011d9c0822","0","f","NA","space","space","space","NA","f","2189","NA","2398","57645","3191","NA","2189","2","legacy","1024","2","48000","-16","task","5105824","even","NA","78822","83225","80826","159587","7930","68771","65579","160091","NA","159585","160091","159493","83225","162281","76813","158993","7927","107506","Lexical Decision Task","39","39998","41","yes","1024"
"2.696356389","0","1","pizz","non-word","95.23809523809524","95.23809523809524","966.5238095238095","966.5238095238095","black","no","legacy","legacy","legacy","0","uniform","1","undefined","undefined","undefined","1","f","0","0","0","0","41","0","0","0","41","NA","37","41","37","0","37","3","41","0","41","Thu Feb 18 14:36:16 2021","The main experiment item","yes","Lexical_Decision_Task.osexp","C:/Users/Steve","no","Andale Mono","no","18","no","white","no","yes","576","legacy","37","37","3","C:/Users/Steve/subject-5105824.csv","legacy","Lentiform Loewenfeld","3.3.7","yes","yes","600bd7cfb6416f0113b04181","602110864497cf011d9c0822","0","f","NA","space","space","space","NA","f","596","NA","2398","57645","3191","NA","596","2","legacy","1024","2","48000","-16","task","5105824","even","NA","78822","83225","80826","162917","7930","68771","65579","163420","NA","162915","163420","162816","83225","164017","76813","162315","7927","107506","Lexical Decision Task","40","40594","42","yes","1024"
"2.68604012","0","4","pumb","non-word","95.34883720930233","95.34883720930233","974.6744186046511","974.6744186046511","black","no","legacy","legacy","legacy","0","uniform","1","undefined","undefined","undefined","1","f","0","0","0","0","42","0","0","0","42","NA","38","42","38","0","38","3","42","0","42","Thu Feb 18 14:36:16 2021","The main experiment item","yes","Lexical_Decision_Task.osexp","C:/Users/Steve","no","Andale Mono","no","18","no","white","no","yes","576","legacy","38","38","3","C:/Users/Steve/subject-5105824.csv","legacy","Lentiform Loewenfeld","3.3.7","yes","yes","600bd7cfb6416f0113b04181","602110864497cf011d9c0822","0","f","NA","space","space","space","NA","f","1317","NA","2398","57645","3191","NA","1317","2","legacy","1024","2","48000","-16","task","5105824","even","NA","78822","83225","80826","164670","7930","68771","65579","165173","NA","164668","165174","164573","83225","166492","76813","164073","7927","107506","Lexical Decision Task","41","41911","43","yes","1024"
"2.972357144","0","5","dasp","non-word","95.45454545454545","95.45454545454545","963.75","963.75","black","no","legacy","legacy","legacy","0","uniform","1","undefined","undefined","undefined","1","f","0","0","0","0","43","0","0","0","43","NA","39","43","39","0","39","3","43","0","43","Thu Feb 18 14:36:16 2021","The main experiment item","yes","Lexical_Decision_Task.osexp","C:/Users/Steve","no","Andale Mono","no","18","no","white","no","yes","576","legacy","39","39","3","C:/Users/Steve/subject-5105824.csv","legacy","Lentiform Loewenfeld","3.3.7","yes","yes","600bd7cfb6416f0113b04181","602110864497cf011d9c0822","0","f","NA","space","space","space","NA","f","494","NA","2398","57645","3191","NA","494","2","legacy","1024","2","48000","-16","task","5105824","even","NA","78822","83225","80826","167145","7930","68771","65579","167649","NA","167143","167649","167048","83225","168145","76813","166548","7927","107506","Lexical Decision Task","42","42405","44","yes","1024"
"2.996511672","0","7","hoil","non-word","93.33333333333333","93.33333333333333","974.4","974.4","black","no","legacy","legacy","legacy","0","uniform","0","undefined","undefined","undefined","0","f","0","0","0","0","44","0","0","0","44","NA","40","44","40","0","40","3","44","0","44","Thu Feb 18 14:36:16 2021","The main experiment item","yes","Lexical_Decision_Task.osexp","C:/Users/Steve","no","Andale Mono","no","18","no","white","no","yes","576","legacy","40","40","3","C:/Users/Steve/subject-5105824.csv","legacy","Lentiform Loewenfeld","3.3.7","yes","yes","600bd7cfb6416f0113b04181","602110864497cf011d9c0822","0","j","NA","space","space","space","NA","j","1443","NA","2398","57645","3191","NA","1443","2","legacy","1024","2","48000","-16","task","5105824","even","NA","78822","83225","80826","168807","7930","68771","65579","169310","NA","168805","169310","168707","83225","170754","76813","168207","7927","107506","Lexical Decision Task","42","43848","45","yes","1024"
"2.843025032","0","9","pusk","non-word","93.47826086956522","93.47826086956522","973.0652173913044","973.0652173913044","black","no","legacy","legacy","legacy","0","uniform","1","undefined","undefined","undefined","1","f","0","0","0","0","45","0","0","0","45","NA","41","45","41","0","41","3","45","0","45","Thu Feb 18 14:36:16 2021","The main experiment item","yes","Lexical_Decision_Task.osexp","C:/Users/Steve","no","Andale Mono","no","18","no","white","no","yes","576","legacy","41","41","3","C:/Users/Steve/subject-5105824.csv","legacy","Lentiform Loewenfeld","3.3.7","yes","yes","600bd7cfb6416f0113b04181","602110864497cf011d9c0822","0","f","NA","space","space","space","NA","f","913","NA","2398","57645","3191","NA","913","2","legacy","1024","2","48000","-16","task","5105824","even","NA","78822","83225","80826","172417","7930","68771","65579","172920","NA","172415","172920","172317","83225","173834","76813","168207","7927","170816","Lexical Decision Task","43","44761","46","yes","1024"
"3.156347201","0","8","lasp","non-word","93.61702127659575","93.61702127659575","962.8510638297872","962.8510638297872","black","no","legacy","legacy","legacy","0","uniform","1","undefined","undefined","undefined","1","f","0","0","0","0","46","0","0","0","46","NA","42","46","42","0","42","3","46","0","46","Thu Feb 18 14:36:16 2021","The main experiment item","yes","Lexical_Decision_Task.osexp","C:/Users/Steve","no","Andale Mono","no","18","no","white","no","yes","576","legacy","42","42","3","C:/Users/Steve/subject-5105824.csv","legacy","Lentiform Loewenfeld","3.3.7","yes","yes","600bd7cfb6416f0113b04181","602110864497cf011d9c0822","0","f","NA","space","space","space","NA","f","493","NA","2398","57645","3191","NA","493","2","legacy","1024","2","48000","-16","task","5105824","even","NA","78822","83225","80826","174488","7930","68771","65579","174991","NA","174486","174992","174395","83225","175486","76813","173895","7927","170816","Lexical Decision Task","44","45254","47","yes","1024"
"3.382617311","0","4","pret","non-word","93.75","93.75","953.0416666666666","953.0416666666666","black","no","legacy","legacy","legacy","0","uniform","1","undefined","undefined","undefined","1","f","0","0","0","0","47","0","0","0","47","NA","43","47","43","0","43","3","47","0","47","Thu Feb 18 14:36:16 2021","The main experiment item","yes","Lexical_Decision_Task.osexp","C:/Users/Steve","no","Andale Mono","no","18","no","white","no","yes","576","legacy","43","43","3","C:/Users/Steve/subject-5105824.csv","legacy","Lentiform Loewenfeld","3.3.7","yes","yes","600bd7cfb6416f0113b04181","602110864497cf011d9c0822","0","f","NA","space","space","space","NA","f","492","NA","2398","57645","3191","NA","492","2","legacy","1024","2","48000","-16","task","5105824","even","NA","78822","83225","80826","176133","7930","68771","65579","176636","NA","176131","176636","176037","83225","177129","76813","175537","7927","170816","Lexical Decision Task","45","45746","48","yes","1024"
"3.431095062","5.74","9","perk","word","93.87755102040816","93.87755102040816","946.7551020408164","946.7551020408164","black","no","legacy","legacy","legacy","0","uniform","1","undefined","undefined","undefined","1","j","0","0","0","0","48","0","0","0","48","NA","44","48","44","0","44","3","48","0","48","Thu Feb 18 14:36:16 2021","The main experiment item","yes","Lexical_Decision_Task.osexp","C:/Users/Steve","no","Andale Mono","no","18","no","white","no","yes","576","legacy","44","44","3","C:/Users/Steve/subject-5105824.csv","legacy","Lentiform Loewenfeld","3.3.7","yes","yes","600bd7cfb6416f0113b04181","602110864497cf011d9c0822","0","j","NA","space","space","space","NA","j","645","NA","2398","57645","3191","NA","645","2","legacy","1024","2","48000","-16","task","5105824","even","NA","78822","83225","80826","177780","7930","68771","65579","178284","NA","177778","178284","177683","83225","178930","76813","177183","7927","170816","Lexical Decision Task","46","46391","49","yes","1024"
"2.839898939","8.99","6","soap","word","94","94","939.26","939.26","black","no","legacy","legacy","legacy","0","uniform","1","undefined","undefined","undefined","1","j","0","0","0","0","49","0","0","0","49","NA","45","49","45","0","45","3","49","0","49","Thu Feb 18 14:36:16 2021","The main experiment item","yes","Lexical_Decision_Task.osexp","C:/Users/Steve","no","Andale Mono","no","18","no","white","no","yes","576","legacy","45","45","3","C:/Users/Steve/subject-5105824.csv","legacy","Lentiform Loewenfeld","3.3.7","yes","yes","600bd7cfb6416f0113b04181","602110864497cf011d9c0822","0","j","NA","space","space","space","NA","j","572","NA","2398","57645","3191","NA","572","2","legacy","1024","2","48000","-16","task","5105824","even","NA","78822","83225","80826","179592","7930","68771","65579","180096","NA","179590","180096","179484","83225","180669","76813","178984","7927","170816","Lexical Decision Task","47","46963","50","yes","1024"
"3.066077331","0","7","vorn","non-word","94.11764705882354","94.11764705882354","941.843137254902","941.843137254902","black","no","legacy","legacy","legacy","0","uniform","1","undefined","undefined","undefined","1","f","0","0","0","0","50","0","0","0","50","NA","46","50","46","0","46","3","50","0","50","Thu Feb 18 14:36:16 2021","The main experiment item","yes","Lexical_Decision_Task.osexp","C:/Users/Steve","no","Andale Mono","no","18","no","white","no","yes","576","legacy","46","46","3","C:/Users/Steve/subject-5105824.csv","legacy","Lentiform Loewenfeld","3.3.7","yes","yes","600bd7cfb6416f0113b04181","602110864497cf011d9c0822","0","f","NA","space","space","space","NA","f","1071","NA","2398","57645","3191","NA","1071","2","legacy","1024","2","48000","-16","task","5105824","even","NA","78822","83225","80826","181337","7930","68771","65579","181841","NA","181335","181841","181228","83225","182913","76813","180727","7927","170816","Lexical Decision Task","48","48034","51","yes","1024"
"2.696644658","5.78","2","yolk","word","94.23076923076923","94.23076923076923","962.4038461538462","962.4038461538462","black","no","legacy","legacy","legacy","0","uniform","1","undefined","undefined","undefined","1","j","0","0","0","0","51","0","0","0","51","NA","47","51","47","0","47","3","51","0","51","Thu Feb 18 14:36:16 2021","The main experiment item","yes","Lexical_Decision_Task.osexp","C:/Users/Steve","no","Andale Mono","no","18","no","white","no","yes","576","legacy","47","47","3","C:/Users/Steve/subject-5105824.csv","legacy","Lentiform Loewenfeld","3.3.7","yes","yes","600bd7cfb6416f0113b04181","602110864497cf011d9c0822","0","j","NA","space","space","space","NA","j","2011","NA","2398","57645","3191","NA","2011","2","legacy","1024","2","48000","-16","task","5105824","even","NA","78822","83225","80826","183577","7930","68771","65579","184080","NA","183575","184080","183472","83225","186093","76813","182972","7927","170816","Lexical Decision Task","49","50045","52","yes","1024"
"3.133964479","0","8","graw","non-word","94.33962264150944","94.33962264150944","973.4528301886793","973.4528301886793","black","no","legacy","legacy","legacy","0","uniform","1","undefined","undefined","undefined","1","f","0","0","0","0","52","0","0","0","52","NA","48","52","48","0","48","3","52","0","52","Thu Feb 18 14:36:16 2021","The main experiment item","yes","Lexical_Decision_Task.osexp","C:/Users/Steve","no","Andale Mono","no","18","no","white","no","yes","576","legacy","48","48","3","C:/Users/Steve/subject-5105824.csv","legacy","Lentiform Loewenfeld","3.3.7","yes","yes","600bd7cfb6416f0113b04181","602110864497cf011d9c0822","0","f","NA","space","space","space","NA","f","1548","NA","2398","57645","3191","NA","1548","2","legacy","1024","2","48000","-16","task","5105824","even","NA","78822","83225","80826","186855","7930","68771","65579","187358","NA","186853","187359","186759","83225","188909","76813","186258","7927","170816","Lexical Decision Task","50","51593","53","yes","1024"
"3.481012421","8.34","5","teen","word","94.44444444444444","94.44444444444444","965.2962962962963","965.2962962962963","black","no","legacy","legacy","legacy","0","uniform","1","undefined","undefined","undefined","1","j","0","0","0","0","53","0","0","0","53","NA","49","53","49","0","49","3","53","0","53","Thu Feb 18 14:36:16 2021","The main experiment item","yes","Lexical_Decision_Task.osexp","C:/Users/Steve","no","Andale Mono","no","18","no","white","no","yes","576","legacy","49","49","3","C:/Users/Steve/subject-5105824.csv","legacy","Lentiform Loewenfeld","3.3.7","yes","yes","600bd7cfb6416f0113b04181","602110864497cf011d9c0822","0","j","NA","space","space","space","NA","j","533","NA","2398","57645","3191","NA","533","2","legacy","1024","2","48000","-16","task","5105824","even","NA","78822","83225","80826","189559","7930","68771","65579","190062","NA","189556","190062","189459","83225","190596","76813","188959","7927","170816","Lexical Decision Task","51","52126","54","yes","1024"
"3.062080345","0","6","tomp","non-word","94.54545454545455","94.54545454545455","961.8909090909091","961.8909090909091","black","no","legacy","legacy","legacy","0","uniform","1","undefined","undefined","undefined","1","f","0","0","0","0","54","0","0","0","54","0","50","54","50","0","50","3","54","0","54","Thu Feb 18 14:36:16 2021","The main experiment item","yes","Lexical_Decision_Task.osexp","C:/Users/Steve","no","Andale Mono","no","18","no","white","no","yes","576","legacy","50","50","3","C:/Users/Steve/subject-5105824.csv","legacy","Lentiform Loewenfeld","3.3.7","yes","yes","600bd7cfb6416f0113b04181","602110864497cf011d9c0822","0","f","NA","space","space","space","space","f","778","NA","2398","57645","3191","3370","778","2","legacy","1024","2","48000","-16","task","5105824","even","NA","78822","83225","80826","194692","7930","68771","65579","195195","191238","194690","195196","191150","83225","195975","76813","190649","7927","170816","Lexical Decision Task","52","52904","55","yes","1024"
"3.1430148","7.92","8","bald","word","94.64285714285714","94.64285714285714","955.4464285714286","955.4464285714286","black","no","legacy","legacy","legacy","0","uniform","1","undefined","undefined","undefined","1","j","0","0","0","0","55","0","0","0","55","0","51","55","51","0","51","3","55","0","55","Thu Feb 18 14:36:16 2021","The main experiment item","yes","Lexical_Decision_Task.osexp","C:/Users/Steve","no","Andale Mono","no","18","no","white","no","yes","576","legacy","51","51","3","C:/Users/Steve/subject-5105824.csv","legacy","Lentiform Loewenfeld","3.3.7","yes","yes","600bd7cfb6416f0113b04181","602110864497cf011d9c0822","0","j","NA","space","space","space","space","j","601","NA","2398","57645","3191","3370","601","2","legacy","1024","2","48000","-16","task","5105824","even","NA","78822","83225","80826","196616","7930","68771","65579","197121","191238","196614","197121","196527","83225","197723","76813","196027","7927","170816","Lexical Decision Task","53","53505","56","yes","1024"
"2.899092422","7.27","6","snag","word","92.98245614035088","92.98245614035088","952.2280701754386","952.2280701754386","black","no","legacy","legacy","legacy","0","uniform","0","undefined","undefined","undefined","0","j","0","0","0","0","56","0","0","0","56","0","52","56","52","0","52","3","56","0","56","Thu Feb 18 14:36:16 2021","The main experiment item","yes","Lexical_Decision_Task.osexp","C:/Users/Steve","no","Andale Mono","no","18","no","white","no","yes","576","legacy","52","52","3","C:/Users/Steve/subject-5105824.csv","legacy","Lentiform Loewenfeld","3.3.7","yes","yes","600bd7cfb6416f0113b04181","602110864497cf011d9c0822","0","f","NA","space","space","space","space","f","772","NA","2398","57645","3191","3370","772","2","legacy","1024","2","48000","-16","task","5105824","even","NA","78822","83225","80826","198379","7930","68771","65579","198883","191238","198377","198884","198284","83225","199657","76813","197784","7927","170816","Lexical Decision Task","53","54277","57","yes","1024"
"2.82129731","6.72","5","plum","word","93.10344827586206","93.10344827586206","953.1379310344828","953.1379310344828","black","no","legacy","legacy","legacy","0","uniform","1","undefined","undefined","undefined","1","j","0","0","0","0","57","0","0","0","57","0","53","57","53","0","53","3","57","0","57","Thu Feb 18 14:36:16 2021","The main experiment item","yes","Lexical_Decision_Task.osexp","C:/Users/Steve","no","Andale Mono","no","18","no","white","no","yes","576","legacy","53","53","3","C:/Users/Steve/subject-5105824.csv","legacy","Lentiform Loewenfeld","3.3.7","yes","yes","600bd7cfb6416f0113b04181","602110864497cf011d9c0822","0","j","NA","space","space","space","space","j","1005","NA","2398","57645","3191","3370","1005","2","legacy","1024","2","48000","-16","task","5105824","even","NA","78822","83225","80826","201275","7930","68771","65579","201778","191238","201273","201778","201181","83225","202786","76813","197784","7927","199680","Lexical Decision Task","54","55282","58","yes","1024"
"2.813801082","5.47","7","nook","word","93.22033898305085","93.22033898305085","955.6440677966102","955.6440677966102","black","no","legacy","legacy","legacy","0","uniform","1","undefined","undefined","undefined","1","j","0","0","0","0","58","0","0","0","58","0","54","58","54","0","54","3","58","0","58","Thu Feb 18 14:36:16 2021","The main experiment item","yes","Lexical_Decision_Task.osexp","C:/Users/Steve","no","Andale Mono","no","18","no","white","no","yes","576","legacy","54","54","3","C:/Users/Steve/subject-5105824.csv","legacy","Lentiform Loewenfeld","3.3.7","yes","yes","600bd7cfb6416f0113b04181","602110864497cf011d9c0822","0","j","NA","space","space","space","space","j","1101","NA","2398","57645","3191","3370","1101","2","legacy","1024","2","48000","-16","task","5105824","even","NA","78822","83225","80826","203440","7930","68771","65579","203944","191238","203439","203944","203338","83225","205046","76813","202838","7927","199680","Lexical Decision Task","55","56383","59","yes","1024"
"2.821076612","0","4","lult","non-word","93.33333333333333","93.33333333333333","956.7666666666667","956.7666666666667","black","no","legacy","legacy","legacy","0","uniform","1","undefined","undefined","undefined","1","f","0","0","0","0","59","0","0","0","59","0","55","59","55","0","55","3","59","0","59","Thu Feb 18 14:36:16 2021","The main experiment item","yes","Lexical_Decision_Task.osexp","C:/Users/Steve","no","Andale Mono","no","18","no","white","no","yes","576","legacy","55","55","3","C:/Users/Steve/subject-5105824.csv","legacy","Lentiform Loewenfeld","3.3.7","yes","yes","600bd7cfb6416f0113b04181","602110864497cf011d9c0822","0","f","NA","space","space","space","space","f","1023","NA","2398","57645","3191","3370","1023","2","legacy","1024","2","48000","-16","task","5105824","even","NA","78822","83225","80826","205714","7930","68771","65579","206217","191238","205712","206217","205617","83225","207242","76813","205116","7927","199680","Lexical Decision Task","56","57406","60","yes","1024"
"3.353210739","0","9","reet","non-word","93.44262295081967","93.44262295081967","957.2131147540983","957.2131147540983","black","no","legacy","legacy","legacy","0","uniform","1","undefined","undefined","undefined","1","f","0","0","0","0","60","0","0","0","60","0","56","60","56","0","56","3","60","0","60","Thu Feb 18 14:36:16 2021","The main experiment item","yes","Lexical_Decision_Task.osexp","C:/Users/Steve","no","Andale Mono","no","18","no","white","no","yes","576","legacy","56","56","3","C:/Users/Steve/subject-5105824.csv","legacy","Lentiform Loewenfeld","3.3.7","yes","yes","600bd7cfb6416f0113b04181","602110864497cf011d9c0822","0","f","NA","space","space","space","space","f","984","NA","2398","57645","3191","3370","984","2","legacy","1024","2","48000","-16","task","5105824","even","NA","78822","83225","80826","207887","7930","68771","65579","208390","191238","207885","208390","207791","83225","209375","76813","207291","7927","199680","Lexical Decision Task","57","58390","61","yes","1024"
"2.971428938","9.86","7","spot","word","93.54838709677419","93.54838709677419","952.4354838709677","952.4354838709677","black","no","legacy","legacy","legacy","0","uniform","1","undefined","undefined","undefined","1","j","0","0","0","0","61","0","0","0","61","0","57","61","57","0","57","3","61","0","61","Thu Feb 18 14:36:16 2021","The main experiment item","yes","Lexical_Decision_Task.osexp","C:/Users/Steve","no","Andale Mono","no","18","no","white","no","yes","576","legacy","57","57","3","C:/Users/Steve/subject-5105824.csv","legacy","Lentiform Loewenfeld","3.3.7","yes","yes","600bd7cfb6416f0113b04181","602110864497cf011d9c0822","0","j","NA","space","space","space","space","j","661","NA","2398","57645","3191","3370","661","2","legacy","1024","2","48000","-16","task","5105824","even","NA","78822","83225","80826","210003","7930","68771","65579","210508","191238","210001","210508","209903","83225","211171","76813","209403","7927","199680","Lexical Decision Task","58","59051","62","yes","1024"
"3.132473155","0","4","glim","non-word","92.06349206349206","92.06349206349206","962.7460317460317","962.7460317460317","black","no","legacy","legacy","legacy","0","uniform","0","undefined","undefined","undefined","0","f","0","0","0","0","62","0","0","0","62","0","58","62","58","0","58","3","62","0","62","Thu Feb 18 14:36:16 2021","The main experiment item","yes","Lexical_Decision_Task.osexp","C:/Users/Steve","no","Andale Mono","no","18","no","white","no","yes","576","legacy","58","58","3","C:/Users/Steve/subject-5105824.csv","legacy","Lentiform Loewenfeld","3.3.7","yes","yes","600bd7cfb6416f0113b04181","602110864497cf011d9c0822","0","j","NA","space","space","space","space","j","1602","NA","2398","57645","3191","3370","1602","2","legacy","1024","2","48000","-16","task","5105824","even","NA","78822","83225","80826","211819","7930","68771","65579","212323","191238","211817","212324","211725","83225","213927","76813","211225","7927","199680","Lexical Decision Task","58","60653","63","yes","1024"
"2.705007959","6.01","4","wept","word","92.1875","92.1875","960.828125","960.828125","black","no","legacy","legacy","legacy","0","uniform","1","undefined","undefined","undefined","1","j","0","0","0","0","63","0","0","0","63","0","59","63","59","0","59","3","63","0","63","Thu Feb 18 14:36:16 2021","The main experiment item","yes","Lexical_Decision_Task.osexp","C:/Users/Steve","no","Andale Mono","no","18","no","white","no","yes","576","legacy","59","59","3","C:/Users/Steve/subject-5105824.csv","legacy","Lentiform Loewenfeld","3.3.7","yes","yes","600bd7cfb6416f0113b04181","602110864497cf011d9c0822","0","j","NA","space","space","space","space","j","840","NA","2398","57645","3191","3370","840","2","legacy","1024","2","48000","-16","task","5105824","even","NA","78822","83225","80826","215591","7930","68771","65579","216094","191238","215589","216095","215481","83225","216936","76813","211225","7927","213981","Lexical Decision Task","59","61493","64","yes","1024"
"3.218535505","7.85","7","goat","word","92.3076923076923","92.3076923076923","958.2461538461539","958.2461538461539","black","no","legacy","legacy","legacy","0","uniform","1","undefined","undefined","undefined","1","j","0","0","0","0","64","0","0","0","64","0","60","64","60","0","60","3","64","0","64","Thu Feb 18 14:36:16 2021","The main experiment item","yes","Lexical_Decision_Task.osexp","C:/Users/Steve","no","Andale Mono","no","18","no","white","no","yes","576","legacy","60","60","3","C:/Users/Steve/subject-5105824.csv","legacy","Lentiform Loewenfeld","3.3.7","yes","yes","600bd7cfb6416f0113b04181","602110864497cf011d9c0822","0","j","NA","space","space","space","space","j","793","NA","2398","57645","3191","3370","793","2","legacy","1024","2","48000","-16","task","5105824","even","NA","78822","83225","80826","217607","7930","68771","65579","218111","191238","217604","218111","217515","83225","218906","76813","217015","7927","213981","Lexical Decision Task","60","62286","65","yes","1024"
"3.347850856","10.51","2","rich","word","92.42424242424242","92.42424242424242","951.8939393939394","951.8939393939394","black","no","legacy","legacy","legacy","0","uniform","1","undefined","undefined","undefined","1","j","0","0","0","0","65","0","0","0","65","0","61","65","61","0","61","3","65","0","65","Thu Feb 18 14:36:16 2021","The main experiment item","yes","Lexical_Decision_Task.osexp","C:/Users/Steve","no","Andale Mono","no","18","no","white","no","yes","576","legacy","61","61","3","C:/Users/Steve/subject-5105824.csv","legacy","Lentiform Loewenfeld","3.3.7","yes","yes","600bd7cfb6416f0113b04181","602110864497cf011d9c0822","0","j","NA","space","space","space","space","j","539","NA","2398","57645","3191","3370","539","2","legacy","1024","2","48000","-16","task","5105824","even","NA","78822","83225","80826","219526","7930","68771","65579","220029","191238","219523","220029","219436","83225","220569","76813","218936","7927","213981","Lexical Decision Task","61","62825","66","yes","1024"
"3.252447662","9.67","9","boat","word","92.53731343283582","92.53731343283582","946.4029850746268","946.4029850746268","black","no","legacy","legacy","legacy","0","uniform","1","undefined","undefined","undefined","1","j","0","0","0","0","66","0","0","0","66","0","62","66","62","0","62","3","66","0","66","Thu Feb 18 14:36:16 2021","The main experiment item","yes","Lexical_Decision_Task.osexp","C:/Users/Steve","no","Andale Mono","no","18","no","white","no","yes","576","legacy","62","62","3","C:/Users/Steve/subject-5105824.csv","legacy","Lentiform Loewenfeld","3.3.7","yes","yes","600bd7cfb6416f0113b04181","602110864497cf011d9c0822","0","j","NA","space","space","space","space","j","584","NA","2398","57645","3191","3370","584","2","legacy","1024","2","48000","-16","task","5105824","even","NA","78822","83225","80826","221224","7930","68771","65579","221728","191238","221222","221728","221127","83225","222313","76813","220627","7927","213981","Lexical Decision Task","62","63409","67","yes","1024"
"3.091901331","0","9","nipe","non-word","92.6470588235294","92.6470588235294","943.4264705882352","943.4264705882352","black","no","legacy","legacy","legacy","0","uniform","1","undefined","undefined","undefined","1","f","0","0","0","0","67","0","0","0","67","0","63","67","63","0","63","3","67","0","67","Thu Feb 18 14:36:16 2021","The main experiment item","yes","Lexical_Decision_Task.osexp","C:/Users/Steve","no","Andale Mono","no","18","no","white","no","yes","576","legacy","63","63","3","C:/Users/Steve/subject-5105824.csv","legacy","Lentiform Loewenfeld","3.3.7","yes","yes","600bd7cfb6416f0113b04181","602110864497cf011d9c0822","0","f","NA","space","space","space","space","f","744","NA","2398","57645","3191","3370","744","2","legacy","1024","2","48000","-16","task","5105824","even","NA","78822","83225","80826","222973","7930","68771","65579","223476","191238","222971","223476","222872","83225","224221","76813","222371","7927","213981","Lexical Decision Task","63","64153","68","yes","1024"
"3.495914186","0","4","peng","non-word","91.30434782608695","91.30434782608695","939.1594202898551","939.1594202898551","black","no","legacy","legacy","legacy","0","uniform","0","undefined","undefined","undefined","0","f","0","0","0","0","68","0","0","0","68","0","64","68","64","0","64","3","68","0","68","Thu Feb 18 14:36:16 2021","The main experiment item","yes","Lexical_Decision_Task.osexp","C:/Users/Steve","no","Andale Mono","no","18","no","white","no","yes","576","legacy","64","64","3","C:/Users/Steve/subject-5105824.csv","legacy","Lentiform Loewenfeld","3.3.7","yes","yes","600bd7cfb6416f0113b04181","602110864497cf011d9c0822","0","j","NA","space","space","space","space","j","649","NA","2398","57645","3191","3370","649","2","legacy","1024","2","48000","-16","task","5105824","even","NA","78822","83225","80826","224887","7930","68771","65579","225390","191238","224885","225391","224782","83225","226041","76813","224282","7927","213981","Lexical Decision Task","63","64802","69","yes","1024"
"2.728085817","10.02","9","bike","word","91.42857142857143","91.42857142857143","935.6428571428571","935.6428571428571","black","no","legacy","legacy","legacy","0","uniform","1","undefined","undefined","undefined","1","j","0","0","0","0","69","0","0","0","69","0","65","69","65","0","65","3","69","0","69","Thu Feb 18 14:36:16 2021","The main experiment item","yes","Lexical_Decision_Task.osexp","C:/Users/Steve","no","Andale Mono","no","18","no","white","no","yes","576","legacy","65","65","3","C:/Users/Steve/subject-5105824.csv","legacy","Lentiform Loewenfeld","3.3.7","yes","yes","600bd7cfb6416f0113b04181","602110864497cf011d9c0822","0","j","NA","space","space","space","space","j","693","NA","2398","57645","3191","3370","693","2","legacy","1024","2","48000","-16","task","5105824","even","NA","78822","83225","80826","227722","7930","68771","65579","228225","191238","227720","228225","227617","83225","228920","76813","224282","7927","226117","Lexical Decision Task","64","65495","70","yes","1024"
"3.374198258","0","8","vist","non-word","91.54929577464789","91.54929577464789","932.9859154929577","932.9859154929577","black","no","legacy","legacy","legacy","0","uniform","1","undefined","undefined","undefined","1","f","0","0","0","0","70","0","0","0","70","0","66","70","66","0","66","3","70","0","70","Thu Feb 18 14:36:16 2021","The main experiment item","yes","Lexical_Decision_Task.osexp","C:/Users/Steve","no","Andale Mono","no","18","no","white","no","yes","576","legacy","66","66","3","C:/Users/Steve/subject-5105824.csv","legacy","Lentiform Loewenfeld","3.3.7","yes","yes","600bd7cfb6416f0113b04181","602110864497cf011d9c0822","0","f","NA","space","space","space","space","f","747","NA","2398","57645","3191","3370","747","2","legacy","1024","2","48000","-16","task","5105824","even","NA","78822","83225","80826","229578","7930","68771","65579","230081","191238","229576","230082","229482","83225","230830","76813","228981","7927","226117","Lexical Decision Task","65","66242","71","yes","1024"
"2.668385917","5.48","4","twig","word","91.66666666666667","91.66666666666667","928.5833333333334","928.5833333333334","black","no","legacy","legacy","legacy","0","uniform","1","undefined","undefined","undefined","1","j","0","0","0","0","71","0","0","0","71","0","67","71","67","0","67","3","71","0","71","Thu Feb 18 14:36:16 2021","The main experiment item","yes","Lexical_Decision_Task.osexp","C:/Users/Steve","no","Andale Mono","no","18","no","white","no","yes","576","legacy","67","67","3","C:/Users/Steve/subject-5105824.csv","legacy","Lentiform Loewenfeld","3.3.7","yes","yes","600bd7cfb6416f0113b04181","602110864497cf011d9c0822","0","j","NA","space","space","space","space","j","616","NA","2398","57645","3191","3370","616","2","legacy","1024","2","48000","-16","task","5105824","even","NA","78822","83225","80826","231482","7930","68771","65579","231986","191238","231480","231986","231381","83225","232604","76813","230881","7927","226117","Lexical Decision Task","66","66858","72","yes","1024"
"2.80048796","0","8","pife","non-word","91.78082191780823","91.78082191780823","927.7534246575342","927.7534246575342","black","no","legacy","legacy","legacy","0","uniform","1","undefined","undefined","undefined","1","f","0","0","0","0","72","0","0","0","72","0","68","72","68","0","68","3","72","0","72","Thu Feb 18 14:36:16 2021","The main experiment item","yes","Lexical_Decision_Task.osexp","C:/Users/Steve","no","Andale Mono","no","18","no","white","no","yes","576","legacy","68","68","3","C:/Users/Steve/subject-5105824.csv","legacy","Lentiform Loewenfeld","3.3.7","yes","yes","600bd7cfb6416f0113b04181","602110864497cf011d9c0822","0","f","NA","space","space","space","space","f","868","NA","2398","57645","3191","3370","868","2","legacy","1024","2","48000","-16","task","5105824","even","NA","78822","83225","80826","233237","7930","68771","65579","233740","191238","233235","233740","233135","83225","234610","76813","232635","7927","226117","Lexical Decision Task","67","67726","73","yes","1024"
"2.897810299","0","5","glur","non-word","91.89189189189189","91.89189189189189","931.7027027027027","931.7027027027027","black","no","legacy","legacy","legacy","0","uniform","1","undefined","undefined","undefined","1","f","0","0","0","0","73","0","0","0","73","0","69","73","69","0","69","3","73","0","73","Thu Feb 18 14:36:16 2021","The main experiment item","yes","Lexical_Decision_Task.osexp","C:/Users/Steve","no","Andale Mono","no","18","no","white","no","yes","576","legacy","69","69","3","C:/Users/Steve/subject-5105824.csv","legacy","Lentiform Loewenfeld","3.3.7","yes","yes","600bd7cfb6416f0113b04181","602110864497cf011d9c0822","0","f","NA","space","space","space","space","f","1220","NA","2398","57645","3191","3370","1220","2","legacy","1024","2","48000","-16","task","5105824","even","NA","78822","83225","80826","235236","7930","68771","65579","235740","191238","235234","235740","235143","83225","236961","76813","234643","7927","226117","Lexical Decision Task","68","68946","74","yes","1024"
"3.120025233","0","2","nyst","non-word","92","92","949.1466666666666","949.1466666666666","black","no","legacy","legacy","legacy","0","uniform","1","undefined","undefined","undefined","1","f","0","0","0","0","74","0","0","0","74","0","70","74","70","0","70","3","74","0","74","Thu Feb 18 14:36:16 2021","The main experiment item","yes","Lexical_Decision_Task.osexp","C:/Users/Steve","no","Andale Mono","no","18","no","white","no","yes","576","legacy","70","70","3","C:/Users/Steve/subject-5105824.csv","legacy","Lentiform Loewenfeld","3.3.7","yes","yes","600bd7cfb6416f0113b04181","602110864497cf011d9c0822","0","f","NA","space","space","space","space","f","2240","NA","2398","57645","3191","3370","2240","2","legacy","1024","2","48000","-16","task","5105824","even","NA","78822","83225","80826","237627","7930","68771","65579","238131","191238","237625","238131","237515","83225","240372","76813","237014","7927","226117","Lexical Decision Task","69","71186","75","yes","1024"
"2.895974732","6.65","5","sift","word","90.78947368421052","90.78947368421052","946.8552631578947","946.8552631578947","black","no","legacy","legacy","legacy","0","uniform","0","undefined","undefined","undefined","0","j","0","0","0","0","75","0","0","0","75","0","71","75","71","0","71","3","75","0","75","Thu Feb 18 14:36:16 2021","The main experiment item","yes","Lexical_Decision_Task.osexp","C:/Users/Steve","no","Andale Mono","no","18","no","white","no","yes","576","legacy","71","71","3","C:/Users/Steve/subject-5105824.csv","legacy","Lentiform Loewenfeld","3.3.7","yes","yes","600bd7cfb6416f0113b04181","602110864497cf011d9c0822","0","f","NA","space","space","space","space","f","775","NA","2398","57645","3191","3370","775","2","legacy","1024","2","48000","-16","task","5105824","even","NA","78822","83225","80826","241028","7930","68771","65579","241533","191238","241026","241533","240924","83225","242309","76813","240424","7927","226117","Lexical Decision Task","69","71961","76","yes","1024"
"2.981215883","10.66","5","hair","word","90.9090909090909","90.9090909090909","941.8441558441558","941.8441558441558","black","no","legacy","legacy","legacy","0","uniform","1","undefined","undefined","undefined","1","j","0","0","0","0","76","0","0","0","76","0","72","76","72","0","72","3","76","0","76","Thu Feb 18 14:36:16 2021","The main experiment item","yes","Lexical_Decision_Task.osexp","C:/Users/Steve","no","Andale Mono","no","18","no","white","no","yes","576","legacy","72","72","3","C:/Users/Steve/subject-5105824.csv","legacy","Lentiform Loewenfeld","3.3.7","yes","yes","600bd7cfb6416f0113b04181","602110864497cf011d9c0822","0","j","NA","space","space","space","space","j","561","NA","2398","57645","3191","3370","561","2","legacy","1024","2","48000","-16","task","5105824","even","NA","78822","83225","80826","243961","7930","68771","65579","244465","191238","243959","244465","243857","83225","245027","76813","240424","7927","242357","Lexical Decision Task","70","72522","77","yes","1024"
"3.010582609","0","2","drod","non-word","91.02564102564102","91.02564102564102","938.1923076923077","938.1923076923077","black","no","legacy","legacy","legacy","0","uniform","1","undefined","undefined","undefined","1","f","0","0","0","0","77","0","0","0","77","0","73","77","73","0","73","3","77","0","77","Thu Feb 18 14:36:16 2021","The main experiment item","yes","Lexical_Decision_Task.osexp","C:/Users/Steve","no","Andale Mono","no","18","no","white","no","yes","576","legacy","73","73","3","C:/Users/Steve/subject-5105824.csv","legacy","Lentiform Loewenfeld","3.3.7","yes","yes","600bd7cfb6416f0113b04181","602110864497cf011d9c0822","0","f","NA","space","space","space","space","f","657","NA","2398","57645","3191","3370","657","2","legacy","1024","2","48000","-16","task","5105824","even","NA","78822","83225","80826","245656","7930","68771","65579","246159","191238","245654","246159","245557","83225","246817","76813","245057","7927","242357","Lexical Decision Task","71","73179","78","yes","1024"
"3.131833513","7.66","4","limb","word","91.13924050632912","91.13924050632912","937.4430379746835","937.4430379746835","black","no","legacy","legacy","legacy","0","uniform","1","undefined","undefined","undefined","1","j","0","0","0","0","78","0","0","0","78","0","74","78","74","0","74","3","78","0","78","Thu Feb 18 14:36:16 2021","The main experiment item","yes","Lexical_Decision_Task.osexp","C:/Users/Steve","no","Andale Mono","no","18","no","white","no","yes","576","legacy","74","74","3","C:/Users/Steve/subject-5105824.csv","legacy","Lentiform Loewenfeld","3.3.7","yes","yes","600bd7cfb6416f0113b04181","602110864497cf011d9c0822","0","j","NA","space","space","space","space","j","879","NA","2398","57645","3191","3370","879","2","legacy","1024","2","48000","-16","task","5105824","even","NA","78822","83225","80826","247451","7930","68771","65579","247954","191238","247449","247954","247345","83225","248834","76813","246845","7927","242357","Lexical Decision Task","72","74058","79","yes","1024"
"2.814027728","8.2","4","foam","word","91.25","91.25","935.0625","935.0625","black","no","legacy","legacy","legacy","0","uniform","1","undefined","undefined","undefined","1","j","0","0","0","0","79","0","0","0","79","0","75","79","75","0","75","3","79","0","79","Thu Feb 18 14:36:16 2021","The main experiment item","yes","Lexical_Decision_Task.osexp","C:/Users/Steve","no","Andale Mono","no","18","no","white","no","yes","576","legacy","75","75","3","C:/Users/Steve/subject-5105824.csv","legacy","Lentiform Loewenfeld","3.3.7","yes","yes","600bd7cfb6416f0113b04181","602110864497cf011d9c0822","0","j","NA","space","space","space","space","j","747","NA","2398","57645","3191","3370","747","2","legacy","1024","2","48000","-16","task","5105824","even","NA","78822","83225","80826","249486","7930","68771","65579","249989","191238","249484","249989","249382","83225","250737","76813","248881","7927","242357","Lexical Decision Task","73","74805","80","yes","1024"
"2.744553742","0","2","nawk","non-word","91.35802469135803","91.35802469135803","936.8765432098766","936.8765432098766","black","no","legacy","legacy","legacy","0","uniform","1","undefined","undefined","undefined","1","f","0","0","0","0","80","0","0","0","80","0","76","80","76","0","76","3","80","0","80","Thu Feb 18 14:36:16 2021","The main experiment item","yes","Lexical_Decision_Task.osexp","C:/Users/Steve","no","Andale Mono","no","18","no","white","no","yes","576","legacy","76","76","3","C:/Users/Steve/subject-5105824.csv","legacy","Lentiform Loewenfeld","3.3.7","yes","yes","600bd7cfb6416f0113b04181","602110864497cf011d9c0822","0","f","NA","space","space","space","space","f","1082","NA","2398","57645","3191","3370","1082","2","legacy","1024","2","48000","-16","task","5105824","even","NA","78822","83225","80826","251382","7930","68771","65579","251886","191238","251380","251886","251290","83225","252970","76813","250790","7927","242357","Lexical Decision Task","74","75887","81","yes","1024"
"3.20996159","0","4","clee","non-word","91.46341463414635","91.46341463414635","936.670731707317","936.670731707317","black","no","legacy","legacy","legacy","0","uniform","1","undefined","undefined","undefined","1","f","0","0","0","0","81","0","0","0","81","0","77","81","77","0","77","3","81","0","81","Thu Feb 18 14:36:16 2021","The main experiment item","yes","Lexical_Decision_Task.osexp","C:/Users/Steve","no","Andale Mono","no","18","no","white","no","yes","576","legacy","77","77","3","C:/Users/Steve/subject-5105824.csv","legacy","Lentiform Loewenfeld","3.3.7","yes","yes","600bd7cfb6416f0113b04181","602110864497cf011d9c0822","0","f","NA","space","space","space","space","f","920","NA","2398","57645","3191","3370","920","2","legacy","1024","2","48000","-16","task","5105824","even","NA","78822","83225","80826","253607","7930","68771","65579","254110","191238","253605","254110","253490","83225","255031","76813","252990","7927","242357","Lexical Decision Task","75","76807","82","yes","1024"
"2.698100546","0","9","mulk","non-word","91.56626506024097","91.56626506024097","941.9277108433735","941.9277108433735","black","no","legacy","legacy","legacy","0","uniform","1","undefined","undefined","undefined","1","f","0","0","0","0","82","0","0","0","82","0","78","82","78","0","78","3","82","0","82","Thu Feb 18 14:36:16 2021","The main experiment item","yes","Lexical_Decision_Task.osexp","C:/Users/Steve","no","Andale Mono","no","18","no","white","no","yes","576","legacy","78","78","3","C:/Users/Steve/subject-5105824.csv","legacy","Lentiform Loewenfeld","3.3.7","yes","yes","600bd7cfb6416f0113b04181","602110864497cf011d9c0822","0","f","NA","space","space","space","space","f","1373","NA","2398","57645","3191","3370","1373","2","legacy","1024","2","48000","-16","task","5105824","even","NA","78822","83225","80826","255698","7930","68771","65579","256202","191238","255696","256202","255604","83225","257577","76813","255104","7927","242357","Lexical Decision Task","76","78180","83","yes","1024"
"3.282244367","0","6","fute","non-word","91.66666666666667","91.66666666666667","951.702380952381","951.702380952381","black","no","legacy","legacy","legacy","0","uniform","1","undefined","undefined","undefined","1","f","0","0","0","0","83","0","0","0","83","0","79","83","79","0","79","3","83","0","83","Thu Feb 18 14:36:16 2021","The main experiment item","yes","Lexical_Decision_Task.osexp","C:/Users/Steve","no","Andale Mono","no","18","no","white","no","yes","576","legacy","79","79","3","C:/Users/Steve/subject-5105824.csv","legacy","Lentiform Loewenfeld","3.3.7","yes","yes","600bd7cfb6416f0113b04181","602110864497cf011d9c0822","0","f","NA","space","space","space","space","f","1763","NA","2398","57645","3191","3370","1763","2","legacy","1024","2","48000","-16","task","5105824","even","NA","78822","83225","80826","258222","7930","68771","65579","258725","191238","258220","258725","258123","83225","260490","76813","257623","7927","242357","Lexical Decision Task","77","79943","84","yes","1024"
"2.755364069","7.72","2","hoax","word","91.76470588235294","91.76470588235294","948.2588235294118","948.2588235294118","black","no","legacy","legacy","legacy","0","uniform","1","undefined","undefined","undefined","1","j","0","0","0","0","84","0","0","0","84","0","80","84","80","0","80","3","84","0","84","Thu Feb 18 14:36:16 2021","The main experiment item","yes","Lexical_Decision_Task.osexp","C:/Users/Steve","no","Andale Mono","no","18","no","white","no","yes","576","legacy","80","80","3","C:/Users/Steve/subject-5105824.csv","legacy","Lentiform Loewenfeld","3.3.7","yes","yes","600bd7cfb6416f0113b04181","602110864497cf011d9c0822","0","j","NA","space","space","space","space","j","659","NA","2398","57645","3191","3370","659","2","legacy","1024","2","48000","-16","task","5105824","even","NA","78822","83225","80826","261115","7930","68771","65579","261616","191238","261113","261616","261012","83225","262277","76813","260512","7927","242357","Lexical Decision Task","78","80602","85","yes","1024"
"3.274157849","0","8","leet","non-word","91.86046511627907","91.86046511627907","953.7093023255813","953.7093023255813","black","no","legacy","legacy","legacy","0","uniform","1","undefined","undefined","undefined","1","f","0","0","0","0","85","0","0","0","85","0","81","85","81","0","81","3","85","0","85","Thu Feb 18 14:36:16 2021","The main experiment item","yes","Lexical_Decision_Task.osexp","C:/Users/Steve","no","Andale Mono","no","18","no","white","no","yes","576","legacy","81","81","3","C:/Users/Steve/subject-5105824.csv","legacy","Lentiform Loewenfeld","3.3.7","yes","yes","600bd7cfb6416f0113b04181","602110864497cf011d9c0822","0","f","NA","space","space","space","space","f","1417","NA","2398","57645","3191","3370","1417","2","legacy","1024","2","48000","-16","task","5105824","even","NA","78822","83225","80826","262921","7930","68771","65579","263425","191238","262919","263425","262825","83225","264843","76813","262324","7927","242357","Lexical Decision Task","79","82019","86","yes","1024"
"3.149629599","0","2","cleb","non-word","91.95402298850574","91.95402298850574","950.7241379310345","950.7241379310345","black","no","legacy","legacy","legacy","0","uniform","1","undefined","undefined","undefined","1","f","0","0","0","0","86","0","0","0","86","0","82","86","82","0","82","3","86","0","86","Thu Feb 18 14:36:16 2021","The main experiment item","yes","Lexical_Decision_Task.osexp","C:/Users/Steve","no","Andale Mono","no","18","no","white","no","yes","576","legacy","82","82","3","C:/Users/Steve/subject-5105824.csv","legacy","Lentiform Loewenfeld","3.3.7","yes","yes","600bd7cfb6416f0113b04181","602110864497cf011d9c0822","0","f","NA","space","space","space","space","f","694","NA","2398","57645","3191","3370","694","2","legacy","1024","2","48000","-16","task","5105824","even","NA","78822","83225","80826","265522","7930","68771","65579","266026","191238","265520","266026","265403","83225","266722","76813","264903","7927","242357","Lexical Decision Task","80","82713","87","yes","1024"
"2.706148589","0","4","hube","non-word","92.04545454545455","92.04545454545455","946.9204545454545","946.9204545454545","black","no","legacy","legacy","legacy","0","uniform","1","undefined","undefined","undefined","1","f","0","0","0","0","87","0","0","0","87","0","83","87","83","0","83","3","87","0","87","Thu Feb 18 14:36:16 2021","The main experiment item","yes","Lexical_Decision_Task.osexp","C:/Users/Steve","no","Andale Mono","no","18","no","white","no","yes","576","legacy","83","83","3","C:/Users/Steve/subject-5105824.csv","legacy","Lentiform Loewenfeld","3.3.7","yes","yes","600bd7cfb6416f0113b04181","602110864497cf011d9c0822","0","f","NA","space","space","space","space","f","616","NA","2398","57645","3191","3370","616","2","legacy","1024","2","48000","-16","task","5105824","even","NA","78822","83225","80826","267364","7930","68771","65579","267868","191238","267362","267869","267269","83225","268486","76813","266769","7927","242357","Lexical Decision Task","81","83329","88","yes","1024"
"3.274543461","7.46","7","scar","word","92.13483146067416","92.13483146067416","943.8539325842696","943.8539325842696","black","no","legacy","legacy","legacy","0","uniform","1","undefined","undefined","undefined","1","j","0","0","0","0","88","0","0","0","88","0","84","88","84","0","84","3","88","0","88","Thu Feb 18 14:36:16 2021","The main experiment item","yes","Lexical_Decision_Task.osexp","C:/Users/Steve","no","Andale Mono","no","18","no","white","no","yes","576","legacy","84","84","3","C:/Users/Steve/subject-5105824.csv","legacy","Lentiform Loewenfeld","3.3.7","yes","yes","600bd7cfb6416f0113b04181","602110864497cf011d9c0822","0","j","NA","space","space","space","space","j","674","NA","2398","57645","3191","3370","674","2","legacy","1024","2","48000","-16","task","5105824","even","NA","78822","83225","80826","269112","7930","68771","65579","269613","191238","269110","269613","269023","83225","270289","76813","268523","7927","242357","Lexical Decision Task","82","84003","89","yes","1024"
"2.664328519","0","4","plux","non-word","92.22222222222223","92.22222222222223","960.4111111111112","960.4111111111112","black","no","legacy","legacy","legacy","0","uniform","1","undefined","undefined","undefined","1","f","0","0","0","0","89","0","0","0","89","0","85","89","85","0","85","3","89","0","89","Thu Feb 18 14:36:16 2021","The main experiment item","yes","Lexical_Decision_Task.osexp","C:/Users/Steve","no","Andale Mono","no","18","no","white","no","yes","576","legacy","85","85","3","C:/Users/Steve/subject-5105824.csv","legacy","Lentiform Loewenfeld","3.3.7","yes","yes","600bd7cfb6416f0113b04181","602110864497cf011d9c0822","0","f","NA","space","space","space","space","f","2434","NA","2398","57645","3191","3370","2434","2","legacy","1024","2","48000","-16","task","5105824","even","NA","78822","83225","80826","270934","7930","68771","65579","271437","191238","270932","271437","270835","83225","273872","76813","270335","7927","242357","Lexical Decision Task","83","86437","90","yes","1024"
"3.043885998","0","9","gome","non-word","92.3076923076923","92.3076923076923","974.3626373626373","974.3626373626373","black","no","legacy","legacy","legacy","0","uniform","1","undefined","undefined","undefined","1","f","0","0","0","0","90","0","0","0","90","0","86","90","86","0","86","3","90","0","90","Thu Feb 18 14:36:16 2021","The main experiment item","yes","Lexical_Decision_Task.osexp","C:/Users/Steve","no","Andale Mono","no","18","no","white","no","yes","576","legacy","86","86","3","C:/Users/Steve/subject-5105824.csv","legacy","Lentiform Loewenfeld","3.3.7","yes","yes","600bd7cfb6416f0113b04181","602110864497cf011d9c0822","0","f","NA","space","space","space","space","f","2230","NA","2398","57645","3191","3370","2230","2","legacy","1024","2","48000","-16","task","5105824","even","NA","78822","83225","80826","274529","7930","68771","65579","275031","191238","274527","275031","274423","83225","277263","76813","273922","7927","242357","Lexical Decision Task","84","88667","91","yes","1024"
"2.819763221","0","2","durp","non-word","92.3913043478261","92.3913043478261","974.0434782608696","974.0434782608696","black","no","legacy","legacy","legacy","0","uniform","1","undefined","undefined","undefined","1","f","0","0","0","0","91","0","0","0","91","0","87","91","87","0","87","3","91","0","91","Thu Feb 18 14:36:16 2021","The main experiment item","yes","Lexical_Decision_Task.osexp","C:/Users/Steve","no","Andale Mono","no","18","no","white","no","yes","576","legacy","87","87","3","C:/Users/Steve/subject-5105824.csv","legacy","Lentiform Loewenfeld","3.3.7","yes","yes","600bd7cfb6416f0113b04181","602110864497cf011d9c0822","0","f","NA","space","space","space","space","f","945","NA","2398","57645","3191","3370","945","2","legacy","1024","2","48000","-16","task","5105824","even","NA","78822","83225","80826","277904","7930","68771","65579","278407","191238","277902","278408","277811","83225","279354","76813","277311","7927","242357","Lexical Decision Task","85","89612","92","yes","1024"
"3.134602053","0","8","jart","non-word","92.47311827956989","92.47311827956989","969.3870967741935","969.3870967741935","black","no","legacy","legacy","legacy","0","uniform","1","undefined","undefined","undefined","1","f","0","0","0","0","92","0","0","0","92","0","88","92","88","0","88","3","92","0","92","Thu Feb 18 14:36:16 2021","The main experiment item","yes","Lexical_Decision_Task.osexp","C:/Users/Steve","no","Andale Mono","no","18","no","white","no","yes","576","legacy","88","88","3","C:/Users/Steve/subject-5105824.csv","legacy","Lentiform Loewenfeld","3.3.7","yes","yes","600bd7cfb6416f0113b04181","602110864497cf011d9c0822","0","f","NA","space","space","space","space","f","541","NA","2398","57645","3191","3370","541","2","legacy","1024","2","48000","-16","task","5105824","even","NA","78822","83225","80826","280000","7930","68771","65579","280503","191238","279998","280503","279904","83225","281046","76813","279403","7927","242357","Lexical Decision Task","86","90153","93","yes","1024"
"2.972819734","0","4","scew","non-word","91.48936170212765","91.48936170212765","968.7978723404256","968.7978723404256","black","no","legacy","legacy","legacy","0","uniform","0","undefined","undefined","undefined","0","f","0","0","0","0","93","0","0","0","93","0","89","93","89","0","89","3","93","0","93","Thu Feb 18 14:36:16 2021","The main experiment item","yes","Lexical_Decision_Task.osexp","C:/Users/Steve","no","Andale Mono","no","18","no","white","no","yes","576","legacy","89","89","3","C:/Users/Steve/subject-5105824.csv","legacy","Lentiform Loewenfeld","3.3.7","yes","yes","600bd7cfb6416f0113b04181","602110864497cf011d9c0822","0","j","NA","space","space","space","space","j","914","NA","2398","57645","3191","3370","914","2","legacy","1024","2","48000","-16","task","5105824","even","NA","78822","83225","80826","281685","7930","68771","65579","282189","191238","281683","282189","281579","83225","283105","76813","281078","7927","242357","Lexical Decision Task","86","91067","94","yes","1024"
"3.366547468","0","6","plat","non-word","91.57894736842105","91.57894736842105","965.6","965.6","black","no","legacy","legacy","legacy","0","uniform","1","undefined","undefined","undefined","1","f","0","0","0","0","94","0","0","0","94","0","90","94","90","0","90","3","94","0","94","Thu Feb 18 14:36:16 2021","The main experiment item","yes","Lexical_Decision_Task.osexp","C:/Users/Steve","no","Andale Mono","no","18","no","white","no","yes","576","legacy","90","90","3","C:/Users/Steve/subject-5105824.csv","legacy","Lentiform Loewenfeld","3.3.7","yes","yes","600bd7cfb6416f0113b04181","602110864497cf011d9c0822","0","f","NA","space","space","space","space","f","665","NA","2398","57645","3191","3370","665","2","legacy","1024","2","48000","-16","task","5105824","even","NA","78822","83225","80826","284719","7930","68771","65579","285222","191238","284717","285222","284622","83225","285888","76813","281078","7927","283122","Lexical Decision Task","87","91732","95","yes","1024"
"2.807758206","6.25","4","hurl","word","91.66666666666667","91.66666666666667","962.0625","962.0625","black","no","legacy","legacy","legacy","0","uniform","1","undefined","undefined","undefined","1","j","0","0","0","0","95","0","0","0","95","0","91","95","91","0","91","3","95","0","95","Thu Feb 18 14:36:16 2021","The main experiment item","yes","Lexical_Decision_Task.osexp","C:/Users/Steve","no","Andale Mono","no","18","no","white","no","yes","576","legacy","91","91","3","C:/Users/Steve/subject-5105824.csv","legacy","Lentiform Loewenfeld","3.3.7","yes","yes","600bd7cfb6416f0113b04181","602110864497cf011d9c0822","0","j","NA","space","space","space","space","j","626","NA","2398","57645","3191","3370","626","2","legacy","1024","2","48000","-16","task","5105824","even","NA","78822","83225","80826","286522","7930","68771","65579","287025","191238","286520","287025","286411","83225","287653","76813","285911","7927","283122","Lexical Decision Task","88","92358","96","yes","1024"
"3.368162872","0","4","ferk","non-word","91.75257731958763","91.75257731958763","958.8041237113403","958.8041237113403","black","no","legacy","legacy","legacy","0","uniform","1","undefined","undefined","undefined","1","f","0","0","0","0","96","0","0","0","96","0","92","96","92","0","92","3","96","0","96","Thu Feb 18 14:36:16 2021","The main experiment item","yes","Lexical_Decision_Task.osexp","C:/Users/Steve","no","Andale Mono","no","18","no","white","no","yes","576","legacy","92","92","3","C:/Users/Steve/subject-5105824.csv","legacy","Lentiform Loewenfeld","3.3.7","yes","yes","600bd7cfb6416f0113b04181","602110864497cf011d9c0822","0","f","NA","space","space","space","space","f","646","NA","2398","57645","3191","3370","646","2","legacy","1024","2","48000","-16","task","5105824","even","NA","78822","83225","80826","288307","7930","68771","65579","288808","191238","288304","288808","288200","83225","289457","76813","287700","7927","283122","Lexical Decision Task","89","93004","97","yes","1024"
"2.898725182","0","7","turl","non-word","91.83673469387755","91.83673469387755","963.4387755102041","963.4387755102041","black","no","legacy","legacy","legacy","0","uniform","1","undefined","undefined","undefined","1","f","0","0","0","0","97","0","0","0","97","0","93","97","93","0","93","3","97","0","97","Thu Feb 18 14:36:16 2021","The main experiment item","yes","Lexical_Decision_Task.osexp","C:/Users/Steve","no","Andale Mono","no","18","no","white","no","yes","576","legacy","93","93","3","C:/Users/Steve/subject-5105824.csv","legacy","Lentiform Loewenfeld","3.3.7","yes","yes","600bd7cfb6416f0113b04181","602110864497cf011d9c0822","0","f","NA","space","space","space","space","f","1413","NA","2398","57645","3191","3370","1413","2","legacy","1024","2","48000","-16","task","5105824","even","NA","78822","83225","80826","290106","7930","68771","65579","290610","191238","290105","290611","290014","83225","292026","76813","289514","7927","283122","Lexical Decision Task","90","94417","98","yes","1024"
"2.793790385","5.67","9","swab","word","90.9090909090909","90.9090909090909","960.5757575757576","960.5757575757576","black","no","legacy","legacy","legacy","0","uniform","0","undefined","undefined","undefined","0","j","0","0","0","0","98","0","0","0","98","0","94","98","94","0","94","3","98","0","98","Thu Feb 18 14:36:16 2021","The main experiment item","yes","Lexical_Decision_Task.osexp","C:/Users/Steve","no","Andale Mono","no","18","no","white","no","yes","576","legacy","94","94","3","C:/Users/Steve/subject-5105824.csv","legacy","Lentiform Loewenfeld","3.3.7","yes","yes","600bd7cfb6416f0113b04181","602110864497cf011d9c0822","0","f","NA","space","space","space","space","f","680","NA","2398","57645","3191","3370","680","2","legacy","1024","2","48000","-16","task","5105824","even","NA","78822","83225","80826","292704","7930","68771","65579","293207","191238","292702","293207","292600","83225","293889","76813","292100","7927","283122","Lexical Decision Task","90","95097","99","yes","1024"
"2.868644438","10.52","4","town","word","91","91","957.92","957.92","black","no","legacy","legacy","legacy","0","uniform","1","undefined","undefined","undefined","1","j","0","0","0","0","99","0","0","0","99","0","95","99","95","0","95","3","99","0","99","Thu Feb 18 14:36:16 2021","The main experiment item","yes","Lexical_Decision_Task.osexp","C:/Users/Steve","no","Andale Mono","no","18","no","white","no","yes","576","legacy","95","95","3","C:/Users/Steve/subject-5105824.csv","legacy","Lentiform Loewenfeld","3.3.7","yes","yes","600bd7cfb6416f0113b04181","602110864497cf011d9c0822","0","j","NA","space","space","space","space","j","695","NA","2398","57645","3191","3370","695","2","legacy","1024","2","48000","-16","task","5105824","even","NA","78822","83225","80826","295531","7930","68771","65579","296035","191238","295529","296035","295434","83225","296731","76813","292100","7927","293933","Lexical Decision Task","91","95792","100","yes","1024"
"3.195807436","0","6","stup","non-word","91.08910891089108","91.08910891089108","956.9009900990098","956.9009900990098","black","no","legacy","legacy","legacy","0","uniform","1","undefined","undefined","undefined","1","f","0","0","0","0","100","0","0","0","100","0","96","100","96","0","96","3","100","0","100","Thu Feb 18 14:36:16 2021","The main experiment item","yes","Lexical_Decision_Task.osexp","C:/Users/Steve","no","Andale Mono","no","18","no","white","no","yes","576","legacy","96","96","3","C:/Users/Steve/subject-5105824.csv","legacy","Lentiform Loewenfeld","3.3.7","yes","yes","600bd7cfb6416f0113b04181","602110864497cf011d9c0822","0","f","NA","space","space","space","space","f","855","NA","2398","57645","3191","3370","855","2","legacy","1024","2","48000","-16","task","5105824","even","NA","78822","83225","80826","297399","7930","68771","65579","297900","191238","297397","297900","297302","83225","298757","76813","296801","7927","293933","Lexical Decision Task","92","96647","101","yes","1024"
"3.531734309","0","6","lerd","non-word","91.17647058823529","91.17647058823529","953.6960784313726","953.6960784313726","black","no","legacy","legacy","legacy","0","uniform","1","undefined","undefined","undefined","1","f","0","0","0","0","101","0","0","0","101","0","97","101","97","0","97","3","101","0","101","Thu Feb 18 14:36:16 2021","The main experiment item","yes","Lexical_Decision_Task.osexp","C:/Users/Steve","no","Andale Mono","no","18","no","white","no","yes","576","legacy","97","97","3","C:/Users/Steve/subject-5105824.csv","legacy","Lentiform Loewenfeld","3.3.7","yes","yes","600bd7cfb6416f0113b04181","602110864497cf011d9c0822","0","f","NA","space","space","space","space","f","630","NA","2398","57645","3191","3370","630","2","legacy","1024","2","48000","-16","task","5105824","even","NA","78822","83225","80826","299402","7930","68771","65579","299907","191238","299399","299907","299301","83225","300539","76813","298801","7927","293933","Lexical Decision Task","93","97277","102","yes","1024"
