"Log_BG","Log_Freq_HAL","Ortho_N","Stimulus","Type","acc","accuracy","average_response_time","avg_rt","background","bidi","canvas_backend","clock_backend","color_backend","compensation","coordinates","correct","correct_Experimental_intro","correct_Introduction","correct_Practice_intro","correct_experimenter_kb","correct_response","count_End_Of_Experiment","count_End_Of_Practice","count_Experimental_Loop","count_Experimental_intro","count_Fixation","count_Introduction","count_Practice_Loop","count_Practice_intro","count_Stimulus","count_block_break_feedback","count_experimental_sequence","count_experimenter_kb","count_increment_trial_count","count_init_trial_count","count_logger","count_practice_sequence","count_right","count_task","count_wrong","datetime","description","disable_garbage_collection","experiment_file","experiment_path","font_bold","font_family","font_italic","font_size","font_underline","foreground","form_clicks","fullscreen","height","keyboard_backend","live_row","live_row_Experimental_Loop","live_row_Practice_Loop","logfile","mouse_backend","opensesame_codename","opensesame_version","osf_always_upload_data","osf_always_upload_experiment","osf_datanode_id","osf_id","repeat_cycle","response","response_End_Of_Experiment","response_Experimental_intro","response_Introduction","response_Practice_intro","response_block_break_feedback","response_experimenter_kb","response_time","response_time_End_Of_Experiment","response_time_Experimental_intro","response_time_Introduction","response_time_Practice_intro","response_time_block_break_feedback","response_time_experimenter_kb","round_decimals","sampler_backend","sound_buf_size","sound_channels","sound_freq","sound_sample_size","start","subject_nr","subject_parity","time_End_Of_Experiment","time_End_Of_Practice","time_Experimental_Loop","time_Experimental_intro","time_Fixation","time_Introduction","time_Practice_Loop","time_Practice_intro","time_Stimulus","time_block_break_feedback","time_experimental_sequence","time_experimenter_kb","time_increment_trial_count","time_init_trial_count","time_logger","time_practice_sequence","time_right","time_task","time_wrong","title","total_correct","total_response_time","total_responses","uniform_coordinates","width"
"2.983324025","9.56","2","debt","word","80","80","1118.4","1118.4","black","no","legacy","legacy","legacy","0","uniform","1","undefined","undefined","undefined","1","j","0","0","0","0","4","0","0","0","4","NA","0","4","0","0","0","3","4","0","4","Tue Feb 16 14:11:09 2021","The main experiment item","yes","Lexical_Decision_Task.osexp","C:/Users/dyerm/Documents/Everything/Psych uni/Year 2 CaL","no","Andale Mono","no","18","no","white","no","yes","576","legacy","0","0","3","C:/Users/dyerm/Documents/Everything/Psych uni/Year 2 CaL/subject-5210564.csv","legacy","Lentiform Loewenfeld","3.3.7","yes","yes","600bd7cfb6416f0113b04181","602110864497cf011d9c0822","0","j","NA","space","j","j","NA","j","910","NA","2520","9242","5759","NA","910","2","legacy","1024","2","48000","-16","task","5210564","even","NA","28638","33161","30640","33218","3503","18510","12751","33720","NA","33216","33720","NA","33161","34630","26754","28104","3499","21115","Lexical Decision Task","4","5592","5","yes","1024"
"2.893578687","8.69","3","surf","word","83.33333333333333","83.33333333333333","1050.6666666666667","1050.6666666666667","black","no","legacy","legacy","legacy","0","uniform","1","undefined","undefined","undefined","1","j","0","0","0","0","5","0","0","0","5","NA","1","5","1","0","1","3","5","0","5","Tue Feb 16 14:11:09 2021","The main experiment item","yes","Lexical_Decision_Task.osexp","C:/Users/dyerm/Documents/Everything/Psych uni/Year 2 CaL","no","Andale Mono","no","18","no","white","no","yes","576","legacy","1","1","3","C:/Users/dyerm/Documents/Everything/Psych uni/Year 2 CaL/subject-5210564.csv","legacy","Lentiform Loewenfeld","3.3.7","yes","yes","600bd7cfb6416f0113b04181","602110864497cf011d9c0822","0","j","NA","space","j","j","NA","j","712","NA","2520","9242","5759","NA","712","2","legacy","1024","2","48000","-16","task","5210564","even","NA","28638","33161","30640","35243","3503","18510","12751","35744","NA","35240","35744","35152","33161","36456","26754","34652","3499","21115","Lexical Decision Task","5","6304","6","yes","1024"
"2.714888338","0","3","brug","non-word","85.71428571428571","85.71428571428571","1017","1017","black","no","legacy","legacy","legacy","0","uniform","1","undefined","undefined","undefined","1","f","0","0","0","0","6","0","0","0","6","NA","2","6","2","0","2","3","6","0","6","Tue Feb 16 14:11:09 2021","The main experiment item","yes","Lexical_Decision_Task.osexp","C:/Users/dyerm/Documents/Everything/Psych uni/Year 2 CaL","no","Andale Mono","no","18","no","white","no","yes","576","legacy","2","2","3","C:/Users/dyerm/Documents/Everything/Psych uni/Year 2 CaL/subject-5210564.csv","legacy","Lentiform Loewenfeld","3.3.7","yes","yes","600bd7cfb6416f0113b04181","602110864497cf011d9c0822","0","f","NA","space","j","j","NA","f","815","NA","2520","9242","5759","NA","815","2","legacy","1024","2","48000","-16","task","5210564","even","NA","28638","33161","30640","37056","3503","18510","12751","37558","NA","37054","37558","36963","33161","38374","26754","36463","3499","21115","Lexical Decision Task","6","7119","7","yes","1024"
"3.20996159","0","4","clee","non-word","87.5","87.5","988.375","988.375","black","no","legacy","legacy","legacy","0","uniform","1","undefined","undefined","undefined","1","f","0","0","0","0","7","0","0","0","7","NA","3","7","3","0","3","3","7","0","7","Tue Feb 16 14:11:09 2021","The main experiment item","yes","Lexical_Decision_Task.osexp","C:/Users/dyerm/Documents/Everything/Psych uni/Year 2 CaL","no","Andale Mono","no","18","no","white","no","yes","576","legacy","3","3","3","C:/Users/dyerm/Documents/Everything/Psych uni/Year 2 CaL/subject-5210564.csv","legacy","Lentiform Loewenfeld","3.3.7","yes","yes","600bd7cfb6416f0113b04181","602110864497cf011d9c0822","0","f","NA","space","j","j","NA","f","788","NA","2520","9242","5759","NA","788","2","legacy","1024","2","48000","-16","task","5210564","even","NA","28638","33161","30640","38968","3503","18510","12751","39470","NA","38966","39470","38879","33161","40259","26754","38379","3499","21115","Lexical Decision Task","7","7907","8","yes","1024"
"3.159867847","5.98","5","brim","word","77.77777777777777","77.77777777777777","994.3333333333334","994.3333333333334","black","no","legacy","legacy","legacy","0","uniform","0","undefined","undefined","undefined","0","j","0","0","0","0","8","0","0","0","8","NA","4","8","4","0","4","3","8","0","8","Tue Feb 16 14:11:09 2021","The main experiment item","yes","Lexical_Decision_Task.osexp","C:/Users/dyerm/Documents/Everything/Psych uni/Year 2 CaL","no","Andale Mono","no","18","no","white","no","yes","576","legacy","4","4","3","C:/Users/dyerm/Documents/Everything/Psych uni/Year 2 CaL/subject-5210564.csv","legacy","Lentiform Loewenfeld","3.3.7","yes","yes","600bd7cfb6416f0113b04181","602110864497cf011d9c0822","0","f","NA","space","j","j","NA","f","1042","NA","2520","9242","5759","NA","1042","2","legacy","1024","2","48000","-16","task","5210564","even","NA","28638","33161","30640","40843","3503","18510","12751","41344","NA","40841","41344","40765","33161","42387","26754","40265","3499","21115","Lexical Decision Task","7","8949","9","yes","1024"
"3.261341392","5.08","8","reek","word","80","80","1039.8","1039.8","black","no","legacy","legacy","legacy","0","uniform","1","undefined","undefined","undefined","1","j","0","0","0","0","9","0","0","0","9","NA","5","9","5","0","5","3","9","0","9","Tue Feb 16 14:11:09 2021","The main experiment item","yes","Lexical_Decision_Task.osexp","C:/Users/dyerm/Documents/Everything/Psych uni/Year 2 CaL","no","Andale Mono","no","18","no","white","no","yes","576","legacy","5","5","3","C:/Users/dyerm/Documents/Everything/Psych uni/Year 2 CaL/subject-5210564.csv","legacy","Lentiform Loewenfeld","3.3.7","yes","yes","600bd7cfb6416f0113b04181","602110864497cf011d9c0822","0","j","NA","space","j","j","NA","j","1449","NA","2520","9242","5759","NA","1449","2","legacy","1024","2","48000","-16","task","5210564","even","NA","28638","33161","30640","43972","3503","18510","12751","44473","NA","43970","44474","43894","33161","45923","26754","40265","3499","42394","Lexical Decision Task","8","10398","10","yes","1024"
"2.767650507","0","6","yolt","non-word","81.81818181818181","81.81818181818181","1036.6363636363637","1036.6363636363637","black","no","legacy","legacy","legacy","0","uniform","1","undefined","undefined","undefined","1","f","0","0","0","0","10","0","0","0","10","NA","6","10","6","0","6","3","10","0","10","Tue Feb 16 14:11:09 2021","The main experiment item","yes","Lexical_Decision_Task.osexp","C:/Users/dyerm/Documents/Everything/Psych uni/Year 2 CaL","no","Andale Mono","no","18","no","white","no","yes","576","legacy","6","6","3","C:/Users/dyerm/Documents/Everything/Psych uni/Year 2 CaL/subject-5210564.csv","legacy","Lentiform Loewenfeld","3.3.7","yes","yes","600bd7cfb6416f0113b04181","602110864497cf011d9c0822","0","f","NA","space","j","j","NA","f","1005","NA","2520","9242","5759","NA","1005","2","legacy","1024","2","48000","-16","task","5210564","even","NA","28638","33161","30640","46518","3503","18510","12751","47020","NA","46516","47021","46429","33161","48027","26754","45929","3499","42394","Lexical Decision Task","9","11403","11","yes","1024"
"2.980911938","7.15","7","hoop","word","83.33333333333333","83.33333333333333","1019","1019","black","no","legacy","legacy","legacy","0","uniform","1","undefined","undefined","undefined","1","j","0","0","0","0","11","0","0","0","11","NA","7","11","7","0","7","3","11","0","11","Tue Feb 16 14:11:09 2021","The main experiment item","yes","Lexical_Decision_Task.osexp","C:/Users/dyerm/Documents/Everything/Psych uni/Year 2 CaL","no","Andale Mono","no","18","no","white","no","yes","576","legacy","7","7","3","C:/Users/dyerm/Documents/Everything/Psych uni/Year 2 CaL/subject-5210564.csv","legacy","Lentiform Loewenfeld","3.3.7","yes","yes","600bd7cfb6416f0113b04181","602110864497cf011d9c0822","0","j","NA","space","j","j","NA","j","825","NA","2520","9242","5759","NA","825","2","legacy","1024","2","48000","-16","task","5210564","even","NA","28638","33161","30640","48622","3503","18510","12751","49123","NA","48620","49123","48535","33161","49948","26754","48035","3499","42394","Lexical Decision Task","10","12228","12","yes","1024"
"3.010582609","0","2","drod","non-word","84.61538461538461","84.61538461538461","1015.3076923076923","1015.3076923076923","black","no","legacy","legacy","legacy","0","uniform","1","undefined","undefined","undefined","1","f","0","0","0","0","12","0","0","0","12","NA","8","12","8","0","8","3","12","0","12","Tue Feb 16 14:11:09 2021","The main experiment item","yes","Lexical_Decision_Task.osexp","C:/Users/dyerm/Documents/Everything/Psych uni/Year 2 CaL","no","Andale Mono","no","18","no","white","no","yes","576","legacy","8","8","3","C:/Users/dyerm/Documents/Everything/Psych uni/Year 2 CaL/subject-5210564.csv","legacy","Lentiform Loewenfeld","3.3.7","yes","yes","600bd7cfb6416f0113b04181","602110864497cf011d9c0822","0","f","NA","space","j","j","NA","f","971","NA","2520","9242","5759","NA","971","2","legacy","1024","2","48000","-16","task","5210564","even","NA","28638","33161","30640","50540","3503","18510","12751","51041","NA","50538","51041","50462","33161","52013","26754","49962","3499","42394","Lexical Decision Task","11","13199","13","yes","1024"
"3.168890155","0","6","thet","non-word","85.71428571428571","85.71428571428571","1007.9285714285714","1007.9285714285714","black","no","legacy","legacy","legacy","0","uniform","1","undefined","undefined","undefined","1","f","0","0","0","0","13","0","0","0","13","NA","9","13","9","0","9","3","13","0","13","Tue Feb 16 14:11:09 2021","The main experiment item","yes","Lexical_Decision_Task.osexp","C:/Users/dyerm/Documents/Everything/Psych uni/Year 2 CaL","no","Andale Mono","no","18","no","white","no","yes","576","legacy","9","9","3","C:/Users/dyerm/Documents/Everything/Psych uni/Year 2 CaL/subject-5210564.csv","legacy","Lentiform Loewenfeld","3.3.7","yes","yes","600bd7cfb6416f0113b04181","602110864497cf011d9c0822","0","f","NA","space","j","j","NA","f","912","NA","2520","9242","5759","NA","912","2","legacy","1024","2","48000","-16","task","5210564","even","NA","28638","33161","30640","52594","3503","18510","12751","53096","NA","52592","53097","52518","33161","54010","26754","52018","3499","42394","Lexical Decision Task","12","14111","14","yes","1024"
"2.814027728","8.2","4","foam","word","86.66666666666667","86.66666666666667","990.2666666666667","990.2666666666667","black","no","legacy","legacy","legacy","0","uniform","1","undefined","undefined","undefined","1","j","0","0","0","0","14","0","0","0","14","NA","10","14","10","0","10","3","14","0","14","Tue Feb 16 14:11:09 2021","The main experiment item","yes","Lexical_Decision_Task.osexp","C:/Users/dyerm/Documents/Everything/Psych uni/Year 2 CaL","no","Andale Mono","no","18","no","white","no","yes","576","legacy","10","10","3","C:/Users/dyerm/Documents/Everything/Psych uni/Year 2 CaL/subject-5210564.csv","legacy","Lentiform Loewenfeld","3.3.7","yes","yes","600bd7cfb6416f0113b04181","602110864497cf011d9c0822","0","j","NA","space","j","j","NA","j","743","NA","2520","9242","5759","NA","743","2","legacy","1024","2","48000","-16","task","5210564","even","NA","28638","33161","30640","54593","3503","18510","12751","55094","NA","54590","55094","54516","33161","55838","26754","54016","3499","42394","Lexical Decision Task","13","14854","15","yes","1024"
"2.821076612","0","4","lult","non-word","87.5","87.5","1053.75","1053.75","black","no","legacy","legacy","legacy","0","uniform","1","undefined","undefined","undefined","1","f","0","0","0","0","15","0","0","0","15","NA","11","15","11","0","11","3","15","0","15","Tue Feb 16 14:11:09 2021","The main experiment item","yes","Lexical_Decision_Task.osexp","C:/Users/dyerm/Documents/Everything/Psych uni/Year 2 CaL","no","Andale Mono","no","18","no","white","no","yes","576","legacy","11","11","3","C:/Users/dyerm/Documents/Everything/Psych uni/Year 2 CaL/subject-5210564.csv","legacy","Lentiform Loewenfeld","3.3.7","yes","yes","600bd7cfb6416f0113b04181","602110864497cf011d9c0822","0","f","NA","space","j","j","NA","f","2006","NA","2520","9242","5759","NA","2006","2","legacy","1024","2","48000","-16","task","5210564","even","NA","28638","33161","30640","56432","3503","18510","12751","56934","NA","56429","56934","56353","33161","58941","26754","55853","3499","42394","Lexical Decision Task","14","16860","16","yes","1024"
"2.6599162","0","6","flug","non-word","88.23529411764706","88.23529411764706","1049.8823529411766","1049.8823529411766","black","no","legacy","legacy","legacy","0","uniform","1","undefined","undefined","undefined","1","f","0","0","0","0","16","0","0","0","16","NA","12","16","12","0","12","3","16","0","16","Tue Feb 16 14:11:09 2021","The main experiment item","yes","Lexical_Decision_Task.osexp","C:/Users/dyerm/Documents/Everything/Psych uni/Year 2 CaL","no","Andale Mono","no","18","no","white","no","yes","576","legacy","12","12","3","C:/Users/dyerm/Documents/Everything/Psych uni/Year 2 CaL/subject-5210564.csv","legacy","Lentiform Loewenfeld","3.3.7","yes","yes","600bd7cfb6416f0113b04181","602110864497cf011d9c0822","0","f","NA","space","j","j","NA","f","988","NA","2520","9242","5759","NA","988","2","legacy","1024","2","48000","-16","task","5210564","even","NA","28638","33161","30640","59523","3503","18510","12751","60024","NA","59521","60025","59447","33161","61014","26754","58947","3499","42394","Lexical Decision Task","15","17848","17","yes","1024"
"3.149629599","0","2","cleb","non-word","88.88888888888889","88.88888888888889","1036.3333333333333","1036.3333333333333","black","no","legacy","legacy","legacy","0","uniform","1","undefined","undefined","undefined","1","f","0","0","0","0","17","0","0","0","17","NA","13","17","13","0","13","3","17","0","17","Tue Feb 16 14:11:09 2021","The main experiment item","yes","Lexical_Decision_Task.osexp","C:/Users/dyerm/Documents/Everything/Psych uni/Year 2 CaL","no","Andale Mono","no","18","no","white","no","yes","576","legacy","13","13","3","C:/Users/dyerm/Documents/Everything/Psych uni/Year 2 CaL/subject-5210564.csv","legacy","Lentiform Loewenfeld","3.3.7","yes","yes","600bd7cfb6416f0113b04181","602110864497cf011d9c0822","0","f","NA","space","j","j","NA","f","806","NA","2520","9242","5759","NA","806","2","legacy","1024","2","48000","-16","task","5210564","even","NA","28638","33161","30640","61596","3503","18510","12751","62097","NA","61593","62098","61520","33161","62905","26754","61020","3499","42394","Lexical Decision Task","16","18654","18","yes","1024"
"3.347850856","10.51","2","rich","word","89.47368421052632","89.47368421052632","1038.578947368421","1038.578947368421","black","no","legacy","legacy","legacy","0","uniform","1","undefined","undefined","undefined","1","j","0","0","0","0","18","0","0","0","18","NA","14","18","14","0","14","3","18","0","18","Tue Feb 16 14:11:09 2021","The main experiment item","yes","Lexical_Decision_Task.osexp","C:/Users/dyerm/Documents/Everything/Psych uni/Year 2 CaL","no","Andale Mono","no","18","no","white","no","yes","576","legacy","14","14","3","C:/Users/dyerm/Documents/Everything/Psych uni/Year 2 CaL/subject-5210564.csv","legacy","Lentiform Loewenfeld","3.3.7","yes","yes","600bd7cfb6416f0113b04181","602110864497cf011d9c0822","0","j","NA","space","j","j","NA","j","1079","NA","2520","9242","5759","NA","1079","2","legacy","1024","2","48000","-16","task","5210564","even","NA","28638","33161","30640","63488","3503","18510","12751","63989","NA","63486","63989","63411","33161","65069","26754","62911","3499","42394","Lexical Decision Task","17","19733","19","yes","1024"
"2.696356389","0","1","pizz","non-word","90","90","1028.2","1028.2","black","no","legacy","legacy","legacy","0","uniform","1","undefined","undefined","undefined","1","f","0","0","0","0","19","0","0","0","19","NA","15","19","15","0","15","3","19","0","19","Tue Feb 16 14:11:09 2021","The main experiment item","yes","Lexical_Decision_Task.osexp","C:/Users/dyerm/Documents/Everything/Psych uni/Year 2 CaL","no","Andale Mono","no","18","no","white","no","yes","576","legacy","15","15","3","C:/Users/dyerm/Documents/Everything/Psych uni/Year 2 CaL/subject-5210564.csv","legacy","Lentiform Loewenfeld","3.3.7","yes","yes","600bd7cfb6416f0113b04181","602110864497cf011d9c0822","0","f","NA","space","j","j","NA","f","831","NA","2520","9242","5759","NA","831","2","legacy","1024","2","48000","-16","task","5210564","even","NA","28638","33161","30640","65666","3503","18510","12751","66167","NA","65663","66168","65585","33161","67000","26754","65085","3499","42394","Lexical Decision Task","18","20564","20","yes","1024"
"2.920123326","7.43","4","duel","word","90.47619047619048","90.47619047619048","1028.5714285714287","1028.5714285714287","black","no","legacy","legacy","legacy","0","uniform","1","undefined","undefined","undefined","1","j","0","0","0","0","20","0","0","0","20","NA","16","20","16","0","16","3","20","0","20","Tue Feb 16 14:11:09 2021","The main experiment item","yes","Lexical_Decision_Task.osexp","C:/Users/dyerm/Documents/Everything/Psych uni/Year 2 CaL","no","Andale Mono","no","18","no","white","no","yes","576","legacy","16","16","3","C:/Users/dyerm/Documents/Everything/Psych uni/Year 2 CaL/subject-5210564.csv","legacy","Lentiform Loewenfeld","3.3.7","yes","yes","600bd7cfb6416f0113b04181","602110864497cf011d9c0822","0","j","NA","space","j","j","NA","j","1036","NA","2520","9242","5759","NA","1036","2","legacy","1024","2","48000","-16","task","5210564","even","NA","28638","33161","30640","67585","3503","18510","12751","68086","NA","67583","68086","67507","33161","69123","26754","67007","3499","42394","Lexical Decision Task","19","21600","21","yes","1024"
"3.316948329","0","1","besc","non-word","90.9090909090909","90.9090909090909","1022.3636363636364","1022.3636363636364","black","no","legacy","legacy","legacy","0","uniform","1","undefined","undefined","undefined","1","f","0","0","0","0","21","0","0","0","21","NA","17","21","17","0","17","3","21","0","21","Tue Feb 16 14:11:09 2021","The main experiment item","yes","Lexical_Decision_Task.osexp","C:/Users/dyerm/Documents/Everything/Psych uni/Year 2 CaL","no","Andale Mono","no","18","no","white","no","yes","576","legacy","17","17","3","C:/Users/dyerm/Documents/Everything/Psych uni/Year 2 CaL/subject-5210564.csv","legacy","Lentiform Loewenfeld","3.3.7","yes","yes","600bd7cfb6416f0113b04181","602110864497cf011d9c0822","0","f","NA","space","j","j","NA","f","892","NA","2520","9242","5759","NA","892","2","legacy","1024","2","48000","-16","task","5210564","even","NA","28638","33161","30640","69717","3503","18510","12751","70218","NA","69715","70218","69641","33161","71111","26754","69140","3499","42394","Lexical Decision Task","20","22492","22","yes","1024"
"2.953276337","6.32","4","thaw","word","91.30434782608695","91.30434782608695","1016.6086956521739","1016.6086956521739","black","no","legacy","legacy","legacy","0","uniform","1","undefined","undefined","undefined","1","j","0","0","0","0","22","0","0","0","22","NA","18","22","18","0","18","3","22","0","22","Tue Feb 16 14:11:09 2021","The main experiment item","yes","Lexical_Decision_Task.osexp","C:/Users/dyerm/Documents/Everything/Psych uni/Year 2 CaL","no","Andale Mono","no","18","no","white","no","yes","576","legacy","18","18","3","C:/Users/dyerm/Documents/Everything/Psych uni/Year 2 CaL/subject-5210564.csv","legacy","Lentiform Loewenfeld","3.3.7","yes","yes","600bd7cfb6416f0113b04181","602110864497cf011d9c0822","0","j","NA","space","j","j","NA","j","890","NA","2520","9242","5759","NA","890","2","legacy","1024","2","48000","-16","task","5210564","even","NA","28638","33161","30640","71695","3503","18510","12751","72196","NA","71693","72197","71618","33161","73088","26754","71118","3499","42394","Lexical Decision Task","21","23382","23","yes","1024"
"3.397302518","7.01","2","knit","word","91.66666666666667","91.66666666666667","1007.5833333333334","1007.5833333333334","black","no","legacy","legacy","legacy","0","uniform","1","undefined","undefined","undefined","1","j","0","0","0","0","23","0","0","0","23","NA","19","23","19","0","19","3","23","0","23","Tue Feb 16 14:11:09 2021","The main experiment item","yes","Lexical_Decision_Task.osexp","C:/Users/dyerm/Documents/Everything/Psych uni/Year 2 CaL","no","Andale Mono","no","18","no","white","no","yes","576","legacy","19","19","3","C:/Users/dyerm/Documents/Everything/Psych uni/Year 2 CaL/subject-5210564.csv","legacy","Lentiform Loewenfeld","3.3.7","yes","yes","600bd7cfb6416f0113b04181","602110864497cf011d9c0822","0","j","NA","space","j","j","NA","j","800","NA","2520","9242","5759","NA","800","2","legacy","1024","2","48000","-16","task","5210564","even","NA","28638","33161","30640","73673","3503","18510","12751","74175","NA","73670","74175","73594","33161","74976","26754","73094","3499","42394","Lexical Decision Task","22","24182","24","yes","1024"
"2.979548375","8.71","4","soup","word","92","92","994.08","994.08","black","no","legacy","legacy","legacy","0","uniform","1","undefined","undefined","undefined","1","j","0","0","0","0","24","0","0","0","24","NA","20","24","20","0","20","3","24","0","24","Tue Feb 16 14:11:09 2021","The main experiment item","yes","Lexical_Decision_Task.osexp","C:/Users/dyerm/Documents/Everything/Psych uni/Year 2 CaL","no","Andale Mono","no","18","no","white","no","yes","576","legacy","20","20","3","C:/Users/dyerm/Documents/Everything/Psych uni/Year 2 CaL/subject-5210564.csv","legacy","Lentiform Loewenfeld","3.3.7","yes","yes","600bd7cfb6416f0113b04181","602110864497cf011d9c0822","0","j","NA","space","j","j","NA","j","670","NA","2520","9242","5759","NA","670","2","legacy","1024","2","48000","-16","task","5210564","even","NA","28638","33161","30640","75569","3503","18510","12751","76070","NA","75566","76070","75494","33161","76741","26754","74993","3499","42394","Lexical Decision Task","23","24852","25","yes","1024"
"3.15462682","0","6","noal","non-word","92.3076923076923","92.3076923076923","999","999","black","no","legacy","legacy","legacy","0","uniform","1","undefined","undefined","undefined","1","f","0","0","0","0","25","0","0","0","25","NA","21","25","21","0","21","3","25","0","25","Tue Feb 16 14:11:09 2021","The main experiment item","yes","Lexical_Decision_Task.osexp","C:/Users/dyerm/Documents/Everything/Psych uni/Year 2 CaL","no","Andale Mono","no","18","no","white","no","yes","576","legacy","21","21","3","C:/Users/dyerm/Documents/Everything/Psych uni/Year 2 CaL/subject-5210564.csv","legacy","Lentiform Loewenfeld","3.3.7","yes","yes","600bd7cfb6416f0113b04181","602110864497cf011d9c0822","0","f","NA","space","j","j","NA","f","1122","NA","2520","9242","5759","NA","1122","2","legacy","1024","2","48000","-16","task","5210564","even","NA","28638","33161","30640","77322","3503","18510","12751","77824","NA","77320","77824","77246","33161","78947","26754","76746","3499","42394","Lexical Decision Task","24","25974","26","yes","1024"
"3.14849993","10.75","7","hour","word","92.5925925925926","92.5925925925926","989.9629629629629","989.9629629629629","black","no","legacy","legacy","legacy","0","uniform","1","undefined","undefined","undefined","1","j","0","0","0","0","26","0","0","0","26","NA","22","26","22","0","22","3","26","0","26","Tue Feb 16 14:11:09 2021","The main experiment item","yes","Lexical_Decision_Task.osexp","C:/Users/dyerm/Documents/Everything/Psych uni/Year 2 CaL","no","Andale Mono","no","18","no","white","no","yes","576","legacy","22","22","3","C:/Users/dyerm/Documents/Everything/Psych uni/Year 2 CaL/subject-5210564.csv","legacy","Lentiform Loewenfeld","3.3.7","yes","yes","600bd7cfb6416f0113b04181","602110864497cf011d9c0822","0","j","NA","space","j","j","NA","j","755","NA","2520","9242","5759","NA","755","2","legacy","1024","2","48000","-16","task","5210564","even","NA","28638","33161","30640","79530","3503","18510","12751","80031","NA","79528","80031","79453","33161","80787","26754","78953","3499","42394","Lexical Decision Task","25","26729","27","yes","1024"
"3.134602053","0","8","jart","non-word","92.85714285714286","92.85714285714286","984.8214285714286","984.8214285714286","black","no","legacy","legacy","legacy","0","uniform","1","undefined","undefined","undefined","1","f","0","0","0","0","27","0","0","0","27","NA","23","27","23","0","23","3","27","0","27","Tue Feb 16 14:11:09 2021","The main experiment item","yes","Lexical_Decision_Task.osexp","C:/Users/dyerm/Documents/Everything/Psych uni/Year 2 CaL","no","Andale Mono","no","18","no","white","no","yes","576","legacy","23","23","3","C:/Users/dyerm/Documents/Everything/Psych uni/Year 2 CaL/subject-5210564.csv","legacy","Lentiform Loewenfeld","3.3.7","yes","yes","600bd7cfb6416f0113b04181","602110864497cf011d9c0822","0","f","NA","space","j","j","NA","f","846","NA","2520","9242","5759","NA","846","2","legacy","1024","2","48000","-16","task","5210564","even","NA","28638","33161","30640","81371","3503","18510","12751","81872","NA","81369","81872","81293","33161","82719","26754","80792","3499","42394","Lexical Decision Task","26","27575","28","yes","1024"
"3.076883066","0","8","mout","non-word","93.10344827586206","93.10344827586206","985.6206896551724","985.6206896551724","black","no","legacy","legacy","legacy","0","uniform","1","undefined","undefined","undefined","1","f","0","0","0","0","28","0","0","0","28","NA","24","28","24","0","24","3","28","0","28","Tue Feb 16 14:11:09 2021","The main experiment item","yes","Lexical_Decision_Task.osexp","C:/Users/dyerm/Documents/Everything/Psych uni/Year 2 CaL","no","Andale Mono","no","18","no","white","no","yes","576","legacy","24","24","3","C:/Users/dyerm/Documents/Everything/Psych uni/Year 2 CaL/subject-5210564.csv","legacy","Lentiform Loewenfeld","3.3.7","yes","yes","600bd7cfb6416f0113b04181","602110864497cf011d9c0822","0","f","NA","space","j","j","NA","f","1008","NA","2520","9242","5759","NA","1008","2","legacy","1024","2","48000","-16","task","5210564","even","NA","28638","33161","30640","83308","3503","18510","12751","83810","NA","83306","83811","83226","33161","84820","26754","82726","3499","42394","Lexical Decision Task","27","28583","29","yes","1024"
"3.274543461","7.46","7","scar","word","93.33333333333333","93.33333333333333","981.8333333333334","981.8333333333334","black","no","legacy","legacy","legacy","0","uniform","1","undefined","undefined","undefined","1","j","0","0","0","0","29","0","0","0","29","NA","25","29","25","0","25","3","29","0","29","Tue Feb 16 14:11:09 2021","The main experiment item","yes","Lexical_Decision_Task.osexp","C:/Users/dyerm/Documents/Everything/Psych uni/Year 2 CaL","no","Andale Mono","no","18","no","white","no","yes","576","legacy","25","25","3","C:/Users/dyerm/Documents/Everything/Psych uni/Year 2 CaL/subject-5210564.csv","legacy","Lentiform Loewenfeld","3.3.7","yes","yes","600bd7cfb6416f0113b04181","602110864497cf011d9c0822","0","j","NA","space","j","j","NA","j","872","NA","2520","9242","5759","NA","872","2","legacy","1024","2","48000","-16","task","5210564","even","NA","28638","33161","30640","85411","3503","18510","12751","85913","NA","85409","85913","85333","33161","86786","26754","84833","3499","42394","Lexical Decision Task","28","29455","30","yes","1024"
"3.145920145","8.51","8","flew","word","93.54838709677419","93.54838709677419","975.1290322580645","975.1290322580645","black","no","legacy","legacy","legacy","0","uniform","1","undefined","undefined","undefined","1","j","0","0","0","0","30","0","0","0","30","NA","26","30","26","0","26","3","30","0","30","Tue Feb 16 14:11:09 2021","The main experiment item","yes","Lexical_Decision_Task.osexp","C:/Users/dyerm/Documents/Everything/Psych uni/Year 2 CaL","no","Andale Mono","no","18","no","white","no","yes","576","legacy","26","26","3","C:/Users/dyerm/Documents/Everything/Psych uni/Year 2 CaL/subject-5210564.csv","legacy","Lentiform Loewenfeld","3.3.7","yes","yes","600bd7cfb6416f0113b04181","602110864497cf011d9c0822","0","j","NA","space","j","j","NA","j","774","NA","2520","9242","5759","NA","774","2","legacy","1024","2","48000","-16","task","5210564","even","NA","28638","33161","30640","87369","3503","18510","12751","87870","NA","87367","87870","87292","33161","88645","26754","86792","3499","42394","Lexical Decision Task","29","30229","31","yes","1024"
"3.090140555","5.81","8","pout","word","93.75","93.75","966.46875","966.46875","black","no","legacy","legacy","legacy","0","uniform","1","undefined","undefined","undefined","1","j","0","0","0","0","31","0","0","0","31","NA","27","31","27","0","27","3","31","0","31","Tue Feb 16 14:11:09 2021","The main experiment item","yes","Lexical_Decision_Task.osexp","C:/Users/dyerm/Documents/Everything/Psych uni/Year 2 CaL","no","Andale Mono","no","18","no","white","no","yes","576","legacy","27","27","3","C:/Users/dyerm/Documents/Everything/Psych uni/Year 2 CaL/subject-5210564.csv","legacy","Lentiform Loewenfeld","3.3.7","yes","yes","600bd7cfb6416f0113b04181","602110864497cf011d9c0822","0","j","NA","space","j","j","NA","j","698","NA","2520","9242","5759","NA","698","2","legacy","1024","2","48000","-16","task","5210564","even","NA","28638","33161","30640","89229","3503","18510","12751","89730","NA","89227","89730","89152","33161","90429","26754","88651","3499","42394","Lexical Decision Task","30","30927","32","yes","1024"
"2.819763221","0","2","durp","non-word","93.93939393939394","93.93939393939394","962.939393939394","962.939393939394","black","no","legacy","legacy","legacy","0","uniform","1","undefined","undefined","undefined","1","f","0","0","0","0","32","0","0","0","32","NA","28","32","28","0","28","3","32","0","32","Tue Feb 16 14:11:09 2021","The main experiment item","yes","Lexical_Decision_Task.osexp","C:/Users/dyerm/Documents/Everything/Psych uni/Year 2 CaL","no","Andale Mono","no","18","no","white","no","yes","576","legacy","28","28","3","C:/Users/dyerm/Documents/Everything/Psych uni/Year 2 CaL/subject-5210564.csv","legacy","Lentiform Loewenfeld","3.3.7","yes","yes","600bd7cfb6416f0113b04181","602110864497cf011d9c0822","0","f","NA","space","j","j","NA","f","850","NA","2520","9242","5759","NA","850","2","legacy","1024","2","48000","-16","task","5210564","even","NA","28638","33161","30640","91019","3503","18510","12751","91521","NA","91017","91521","90942","33161","92372","26754","90442","3499","42394","Lexical Decision Task","31","31777","33","yes","1024"
"3.120025233","0","2","nyst","non-word","94.11764705882354","94.11764705882354","965.2941176470588","965.2941176470588","black","no","legacy","legacy","legacy","0","uniform","1","undefined","undefined","undefined","1","f","0","0","0","0","33","0","0","0","33","NA","29","33","29","0","29","3","33","0","33","Tue Feb 16 14:11:09 2021","The main experiment item","yes","Lexical_Decision_Task.osexp","C:/Users/dyerm/Documents/Everything/Psych uni/Year 2 CaL","no","Andale Mono","no","18","no","white","no","yes","576","legacy","29","29","3","C:/Users/dyerm/Documents/Everything/Psych uni/Year 2 CaL/subject-5210564.csv","legacy","Lentiform Loewenfeld","3.3.7","yes","yes","600bd7cfb6416f0113b04181","602110864497cf011d9c0822","0","f","NA","space","j","j","NA","f","1043","NA","2520","9242","5759","NA","1043","2","legacy","1024","2","48000","-16","task","5210564","even","NA","28638","33161","30640","92955","3503","18510","12751","93456","NA","92953","93456","92877","33161","94501","26754","92377","3499","42394","Lexical Decision Task","32","32820","34","yes","1024"
"3.003891166","8.05","2","frog","word","94.28571428571429","94.28571428571429","966.2857142857143","966.2857142857143","black","no","legacy","legacy","legacy","0","uniform","1","undefined","undefined","undefined","1","j","0","0","0","0","34","0","0","0","34","NA","30","34","30","0","30","3","34","0","34","Tue Feb 16 14:11:09 2021","The main experiment item","yes","Lexical_Decision_Task.osexp","C:/Users/dyerm/Documents/Everything/Psych uni/Year 2 CaL","no","Andale Mono","no","18","no","white","no","yes","576","legacy","30","30","3","C:/Users/dyerm/Documents/Everything/Psych uni/Year 2 CaL/subject-5210564.csv","legacy","Lentiform Loewenfeld","3.3.7","yes","yes","600bd7cfb6416f0113b04181","602110864497cf011d9c0822","0","j","NA","space","j","j","NA","j","1000","NA","2520","9242","5759","NA","1000","2","legacy","1024","2","48000","-16","task","5210564","even","NA","28638","33161","30640","95089","3503","18510","12751","95590","NA","95087","95590","95006","33161","96590","26754","94506","3499","42394","Lexical Decision Task","33","33820","35","yes","1024"
"2.898725182","0","7","turl","non-word","94.44444444444444","94.44444444444444","962.1666666666666","962.1666666666666","black","no","legacy","legacy","legacy","0","uniform","1","undefined","undefined","undefined","1","f","0","0","0","0","35","0","0","0","35","NA","31","35","31","0","31","3","35","0","35","Tue Feb 16 14:11:09 2021","The main experiment item","yes","Lexical_Decision_Task.osexp","C:/Users/dyerm/Documents/Everything/Psych uni/Year 2 CaL","no","Andale Mono","no","18","no","white","no","yes","576","legacy","31","31","3","C:/Users/dyerm/Documents/Everything/Psych uni/Year 2 CaL/subject-5210564.csv","legacy","Lentiform Loewenfeld","3.3.7","yes","yes","600bd7cfb6416f0113b04181","602110864497cf011d9c0822","0","f","NA","space","j","j","NA","f","818","NA","2520","9242","5759","NA","818","2","legacy","1024","2","48000","-16","task","5210564","even","NA","28638","33161","30640","97181","3503","18510","12751","97685","NA","97180","97685","97096","33161","98504","26754","96596","3499","42394","Lexical Decision Task","34","34638","36","yes","1024"
"3.481012421","8.34","5","teen","word","94.5945945945946","94.5945945945946","960.1621621621622","960.1621621621622","black","no","legacy","legacy","legacy","0","uniform","1","undefined","undefined","undefined","1","j","0","0","0","0","36","0","0","0","36","NA","32","36","32","0","32","3","36","0","36","Tue Feb 16 14:11:09 2021","The main experiment item","yes","Lexical_Decision_Task.osexp","C:/Users/dyerm/Documents/Everything/Psych uni/Year 2 CaL","no","Andale Mono","no","18","no","white","no","yes","576","legacy","32","32","3","C:/Users/dyerm/Documents/Everything/Psych uni/Year 2 CaL/subject-5210564.csv","legacy","Lentiform Loewenfeld","3.3.7","yes","yes","600bd7cfb6416f0113b04181","602110864497cf011d9c0822","0","j","NA","space","j","j","NA","j","888","NA","2520","9242","5759","NA","888","2","legacy","1024","2","48000","-16","task","5210564","even","NA","28638","33161","30640","99086","3503","18510","12751","99587","NA","99084","99587","99010","33161","100476","26754","98510","3499","42394","Lexical Decision Task","35","35526","37","yes","1024"
"2.842815106","7.86","8","lump","word","94.73684210526316","94.73684210526316","965.4736842105264","965.4736842105264","black","no","legacy","legacy","legacy","0","uniform","1","undefined","undefined","undefined","1","j","0","0","0","0","37","0","0","0","37","NA","33","37","33","0","33","3","37","0","37","Tue Feb 16 14:11:09 2021","The main experiment item","yes","Lexical_Decision_Task.osexp","C:/Users/dyerm/Documents/Everything/Psych uni/Year 2 CaL","no","Andale Mono","no","18","no","white","no","yes","576","legacy","33","33","3","C:/Users/dyerm/Documents/Everything/Psych uni/Year 2 CaL/subject-5210564.csv","legacy","Lentiform Loewenfeld","3.3.7","yes","yes","600bd7cfb6416f0113b04181","602110864497cf011d9c0822","0","j","NA","space","j","j","NA","j","1162","NA","2520","9242","5759","NA","1162","2","legacy","1024","2","48000","-16","task","5210564","even","NA","28638","33161","30640","101056","3503","18510","12751","101557","NA","101055","101557","100982","33161","102719","26754","100482","3499","42394","Lexical Decision Task","36","36688","38","yes","1024"
"2.895974732","6.65","5","sift","word","94.87179487179488","94.87179487179488","970.8974358974359","970.8974358974359","black","no","legacy","legacy","legacy","0","uniform","1","undefined","undefined","undefined","1","j","0","0","0","0","38","0","0","0","38","NA","34","38","34","0","34","3","38","0","38","Tue Feb 16 14:11:09 2021","The main experiment item","yes","Lexical_Decision_Task.osexp","C:/Users/dyerm/Documents/Everything/Psych uni/Year 2 CaL","no","Andale Mono","no","18","no","white","no","yes","576","legacy","34","34","3","C:/Users/dyerm/Documents/Everything/Psych uni/Year 2 CaL/subject-5210564.csv","legacy","Lentiform Loewenfeld","3.3.7","yes","yes","600bd7cfb6416f0113b04181","602110864497cf011d9c0822","0","j","NA","space","j","j","NA","j","1177","NA","2520","9242","5759","NA","1177","2","legacy","1024","2","48000","-16","task","5210564","even","NA","28638","33161","30640","103303","3503","18510","12751","103804","NA","103300","103804","103225","33161","104982","26754","102725","3499","42394","Lexical Decision Task","37","37865","39","yes","1024"
"2.6599162","0","2","saff","non-word","95","95","967.075","967.075","black","no","legacy","legacy","legacy","0","uniform","1","undefined","undefined","undefined","1","f","0","0","0","0","39","0","0","0","39","NA","35","39","35","0","35","3","39","0","39","Tue Feb 16 14:11:09 2021","The main experiment item","yes","Lexical_Decision_Task.osexp","C:/Users/dyerm/Documents/Everything/Psych uni/Year 2 CaL","no","Andale Mono","no","18","no","white","no","yes","576","legacy","35","35","3","C:/Users/dyerm/Documents/Everything/Psych uni/Year 2 CaL/subject-5210564.csv","legacy","Lentiform Loewenfeld","3.3.7","yes","yes","600bd7cfb6416f0113b04181","602110864497cf011d9c0822","0","f","NA","space","j","j","NA","f","818","NA","2520","9242","5759","NA","818","2","legacy","1024","2","48000","-16","task","5210564","even","NA","28638","33161","30640","105565","3503","18510","12751","106066","NA","105563","106066","105488","33161","106885","26754","104988","3499","42394","Lexical Decision Task","38","38683","40","yes","1024"
"2.924968096","0","4","phim","non-word","95.1219512195122","95.1219512195122","963.560975609756","963.560975609756","black","no","legacy","legacy","legacy","0","uniform","1","undefined","undefined","undefined","1","f","0","0","0","0","40","0","0","0","40","NA","36","40","36","0","36","3","40","0","40","Tue Feb 16 14:11:09 2021","The main experiment item","yes","Lexical_Decision_Task.osexp","C:/Users/dyerm/Documents/Everything/Psych uni/Year 2 CaL","no","Andale Mono","no","18","no","white","no","yes","576","legacy","36","36","3","C:/Users/dyerm/Documents/Everything/Psych uni/Year 2 CaL/subject-5210564.csv","legacy","Lentiform Loewenfeld","3.3.7","yes","yes","600bd7cfb6416f0113b04181","602110864497cf011d9c0822","0","f","NA","space","j","j","NA","f","823","NA","2520","9242","5759","NA","823","2","legacy","1024","2","48000","-16","task","5210564","even","NA","28638","33161","30640","107471","3503","18510","12751","107972","NA","107469","107972","107391","33161","108796","26754","106891","3499","42394","Lexical Decision Task","39","39506","41","yes","1024"
"2.812467698","0","7","hafe","non-word","95.23809523809524","95.23809523809524","959.8571428571429","959.8571428571429","black","no","legacy","legacy","legacy","0","uniform","1","undefined","undefined","undefined","1","f","0","0","0","0","41","0","0","0","41","NA","37","41","37","0","37","3","41","0","41","Tue Feb 16 14:11:09 2021","The main experiment item","yes","Lexical_Decision_Task.osexp","C:/Users/dyerm/Documents/Everything/Psych uni/Year 2 CaL","no","Andale Mono","no","18","no","white","no","yes","576","legacy","37","37","3","C:/Users/dyerm/Documents/Everything/Psych uni/Year 2 CaL/subject-5210564.csv","legacy","Lentiform Loewenfeld","3.3.7","yes","yes","600bd7cfb6416f0113b04181","602110864497cf011d9c0822","0","f","NA","space","j","j","NA","f","808","NA","2520","9242","5759","NA","808","2","legacy","1024","2","48000","-16","task","5210564","even","NA","28638","33161","30640","109378","3503","18510","12751","109879","NA","109375","109880","109302","33161","110689","26754","108802","3499","42394","Lexical Decision Task","40","40314","42","yes","1024"
"3.105055783","0","2","norp","non-word","95.34883720930233","95.34883720930233","954.1860465116279","954.1860465116279","black","no","legacy","legacy","legacy","0","uniform","1","undefined","undefined","undefined","1","f","0","0","0","0","42","0","0","0","42","NA","38","42","38","0","38","3","42","0","42","Tue Feb 16 14:11:09 2021","The main experiment item","yes","Lexical_Decision_Task.osexp","C:/Users/dyerm/Documents/Everything/Psych uni/Year 2 CaL","no","Andale Mono","no","18","no","white","no","yes","576","legacy","38","38","3","C:/Users/dyerm/Documents/Everything/Psych uni/Year 2 CaL/subject-5210564.csv","legacy","Lentiform Loewenfeld","3.3.7","yes","yes","600bd7cfb6416f0113b04181","602110864497cf011d9c0822","0","f","NA","space","j","j","NA","f","716","NA","2520","9242","5759","NA","716","2","legacy","1024","2","48000","-16","task","5210564","even","NA","28638","33161","30640","111278","3503","18510","12751","111779","NA","111276","111779","111202","33161","112496","26754","110702","3499","42394","Lexical Decision Task","41","41030","43","yes","1024"
"3.20871002","7.15","8","cram","word","95.45454545454545","95.45454545454545","950.7954545454545","950.7954545454545","black","no","legacy","legacy","legacy","0","uniform","1","undefined","undefined","undefined","1","j","0","0","0","0","43","0","0","0","43","NA","39","43","39","0","39","3","43","0","43","Tue Feb 16 14:11:09 2021","The main experiment item","yes","Lexical_Decision_Task.osexp","C:/Users/dyerm/Documents/Everything/Psych uni/Year 2 CaL","no","Andale Mono","no","18","no","white","no","yes","576","legacy","39","39","3","C:/Users/dyerm/Documents/Everything/Psych uni/Year 2 CaL/subject-5210564.csv","legacy","Lentiform Loewenfeld","3.3.7","yes","yes","600bd7cfb6416f0113b04181","602110864497cf011d9c0822","0","j","NA","space","j","j","NA","j","805","NA","2520","9242","5759","NA","805","2","legacy","1024","2","48000","-16","task","5210564","even","NA","28638","33161","30640","113085","3503","18510","12751","113586","NA","113083","113586","113004","33161","114392","26754","112504","3499","42394","Lexical Decision Task","42","41835","44","yes","1024"
"2.95456409","0","4","taud","non-word","95.55555555555556","95.55555555555556","947.5777777777778","947.5777777777778","black","no","legacy","legacy","legacy","0","uniform","1","undefined","undefined","undefined","1","f","0","0","0","0","44","0","0","0","44","NA","40","44","40","0","40","3","44","0","44","Tue Feb 16 14:11:09 2021","The main experiment item","yes","Lexical_Decision_Task.osexp","C:/Users/dyerm/Documents/Everything/Psych uni/Year 2 CaL","no","Andale Mono","no","18","no","white","no","yes","576","legacy","40","40","3","C:/Users/dyerm/Documents/Everything/Psych uni/Year 2 CaL/subject-5210564.csv","legacy","Lentiform Loewenfeld","3.3.7","yes","yes","600bd7cfb6416f0113b04181","602110864497cf011d9c0822","0","f","NA","space","j","j","NA","f","806","NA","2520","9242","5759","NA","806","2","legacy","1024","2","48000","-16","task","5210564","even","NA","28638","33161","30640","114979","3503","18510","12751","115480","NA","114977","115480","114899","33161","116287","26754","114399","3499","42394","Lexical Decision Task","43","42641","45","yes","1024"
"2.803231716","5.26","3","kiln","word","95.65217391304348","95.65217391304348","945.5","945.5","black","no","legacy","legacy","legacy","0","uniform","1","undefined","undefined","undefined","1","j","0","0","0","0","45","0","0","0","45","NA","41","45","41","0","41","3","45","0","45","Tue Feb 16 14:11:09 2021","The main experiment item","yes","Lexical_Decision_Task.osexp","C:/Users/dyerm/Documents/Everything/Psych uni/Year 2 CaL","no","Andale Mono","no","18","no","white","no","yes","576","legacy","41","41","3","C:/Users/dyerm/Documents/Everything/Psych uni/Year 2 CaL/subject-5210564.csv","legacy","Lentiform Loewenfeld","3.3.7","yes","yes","600bd7cfb6416f0113b04181","602110864497cf011d9c0822","0","j","NA","space","j","j","NA","j","852","NA","2520","9242","5759","NA","852","2","legacy","1024","2","48000","-16","task","5210564","even","NA","28638","33161","30640","116870","3503","18510","12751","117372","NA","116868","117372","116793","33161","118225","26754","116293","3499","42394","Lexical Decision Task","44","43493","46","yes","1024"
"3.039414119","0","9","meep","non-word","95.74468085106383","95.74468085106383","942.468085106383","942.468085106383","black","no","legacy","legacy","legacy","0","uniform","1","undefined","undefined","undefined","1","f","0","0","0","0","46","0","0","0","46","NA","42","46","42","0","42","3","46","0","46","Tue Feb 16 14:11:09 2021","The main experiment item","yes","Lexical_Decision_Task.osexp","C:/Users/dyerm/Documents/Everything/Psych uni/Year 2 CaL","no","Andale Mono","no","18","no","white","no","yes","576","legacy","42","42","3","C:/Users/dyerm/Documents/Everything/Psych uni/Year 2 CaL/subject-5210564.csv","legacy","Lentiform Loewenfeld","3.3.7","yes","yes","600bd7cfb6416f0113b04181","602110864497cf011d9c0822","0","f","NA","space","j","j","NA","f","803","NA","2520","9242","5759","NA","803","2","legacy","1024","2","48000","-16","task","5210564","even","NA","28638","33161","30640","118809","3503","18510","12751","119310","NA","118807","119310","118731","33161","120114","26754","118231","3499","42394","Lexical Decision Task","45","44296","47","yes","1024"
"2.813801082","5.47","7","nook","word","95.83333333333333","95.83333333333333","941.5416666666666","941.5416666666666","black","no","legacy","legacy","legacy","0","uniform","1","undefined","undefined","undefined","1","j","0","0","0","0","47","0","0","0","47","NA","43","47","43","0","43","3","47","0","47","Tue Feb 16 14:11:09 2021","The main experiment item","yes","Lexical_Decision_Task.osexp","C:/Users/dyerm/Documents/Everything/Psych uni/Year 2 CaL","no","Andale Mono","no","18","no","white","no","yes","576","legacy","43","43","3","C:/Users/dyerm/Documents/Everything/Psych uni/Year 2 CaL/subject-5210564.csv","legacy","Lentiform Loewenfeld","3.3.7","yes","yes","600bd7cfb6416f0113b04181","602110864497cf011d9c0822","0","j","NA","space","j","j","NA","j","898","NA","2520","9242","5759","NA","898","2","legacy","1024","2","48000","-16","task","5210564","even","NA","28638","33161","30640","120710","3503","18510","12751","121211","NA","120708","121212","120633","33161","122111","26754","120133","3499","42394","Lexical Decision Task","46","45194","48","yes","1024"
"2.845304797","0","6","buct","non-word","95.91836734693878","95.91836734693878","939.6530612244898","939.6530612244898","black","no","legacy","legacy","legacy","0","uniform","1","undefined","undefined","undefined","1","f","0","0","0","0","48","0","0","0","48","NA","44","48","44","0","44","3","48","0","48","Tue Feb 16 14:11:09 2021","The main experiment item","yes","Lexical_Decision_Task.osexp","C:/Users/dyerm/Documents/Everything/Psych uni/Year 2 CaL","no","Andale Mono","no","18","no","white","no","yes","576","legacy","44","44","3","C:/Users/dyerm/Documents/Everything/Psych uni/Year 2 CaL/subject-5210564.csv","legacy","Lentiform Loewenfeld","3.3.7","yes","yes","600bd7cfb6416f0113b04181","602110864497cf011d9c0822","0","f","NA","space","j","j","NA","f","849","NA","2520","9242","5759","NA","849","2","legacy","1024","2","48000","-16","task","5210564","even","NA","28638","33161","30640","122694","3503","18510","12751","123195","NA","122691","123196","122617","33161","124046","26754","122117","3499","42394","Lexical Decision Task","47","46043","49","yes","1024"
"2.884795364","0","6","flob","non-word","96","96","943.14","943.14","black","no","legacy","legacy","legacy","0","uniform","1","undefined","undefined","undefined","1","f","0","0","0","0","49","0","0","0","49","NA","45","49","45","0","45","3","49","0","49","Tue Feb 16 14:11:09 2021","The main experiment item","yes","Lexical_Decision_Task.osexp","C:/Users/dyerm/Documents/Everything/Psych uni/Year 2 CaL","no","Andale Mono","no","18","no","white","no","yes","576","legacy","45","45","3","C:/Users/dyerm/Documents/Everything/Psych uni/Year 2 CaL/subject-5210564.csv","legacy","Lentiform Loewenfeld","3.3.7","yes","yes","600bd7cfb6416f0113b04181","602110864497cf011d9c0822","0","f","NA","space","j","j","NA","f","1114","NA","2520","9242","5759","NA","1114","2","legacy","1024","2","48000","-16","task","5210564","even","NA","28638","33161","30640","124629","3503","18510","12751","125130","NA","124627","125130","124553","33161","126245","26754","124053","3499","42394","Lexical Decision Task","48","47157","50","yes","1024"
"2.706148589","0","4","hube","non-word","96.07843137254902","96.07843137254902","942.7254901960785","942.7254901960785","black","no","legacy","legacy","legacy","0","uniform","1","undefined","undefined","undefined","1","f","0","0","0","0","50","0","0","0","50","NA","46","50","46","0","46","3","50","0","50","Tue Feb 16 14:11:09 2021","The main experiment item","yes","Lexical_Decision_Task.osexp","C:/Users/dyerm/Documents/Everything/Psych uni/Year 2 CaL","no","Andale Mono","no","18","no","white","no","yes","576","legacy","46","46","3","C:/Users/dyerm/Documents/Everything/Psych uni/Year 2 CaL/subject-5210564.csv","legacy","Lentiform Loewenfeld","3.3.7","yes","yes","600bd7cfb6416f0113b04181","602110864497cf011d9c0822","0","f","NA","space","j","j","NA","f","922","NA","2520","9242","5759","NA","922","2","legacy","1024","2","48000","-16","task","5210564","even","NA","28638","33161","30640","126828","3503","18510","12751","127329","NA","126826","127330","126751","33161","128252","26754","126251","3499","42394","Lexical Decision Task","49","48079","51","yes","1024"
"3.062080345","0","6","tomp","non-word","96.15384615384616","96.15384615384616","936.7307692307693","936.7307692307693","black","no","legacy","legacy","legacy","0","uniform","1","undefined","undefined","undefined","1","f","0","0","0","0","51","0","0","0","51","NA","47","51","47","0","47","3","51","0","51","Tue Feb 16 14:11:09 2021","The main experiment item","yes","Lexical_Decision_Task.osexp","C:/Users/dyerm/Documents/Everything/Psych uni/Year 2 CaL","no","Andale Mono","no","18","no","white","no","yes","576","legacy","47","47","3","C:/Users/dyerm/Documents/Everything/Psych uni/Year 2 CaL/subject-5210564.csv","legacy","Lentiform Loewenfeld","3.3.7","yes","yes","600bd7cfb6416f0113b04181","602110864497cf011d9c0822","0","f","NA","space","j","j","NA","f","631","NA","2520","9242","5759","NA","631","2","legacy","1024","2","48000","-16","task","5210564","even","NA","28638","33161","30640","128836","3503","18510","12751","129337","NA","128833","129337","128758","33161","129969","26754","128258","3499","42394","Lexical Decision Task","50","48710","52","yes","1024"
"2.868644438","10.52","4","town","word","96.22641509433963","96.22641509433963","932.1698113207547","932.1698113207547","black","no","legacy","legacy","legacy","0","uniform","1","undefined","undefined","undefined","1","j","0","0","0","0","52","0","0","0","52","NA","48","52","48","0","48","3","52","0","52","Tue Feb 16 14:11:09 2021","The main experiment item","yes","Lexical_Decision_Task.osexp","C:/Users/dyerm/Documents/Everything/Psych uni/Year 2 CaL","no","Andale Mono","no","18","no","white","no","yes","576","legacy","48","48","3","C:/Users/dyerm/Documents/Everything/Psych uni/Year 2 CaL/subject-5210564.csv","legacy","Lentiform Loewenfeld","3.3.7","yes","yes","600bd7cfb6416f0113b04181","602110864497cf011d9c0822","0","j","NA","space","j","j","NA","j","695","NA","2520","9242","5759","NA","695","2","legacy","1024","2","48000","-16","task","5210564","even","NA","28638","33161","30640","130554","3503","18510","12751","131055","NA","130552","131055","130475","33161","131751","26754","129975","3499","42394","Lexical Decision Task","51","49405","53","yes","1024"
"2.980306438","0","7","slun","non-word","96.29629629629629","96.29629629629629","928.6851851851852","928.6851851851852","black","no","legacy","legacy","legacy","0","uniform","1","undefined","undefined","undefined","1","f","0","0","0","0","53","0","0","0","53","NA","49","53","49","0","49","3","53","0","53","Tue Feb 16 14:11:09 2021","The main experiment item","yes","Lexical_Decision_Task.osexp","C:/Users/dyerm/Documents/Everything/Psych uni/Year 2 CaL","no","Andale Mono","no","18","no","white","no","yes","576","legacy","49","49","3","C:/Users/dyerm/Documents/Everything/Psych uni/Year 2 CaL/subject-5210564.csv","legacy","Lentiform Loewenfeld","3.3.7","yes","yes","600bd7cfb6416f0113b04181","602110864497cf011d9c0822","0","f","NA","space","j","j","NA","f","744","NA","2520","9242","5759","NA","744","2","legacy","1024","2","48000","-16","task","5210564","even","NA","28638","33161","30640","132335","3503","18510","12751","132836","NA","132333","132837","132257","33161","133583","26754","131757","3499","42394","Lexical Decision Task","52","50149","54","yes","1024"
"2.899638141","0","3","hapt","non-word","96.36363636363636","96.36363636363636","940.1818181818181","940.1818181818181","black","no","legacy","legacy","legacy","0","uniform","1","undefined","undefined","undefined","1","f","0","0","0","0","54","0","0","0","54","0","50","54","50","0","50","3","54","0","54","Tue Feb 16 14:11:09 2021","The main experiment item","yes","Lexical_Decision_Task.osexp","C:/Users/dyerm/Documents/Everything/Psych uni/Year 2 CaL","no","Andale Mono","no","18","no","white","no","yes","576","legacy","50","50","3","C:/Users/dyerm/Documents/Everything/Psych uni/Year 2 CaL/subject-5210564.csv","legacy","Lentiform Loewenfeld","3.3.7","yes","yes","600bd7cfb6416f0113b04181","602110864497cf011d9c0822","0","f","NA","space","j","j","space","f","1561","NA","2520","9242","5759","4248","1561","2","legacy","1024","2","48000","-16","task","5210564","even","NA","28638","33161","30640","138462","3503","18510","12751","138963","134137","138460","138963","134089","33161","140525","26754","133589","3499","42394","Lexical Decision Task","53","51710","55","yes","1024"
"3.302475237","0","7","leel","non-word","96.42857142857143","96.42857142857143","938.0178571428571","938.0178571428571","black","no","legacy","legacy","legacy","0","uniform","1","undefined","undefined","undefined","1","f","0","0","0","0","55","0","0","0","55","0","51","55","51","0","51","3","55","0","55","Tue Feb 16 14:11:09 2021","The main experiment item","yes","Lexical_Decision_Task.osexp","C:/Users/dyerm/Documents/Everything/Psych uni/Year 2 CaL","no","Andale Mono","no","18","no","white","no","yes","576","legacy","51","51","3","C:/Users/dyerm/Documents/Everything/Psych uni/Year 2 CaL/subject-5210564.csv","legacy","Lentiform Loewenfeld","3.3.7","yes","yes","600bd7cfb6416f0113b04181","602110864497cf011d9c0822","0","f","NA","space","j","j","space","f","819","NA","2520","9242","5759","4248","819","2","legacy","1024","2","48000","-16","task","5210564","even","NA","28638","33161","30640","141117","3503","18510","12751","141618","134137","141115","141619","141039","33161","142439","26754","140539","3499","42394","Lexical Decision Task","54","52529","56","yes","1024"
"2.755364069","7.72","2","hoax","word","96.49122807017544","96.49122807017544","935.9473684210526","935.9473684210526","black","no","legacy","legacy","legacy","0","uniform","1","undefined","undefined","undefined","1","j","0","0","0","0","56","0","0","0","56","0","52","56","52","0","52","3","56","0","56","Tue Feb 16 14:11:09 2021","The main experiment item","yes","Lexical_Decision_Task.osexp","C:/Users/dyerm/Documents/Everything/Psych uni/Year 2 CaL","no","Andale Mono","no","18","no","white","no","yes","576","legacy","52","52","3","C:/Users/dyerm/Documents/Everything/Psych uni/Year 2 CaL/subject-5210564.csv","legacy","Lentiform Loewenfeld","3.3.7","yes","yes","600bd7cfb6416f0113b04181","602110864497cf011d9c0822","0","j","NA","space","j","j","space","j","820","NA","2520","9242","5759","4248","820","2","legacy","1024","2","48000","-16","task","5210564","even","NA","28638","33161","30640","143022","3503","18510","12751","143523","134137","143020","143523","142945","33161","144344","26754","142444","3499","42394","Lexical Decision Task","55","53349","57","yes","1024"
"2.594027722","9.08","8","skip","word","96.55172413793103","96.55172413793103","933.3448275862069","933.3448275862069","black","no","legacy","legacy","legacy","0","uniform","1","undefined","undefined","undefined","1","j","0","0","0","0","57","0","0","0","57","0","53","57","53","0","53","3","57","0","57","Tue Feb 16 14:11:09 2021","The main experiment item","yes","Lexical_Decision_Task.osexp","C:/Users/dyerm/Documents/Everything/Psych uni/Year 2 CaL","no","Andale Mono","no","18","no","white","no","yes","576","legacy","53","53","3","C:/Users/dyerm/Documents/Everything/Psych uni/Year 2 CaL/subject-5210564.csv","legacy","Lentiform Loewenfeld","3.3.7","yes","yes","600bd7cfb6416f0113b04181","602110864497cf011d9c0822","0","j","NA","space","j","j","space","j","785","NA","2520","9242","5759","4248","785","2","legacy","1024","2","48000","-16","task","5210564","even","NA","28638","33161","30640","144928","3503","18510","12751","145429","134137","144926","145429","144850","33161","146216","26754","144350","3499","42394","Lexical Decision Task","56","54134","58","yes","1024"
"3.303771854","0","9","dath","non-word","96.61016949152543","96.61016949152543","930.0677966101695","930.0677966101695","black","no","legacy","legacy","legacy","0","uniform","1","undefined","undefined","undefined","1","f","0","0","0","0","58","0","0","0","58","0","54","58","54","0","54","3","58","0","58","Tue Feb 16 14:11:09 2021","The main experiment item","yes","Lexical_Decision_Task.osexp","C:/Users/dyerm/Documents/Everything/Psych uni/Year 2 CaL","no","Andale Mono","no","18","no","white","no","yes","576","legacy","54","54","3","C:/Users/dyerm/Documents/Everything/Psych uni/Year 2 CaL/subject-5210564.csv","legacy","Lentiform Loewenfeld","3.3.7","yes","yes","600bd7cfb6416f0113b04181","602110864497cf011d9c0822","0","f","NA","space","j","j","space","f","740","NA","2520","9242","5759","4248","740","2","legacy","1024","2","48000","-16","task","5210564","even","NA","28638","33161","30640","146797","3503","18510","12751","147299","134137","146795","147299","146721","33161","148040","26754","146221","3499","42394","Lexical Decision Task","57","54874","59","yes","1024"
"2.897810299","0","5","glur","non-word","96.66666666666667","96.66666666666667","925.3","925.3","black","no","legacy","legacy","legacy","0","uniform","1","undefined","undefined","undefined","1","f","0","0","0","0","59","0","0","0","59","0","55","59","55","0","55","3","59","0","59","Tue Feb 16 14:11:09 2021","The main experiment item","yes","Lexical_Decision_Task.osexp","C:/Users/dyerm/Documents/Everything/Psych uni/Year 2 CaL","no","Andale Mono","no","18","no","white","no","yes","576","legacy","55","55","3","C:/Users/dyerm/Documents/Everything/Psych uni/Year 2 CaL/subject-5210564.csv","legacy","Lentiform Loewenfeld","3.3.7","yes","yes","600bd7cfb6416f0113b04181","602110864497cf011d9c0822","0","f","NA","space","j","j","space","f","644","NA","2520","9242","5759","4248","644","2","legacy","1024","2","48000","-16","task","5210564","even","NA","28638","33161","30640","148621","3503","18510","12751","149122","134137","148619","149122","148545","33161","149767","26754","148045","3499","42394","Lexical Decision Task","58","55518","60","yes","1024"
"3.121778632","0","9","sark","non-word","96.72131147540983","96.72131147540983","921.016393442623","921.016393442623","black","no","legacy","legacy","legacy","0","uniform","1","undefined","undefined","undefined","1","f","0","0","0","0","60","0","0","0","60","0","56","60","56","0","56","3","60","0","60","Tue Feb 16 14:11:09 2021","The main experiment item","yes","Lexical_Decision_Task.osexp","C:/Users/dyerm/Documents/Everything/Psych uni/Year 2 CaL","no","Andale Mono","no","18","no","white","no","yes","576","legacy","56","56","3","C:/Users/dyerm/Documents/Everything/Psych uni/Year 2 CaL/subject-5210564.csv","legacy","Lentiform Loewenfeld","3.3.7","yes","yes","600bd7cfb6416f0113b04181","602110864497cf011d9c0822","0","f","NA","space","j","j","space","f","664","NA","2520","9242","5759","4248","664","2","legacy","1024","2","48000","-16","task","5210564","even","NA","28638","33161","30640","150353","3503","18510","12751","150854","134137","150351","150854","150274","33161","151519","26754","149774","3499","42394","Lexical Decision Task","59","56182","61","yes","1024"
"3.460446784","0","5","dess","non-word","96.7741935483871","96.7741935483871","916.3870967741935","916.3870967741935","black","no","legacy","legacy","legacy","0","uniform","1","undefined","undefined","undefined","1","f","0","0","0","0","61","0","0","0","61","0","57","61","57","0","57","3","61","0","61","Tue Feb 16 14:11:09 2021","The main experiment item","yes","Lexical_Decision_Task.osexp","C:/Users/dyerm/Documents/Everything/Psych uni/Year 2 CaL","no","Andale Mono","no","18","no","white","no","yes","576","legacy","57","57","3","C:/Users/dyerm/Documents/Everything/Psych uni/Year 2 CaL/subject-5210564.csv","legacy","Lentiform Loewenfeld","3.3.7","yes","yes","600bd7cfb6416f0113b04181","602110864497cf011d9c0822","0","f","NA","space","j","j","space","f","634","NA","2520","9242","5759","4248","634","2","legacy","1024","2","48000","-16","task","5210564","even","NA","28638","33161","30640","152099","3503","18510","12751","152600","134137","152096","152600","152024","33161","153235","26754","151524","3499","42394","Lexical Decision Task","60","56816","62","yes","1024"
"3.208978517","10.33","4","fish","word","96.82539682539682","96.82539682539682","911.8888888888889","911.8888888888889","black","no","legacy","legacy","legacy","0","uniform","1","undefined","undefined","undefined","1","j","0","0","0","0","62","0","0","0","62","0","58","62","58","0","58","3","62","0","62","Tue Feb 16 14:11:09 2021","The main experiment item","yes","Lexical_Decision_Task.osexp","C:/Users/dyerm/Documents/Everything/Psych uni/Year 2 CaL","no","Andale Mono","no","18","no","white","no","yes","576","legacy","58","58","3","C:/Users/dyerm/Documents/Everything/Psych uni/Year 2 CaL/subject-5210564.csv","legacy","Lentiform Loewenfeld","3.3.7","yes","yes","600bd7cfb6416f0113b04181","602110864497cf011d9c0822","0","j","NA","space","j","j","space","j","633","NA","2520","9242","5759","4248","633","2","legacy","1024","2","48000","-16","task","5210564","even","NA","28638","33161","30640","153821","3503","18510","12751","154322","134137","153818","154322","153741","33161","154956","26754","153241","3499","42394","Lexical Decision Task","61","57449","63","yes","1024"
"3.257359335","8","6","brew","word","96.875","96.875","906.265625","906.265625","black","no","legacy","legacy","legacy","0","uniform","1","undefined","undefined","undefined","1","j","0","0","0","0","63","0","0","0","63","0","59","63","59","0","59","3","63","0","63","Tue Feb 16 14:11:09 2021","The main experiment item","yes","Lexical_Decision_Task.osexp","C:/Users/dyerm/Documents/Everything/Psych uni/Year 2 CaL","no","Andale Mono","no","18","no","white","no","yes","576","legacy","59","59","3","C:/Users/dyerm/Documents/Everything/Psych uni/Year 2 CaL/subject-5210564.csv","legacy","Lentiform Loewenfeld","3.3.7","yes","yes","600bd7cfb6416f0113b04181","602110864497cf011d9c0822","0","j","NA","space","j","j","space","j","552","NA","2520","9242","5759","4248","552","2","legacy","1024","2","48000","-16","task","5210564","even","NA","28638","33161","30640","155539","3503","18510","12751","156040","134137","155537","156040","155462","33161","156594","26754","154962","3499","42394","Lexical Decision Task","62","58001","64","yes","1024"
"3.208172527","10.27","7","deck","word","96.92307692307692","96.92307692307692","902.2615384615384","902.2615384615384","black","no","legacy","legacy","legacy","0","uniform","1","undefined","undefined","undefined","1","j","0","0","0","0","64","0","0","0","64","0","60","64","60","0","60","3","64","0","64","Tue Feb 16 14:11:09 2021","The main experiment item","yes","Lexical_Decision_Task.osexp","C:/Users/dyerm/Documents/Everything/Psych uni/Year 2 CaL","no","Andale Mono","no","18","no","white","no","yes","576","legacy","60","60","3","C:/Users/dyerm/Documents/Everything/Psych uni/Year 2 CaL/subject-5210564.csv","legacy","Lentiform Loewenfeld","3.3.7","yes","yes","600bd7cfb6416f0113b04181","602110864497cf011d9c0822","0","j","NA","space","j","j","space","j","646","NA","2520","9242","5759","4248","646","2","legacy","1024","2","48000","-16","task","5210564","even","NA","28638","33161","30640","157175","3503","18510","12751","157676","134137","157173","157677","157099","33161","158324","26754","156599","3499","42394","Lexical Decision Task","63","58647","65","yes","1024"
"3.133964479","0","8","graw","non-word","96.96969696969697","96.96969696969697","899.8484848484849","899.8484848484849","black","no","legacy","legacy","legacy","0","uniform","1","undefined","undefined","undefined","1","f","0","0","0","0","65","0","0","0","65","0","61","65","61","0","61","3","65","0","65","Tue Feb 16 14:11:09 2021","The main experiment item","yes","Lexical_Decision_Task.osexp","C:/Users/dyerm/Documents/Everything/Psych uni/Year 2 CaL","no","Andale Mono","no","18","no","white","no","yes","576","legacy","61","61","3","C:/Users/dyerm/Documents/Everything/Psych uni/Year 2 CaL/subject-5210564.csv","legacy","Lentiform Loewenfeld","3.3.7","yes","yes","600bd7cfb6416f0113b04181","602110864497cf011d9c0822","0","f","NA","space","j","j","space","f","743","NA","2520","9242","5759","4248","743","2","legacy","1024","2","48000","-16","task","5210564","even","NA","28638","33161","30640","158909","3503","18510","12751","159410","134137","158907","159411","158830","33161","160155","26754","158329","3499","42394","Lexical Decision Task","64","59390","66","yes","1024"
"2.576725172","0","8","gowl","non-word","97.01492537313433","97.01492537313433","899.2985074626865","899.2985074626865","black","no","legacy","legacy","legacy","0","uniform","1","undefined","undefined","undefined","1","f","0","0","0","0","66","0","0","0","66","0","62","66","62","0","62","3","66","0","66","Tue Feb 16 14:11:09 2021","The main experiment item","yes","Lexical_Decision_Task.osexp","C:/Users/dyerm/Documents/Everything/Psych uni/Year 2 CaL","no","Andale Mono","no","18","no","white","no","yes","576","legacy","62","62","3","C:/Users/dyerm/Documents/Everything/Psych uni/Year 2 CaL/subject-5210564.csv","legacy","Lentiform Loewenfeld","3.3.7","yes","yes","600bd7cfb6416f0113b04181","602110864497cf011d9c0822","0","f","NA","space","j","j","space","f","863","NA","2520","9242","5759","4248","863","2","legacy","1024","2","48000","-16","task","5210564","even","NA","28638","33161","30640","160739","3503","18510","12751","161240","134137","160737","161240","160661","33161","162104","26754","160161","3499","42394","Lexical Decision Task","65","60253","67","yes","1024"
"3.067193647","6.73","6","raft","word","97.05882352941177","97.05882352941177","898.4117647058823","898.4117647058823","black","no","legacy","legacy","legacy","0","uniform","1","undefined","undefined","undefined","1","j","0","0","0","0","67","0","0","0","67","0","63","67","63","0","63","3","67","0","67","Tue Feb 16 14:11:09 2021","The main experiment item","yes","Lexical_Decision_Task.osexp","C:/Users/dyerm/Documents/Everything/Psych uni/Year 2 CaL","no","Andale Mono","no","18","no","white","no","yes","576","legacy","63","63","3","C:/Users/dyerm/Documents/Everything/Psych uni/Year 2 CaL/subject-5210564.csv","legacy","Lentiform Loewenfeld","3.3.7","yes","yes","600bd7cfb6416f0113b04181","602110864497cf011d9c0822","0","j","NA","space","j","j","space","j","839","NA","2520","9242","5759","4248","839","2","legacy","1024","2","48000","-16","task","5210564","even","NA","28638","33161","30640","162689","3503","18510","12751","163190","134137","162687","163190","162610","33161","164031","26754","162110","3499","42394","Lexical Decision Task","66","61092","68","yes","1024"
"2.695770526","7.34","6","pawn","word","97.10144927536231","97.10144927536231","895.7826086956521","895.7826086956521","black","no","legacy","legacy","legacy","0","uniform","1","undefined","undefined","undefined","1","j","0","0","0","0","68","0","0","0","68","0","64","68","64","0","64","3","68","0","68","Tue Feb 16 14:11:09 2021","The main experiment item","yes","Lexical_Decision_Task.osexp","C:/Users/dyerm/Documents/Everything/Psych uni/Year 2 CaL","no","Andale Mono","no","18","no","white","no","yes","576","legacy","64","64","3","C:/Users/dyerm/Documents/Everything/Psych uni/Year 2 CaL/subject-5210564.csv","legacy","Lentiform Loewenfeld","3.3.7","yes","yes","600bd7cfb6416f0113b04181","602110864497cf011d9c0822","0","j","NA","space","j","j","space","j","717","NA","2520","9242","5759","4248","717","2","legacy","1024","2","48000","-16","task","5210564","even","NA","28638","33161","30640","164614","3503","18510","12751","165116","134137","164612","165117","164537","33161","165836","26754","164036","3499","42394","Lexical Decision Task","67","61809","69","yes","1024"
"2.937852093","0","7","bamp","non-word","97.14285714285714","97.14285714285714","894.9714285714285","894.9714285714285","black","no","legacy","legacy","legacy","0","uniform","1","undefined","undefined","undefined","1","f","0","0","0","0","69","0","0","0","69","0","65","69","65","0","65","3","69","0","69","Tue Feb 16 14:11:09 2021","The main experiment item","yes","Lexical_Decision_Task.osexp","C:/Users/dyerm/Documents/Everything/Psych uni/Year 2 CaL","no","Andale Mono","no","18","no","white","no","yes","576","legacy","65","65","3","C:/Users/dyerm/Documents/Everything/Psych uni/Year 2 CaL/subject-5210564.csv","legacy","Lentiform Loewenfeld","3.3.7","yes","yes","600bd7cfb6416f0113b04181","602110864497cf011d9c0822","0","f","NA","space","j","j","space","f","839","NA","2520","9242","5759","4248","839","2","legacy","1024","2","48000","-16","task","5210564","even","NA","28638","33161","30640","166419","3503","18510","12751","166920","134137","166417","166920","166342","33161","167760","26754","165842","3499","42394","Lexical Decision Task","68","62648","70","yes","1024"
"3.197740804","6.74","3","ache","word","97.1830985915493","97.1830985915493","894","894","black","no","legacy","legacy","legacy","0","uniform","1","undefined","undefined","undefined","1","j","0","0","0","0","70","0","0","0","70","0","66","70","66","0","66","3","70","0","70","Tue Feb 16 14:11:09 2021","The main experiment item","yes","Lexical_Decision_Task.osexp","C:/Users/dyerm/Documents/Everything/Psych uni/Year 2 CaL","no","Andale Mono","no","18","no","white","no","yes","576","legacy","66","66","3","C:/Users/dyerm/Documents/Everything/Psych uni/Year 2 CaL/subject-5210564.csv","legacy","Lentiform Loewenfeld","3.3.7","yes","yes","600bd7cfb6416f0113b04181","602110864497cf011d9c0822","0","j","NA","space","j","j","space","j","826","NA","2520","9242","5759","4248","826","2","legacy","1024","2","48000","-16","task","5210564","even","NA","28638","33161","30640","168344","3503","18510","12751","168845","134137","168342","168846","168266","33161","169673","26754","167766","3499","42394","Lexical Decision Task","69","63474","71","yes","1024"
"2.778633532","0","3","jurp","non-word","97.22222222222223","97.22222222222223","896.6944444444445","896.6944444444445","black","no","legacy","legacy","legacy","0","uniform","1","undefined","undefined","undefined","1","f","0","0","0","0","71","0","0","0","71","0","67","71","67","0","67","3","71","0","71","Tue Feb 16 14:11:09 2021","The main experiment item","yes","Lexical_Decision_Task.osexp","C:/Users/dyerm/Documents/Everything/Psych uni/Year 2 CaL","no","Andale Mono","no","18","no","white","no","yes","576","legacy","67","67","3","C:/Users/dyerm/Documents/Everything/Psych uni/Year 2 CaL/subject-5210564.csv","legacy","Lentiform Loewenfeld","3.3.7","yes","yes","600bd7cfb6416f0113b04181","602110864497cf011d9c0822","0","f","NA","space","j","j","space","f","1088","NA","2520","9242","5759","4248","1088","2","legacy","1024","2","48000","-16","task","5210564","even","NA","28638","33161","30640","170256","3503","18510","12751","170757","134137","170254","170757","170179","33161","171846","26754","169678","3499","42394","Lexical Decision Task","70","64562","72","yes","1024"
"3.382617311","0","4","pret","non-word","97.26027397260275","97.26027397260275","897.1506849315068","897.1506849315068","black","no","legacy","legacy","legacy","0","uniform","1","undefined","undefined","undefined","1","f","0","0","0","0","72","0","0","0","72","0","68","72","68","0","68","3","72","0","72","Tue Feb 16 14:11:09 2021","The main experiment item","yes","Lexical_Decision_Task.osexp","C:/Users/dyerm/Documents/Everything/Psych uni/Year 2 CaL","no","Andale Mono","no","18","no","white","no","yes","576","legacy","68","68","3","C:/Users/dyerm/Documents/Everything/Psych uni/Year 2 CaL/subject-5210564.csv","legacy","Lentiform Loewenfeld","3.3.7","yes","yes","600bd7cfb6416f0113b04181","602110864497cf011d9c0822","0","f","NA","space","j","j","space","f","930","NA","2520","9242","5759","4248","930","2","legacy","1024","2","48000","-16","task","5210564","even","NA","28638","33161","30640","172429","3503","18510","12751","172931","134137","172427","172931","172353","33161","173862","26754","171853","3499","42394","Lexical Decision Task","71","65492","73","yes","1024"
"2.771097306","0","9","jold","non-word","97.29729729729729","97.29729729729729","897.581081081081","897.581081081081","black","no","legacy","legacy","legacy","0","uniform","1","undefined","undefined","undefined","1","f","0","0","0","0","73","0","0","0","73","0","69","73","69","0","69","3","73","0","73","Tue Feb 16 14:11:09 2021","The main experiment item","yes","Lexical_Decision_Task.osexp","C:/Users/dyerm/Documents/Everything/Psych uni/Year 2 CaL","no","Andale Mono","no","18","no","white","no","yes","576","legacy","69","69","3","C:/Users/dyerm/Documents/Everything/Psych uni/Year 2 CaL/subject-5210564.csv","legacy","Lentiform Loewenfeld","3.3.7","yes","yes","600bd7cfb6416f0113b04181","602110864497cf011d9c0822","0","f","NA","space","j","j","space","f","929","NA","2520","9242","5759","4248","929","2","legacy","1024","2","48000","-16","task","5210564","even","NA","28638","33161","30640","174445","3503","18510","12751","174947","134137","174443","174947","174369","33161","175877","26754","173869","3499","42394","Lexical Decision Task","72","66421","74","yes","1024"
"2.709837904","6.85","8","skim","word","97.33333333333333","97.33333333333333","897.3733333333333","897.3733333333333","black","no","legacy","legacy","legacy","0","uniform","1","undefined","undefined","undefined","1","j","0","0","0","0","74","0","0","0","74","0","70","74","70","0","70","3","74","0","74","Tue Feb 16 14:11:09 2021","The main experiment item","yes","Lexical_Decision_Task.osexp","C:/Users/dyerm/Documents/Everything/Psych uni/Year 2 CaL","no","Andale Mono","no","18","no","white","no","yes","576","legacy","70","70","3","C:/Users/dyerm/Documents/Everything/Psych uni/Year 2 CaL/subject-5210564.csv","legacy","Lentiform Loewenfeld","3.3.7","yes","yes","600bd7cfb6416f0113b04181","602110864497cf011d9c0822","0","j","NA","space","j","j","space","j","882","NA","2520","9242","5759","4248","882","2","legacy","1024","2","48000","-16","task","5210564","even","NA","28638","33161","30640","176458","3503","18510","12751","176959","134137","176455","176960","176382","33161","177843","26754","175882","3499","42394","Lexical Decision Task","73","67303","75","yes","1024"
"3.091901331","0","9","nipe","non-word","97.36842105263158","97.36842105263158","895.7236842105264","895.7236842105264","black","no","legacy","legacy","legacy","0","uniform","1","undefined","undefined","undefined","1","f","0","0","0","0","75","0","0","0","75","0","71","75","71","0","71","3","75","0","75","Tue Feb 16 14:11:09 2021","The main experiment item","yes","Lexical_Decision_Task.osexp","C:/Users/dyerm/Documents/Everything/Psych uni/Year 2 CaL","no","Andale Mono","no","18","no","white","no","yes","576","legacy","71","71","3","C:/Users/dyerm/Documents/Everything/Psych uni/Year 2 CaL/subject-5210564.csv","legacy","Lentiform Loewenfeld","3.3.7","yes","yes","600bd7cfb6416f0113b04181","602110864497cf011d9c0822","0","f","NA","space","j","j","space","f","772","NA","2520","9242","5759","4248","772","2","legacy","1024","2","48000","-16","task","5210564","even","NA","28638","33161","30640","178426","3503","18510","12751","178927","134137","178424","178928","178349","33161","179701","26754","177849","3499","42394","Lexical Decision Task","74","68075","76","yes","1024"
"2.838639236","0","4","furg","non-word","97.40259740259741","97.40259740259741","893.8181818181819","893.8181818181819","black","no","legacy","legacy","legacy","0","uniform","1","undefined","undefined","undefined","1","f","0","0","0","0","76","0","0","0","76","0","72","76","72","0","72","3","76","0","76","Tue Feb 16 14:11:09 2021","The main experiment item","yes","Lexical_Decision_Task.osexp","C:/Users/dyerm/Documents/Everything/Psych uni/Year 2 CaL","no","Andale Mono","no","18","no","white","no","yes","576","legacy","72","72","3","C:/Users/dyerm/Documents/Everything/Psych uni/Year 2 CaL/subject-5210564.csv","legacy","Lentiform Loewenfeld","3.3.7","yes","yes","600bd7cfb6416f0113b04181","602110864497cf011d9c0822","0","f","NA","space","j","j","space","f","749","NA","2520","9242","5759","4248","749","2","legacy","1024","2","48000","-16","task","5210564","even","NA","28638","33161","30640","180284","3503","18510","12751","180785","134137","180282","180786","180207","33161","181536","26754","179707","3499","42394","Lexical Decision Task","75","68824","77","yes","1024"
"2.880623071","0","9","curp","non-word","97.43589743589743","97.43589743589743","891.1538461538462","891.1538461538462","black","no","legacy","legacy","legacy","0","uniform","1","undefined","undefined","undefined","1","f","0","0","0","0","77","0","0","0","77","0","73","77","73","0","73","3","77","0","77","Tue Feb 16 14:11:09 2021","The main experiment item","yes","Lexical_Decision_Task.osexp","C:/Users/dyerm/Documents/Everything/Psych uni/Year 2 CaL","no","Andale Mono","no","18","no","white","no","yes","576","legacy","73","73","3","C:/Users/dyerm/Documents/Everything/Psych uni/Year 2 CaL/subject-5210564.csv","legacy","Lentiform Loewenfeld","3.3.7","yes","yes","600bd7cfb6416f0113b04181","602110864497cf011d9c0822","0","f","NA","space","j","j","space","f","686","NA","2520","9242","5759","4248","686","2","legacy","1024","2","48000","-16","task","5210564","even","NA","28638","33161","30640","182118","3503","18510","12751","182619","134137","182116","182619","182042","33161","183306","26754","181542","3499","42394","Lexical Decision Task","76","69510","78","yes","1024"
"3.209246849","0","7","slem","non-word","97.46835443037975","97.46835443037975","888.8354430379746","888.8354430379746","black","no","legacy","legacy","legacy","0","uniform","1","undefined","undefined","undefined","1","f","0","0","0","0","78","0","0","0","78","0","74","78","74","0","74","3","78","0","78","Tue Feb 16 14:11:09 2021","The main experiment item","yes","Lexical_Decision_Task.osexp","C:/Users/dyerm/Documents/Everything/Psych uni/Year 2 CaL","no","Andale Mono","no","18","no","white","no","yes","576","legacy","74","74","3","C:/Users/dyerm/Documents/Everything/Psych uni/Year 2 CaL/subject-5210564.csv","legacy","Lentiform Loewenfeld","3.3.7","yes","yes","600bd7cfb6416f0113b04181","602110864497cf011d9c0822","0","f","NA","space","j","j","space","f","708","NA","2520","9242","5759","4248","708","2","legacy","1024","2","48000","-16","task","5210564","even","NA","28638","33161","30640","183889","3503","18510","12751","184390","134137","183887","184390","183812","33161","185100","26754","183312","3499","42394","Lexical Decision Task","77","70218","79","yes","1024"
"2.9737419","7.69","7","claw","word","97.5","97.5","885.3625","885.3625","black","no","legacy","legacy","legacy","0","uniform","1","undefined","undefined","undefined","1","j","0","0","0","0","79","0","0","0","79","0","75","79","75","0","75","3","79","0","79","Tue Feb 16 14:11:09 2021","The main experiment item","yes","Lexical_Decision_Task.osexp","C:/Users/dyerm/Documents/Everything/Psych uni/Year 2 CaL","no","Andale Mono","no","18","no","white","no","yes","576","legacy","75","75","3","C:/Users/dyerm/Documents/Everything/Psych uni/Year 2 CaL/subject-5210564.csv","legacy","Lentiform Loewenfeld","3.3.7","yes","yes","600bd7cfb6416f0113b04181","602110864497cf011d9c0822","0","j","NA","space","j","j","space","j","611","NA","2520","9242","5759","4248","611","2","legacy","1024","2","48000","-16","task","5210564","even","NA","28638","33161","30640","185691","3503","18510","12751","186192","134137","185689","186192","185614","33161","186805","26754","185113","3499","42394","Lexical Decision Task","78","70829","80","yes","1024"
"3.368162872","0","4","ferk","non-word","97.53086419753086","97.53086419753086","883.0123456790124","883.0123456790124","black","no","legacy","legacy","legacy","0","uniform","1","undefined","undefined","undefined","1","f","0","0","0","0","80","0","0","0","80","0","76","80","76","0","76","3","80","0","80","Tue Feb 16 14:11:09 2021","The main experiment item","yes","Lexical_Decision_Task.osexp","C:/Users/dyerm/Documents/Everything/Psych uni/Year 2 CaL","no","Andale Mono","no","18","no","white","no","yes","576","legacy","76","76","3","C:/Users/dyerm/Documents/Everything/Psych uni/Year 2 CaL/subject-5210564.csv","legacy","Lentiform Loewenfeld","3.3.7","yes","yes","600bd7cfb6416f0113b04181","602110864497cf011d9c0822","0","f","NA","space","j","j","space","f","695","NA","2520","9242","5759","4248","695","2","legacy","1024","2","48000","-16","task","5210564","even","NA","28638","33161","30640","187389","3503","18510","12751","187890","134137","187386","187890","187310","33161","188586","26754","186810","3499","42394","Lexical Decision Task","79","71524","81","yes","1024"
"3.259832699","0","9","flar","non-word","97.5609756097561","97.5609756097561","882.0243902439024","882.0243902439024","black","no","legacy","legacy","legacy","0","uniform","1","undefined","undefined","undefined","1","f","0","0","0","0","81","0","0","0","81","0","77","81","77","0","77","3","81","0","81","Tue Feb 16 14:11:09 2021","The main experiment item","yes","Lexical_Decision_Task.osexp","C:/Users/dyerm/Documents/Everything/Psych uni/Year 2 CaL","no","Andale Mono","no","18","no","white","no","yes","576","legacy","77","77","3","C:/Users/dyerm/Documents/Everything/Psych uni/Year 2 CaL/subject-5210564.csv","legacy","Lentiform Loewenfeld","3.3.7","yes","yes","600bd7cfb6416f0113b04181","602110864497cf011d9c0822","0","f","NA","space","j","j","space","f","802","NA","2520","9242","5759","4248","802","2","legacy","1024","2","48000","-16","task","5210564","even","NA","28638","33161","30640","189168","3503","18510","12751","189669","134137","189166","189669","189091","33161","190472","26754","188591","3499","42394","Lexical Decision Task","80","72326","82","yes","1024"
"3.488597715","0","9","nain","non-word","97.59036144578313","97.59036144578313","879.6987951807229","879.6987951807229","black","no","legacy","legacy","legacy","0","uniform","1","undefined","undefined","undefined","1","f","0","0","0","0","82","0","0","0","82","0","78","82","78","0","78","3","82","0","82","Tue Feb 16 14:11:09 2021","The main experiment item","yes","Lexical_Decision_Task.osexp","C:/Users/dyerm/Documents/Everything/Psych uni/Year 2 CaL","no","Andale Mono","no","18","no","white","no","yes","576","legacy","78","78","3","C:/Users/dyerm/Documents/Everything/Psych uni/Year 2 CaL/subject-5210564.csv","legacy","Lentiform Loewenfeld","3.3.7","yes","yes","600bd7cfb6416f0113b04181","602110864497cf011d9c0822","0","f","NA","space","j","j","space","f","689","NA","2520","9242","5759","4248","689","2","legacy","1024","2","48000","-16","task","5210564","even","NA","28638","33161","30640","191055","3503","18510","12751","191556","134137","191053","191556","190978","33161","192247","26754","190478","3499","42394","Lexical Decision Task","81","73015","83","yes","1024"
"2.809559715","8.44","4","volt","word","97.61904761904762","97.61904761904762","876.6428571428571","876.6428571428571","black","no","legacy","legacy","legacy","0","uniform","1","undefined","undefined","undefined","1","j","0","0","0","0","83","0","0","0","83","0","79","83","79","0","79","3","83","0","83","Tue Feb 16 14:11:09 2021","The main experiment item","yes","Lexical_Decision_Task.osexp","C:/Users/dyerm/Documents/Everything/Psych uni/Year 2 CaL","no","Andale Mono","no","18","no","white","no","yes","576","legacy","79","79","3","C:/Users/dyerm/Documents/Everything/Psych uni/Year 2 CaL/subject-5210564.csv","legacy","Lentiform Loewenfeld","3.3.7","yes","yes","600bd7cfb6416f0113b04181","602110864497cf011d9c0822","0","j","NA","space","j","j","space","j","623","NA","2520","9242","5759","4248","623","2","legacy","1024","2","48000","-16","task","5210564","even","NA","28638","33161","30640","192834","3503","18510","12751","193335","134137","192832","193336","192754","33161","193960","26754","192254","3499","42394","Lexical Decision Task","82","73638","84","yes","1024"
"3.068433376","8.09","2","bulb","word","97.6470588235294","97.6470588235294","873.3411764705883","873.3411764705883","black","no","legacy","legacy","legacy","0","uniform","1","undefined","undefined","undefined","1","j","0","0","0","0","84","0","0","0","84","0","80","84","80","0","80","3","84","0","84","Tue Feb 16 14:11:09 2021","The main experiment item","yes","Lexical_Decision_Task.osexp","C:/Users/dyerm/Documents/Everything/Psych uni/Year 2 CaL","no","Andale Mono","no","18","no","white","no","yes","576","legacy","80","80","3","C:/Users/dyerm/Documents/Everything/Psych uni/Year 2 CaL/subject-5210564.csv","legacy","Lentiform Loewenfeld","3.3.7","yes","yes","600bd7cfb6416f0113b04181","602110864497cf011d9c0822","0","j","NA","space","j","j","space","j","596","NA","2520","9242","5759","4248","596","2","legacy","1024","2","48000","-16","task","5210564","even","NA","28638","33161","30640","194543","3503","18510","12751","195044","134137","194541","195044","194466","33161","195641","26754","193966","3499","42394","Lexical Decision Task","83","74234","85","yes","1024"
"3.067070856","9.39","3","loud","word","97.67441860465117","97.67441860465117","870.4418604651163","870.4418604651163","black","no","legacy","legacy","legacy","0","uniform","1","undefined","undefined","undefined","1","j","0","0","0","0","85","0","0","0","85","0","81","85","81","0","81","3","85","0","85","Tue Feb 16 14:11:09 2021","The main experiment item","yes","Lexical_Decision_Task.osexp","C:/Users/dyerm/Documents/Everything/Psych uni/Year 2 CaL","no","Andale Mono","no","18","no","white","no","yes","576","legacy","81","81","3","C:/Users/dyerm/Documents/Everything/Psych uni/Year 2 CaL/subject-5210564.csv","legacy","Lentiform Loewenfeld","3.3.7","yes","yes","600bd7cfb6416f0113b04181","602110864497cf011d9c0822","0","j","NA","space","j","j","space","j","624","NA","2520","9242","5759","4248","624","2","legacy","1024","2","48000","-16","task","5210564","even","NA","28638","33161","30640","196222","3503","18510","12751","196723","134137","196220","196723","196147","33161","197348","26754","195647","3499","42394","Lexical Decision Task","84","74858","86","yes","1024"
"3.064581521","5.51","6","cask","word","96.55172413793103","96.55172413793103","871.448275862069","871.448275862069","black","no","legacy","legacy","legacy","0","uniform","0","undefined","undefined","undefined","0","j","0","0","0","0","86","0","0","0","86","0","82","86","82","0","82","3","86","0","86","Tue Feb 16 14:11:09 2021","The main experiment item","yes","Lexical_Decision_Task.osexp","C:/Users/dyerm/Documents/Everything/Psych uni/Year 2 CaL","no","Andale Mono","no","18","no","white","no","yes","576","legacy","82","82","3","C:/Users/dyerm/Documents/Everything/Psych uni/Year 2 CaL/subject-5210564.csv","legacy","Lentiform Loewenfeld","3.3.7","yes","yes","600bd7cfb6416f0113b04181","602110864497cf011d9c0822","0","f","NA","space","j","j","space","f","958","NA","2520","9242","5759","4248","958","2","legacy","1024","2","48000","-16","task","5210564","even","NA","28638","33161","30640","197931","3503","18510","12751","198432","134137","197928","198432","197854","33161","199391","26754","197354","3499","42394","Lexical Decision Task","84","75816","87","yes","1024"
"2.8162413","0","5","nusk","non-word","96.5909090909091","96.5909090909091","871.125","871.125","black","no","legacy","legacy","legacy","0","uniform","1","undefined","undefined","undefined","1","f","0","0","0","0","87","0","0","0","87","0","83","87","83","0","83","3","87","0","87","Tue Feb 16 14:11:09 2021","The main experiment item","yes","Lexical_Decision_Task.osexp","C:/Users/dyerm/Documents/Everything/Psych uni/Year 2 CaL","no","Andale Mono","no","18","no","white","no","yes","576","legacy","83","83","3","C:/Users/dyerm/Documents/Everything/Psych uni/Year 2 CaL/subject-5210564.csv","legacy","Lentiform Loewenfeld","3.3.7","yes","yes","600bd7cfb6416f0113b04181","602110864497cf011d9c0822","0","f","NA","space","j","j","space","f","843","NA","2520","9242","5759","4248","843","2","legacy","1024","2","48000","-16","task","5210564","even","NA","28638","33161","30640","200973","3503","18510","12751","201474","134137","200971","201474","200898","33161","202319","26754","197354","3499","199397","Lexical Decision Task","85","76659","88","yes","1024"
"2.799799878","0","4","ciff","non-word","96.62921348314607","96.62921348314607","869.8876404494382","869.8876404494382","black","no","legacy","legacy","legacy","0","uniform","1","undefined","undefined","undefined","1","f","0","0","0","0","88","0","0","0","88","0","84","88","84","0","84","3","88","0","88","Tue Feb 16 14:11:09 2021","The main experiment item","yes","Lexical_Decision_Task.osexp","C:/Users/dyerm/Documents/Everything/Psych uni/Year 2 CaL","no","Andale Mono","no","18","no","white","no","yes","576","legacy","84","84","3","C:/Users/dyerm/Documents/Everything/Psych uni/Year 2 CaL/subject-5210564.csv","legacy","Lentiform Loewenfeld","3.3.7","yes","yes","600bd7cfb6416f0113b04181","602110864497cf011d9c0822","0","f","NA","space","j","j","space","f","761","NA","2520","9242","5759","4248","761","2","legacy","1024","2","48000","-16","task","5210564","even","NA","28638","33161","30640","202902","3503","18510","12751","203403","134137","202900","203404","202825","33161","204167","26754","202325","3499","199397","Lexical Decision Task","86","77420","89","yes","1024"
"2.695481676","0","7","goke","non-word","96.66666666666667","96.66666666666667","867.2888888888889","867.2888888888889","black","no","legacy","legacy","legacy","0","uniform","1","undefined","undefined","undefined","1","f","0","0","0","0","89","0","0","0","89","0","85","89","85","0","85","3","89","0","89","Tue Feb 16 14:11:09 2021","The main experiment item","yes","Lexical_Decision_Task.osexp","C:/Users/dyerm/Documents/Everything/Psych uni/Year 2 CaL","no","Andale Mono","no","18","no","white","no","yes","576","legacy","85","85","3","C:/Users/dyerm/Documents/Everything/Psych uni/Year 2 CaL/subject-5210564.csv","legacy","Lentiform Loewenfeld","3.3.7","yes","yes","600bd7cfb6416f0113b04181","602110864497cf011d9c0822","0","f","NA","space","j","j","space","f","636","NA","2520","9242","5759","4248","636","2","legacy","1024","2","48000","-16","task","5210564","even","NA","28638","33161","30640","204750","3503","18510","12751","205252","134137","204748","205252","204672","33161","205889","26754","204172","3499","199397","Lexical Decision Task","87","78056","90","yes","1024"
"2.971428938","9.86","7","spot","word","96.7032967032967","96.7032967032967","864.967032967033","864.967032967033","black","no","legacy","legacy","legacy","0","uniform","1","undefined","undefined","undefined","1","j","0","0","0","0","90","0","0","0","90","0","86","90","86","0","86","3","90","0","90","Tue Feb 16 14:11:09 2021","The main experiment item","yes","Lexical_Decision_Task.osexp","C:/Users/dyerm/Documents/Everything/Psych uni/Year 2 CaL","no","Andale Mono","no","18","no","white","no","yes","576","legacy","86","86","3","C:/Users/dyerm/Documents/Everything/Psych uni/Year 2 CaL/subject-5210564.csv","legacy","Lentiform Loewenfeld","3.3.7","yes","yes","600bd7cfb6416f0113b04181","602110864497cf011d9c0822","0","j","NA","space","j","j","space","j","656","NA","2520","9242","5759","4248","656","2","legacy","1024","2","48000","-16","task","5210564","even","NA","28638","33161","30640","206474","3503","18510","12751","206975","134137","206472","206976","206395","33161","207634","26754","205895","3499","199397","Lexical Decision Task","88","78712","91","yes","1024"
"3.307211407","6.07","7","honk","word","96.73913043478261","96.73913043478261","863.0652173913044","863.0652173913044","black","no","legacy","legacy","legacy","0","uniform","1","undefined","undefined","undefined","1","j","0","0","0","0","91","0","0","0","91","0","87","91","87","0","87","3","91","0","91","Tue Feb 16 14:11:09 2021","The main experiment item","yes","Lexical_Decision_Task.osexp","C:/Users/dyerm/Documents/Everything/Psych uni/Year 2 CaL","no","Andale Mono","no","18","no","white","no","yes","576","legacy","87","87","3","C:/Users/dyerm/Documents/Everything/Psych uni/Year 2 CaL/subject-5210564.csv","legacy","Lentiform Loewenfeld","3.3.7","yes","yes","600bd7cfb6416f0113b04181","602110864497cf011d9c0822","0","j","NA","space","j","j","space","j","690","NA","2520","9242","5759","4248","690","2","legacy","1024","2","48000","-16","task","5210564","even","NA","28638","33161","30640","208218","3503","18510","12751","208719","134137","208216","208719","208141","33161","209411","26754","207641","3499","199397","Lexical Decision Task","89","79402","92","yes","1024"
"2.698387659","6.66","7","skid","word","96.7741935483871","96.7741935483871","860.5591397849462","860.5591397849462","black","no","legacy","legacy","legacy","0","uniform","1","undefined","undefined","undefined","1","j","0","0","0","0","92","0","0","0","92","0","88","92","88","0","88","3","92","0","92","Tue Feb 16 14:11:09 2021","The main experiment item","yes","Lexical_Decision_Task.osexp","C:/Users/dyerm/Documents/Everything/Psych uni/Year 2 CaL","no","Andale Mono","no","18","no","white","no","yes","576","legacy","88","88","3","C:/Users/dyerm/Documents/Everything/Psych uni/Year 2 CaL/subject-5210564.csv","legacy","Lentiform Loewenfeld","3.3.7","yes","yes","600bd7cfb6416f0113b04181","602110864497cf011d9c0822","0","j","NA","space","j","j","space","j","630","NA","2520","9242","5759","4248","630","2","legacy","1024","2","48000","-16","task","5210564","even","NA","28638","33161","30640","209992","3503","18510","12751","210494","134137","209990","210494","209917","33161","211125","26754","209417","3499","199397","Lexical Decision Task","90","80032","93","yes","1024"
"2.675164031","8.57","6","glue","word","96.80851063829788","96.80851063829788","857.1914893617021","857.1914893617021","black","no","legacy","legacy","legacy","0","uniform","1","undefined","undefined","undefined","1","j","0","0","0","0","93","0","0","0","93","0","89","93","89","0","89","3","93","0","93","Tue Feb 16 14:11:09 2021","The main experiment item","yes","Lexical_Decision_Task.osexp","C:/Users/dyerm/Documents/Everything/Psych uni/Year 2 CaL","no","Andale Mono","no","18","no","white","no","yes","576","legacy","89","89","3","C:/Users/dyerm/Documents/Everything/Psych uni/Year 2 CaL/subject-5210564.csv","legacy","Lentiform Loewenfeld","3.3.7","yes","yes","600bd7cfb6416f0113b04181","602110864497cf011d9c0822","0","j","NA","space","j","j","space","j","544","NA","2520","9242","5759","4248","544","2","legacy","1024","2","48000","-16","task","5210564","even","NA","28638","33161","30640","211715","3503","18510","12751","212216","134137","211713","212216","211638","33161","212762","26754","211138","3499","199397","Lexical Decision Task","91","80576","94","yes","1024"
"2.616654026","9.37","5","gift","word","96.84210526315789","96.84210526315789","854.7157894736843","854.7157894736843","black","no","legacy","legacy","legacy","0","uniform","1","undefined","undefined","undefined","1","j","0","0","0","0","94","0","0","0","94","0","90","94","90","0","90","3","94","0","94","Tue Feb 16 14:11:09 2021","The main experiment item","yes","Lexical_Decision_Task.osexp","C:/Users/dyerm/Documents/Everything/Psych uni/Year 2 CaL","no","Andale Mono","no","18","no","white","no","yes","576","legacy","90","90","3","C:/Users/dyerm/Documents/Everything/Psych uni/Year 2 CaL/subject-5210564.csv","legacy","Lentiform Loewenfeld","3.3.7","yes","yes","600bd7cfb6416f0113b04181","602110864497cf011d9c0822","0","j","NA","space","j","j","space","j","622","NA","2520","9242","5759","4248","622","2","legacy","1024","2","48000","-16","task","5210564","even","NA","28638","33161","30640","213344","3503","18510","12751","213846","134137","213342","213846","213268","33161","214469","26754","212768","3499","199397","Lexical Decision Task","92","81198","95","yes","1024"
