"Log_BG","Log_Freq_HAL","Ortho_N","Stimulus","Type","acc","accuracy","average_response_time","avg_rt","background","bidi","canvas_backend","clock_backend","color_backend","compensation","coordinates","correct","correct_Experimental_intro","correct_Introduction","correct_Practice_intro","correct_experimenter_kb","correct_response","count_End_Of_Experiment","count_End_Of_Practice","count_Experimental_Loop","count_Experimental_intro","count_Fixation","count_Introduction","count_Practice_Loop","count_Practice_intro","count_Stimulus","count_block_break_feedback","count_experimental_sequence","count_experimenter_kb","count_increment_trial_count","count_init_trial_count","count_logger","count_practice_sequence","count_right","count_task","count_wrong","datetime","description","disable_garbage_collection","experiment_file","experiment_path","font_bold","font_family","font_italic","font_size","font_underline","foreground","form_clicks","fullscreen","height","keyboard_backend","live_row","live_row_Experimental_Loop","live_row_Practice_Loop","logfile","mouse_backend","opensesame_codename","opensesame_version","osf_always_upload_data","osf_always_upload_experiment","osf_datanode_id","osf_id","repeat_cycle","response","response_End_Of_Experiment","response_Experimental_intro","response_Introduction","response_Practice_intro","response_block_break_feedback","response_experimenter_kb","response_time","response_time_End_Of_Experiment","response_time_Experimental_intro","response_time_Introduction","response_time_Practice_intro","response_time_block_break_feedback","response_time_experimenter_kb","round_decimals","sampler_backend","sound_buf_size","sound_channels","sound_freq","sound_sample_size","start","subject_nr","subject_parity","time_End_Of_Experiment","time_End_Of_Practice","time_Experimental_Loop","time_Experimental_intro","time_Fixation","time_Introduction","time_Practice_Loop","time_Practice_intro","time_Stimulus","time_block_break_feedback","time_experimental_sequence","time_experimenter_kb","time_increment_trial_count","time_init_trial_count","time_logger","time_practice_sequence","time_right","time_task","time_wrong","title","total_correct","total_response_time","total_responses","uniform_coordinates","width"
"3.134602053","0","8","jart","non-word","100","100","1011.4","1011.4","black","no","legacy","legacy","legacy","0","uniform","1","undefined","undefined","undefined","1","f","0","0","0","0","4","0","0","0","4","NA","0","4","0","0","0","3","4","0","4","Thu Feb 18 13:58:37 2021","The main experiment item","yes","Lexical_Decision_Task.osexp","C:/Users/Ethan/OneDrive/Documents","no","Andale Mono","no","18","no","white","no","yes","576","legacy","0","0","3","C:/Users/Ethan/OneDrive/Documents/subject-5207871.csv","legacy","Lentiform Loewenfeld","3.3.7","yes","yes","600bd7cfb6416f0113b04181","602110864497cf011d9c0822","0","f","NA","return","unknown key","return","NA","f","874","NA","2993","18990","7555","NA","874","2","legacy","1024","2","48000","-16","task","5207871","odd","NA","39475","44473","41479","44552","4000","30552","22995","45055","NA","44549","45056","NA","44473","45931","37621","38925","3991","NA","Lexical Decision Task","5","5057","5","yes","1024"
"2.924968096","0","4","phim","non-word","100","100","939.6666666666666","939.6666666666666","black","no","legacy","legacy","legacy","0","uniform","1","undefined","undefined","undefined","1","f","0","0","0","0","5","0","0","0","5","NA","1","5","1","0","1","3","5","0","5","Thu Feb 18 13:58:37 2021","The main experiment item","yes","Lexical_Decision_Task.osexp","C:/Users/Ethan/OneDrive/Documents","no","Andale Mono","no","18","no","white","no","yes","576","legacy","1","1","3","C:/Users/Ethan/OneDrive/Documents/subject-5207871.csv","legacy","Lentiform Loewenfeld","3.3.7","yes","yes","600bd7cfb6416f0113b04181","602110864497cf011d9c0822","0","f","NA","return","unknown key","return","NA","f","581","NA","2993","18990","7555","NA","581","2","legacy","1024","2","48000","-16","task","5207871","odd","NA","39475","44473","41479","46643","4000","30552","22995","47146","NA","46639","47147","46449","44473","47729","37621","45949","3991","NA","Lexical Decision Task","6","5638","6","yes","1024"
"3.282244367","0","6","fute","non-word","100","100","888.4285714285714","888.4285714285714","black","no","legacy","legacy","legacy","0","uniform","1","undefined","undefined","undefined","1","f","0","0","0","0","6","0","0","0","6","NA","2","6","2","0","2","3","6","0","6","Thu Feb 18 13:58:37 2021","The main experiment item","yes","Lexical_Decision_Task.osexp","C:/Users/Ethan/OneDrive/Documents","no","Andale Mono","no","18","no","white","no","yes","576","legacy","2","2","3","C:/Users/Ethan/OneDrive/Documents/subject-5207871.csv","legacy","Lentiform Loewenfeld","3.3.7","yes","yes","600bd7cfb6416f0113b04181","602110864497cf011d9c0822","0","f","NA","return","unknown key","return","NA","f","581","NA","2993","18990","7555","NA","581","2","legacy","1024","2","48000","-16","task","5207871","odd","NA","39475","44473","41479","48407","4000","30552","22995","48910","NA","48402","48910","48237","44473","49492","37621","47737","3991","NA","Lexical Decision Task","7","6219","7","yes","1024"
"2.75025376","10.2","6","jump","word","100","100","851","851","black","no","legacy","legacy","legacy","0","uniform","1","undefined","undefined","undefined","1","j","0","0","0","0","7","0","0","0","7","NA","3","7","3","0","3","3","7","0","7","Thu Feb 18 13:58:37 2021","The main experiment item","yes","Lexical_Decision_Task.osexp","C:/Users/Ethan/OneDrive/Documents","no","Andale Mono","no","18","no","white","no","yes","576","legacy","3","3","3","C:/Users/Ethan/OneDrive/Documents/subject-5207871.csv","legacy","Lentiform Loewenfeld","3.3.7","yes","yes","600bd7cfb6416f0113b04181","602110864497cf011d9c0822","0","j","NA","return","unknown key","return","NA","j","589","NA","2993","18990","7555","NA","589","2","legacy","1024","2","48000","-16","task","5207871","odd","NA","39475","44473","41479","50137","4000","30552","22995","50640","NA","50135","50640","50005","44473","51230","37621","49505","3991","NA","Lexical Decision Task","8","6808","8","yes","1024"
"2.793790385","5.67","9","swab","word","100","100","832.7777777777778","832.7777777777778","black","no","legacy","legacy","legacy","0","uniform","1","undefined","undefined","undefined","1","j","0","0","0","0","8","0","0","0","8","NA","4","8","4","0","4","3","8","0","8","Thu Feb 18 13:58:37 2021","The main experiment item","yes","Lexical_Decision_Task.osexp","C:/Users/Ethan/OneDrive/Documents","no","Andale Mono","no","18","no","white","no","yes","576","legacy","4","4","3","C:/Users/Ethan/OneDrive/Documents/subject-5207871.csv","legacy","Lentiform Loewenfeld","3.3.7","yes","yes","600bd7cfb6416f0113b04181","602110864497cf011d9c0822","0","j","NA","return","unknown key","return","NA","j","687","NA","2993","18990","7555","NA","687","2","legacy","1024","2","48000","-16","task","5207871","odd","NA","39475","44473","41479","51879","4000","30552","22995","52382","NA","51878","52382","51747","44473","53070","37621","51247","3991","NA","Lexical Decision Task","9","7495","9","yes","1024"
"2.664011697","8.19","4","hawk","word","100","100","824.7","824.7","black","no","legacy","legacy","legacy","0","uniform","1","undefined","undefined","undefined","1","j","0","0","0","0","9","0","0","0","9","NA","5","9","5","0","5","3","9","0","9","Thu Feb 18 13:58:37 2021","The main experiment item","yes","Lexical_Decision_Task.osexp","C:/Users/Ethan/OneDrive/Documents","no","Andale Mono","no","18","no","white","no","yes","576","legacy","5","5","3","C:/Users/Ethan/OneDrive/Documents/subject-5207871.csv","legacy","Lentiform Loewenfeld","3.3.7","yes","yes","600bd7cfb6416f0113b04181","602110864497cf011d9c0822","0","j","NA","return","unknown key","return","NA","j","752","NA","2993","18990","7555","NA","752","2","legacy","1024","2","48000","-16","task","5207871","odd","NA","39475","44473","41479","53718","4000","30552","22995","54221","NA","53716","54222","53584","44473","54975","37621","53084","3991","NA","Lexical Decision Task","10","8247","10","yes","1024"
"2.782472624","10.55","2","huge","word","100","100","796.3636363636364","796.3636363636364","black","no","legacy","legacy","legacy","0","uniform","1","undefined","undefined","undefined","1","j","0","0","0","0","10","0","0","0","10","NA","6","10","6","0","6","3","10","0","10","Thu Feb 18 13:58:37 2021","The main experiment item","yes","Lexical_Decision_Task.osexp","C:/Users/Ethan/OneDrive/Documents","no","Andale Mono","no","18","no","white","no","yes","576","legacy","6","6","3","C:/Users/Ethan/OneDrive/Documents/subject-5207871.csv","legacy","Lentiform Loewenfeld","3.3.7","yes","yes","600bd7cfb6416f0113b04181","602110864497cf011d9c0822","0","j","NA","return","unknown key","return","NA","j","513","NA","2993","18990","7555","NA","513","2","legacy","1024","2","48000","-16","task","5207871","odd","NA","39475","44473","41479","55627","4000","30552","22995","56130","NA","55625","56131","55492","44473","56645","37621","54992","3991","NA","Lexical Decision Task","11","8760","11","yes","1024"
"2.868644438","10.52","4","town","word","100","100","770.1666666666666","770.1666666666666","black","no","legacy","legacy","legacy","0","uniform","1","undefined","undefined","undefined","1","j","0","0","0","0","11","0","0","0","11","NA","7","11","7","0","7","3","11","0","11","Thu Feb 18 13:58:37 2021","The main experiment item","yes","Lexical_Decision_Task.osexp","C:/Users/Ethan/OneDrive/Documents","no","Andale Mono","no","18","no","white","no","yes","576","legacy","7","7","3","C:/Users/Ethan/OneDrive/Documents/subject-5207871.csv","legacy","Lentiform Loewenfeld","3.3.7","yes","yes","600bd7cfb6416f0113b04181","602110864497cf011d9c0822","0","j","NA","return","unknown key","return","NA","j","482","NA","2993","18990","7555","NA","482","2","legacy","1024","2","48000","-16","task","5207871","odd","NA","39475","44473","41479","57314","4000","30552","22995","57818","NA","57311","57818","57159","44473","58302","37621","56659","3991","NA","Lexical Decision Task","12","9242","12","yes","1024"
"3.195807436","0","6","stup","non-word","100","100","766.8461538461538","766.8461538461538","black","no","legacy","legacy","legacy","0","uniform","1","undefined","undefined","undefined","1","f","0","0","0","0","12","0","0","0","12","NA","8","12","8","0","8","3","12","0","12","Thu Feb 18 13:58:37 2021","The main experiment item","yes","Lexical_Decision_Task.osexp","C:/Users/Ethan/OneDrive/Documents","no","Andale Mono","no","18","no","white","no","yes","576","legacy","8","8","3","C:/Users/Ethan/OneDrive/Documents/subject-5207871.csv","legacy","Lentiform Loewenfeld","3.3.7","yes","yes","600bd7cfb6416f0113b04181","602110864497cf011d9c0822","0","f","NA","return","unknown key","return","NA","f","727","NA","2993","18990","7555","NA","727","2","legacy","1024","2","48000","-16","task","5207871","odd","NA","39475","44473","41479","58997","4000","30552","22995","59500","NA","58995","59500","58819","44473","60228","37621","58319","3991","NA","Lexical Decision Task","13","9969","13","yes","1024"
"3.397302518","7.01","2","knit","word","100","100","777","777","black","no","legacy","legacy","legacy","0","uniform","1","undefined","undefined","undefined","1","j","0","0","0","0","13","0","0","0","13","NA","9","13","9","0","9","3","13","0","13","Thu Feb 18 13:58:37 2021","The main experiment item","yes","Lexical_Decision_Task.osexp","C:/Users/Ethan/OneDrive/Documents","no","Andale Mono","no","18","no","white","no","yes","576","legacy","9","9","3","C:/Users/Ethan/OneDrive/Documents/subject-5207871.csv","legacy","Lentiform Loewenfeld","3.3.7","yes","yes","600bd7cfb6416f0113b04181","602110864497cf011d9c0822","0","j","NA","return","unknown key","return","NA","j","909","NA","2993","18990","7555","NA","909","2","legacy","1024","2","48000","-16","task","5207871","odd","NA","39475","44473","41479","60877","4000","30552","22995","61380","NA","60875","61381","60746","44473","62292","37621","60246","3991","NA","Lexical Decision Task","14","10878","14","yes","1024"
"3.366547468","0","6","plat","non-word","100","100","803.5333333333333","803.5333333333333","black","no","legacy","legacy","legacy","0","uniform","1","undefined","undefined","undefined","1","f","0","0","0","0","14","0","0","0","14","NA","10","14","10","0","10","3","14","0","14","Thu Feb 18 13:58:37 2021","The main experiment item","yes","Lexical_Decision_Task.osexp","C:/Users/Ethan/OneDrive/Documents","no","Andale Mono","no","18","no","white","no","yes","576","legacy","10","10","3","C:/Users/Ethan/OneDrive/Documents/subject-5207871.csv","legacy","Lentiform Loewenfeld","3.3.7","yes","yes","600bd7cfb6416f0113b04181","602110864497cf011d9c0822","0","f","NA","return","unknown key","return","NA","f","1175","NA","2993","18990","7555","NA","1175","2","legacy","1024","2","48000","-16","task","5207871","odd","NA","39475","44473","41479","62938","4000","30552","22995","63441","NA","62936","63442","62809","44473","64618","37621","62309","3991","NA","Lexical Decision Task","15","12053","15","yes","1024"
"2.693726949","5.08","3","swig","word","100","100","814","814","black","no","legacy","legacy","legacy","0","uniform","1","undefined","undefined","undefined","1","j","0","0","0","0","15","0","0","0","15","NA","11","15","11","0","11","3","15","0","15","Thu Feb 18 13:58:37 2021","The main experiment item","yes","Lexical_Decision_Task.osexp","C:/Users/Ethan/OneDrive/Documents","no","Andale Mono","no","18","no","white","no","yes","576","legacy","11","11","3","C:/Users/Ethan/OneDrive/Documents/subject-5207871.csv","legacy","Lentiform Loewenfeld","3.3.7","yes","yes","600bd7cfb6416f0113b04181","602110864497cf011d9c0822","0","j","NA","return","unknown key","return","NA","j","971","NA","2993","18990","7555","NA","971","2","legacy","1024","2","48000","-16","task","5207871","odd","NA","39475","44473","41479","65261","4000","30552","22995","65764","NA","65259","65764","65135","44473","66736","37621","64635","3991","NA","Lexical Decision Task","16","13024","16","yes","1024"
"3.031408464","0","7","drow","non-word","100","100","810.8823529411765","810.8823529411765","black","no","legacy","legacy","legacy","0","uniform","1","undefined","undefined","undefined","1","f","0","0","0","0","16","0","0","0","16","NA","12","16","12","0","12","3","16","0","16","Thu Feb 18 13:58:37 2021","The main experiment item","yes","Lexical_Decision_Task.osexp","C:/Users/Ethan/OneDrive/Documents","no","Andale Mono","no","18","no","white","no","yes","576","legacy","12","12","3","C:/Users/Ethan/OneDrive/Documents/subject-5207871.csv","legacy","Lentiform Loewenfeld","3.3.7","yes","yes","600bd7cfb6416f0113b04181","602110864497cf011d9c0822","0","f","NA","return","unknown key","return","NA","f","761","NA","2993","18990","7555","NA","761","2","legacy","1024","2","48000","-16","task","5207871","odd","NA","39475","44473","41479","67397","4000","30552","22995","67900","NA","67395","67900","67252","44473","68663","37621","66752","3991","NA","Lexical Decision Task","17","13785","17","yes","1024"
"3.209246849","0","7","slem","non-word","100","100","800.8333333333334","800.8333333333334","black","no","legacy","legacy","legacy","0","uniform","1","undefined","undefined","undefined","1","f","0","0","0","0","17","0","0","0","17","NA","13","17","13","0","13","3","17","0","17","Thu Feb 18 13:58:37 2021","The main experiment item","yes","Lexical_Decision_Task.osexp","C:/Users/Ethan/OneDrive/Documents","no","Andale Mono","no","18","no","white","no","yes","576","legacy","13","13","3","C:/Users/Ethan/OneDrive/Documents/subject-5207871.csv","legacy","Lentiform Loewenfeld","3.3.7","yes","yes","600bd7cfb6416f0113b04181","602110864497cf011d9c0822","0","f","NA","return","unknown key","return","NA","f","630","NA","2993","18990","7555","NA","630","2","legacy","1024","2","48000","-16","task","5207871","odd","NA","39475","44473","41479","69307","4000","30552","22995","69811","NA","69306","69811","69179","44473","70443","37621","68679","3991","NA","Lexical Decision Task","18","14415","18","yes","1024"
"3.16326079","0","5","parg","non-word","100","100","788.421052631579","788.421052631579","black","no","legacy","legacy","legacy","0","uniform","1","undefined","undefined","undefined","1","f","0","0","0","0","18","0","0","0","18","NA","14","18","14","0","14","3","18","0","18","Thu Feb 18 13:58:37 2021","The main experiment item","yes","Lexical_Decision_Task.osexp","C:/Users/Ethan/OneDrive/Documents","no","Andale Mono","no","18","no","white","no","yes","576","legacy","14","14","3","C:/Users/Ethan/OneDrive/Documents/subject-5207871.csv","legacy","Lentiform Loewenfeld","3.3.7","yes","yes","600bd7cfb6416f0113b04181","602110864497cf011d9c0822","0","f","NA","return","unknown key","return","NA","f","565","NA","2993","18990","7555","NA","565","2","legacy","1024","2","48000","-16","task","5207871","odd","NA","39475","44473","41479","71084","4000","30552","22995","71587","NA","71082","71587","70956","44473","72153","37621","70456","3991","NA","Lexical Decision Task","19","14980","19","yes","1024"
"3.303771854","0","9","dath","non-word","100","100","781.8","781.8","black","no","legacy","legacy","legacy","0","uniform","1","undefined","undefined","undefined","1","f","0","0","0","0","19","0","0","0","19","NA","15","19","15","0","15","3","19","0","19","Thu Feb 18 13:58:37 2021","The main experiment item","yes","Lexical_Decision_Task.osexp","C:/Users/Ethan/OneDrive/Documents","no","Andale Mono","no","18","no","white","no","yes","576","legacy","15","15","3","C:/Users/Ethan/OneDrive/Documents/subject-5207871.csv","legacy","Lentiform Loewenfeld","3.3.7","yes","yes","600bd7cfb6416f0113b04181","602110864497cf011d9c0822","0","f","NA","return","unknown key","return","NA","f","656","NA","2993","18990","7555","NA","656","2","legacy","1024","2","48000","-16","task","5207871","odd","NA","39475","44473","41479","72793","4000","30552","22995","73297","NA","72791","73297","72661","44473","73954","37621","72161","3991","NA","Lexical Decision Task","20","15636","20","yes","1024"
"2.819763221","0","2","durp","non-word","100","100","778.5238095238095","778.5238095238095","black","no","legacy","legacy","legacy","0","uniform","1","undefined","undefined","undefined","1","f","0","0","0","0","20","0","0","0","20","NA","16","20","16","0","16","3","20","0","20","Thu Feb 18 13:58:37 2021","The main experiment item","yes","Lexical_Decision_Task.osexp","C:/Users/Ethan/OneDrive/Documents","no","Andale Mono","no","18","no","white","no","yes","576","legacy","16","16","3","C:/Users/Ethan/OneDrive/Documents/subject-5207871.csv","legacy","Lentiform Loewenfeld","3.3.7","yes","yes","600bd7cfb6416f0113b04181","602110864497cf011d9c0822","0","f","NA","return","unknown key","return","NA","f","713","NA","2993","18990","7555","NA","713","2","legacy","1024","2","48000","-16","task","5207871","odd","NA","39475","44473","41479","74596","4000","30552","22995","75099","NA","74595","75099","74471","44473","75813","37621","73971","3991","NA","Lexical Decision Task","21","16349","21","yes","1024"
"2.80048796","0","8","pife","non-word","100","100","775.0454545454545","775.0454545454545","black","no","legacy","legacy","legacy","0","uniform","1","undefined","undefined","undefined","1","f","0","0","0","0","21","0","0","0","21","NA","17","21","17","0","17","3","21","0","21","Thu Feb 18 13:58:37 2021","The main experiment item","yes","Lexical_Decision_Task.osexp","C:/Users/Ethan/OneDrive/Documents","no","Andale Mono","no","18","no","white","no","yes","576","legacy","17","17","3","C:/Users/Ethan/OneDrive/Documents/subject-5207871.csv","legacy","Lentiform Loewenfeld","3.3.7","yes","yes","600bd7cfb6416f0113b04181","602110864497cf011d9c0822","0","f","NA","return","unknown key","return","NA","f","702","NA","2993","18990","7555","NA","702","2","legacy","1024","2","48000","-16","task","5207871","odd","NA","39475","44473","41479","76465","4000","30552","22995","76969","NA","76463","76969","76330","44473","77672","37621","75830","3991","NA","Lexical Decision Task","22","17051","22","yes","1024"
"2.784379519","0","2","snaf","non-word","100","100","767.6086956521739","767.6086956521739","black","no","legacy","legacy","legacy","0","uniform","1","undefined","undefined","undefined","1","f","0","0","0","0","22","0","0","0","22","NA","18","22","18","0","18","3","22","0","22","Thu Feb 18 13:58:37 2021","The main experiment item","yes","Lexical_Decision_Task.osexp","C:/Users/Ethan/OneDrive/Documents","no","Andale Mono","no","18","no","white","no","yes","576","legacy","18","18","3","C:/Users/Ethan/OneDrive/Documents/subject-5207871.csv","legacy","Lentiform Loewenfeld","3.3.7","yes","yes","600bd7cfb6416f0113b04181","602110864497cf011d9c0822","0","f","NA","return","unknown key","return","NA","f","604","NA","2993","18990","7555","NA","604","2","legacy","1024","2","48000","-16","task","5207871","odd","NA","39475","44473","41479","78340","4000","30552","22995","78843","NA","78338","78844","78192","44473","79450","37621","77692","3991","NA","Lexical Decision Task","23","17655","23","yes","1024"
"3.252447662","9.67","9","boat","word","100","100","759.2916666666666","759.2916666666666","black","no","legacy","legacy","legacy","0","uniform","1","undefined","undefined","undefined","1","j","0","0","0","0","23","0","0","0","23","NA","19","23","19","0","19","3","23","0","23","Thu Feb 18 13:58:37 2021","The main experiment item","yes","Lexical_Decision_Task.osexp","C:/Users/Ethan/OneDrive/Documents","no","Andale Mono","no","18","no","white","no","yes","576","legacy","19","19","3","C:/Users/Ethan/OneDrive/Documents/subject-5207871.csv","legacy","Lentiform Loewenfeld","3.3.7","yes","yes","600bd7cfb6416f0113b04181","602110864497cf011d9c0822","0","j","NA","return","unknown key","return","NA","j","568","NA","2993","18990","7555","NA","568","2","legacy","1024","2","48000","-16","task","5207871","odd","NA","39475","44473","41479","80100","4000","30552","22995","80603","NA","80098","80603","79966","44473","81172","37621","79466","3991","NA","Lexical Decision Task","24","18223","24","yes","1024"
"2.880623071","0","9","curp","non-word","100","100","760.72","760.72","black","no","legacy","legacy","legacy","0","uniform","1","undefined","undefined","undefined","1","f","0","0","0","0","24","0","0","0","24","NA","20","24","20","0","20","3","24","0","24","Thu Feb 18 13:58:37 2021","The main experiment item","yes","Lexical_Decision_Task.osexp","C:/Users/Ethan/OneDrive/Documents","no","Andale Mono","no","18","no","white","no","yes","576","legacy","20","20","3","C:/Users/Ethan/OneDrive/Documents/subject-5207871.csv","legacy","Lentiform Loewenfeld","3.3.7","yes","yes","600bd7cfb6416f0113b04181","602110864497cf011d9c0822","0","f","NA","return","unknown key","return","NA","f","795","NA","2993","18990","7555","NA","795","2","legacy","1024","2","48000","-16","task","5207871","odd","NA","39475","44473","41479","81832","4000","30552","22995","82335","NA","81829","82336","81682","44473","83133","37621","81182","3991","NA","Lexical Decision Task","25","19018","25","yes","1024"
"2.706148589","0","4","hube","non-word","100","100","761.8461538461538","761.8461538461538","black","no","legacy","legacy","legacy","0","uniform","1","undefined","undefined","undefined","1","f","0","0","0","0","25","0","0","0","25","NA","21","25","21","0","21","3","25","0","25","Thu Feb 18 13:58:37 2021","The main experiment item","yes","Lexical_Decision_Task.osexp","C:/Users/Ethan/OneDrive/Documents","no","Andale Mono","no","18","no","white","no","yes","576","legacy","21","21","3","C:/Users/Ethan/OneDrive/Documents/subject-5207871.csv","legacy","Lentiform Loewenfeld","3.3.7","yes","yes","600bd7cfb6416f0113b04181","602110864497cf011d9c0822","0","f","NA","return","unknown key","return","NA","f","790","NA","2993","18990","7555","NA","790","2","legacy","1024","2","48000","-16","task","5207871","odd","NA","39475","44473","41479","83792","4000","30552","22995","84295","NA","83789","84296","83648","44473","85088","37621","83148","3991","NA","Lexical Decision Task","26","19808","26","yes","1024"
"3.088136089","8.32","9","worm","word","100","100","758.2592592592592","758.2592592592592","black","no","legacy","legacy","legacy","0","uniform","1","undefined","undefined","undefined","1","j","0","0","0","0","26","0","0","0","26","NA","22","26","22","0","22","3","26","0","26","Thu Feb 18 13:58:37 2021","The main experiment item","yes","Lexical_Decision_Task.osexp","C:/Users/Ethan/OneDrive/Documents","no","Andale Mono","no","18","no","white","no","yes","576","legacy","22","22","3","C:/Users/Ethan/OneDrive/Documents/subject-5207871.csv","legacy","Lentiform Loewenfeld","3.3.7","yes","yes","600bd7cfb6416f0113b04181","602110864497cf011d9c0822","0","j","NA","return","unknown key","return","NA","j","665","NA","2993","18990","7555","NA","665","2","legacy","1024","2","48000","-16","task","5207871","odd","NA","39475","44473","41479","85724","4000","30552","22995","86227","NA","85722","86227","85604","44473","86893","37621","85104","3991","NA","Lexical Decision Task","27","20473","27","yes","1024"
"3.1430148","7.92","8","bald","word","100","100","751.1785714285714","751.1785714285714","black","no","legacy","legacy","legacy","0","uniform","1","undefined","undefined","undefined","1","j","0","0","0","0","27","0","0","0","27","NA","23","27","23","0","23","3","27","0","27","Thu Feb 18 13:58:37 2021","The main experiment item","yes","Lexical_Decision_Task.osexp","C:/Users/Ethan/OneDrive/Documents","no","Andale Mono","no","18","no","white","no","yes","576","legacy","23","23","3","C:/Users/Ethan/OneDrive/Documents/subject-5207871.csv","legacy","Lentiform Loewenfeld","3.3.7","yes","yes","600bd7cfb6416f0113b04181","602110864497cf011d9c0822","0","j","NA","return","unknown key","return","NA","j","560","NA","2993","18990","7555","NA","560","2","legacy","1024","2","48000","-16","task","5207871","odd","NA","39475","44473","41479","87538","4000","30552","22995","88042","NA","87536","88042","87410","44473","88604","37621","86910","3991","NA","Lexical Decision Task","28","21033","28","yes","1024"
"2.845304797","0","6","buct","non-word","100","100","746","746","black","no","legacy","legacy","legacy","0","uniform","1","undefined","undefined","undefined","1","f","0","0","0","0","28","0","0","0","28","NA","24","28","24","0","24","3","28","0","28","Thu Feb 18 13:58:37 2021","The main experiment item","yes","Lexical_Decision_Task.osexp","C:/Users/Ethan/OneDrive/Documents","no","Andale Mono","no","18","no","white","no","yes","576","legacy","24","24","3","C:/Users/Ethan/OneDrive/Documents/subject-5207871.csv","legacy","Lentiform Loewenfeld","3.3.7","yes","yes","600bd7cfb6416f0113b04181","602110864497cf011d9c0822","0","f","NA","return","unknown key","return","NA","f","601","NA","2993","18990","7555","NA","601","2","legacy","1024","2","48000","-16","task","5207871","odd","NA","39475","44473","41479","89246","4000","30552","22995","89750","NA","89245","89750","89123","44473","90352","37621","88622","3991","NA","Lexical Decision Task","29","21634","29","yes","1024"
"3.225825991","0","7","talm","non-word","100","100","738.5666666666667","738.5666666666667","black","no","legacy","legacy","legacy","0","uniform","1","undefined","undefined","undefined","1","f","0","0","0","0","29","0","0","0","29","NA","25","29","25","0","25","3","29","0","29","Thu Feb 18 13:58:37 2021","The main experiment item","yes","Lexical_Decision_Task.osexp","C:/Users/Ethan/OneDrive/Documents","no","Andale Mono","no","18","no","white","no","yes","576","legacy","25","25","3","C:/Users/Ethan/OneDrive/Documents/subject-5207871.csv","legacy","Lentiform Loewenfeld","3.3.7","yes","yes","600bd7cfb6416f0113b04181","602110864497cf011d9c0822","0","f","NA","return","unknown key","return","NA","f","523","NA","2993","18990","7555","NA","523","2","legacy","1024","2","48000","-16","task","5207871","odd","NA","39475","44473","41479","90997","4000","30552","22995","91500","NA","90995","91501","90866","44473","92026","37621","90366","3991","NA","Lexical Decision Task","30","22157","30","yes","1024"
"3.368162872","0","4","ferk","non-word","100","100","732.741935483871","732.741935483871","black","no","legacy","legacy","legacy","0","uniform","1","undefined","undefined","undefined","1","f","0","0","0","0","30","0","0","0","30","NA","26","30","26","0","26","3","30","0","30","Thu Feb 18 13:58:37 2021","The main experiment item","yes","Lexical_Decision_Task.osexp","C:/Users/Ethan/OneDrive/Documents","no","Andale Mono","no","18","no","white","no","yes","576","legacy","26","26","3","C:/Users/Ethan/OneDrive/Documents/subject-5207871.csv","legacy","Lentiform Loewenfeld","3.3.7","yes","yes","600bd7cfb6416f0113b04181","602110864497cf011d9c0822","0","f","NA","return","unknown key","return","NA","f","558","NA","2993","18990","7555","NA","558","2","legacy","1024","2","48000","-16","task","5207871","odd","NA","39475","44473","41479","92680","4000","30552","22995","93184","NA","92679","93184","92544","44473","93744","37621","92044","3991","NA","Lexical Decision Task","31","22715","31","yes","1024"
"3.372543801","9.24","8","coat","word","100","100","729.875","729.875","black","no","legacy","legacy","legacy","0","uniform","1","undefined","undefined","undefined","1","j","0","0","0","0","31","0","0","0","31","NA","27","31","27","0","27","3","31","0","31","Thu Feb 18 13:58:37 2021","The main experiment item","yes","Lexical_Decision_Task.osexp","C:/Users/Ethan/OneDrive/Documents","no","Andale Mono","no","18","no","white","no","yes","576","legacy","27","27","3","C:/Users/Ethan/OneDrive/Documents/subject-5207871.csv","legacy","Lentiform Loewenfeld","3.3.7","yes","yes","600bd7cfb6416f0113b04181","602110864497cf011d9c0822","0","j","NA","return","unknown key","return","NA","j","641","NA","2993","18990","7555","NA","641","2","legacy","1024","2","48000","-16","task","5207871","odd","NA","39475","44473","41479","94393","4000","30552","22995","94898","NA","94392","94898","94258","44473","95541","37621","93758","3991","NA","Lexical Decision Task","32","23356","32","yes","1024"
"3.488597715","0","9","nain","non-word","100","100","724.6060606060606","724.6060606060606","black","no","legacy","legacy","legacy","0","uniform","1","undefined","undefined","undefined","1","f","0","0","0","0","32","0","0","0","32","NA","28","32","28","0","28","3","32","0","32","Thu Feb 18 13:58:37 2021","The main experiment item","yes","Lexical_Decision_Task.osexp","C:/Users/Ethan/OneDrive/Documents","no","Andale Mono","no","18","no","white","no","yes","576","legacy","28","28","3","C:/Users/Ethan/OneDrive/Documents/subject-5207871.csv","legacy","Lentiform Loewenfeld","3.3.7","yes","yes","600bd7cfb6416f0113b04181","602110864497cf011d9c0822","0","f","NA","return","unknown key","return","NA","f","556","NA","2993","18990","7555","NA","556","2","legacy","1024","2","48000","-16","task","5207871","odd","NA","39475","44473","41479","96186","4000","30552","22995","96689","NA","96185","96689","96056","44473","97248","37621","95556","3991","NA","Lexical Decision Task","33","23912","33","yes","1024"
"3.081107167","0","6","chot","non-word","100","100","721.7352941176471","721.7352941176471","black","no","legacy","legacy","legacy","0","uniform","1","undefined","undefined","undefined","1","f","0","0","0","0","33","0","0","0","33","NA","29","33","29","0","29","3","33","0","33","Thu Feb 18 13:58:37 2021","The main experiment item","yes","Lexical_Decision_Task.osexp","C:/Users/Ethan/OneDrive/Documents","no","Andale Mono","no","18","no","white","no","yes","576","legacy","29","29","3","C:/Users/Ethan/OneDrive/Documents/subject-5207871.csv","legacy","Lentiform Loewenfeld","3.3.7","yes","yes","600bd7cfb6416f0113b04181","602110864497cf011d9c0822","0","f","NA","return","unknown key","return","NA","f","627","NA","2993","18990","7555","NA","627","2","legacy","1024","2","48000","-16","task","5207871","odd","NA","39475","44473","41479","97907","4000","30552","22995","98410","NA","97903","98411","97765","44473","99040","37621","97264","3991","NA","Lexical Decision Task","34","24539","34","yes","1024"
"2.907588697","8.91","9","mood","word","100","100","718.8571428571429","718.8571428571429","black","no","legacy","legacy","legacy","0","uniform","1","undefined","undefined","undefined","1","j","0","0","0","0","34","0","0","0","34","NA","30","34","30","0","30","3","34","0","34","Thu Feb 18 13:58:37 2021","The main experiment item","yes","Lexical_Decision_Task.osexp","C:/Users/Ethan/OneDrive/Documents","no","Andale Mono","no","18","no","white","no","yes","576","legacy","30","30","3","C:/Users/Ethan/OneDrive/Documents/subject-5207871.csv","legacy","Lentiform Loewenfeld","3.3.7","yes","yes","600bd7cfb6416f0113b04181","602110864497cf011d9c0822","0","j","NA","return","unknown key","return","NA","j","621","NA","2993","18990","7555","NA","621","2","legacy","1024","2","48000","-16","task","5207871","odd","NA","39475","44473","41479","99675","4000","30552","22995","100178","NA","99674","100178","99556","44473","100802","37621","99056","3991","NA","Lexical Decision Task","35","25160","35","yes","1024"
"3.153104174","10.89","6","door","word","100","100","714.5555555555555","714.5555555555555","black","no","legacy","legacy","legacy","0","uniform","1","undefined","undefined","undefined","1","j","0","0","0","0","35","0","0","0","35","NA","31","35","31","0","31","3","35","0","35","Thu Feb 18 13:58:37 2021","The main experiment item","yes","Lexical_Decision_Task.osexp","C:/Users/Ethan/OneDrive/Documents","no","Andale Mono","no","18","no","white","no","yes","576","legacy","31","31","3","C:/Users/Ethan/OneDrive/Documents/subject-5207871.csv","legacy","Lentiform Loewenfeld","3.3.7","yes","yes","600bd7cfb6416f0113b04181","602110864497cf011d9c0822","0","j","NA","return","unknown key","return","NA","j","564","NA","2993","18990","7555","NA","564","2","legacy","1024","2","48000","-16","task","5207871","odd","NA","39475","44473","41479","101450","4000","30552","22995","101954","NA","101448","101954","101318","44473","102520","37621","100818","3991","NA","Lexical Decision Task","36","25724","36","yes","1024"
"2.664328519","0","4","plux","non-word","100","100","711.9459459459459","711.9459459459459","black","no","legacy","legacy","legacy","0","uniform","1","undefined","undefined","undefined","1","f","0","0","0","0","36","0","0","0","36","NA","32","36","32","0","32","3","36","0","36","Thu Feb 18 13:58:37 2021","The main experiment item","yes","Lexical_Decision_Task.osexp","C:/Users/Ethan/OneDrive/Documents","no","Andale Mono","no","18","no","white","no","yes","576","legacy","32","32","3","C:/Users/Ethan/OneDrive/Documents/subject-5207871.csv","legacy","Lentiform Loewenfeld","3.3.7","yes","yes","600bd7cfb6416f0113b04181","602110864497cf011d9c0822","0","f","NA","return","unknown key","return","NA","f","618","NA","2993","18990","7555","NA","618","2","legacy","1024","2","48000","-16","task","5207871","odd","NA","39475","44473","41479","103160","4000","30552","22995","103663","NA","103158","103664","103035","44473","104284","37621","102535","3991","NA","Lexical Decision Task","37","26342","37","yes","1024"
"2.8162413","0","5","nusk","non-word","100","100","711.2105263157895","711.2105263157895","black","no","legacy","legacy","legacy","0","uniform","1","undefined","undefined","undefined","1","f","0","0","0","0","37","0","0","0","37","NA","33","37","33","0","33","3","37","0","37","Thu Feb 18 13:58:37 2021","The main experiment item","yes","Lexical_Decision_Task.osexp","C:/Users/Ethan/OneDrive/Documents","no","Andale Mono","no","18","no","white","no","yes","576","legacy","33","33","3","C:/Users/Ethan/OneDrive/Documents/subject-5207871.csv","legacy","Lentiform Loewenfeld","3.3.7","yes","yes","600bd7cfb6416f0113b04181","602110864497cf011d9c0822","0","f","NA","return","unknown key","return","NA","f","684","NA","2993","18990","7555","NA","684","2","legacy","1024","2","48000","-16","task","5207871","odd","NA","39475","44473","41479","104924","4000","30552","22995","105427","NA","104923","105427","104799","44473","106113","37621","104298","3991","NA","Lexical Decision Task","38","27026","38","yes","1024"
"2.813801082","5.47","7","nook","word","97.43589743589743","97.43589743589743","710.3846153846154","710.3846153846154","black","no","legacy","legacy","legacy","0","uniform","0","undefined","undefined","undefined","0","j","0","0","0","0","38","0","0","0","38","NA","34","38","34","0","34","3","38","0","38","Thu Feb 18 13:58:37 2021","The main experiment item","yes","Lexical_Decision_Task.osexp","C:/Users/Ethan/OneDrive/Documents","no","Andale Mono","no","18","no","white","no","yes","576","legacy","34","34","3","C:/Users/Ethan/OneDrive/Documents/subject-5207871.csv","legacy","Lentiform Loewenfeld","3.3.7","yes","yes","600bd7cfb6416f0113b04181","602110864497cf011d9c0822","0","f","NA","return","unknown key","return","NA","f","679","NA","2993","18990","7555","NA","679","2","legacy","1024","2","48000","-16","task","5207871","odd","NA","39475","44473","41479","106742","4000","30552","22995","107245","NA","106740","107245","106621","44473","107926","37621","106121","3991","NA","Lexical Decision Task","38","27705","39","yes","1024"
"2.895974732","6.65","5","sift","word","97.5","97.5","715.6","715.6","black","no","legacy","legacy","legacy","0","uniform","1","undefined","undefined","undefined","1","j","0","0","0","0","39","0","0","0","39","NA","35","39","35","0","35","3","39","0","39","Thu Feb 18 13:58:37 2021","The main experiment item","yes","Lexical_Decision_Task.osexp","C:/Users/Ethan/OneDrive/Documents","no","Andale Mono","no","18","no","white","no","yes","576","legacy","35","35","3","C:/Users/Ethan/OneDrive/Documents/subject-5207871.csv","legacy","Lentiform Loewenfeld","3.3.7","yes","yes","600bd7cfb6416f0113b04181","602110864497cf011d9c0822","0","j","NA","return","unknown key","return","NA","j","919","NA","2993","18990","7555","NA","919","2","legacy","1024","2","48000","-16","task","5207871","odd","NA","39475","44473","41479","109575","4000","30552","22995","110078","NA","109574","110079","109442","44473","110999","37621","106121","3991","107942","Lexical Decision Task","39","28624","40","yes","1024"
"2.86332286","6.71","2","feud","word","97.5609756097561","97.5609756097561","717.5853658536586","717.5853658536586","black","no","legacy","legacy","legacy","0","uniform","1","undefined","undefined","undefined","1","j","0","0","0","0","40","0","0","0","40","NA","36","40","36","0","36","3","40","0","40","Thu Feb 18 13:58:37 2021","The main experiment item","yes","Lexical_Decision_Task.osexp","C:/Users/Ethan/OneDrive/Documents","no","Andale Mono","no","18","no","white","no","yes","576","legacy","36","36","3","C:/Users/Ethan/OneDrive/Documents/subject-5207871.csv","legacy","Lentiform Loewenfeld","3.3.7","yes","yes","600bd7cfb6416f0113b04181","602110864497cf011d9c0822","0","j","NA","return","unknown key","return","NA","j","797","NA","2993","18990","7555","NA","797","2","legacy","1024","2","48000","-16","task","5207871","odd","NA","39475","44473","41479","111641","4000","30552","22995","112144","NA","111639","112144","111514","44473","112943","37621","111014","3991","107942","Lexical Decision Task","40","29421","41","yes","1024"
"3.460446784","0","5","dess","non-word","97.61904761904762","97.61904761904762","716.5952380952381","716.5952380952381","black","no","legacy","legacy","legacy","0","uniform","1","undefined","undefined","undefined","1","f","0","0","0","0","41","0","0","0","41","NA","37","41","37","0","37","3","41","0","41","Thu Feb 18 13:58:37 2021","The main experiment item","yes","Lexical_Decision_Task.osexp","C:/Users/Ethan/OneDrive/Documents","no","Andale Mono","no","18","no","white","no","yes","576","legacy","37","37","3","C:/Users/Ethan/OneDrive/Documents/subject-5207871.csv","legacy","Lentiform Loewenfeld","3.3.7","yes","yes","600bd7cfb6416f0113b04181","602110864497cf011d9c0822","0","f","NA","return","unknown key","return","NA","f","676","NA","2993","18990","7555","NA","676","2","legacy","1024","2","48000","-16","task","5207871","odd","NA","39475","44473","41479","113580","4000","30552","22995","114083","NA","113578","114083","113451","44473","114760","37621","112950","3991","107942","Lexical Decision Task","41","30097","42","yes","1024"
"2.983324025","9.56","2","debt","word","97.67441860465117","97.67441860465117","715.7674418604652","715.7674418604652","black","no","legacy","legacy","legacy","0","uniform","1","undefined","undefined","undefined","1","j","0","0","0","0","42","0","0","0","42","NA","38","42","38","0","38","3","42","0","42","Thu Feb 18 13:58:37 2021","The main experiment item","yes","Lexical_Decision_Task.osexp","C:/Users/Ethan/OneDrive/Documents","no","Andale Mono","no","18","no","white","no","yes","576","legacy","38","38","3","C:/Users/Ethan/OneDrive/Documents/subject-5207871.csv","legacy","Lentiform Loewenfeld","3.3.7","yes","yes","600bd7cfb6416f0113b04181","602110864497cf011d9c0822","0","j","NA","return","unknown key","return","NA","j","681","NA","2993","18990","7555","NA","681","2","legacy","1024","2","48000","-16","task","5207871","odd","NA","39475","44473","41479","115400","4000","30552","22995","115903","NA","115398","115903","115276","44473","116586","37621","114776","3991","107942","Lexical Decision Task","42","30778","43","yes","1024"
"3.094121596","0","8","fode","non-word","97.72727272727273","97.72727272727273","713.6136363636364","713.6136363636364","black","no","legacy","legacy","legacy","0","uniform","1","undefined","undefined","undefined","1","f","0","0","0","0","43","0","0","0","43","NA","39","43","39","0","39","3","43","0","43","Thu Feb 18 13:58:37 2021","The main experiment item","yes","Lexical_Decision_Task.osexp","C:/Users/Ethan/OneDrive/Documents","no","Andale Mono","no","18","no","white","no","yes","576","legacy","39","39","3","C:/Users/Ethan/OneDrive/Documents/subject-5207871.csv","legacy","Lentiform Loewenfeld","3.3.7","yes","yes","600bd7cfb6416f0113b04181","602110864497cf011d9c0822","0","f","NA","return","unknown key","return","NA","f","621","NA","2993","18990","7555","NA","621","2","legacy","1024","2","48000","-16","task","5207871","odd","NA","39475","44473","41479","117216","4000","30552","22995","117720","NA","117214","117720","117094","44473","118342","37621","116594","3991","107942","Lexical Decision Task","43","31399","44","yes","1024"
"2.703007489","8.37","3","pulp","word","95.55555555555556","95.55555555555556","710.4444444444445","710.4444444444445","black","no","legacy","legacy","legacy","0","uniform","0","undefined","undefined","undefined","0","j","0","0","0","0","44","0","0","0","44","NA","40","44","40","0","40","3","44","0","44","Thu Feb 18 13:58:37 2021","The main experiment item","yes","Lexical_Decision_Task.osexp","C:/Users/Ethan/OneDrive/Documents","no","Andale Mono","no","18","no","white","no","yes","576","legacy","40","40","3","C:/Users/Ethan/OneDrive/Documents/subject-5207871.csv","legacy","Lentiform Loewenfeld","3.3.7","yes","yes","600bd7cfb6416f0113b04181","602110864497cf011d9c0822","0","f","NA","return","unknown key","return","NA","f","571","NA","2993","18990","7555","NA","571","2","legacy","1024","2","48000","-16","task","5207871","odd","NA","39475","44473","41479","118992","4000","30552","22995","119495","NA","118991","119496","118858","44473","120069","37621","118358","3991","107942","Lexical Decision Task","43","31970","45","yes","1024"
"2.839268497","0","8","maft","non-word","95.65217391304348","95.65217391304348","713.5869565217391","713.5869565217391","black","no","legacy","legacy","legacy","0","uniform","1","undefined","undefined","undefined","1","f","0","0","0","0","45","0","0","0","45","NA","41","45","41","0","41","3","45","0","45","Thu Feb 18 13:58:37 2021","The main experiment item","yes","Lexical_Decision_Task.osexp","C:/Users/Ethan/OneDrive/Documents","no","Andale Mono","no","18","no","white","no","yes","576","legacy","41","41","3","C:/Users/Ethan/OneDrive/Documents/subject-5207871.csv","legacy","Lentiform Loewenfeld","3.3.7","yes","yes","600bd7cfb6416f0113b04181","602110864497cf011d9c0822","0","f","NA","return","unknown key","return","NA","f","855","NA","2993","18990","7555","NA","855","2","legacy","1024","2","48000","-16","task","5207871","odd","NA","39475","44473","41479","121722","4000","30552","22995","122225","NA","121720","122225","121588","44473","123082","37621","118358","3991","120088","Lexical Decision Task","44","32825","46","yes","1024"
"2.616654026","9.37","5","gift","word","95.74468085106383","95.74468085106383","720.0425531914893","720.0425531914893","black","no","legacy","legacy","legacy","0","uniform","1","undefined","undefined","undefined","1","j","0","0","0","0","46","0","0","0","46","NA","42","46","42","0","42","3","46","0","46","Thu Feb 18 13:58:37 2021","The main experiment item","yes","Lexical_Decision_Task.osexp","C:/Users/Ethan/OneDrive/Documents","no","Andale Mono","no","18","no","white","no","yes","576","legacy","42","42","3","C:/Users/Ethan/OneDrive/Documents/subject-5207871.csv","legacy","Lentiform Loewenfeld","3.3.7","yes","yes","600bd7cfb6416f0113b04181","602110864497cf011d9c0822","0","j","NA","return","unknown key","return","NA","j","1017","NA","2993","18990","7555","NA","1017","2","legacy","1024","2","48000","-16","task","5207871","odd","NA","39475","44473","41479","123723","4000","30552","22995","124226","NA","123721","124227","123597","44473","125245","37621","123097","3991","120088","Lexical Decision Task","45","33842","47","yes","1024"
"2.980911938","7.15","7","hoop","word","95.83333333333333","95.83333333333333","720.9583333333334","720.9583333333334","black","no","legacy","legacy","legacy","0","uniform","1","undefined","undefined","undefined","1","j","0","0","0","0","47","0","0","0","47","NA","43","47","43","0","43","3","47","0","47","Thu Feb 18 13:58:37 2021","The main experiment item","yes","Lexical_Decision_Task.osexp","C:/Users/Ethan/OneDrive/Documents","no","Andale Mono","no","18","no","white","no","yes","576","legacy","43","43","3","C:/Users/Ethan/OneDrive/Documents/subject-5207871.csv","legacy","Lentiform Loewenfeld","3.3.7","yes","yes","600bd7cfb6416f0113b04181","602110864497cf011d9c0822","0","j","NA","return","unknown key","return","NA","j","764","NA","2993","18990","7555","NA","764","2","legacy","1024","2","48000","-16","task","5207871","odd","NA","39475","44473","41479","125875","4000","30552","22995","126378","NA","125874","126379","125751","44473","127145","37621","125251","3991","120088","Lexical Decision Task","46","34606","48","yes","1024"
"3.090140555","5.81","8","pout","word","95.91836734693878","95.91836734693878","720.6938775510204","720.6938775510204","black","no","legacy","legacy","legacy","0","uniform","1","undefined","undefined","undefined","1","j","0","0","0","0","48","0","0","0","48","NA","44","48","44","0","44","3","48","0","48","Thu Feb 18 13:58:37 2021","The main experiment item","yes","Lexical_Decision_Task.osexp","C:/Users/Ethan/OneDrive/Documents","no","Andale Mono","no","18","no","white","no","yes","576","legacy","44","44","3","C:/Users/Ethan/OneDrive/Documents/subject-5207871.csv","legacy","Lentiform Loewenfeld","3.3.7","yes","yes","600bd7cfb6416f0113b04181","602110864497cf011d9c0822","0","j","NA","return","unknown key","return","NA","j","708","NA","2993","18990","7555","NA","708","2","legacy","1024","2","48000","-16","task","5207871","odd","NA","39475","44473","41479","127773","4000","30552","22995","128276","NA","127771","128276","127652","44473","128986","37621","127151","3991","120088","Lexical Decision Task","47","35314","49","yes","1024"
"3.010582609","0","2","drod","non-word","96","96","721.4","721.4","black","no","legacy","legacy","legacy","0","uniform","1","undefined","undefined","undefined","1","f","0","0","0","0","49","0","0","0","49","NA","45","49","45","0","45","3","49","0","49","Thu Feb 18 13:58:37 2021","The main experiment item","yes","Lexical_Decision_Task.osexp","C:/Users/Ethan/OneDrive/Documents","no","Andale Mono","no","18","no","white","no","yes","576","legacy","45","45","3","C:/Users/Ethan/OneDrive/Documents/subject-5207871.csv","legacy","Lentiform Loewenfeld","3.3.7","yes","yes","600bd7cfb6416f0113b04181","602110864497cf011d9c0822","0","f","NA","return","unknown key","return","NA","f","756","NA","2993","18990","7555","NA","756","2","legacy","1024","2","48000","-16","task","5207871","odd","NA","39475","44473","41479","129627","4000","30552","22995","130130","NA","129626","130130","129501","44473","130888","37621","129001","3991","120088","Lexical Decision Task","48","36070","50","yes","1024"
"2.744553742","0","2","nawk","non-word","96.07843137254902","96.07843137254902","720","720","black","no","legacy","legacy","legacy","0","uniform","1","undefined","undefined","undefined","1","f","0","0","0","0","50","0","0","0","50","NA","46","50","46","0","46","3","50","0","50","Thu Feb 18 13:58:37 2021","The main experiment item","yes","Lexical_Decision_Task.osexp","C:/Users/Ethan/OneDrive/Documents","no","Andale Mono","no","18","no","white","no","yes","576","legacy","46","46","3","C:/Users/Ethan/OneDrive/Documents/subject-5207871.csv","legacy","Lentiform Loewenfeld","3.3.7","yes","yes","600bd7cfb6416f0113b04181","602110864497cf011d9c0822","0","f","NA","return","unknown key","return","NA","f","650","NA","2993","18990","7555","NA","650","2","legacy","1024","2","48000","-16","task","5207871","odd","NA","39475","44473","41479","131529","4000","30552","22995","132033","NA","131528","132033","131403","44473","132685","37621","130903","3991","120088","Lexical Decision Task","49","36720","51","yes","1024"
"2.966923697","5.4","2","fume","word","94.23076923076923","94.23076923076923","723.3076923076923","723.3076923076923","black","no","legacy","legacy","legacy","0","uniform","0","undefined","undefined","undefined","0","j","0","0","0","0","51","0","0","0","51","NA","47","51","47","0","47","3","51","0","51","Thu Feb 18 13:58:37 2021","The main experiment item","yes","Lexical_Decision_Task.osexp","C:/Users/Ethan/OneDrive/Documents","no","Andale Mono","no","18","no","white","no","yes","576","legacy","47","47","3","C:/Users/Ethan/OneDrive/Documents/subject-5207871.csv","legacy","Lentiform Loewenfeld","3.3.7","yes","yes","600bd7cfb6416f0113b04181","602110864497cf011d9c0822","0","f","NA","return","unknown key","return","NA","f","892","NA","2993","18990","7555","NA","892","2","legacy","1024","2","48000","-16","task","5207871","odd","NA","39475","44473","41479","133347","4000","30552","22995","133850","NA","133344","133850","133202","44473","134744","37621","132702","3991","120088","Lexical Decision Task","49","37612","52","yes","1024"
"3.197740804","6.74","3","ache","word","94.33962264150944","94.33962264150944","722.8867924528302","722.8867924528302","black","no","legacy","legacy","legacy","0","uniform","1","undefined","undefined","undefined","1","j","0","0","0","0","52","0","0","0","52","NA","48","52","48","0","48","3","52","0","52","Thu Feb 18 13:58:37 2021","The main experiment item","yes","Lexical_Decision_Task.osexp","C:/Users/Ethan/OneDrive/Documents","no","Andale Mono","no","18","no","white","no","yes","576","legacy","48","48","3","C:/Users/Ethan/OneDrive/Documents/subject-5207871.csv","legacy","Lentiform Loewenfeld","3.3.7","yes","yes","600bd7cfb6416f0113b04181","602110864497cf011d9c0822","0","j","NA","return","unknown key","return","NA","j","701","NA","2993","18990","7555","NA","701","2","legacy","1024","2","48000","-16","task","5207871","odd","NA","39475","44473","41479","136400","4000","30552","22995","136903","NA","136398","136905","136252","44473","137608","37621","132702","3991","134752","Lexical Decision Task","50","38313","53","yes","1024"
"3.043885998","0","9","gome","non-word","94.44444444444444","94.44444444444444","724.9074074074074","724.9074074074074","black","no","legacy","legacy","legacy","0","uniform","1","undefined","undefined","undefined","1","f","0","0","0","0","53","0","0","0","53","NA","49","53","49","0","49","3","53","0","53","Thu Feb 18 13:58:37 2021","The main experiment item","yes","Lexical_Decision_Task.osexp","C:/Users/Ethan/OneDrive/Documents","no","Andale Mono","no","18","no","white","no","yes","576","legacy","49","49","3","C:/Users/Ethan/OneDrive/Documents/subject-5207871.csv","legacy","Lentiform Loewenfeld","3.3.7","yes","yes","600bd7cfb6416f0113b04181","602110864497cf011d9c0822","0","f","NA","return","unknown key","return","NA","f","832","NA","2993","18990","7555","NA","832","2","legacy","1024","2","48000","-16","task","5207871","odd","NA","39475","44473","41479","138254","4000","30552","22995","138757","NA","138251","138757","138125","44473","139591","37621","137625","3991","134752","Lexical Decision Task","51","39145","54","yes","1024"
"3.431095062","5.74","9","perk","word","94.54545454545455","94.54545454545455","729.5818181818182","729.5818181818182","black","no","legacy","legacy","legacy","0","uniform","1","undefined","undefined","undefined","1","j","0","0","0","0","54","0","0","0","54","0","50","54","50","0","50","3","54","0","54","Thu Feb 18 13:58:37 2021","The main experiment item","yes","Lexical_Decision_Task.osexp","C:/Users/Ethan/OneDrive/Documents","no","Andale Mono","no","18","no","white","no","yes","576","legacy","50","50","3","C:/Users/Ethan/OneDrive/Documents/subject-5207871.csv","legacy","Lentiform Loewenfeld","3.3.7","yes","yes","600bd7cfb6416f0113b04181","602110864497cf011d9c0822","0","j","NA","return","unknown key","return","return","j","982","NA","2993","18990","7555","6370","982","2","legacy","1024","2","48000","-16","task","5207871","odd","NA","39475","44473","41479","146681","4000","30552","22995","147184","140219","146680","147184","140107","44473","148168","37621","139607","3991","134752","Lexical Decision Task","52","40127","55","yes","1024"
"3.218535505","7.85","7","goat","word","94.64285714285714","94.64285714285714","727.7857142857143","727.7857142857143","black","no","legacy","legacy","legacy","0","uniform","1","undefined","undefined","undefined","1","j","0","0","0","0","55","0","0","0","55","0","51","55","51","0","51","3","55","0","55","Thu Feb 18 13:58:37 2021","The main experiment item","yes","Lexical_Decision_Task.osexp","C:/Users/Ethan/OneDrive/Documents","no","Andale Mono","no","18","no","white","no","yes","576","legacy","51","51","3","C:/Users/Ethan/OneDrive/Documents/subject-5207871.csv","legacy","Lentiform Loewenfeld","3.3.7","yes","yes","600bd7cfb6416f0113b04181","602110864497cf011d9c0822","0","j","NA","return","unknown key","return","return","j","629","NA","2993","18990","7555","6370","629","2","legacy","1024","2","48000","-16","task","5207871","odd","NA","39475","44473","41479","148807","4000","30552","22995","149310","140219","148806","149310","148685","44473","149941","37621","148185","3991","134752","Lexical Decision Task","53","40756","56","yes","1024"
"3.481012421","8.34","5","teen","word","94.73684210526316","94.73684210526316","725.3684210526316","725.3684210526316","black","no","legacy","legacy","legacy","0","uniform","1","undefined","undefined","undefined","1","j","0","0","0","0","56","0","0","0","56","0","52","56","52","0","52","3","56","0","56","Thu Feb 18 13:58:37 2021","The main experiment item","yes","Lexical_Decision_Task.osexp","C:/Users/Ethan/OneDrive/Documents","no","Andale Mono","no","18","no","white","no","yes","576","legacy","52","52","3","C:/Users/Ethan/OneDrive/Documents/subject-5207871.csv","legacy","Lentiform Loewenfeld","3.3.7","yes","yes","600bd7cfb6416f0113b04181","602110864497cf011d9c0822","0","j","NA","return","unknown key","return","return","j","590","NA","2993","18990","7555","6370","590","2","legacy","1024","2","48000","-16","task","5207871","odd","NA","39475","44473","41479","150585","4000","30552","22995","151088","140219","150584","151089","150458","44473","151680","37621","149958","3991","134752","Lexical Decision Task","54","41346","57","yes","1024"
"2.675164031","8.57","6","glue","word","94.82758620689656","94.82758620689656","723.9827586206897","723.9827586206897","black","no","legacy","legacy","legacy","0","uniform","1","undefined","undefined","undefined","1","j","0","0","0","0","57","0","0","0","57","0","53","57","53","0","53","3","57","0","57","Thu Feb 18 13:58:37 2021","The main experiment item","yes","Lexical_Decision_Task.osexp","C:/Users/Ethan/OneDrive/Documents","no","Andale Mono","no","18","no","white","no","yes","576","legacy","53","53","3","C:/Users/Ethan/OneDrive/Documents/subject-5207871.csv","legacy","Lentiform Loewenfeld","3.3.7","yes","yes","600bd7cfb6416f0113b04181","602110864497cf011d9c0822","0","j","NA","return","unknown key","return","return","j","645","NA","2993","18990","7555","6370","645","2","legacy","1024","2","48000","-16","task","5207871","odd","NA","39475","44473","41479","152314","4000","30552","22995","152818","140219","152312","152818","152186","44473","153465","37621","151686","3991","134752","Lexical Decision Task","55","41991","58","yes","1024"
"2.709837904","6.85","8","skim","word","94.91525423728814","94.91525423728814","722.3389830508474","722.3389830508474","black","no","legacy","legacy","legacy","0","uniform","1","undefined","undefined","undefined","1","j","0","0","0","0","58","0","0","0","58","0","54","58","54","0","54","3","58","0","58","Thu Feb 18 13:58:37 2021","The main experiment item","yes","Lexical_Decision_Task.osexp","C:/Users/Ethan/OneDrive/Documents","no","Andale Mono","no","18","no","white","no","yes","576","legacy","54","54","3","C:/Users/Ethan/OneDrive/Documents/subject-5207871.csv","legacy","Lentiform Loewenfeld","3.3.7","yes","yes","600bd7cfb6416f0113b04181","602110864497cf011d9c0822","0","j","NA","return","unknown key","return","return","j","627","NA","2993","18990","7555","6370","627","2","legacy","1024","2","48000","-16","task","5207871","odd","NA","39475","44473","41479","154121","4000","30552","22995","154624","140219","154118","154625","153980","44473","155253","37621","153480","3991","134752","Lexical Decision Task","56","42618","59","yes","1024"
"3.374198258","0","8","vist","non-word","93.33333333333333","93.33333333333333","719.4166666666666","719.4166666666666","black","no","legacy","legacy","legacy","0","uniform","0","undefined","undefined","undefined","0","f","0","0","0","0","59","0","0","0","59","0","55","59","55","0","55","3","59","0","59","Thu Feb 18 13:58:37 2021","The main experiment item","yes","Lexical_Decision_Task.osexp","C:/Users/Ethan/OneDrive/Documents","no","Andale Mono","no","18","no","white","no","yes","576","legacy","55","55","3","C:/Users/Ethan/OneDrive/Documents/subject-5207871.csv","legacy","Lentiform Loewenfeld","3.3.7","yes","yes","600bd7cfb6416f0113b04181","602110864497cf011d9c0822","0","j","NA","return","unknown key","return","return","j","547","NA","2993","18990","7555","6370","547","2","legacy","1024","2","48000","-16","task","5207871","odd","NA","39475","44473","41479","155884","4000","30552","22995","156387","140219","155882","156387","155759","44473","156936","37621","155259","3991","134752","Lexical Decision Task","56","43165","60","yes","1024"
"2.64476673","0","5","moft","non-word","93.44262295081967","93.44262295081967","719.344262295082","719.344262295082","black","no","legacy","legacy","legacy","0","uniform","1","undefined","undefined","undefined","1","f","0","0","0","0","60","0","0","0","60","0","56","60","56","0","56","3","60","0","60","Thu Feb 18 13:58:37 2021","The main experiment item","yes","Lexical_Decision_Task.osexp","C:/Users/Ethan/OneDrive/Documents","no","Andale Mono","no","18","no","white","no","yes","576","legacy","56","56","3","C:/Users/Ethan/OneDrive/Documents/subject-5207871.csv","legacy","Lentiform Loewenfeld","3.3.7","yes","yes","600bd7cfb6416f0113b04181","602110864497cf011d9c0822","0","f","NA","return","unknown key","return","return","f","715","NA","2993","18990","7555","6370","715","2","legacy","1024","2","48000","-16","task","5207871","odd","NA","39475","44473","41479","158587","4000","30552","22995","159089","140219","158585","159089","158454","44473","159805","37621","155259","3991","156954","Lexical Decision Task","57","43880","61","yes","1024"
"3.067193647","6.73","6","raft","word","93.54838709677419","93.54838709677419","718.5967741935484","718.5967741935484","black","no","legacy","legacy","legacy","0","uniform","1","undefined","undefined","undefined","1","j","0","0","0","0","61","0","0","0","61","0","57","61","57","0","57","3","61","0","61","Thu Feb 18 13:58:37 2021","The main experiment item","yes","Lexical_Decision_Task.osexp","C:/Users/Ethan/OneDrive/Documents","no","Andale Mono","no","18","no","white","no","yes","576","legacy","57","57","3","C:/Users/Ethan/OneDrive/Documents/subject-5207871.csv","legacy","Lentiform Loewenfeld","3.3.7","yes","yes","600bd7cfb6416f0113b04181","602110864497cf011d9c0822","0","j","NA","return","unknown key","return","return","j","673","NA","2993","18990","7555","6370","673","2","legacy","1024","2","48000","-16","task","5207871","odd","NA","39475","44473","41479","160444","4000","30552","22995","160948","140219","160442","160948","160318","44473","161623","37621","159818","3991","156954","Lexical Decision Task","58","44553","62","yes","1024"
"3.068433376","8.09","2","bulb","word","93.65079365079364","93.65079365079364","717.3015873015873","717.3015873015873","black","no","legacy","legacy","legacy","0","uniform","1","undefined","undefined","undefined","1","j","0","0","0","0","62","0","0","0","62","0","58","62","58","0","58","3","62","0","62","Thu Feb 18 13:58:37 2021","The main experiment item","yes","Lexical_Decision_Task.osexp","C:/Users/Ethan/OneDrive/Documents","no","Andale Mono","no","18","no","white","no","yes","576","legacy","58","58","3","C:/Users/Ethan/OneDrive/Documents/subject-5207871.csv","legacy","Lentiform Loewenfeld","3.3.7","yes","yes","600bd7cfb6416f0113b04181","602110864497cf011d9c0822","0","j","NA","return","unknown key","return","return","j","637","NA","2993","18990","7555","6370","637","2","legacy","1024","2","48000","-16","task","5207871","odd","NA","39475","44473","41479","162269","4000","30552","22995","162772","140219","162267","162773","162139","44473","163412","37621","161639","3991","156954","Lexical Decision Task","59","45190","63","yes","1024"
"2.67699827","0","6","hulf","non-word","93.75","93.75","716.890625","716.890625","black","no","legacy","legacy","legacy","0","uniform","1","undefined","undefined","undefined","1","f","0","0","0","0","63","0","0","0","63","0","59","63","59","0","59","3","63","0","63","Thu Feb 18 13:58:37 2021","The main experiment item","yes","Lexical_Decision_Task.osexp","C:/Users/Ethan/OneDrive/Documents","no","Andale Mono","no","18","no","white","no","yes","576","legacy","59","59","3","C:/Users/Ethan/OneDrive/Documents/subject-5207871.csv","legacy","Lentiform Loewenfeld","3.3.7","yes","yes","600bd7cfb6416f0113b04181","602110864497cf011d9c0822","0","f","NA","return","unknown key","return","return","f","691","NA","2993","18990","7555","6370","691","2","legacy","1024","2","48000","-16","task","5207871","odd","NA","39475","44473","41479","164049","4000","30552","22995","164552","140219","164048","164553","163919","44473","165246","37621","163419","3991","156954","Lexical Decision Task","60","45881","64","yes","1024"
"3.531734309","0","6","lerd","non-word","93.84615384615384","93.84615384615384","718.3076923076923","718.3076923076923","black","no","legacy","legacy","legacy","0","uniform","1","undefined","undefined","undefined","1","f","0","0","0","0","64","0","0","0","64","0","60","64","60","0","60","3","64","0","64","Thu Feb 18 13:58:37 2021","The main experiment item","yes","Lexical_Decision_Task.osexp","C:/Users/Ethan/OneDrive/Documents","no","Andale Mono","no","18","no","white","no","yes","576","legacy","60","60","3","C:/Users/Ethan/OneDrive/Documents/subject-5207871.csv","legacy","Lentiform Loewenfeld","3.3.7","yes","yes","600bd7cfb6416f0113b04181","602110864497cf011d9c0822","0","f","NA","return","unknown key","return","return","f","809","NA","2993","18990","7555","6370","809","2","legacy","1024","2","48000","-16","task","5207871","odd","NA","39475","44473","41479","165913","4000","30552","22995","166417","140219","165910","166417","165762","44473","167227","37621","165262","3991","156954","Lexical Decision Task","61","46690","65","yes","1024"
"2.972357144","0","5","dasp","non-word","93.93939393939394","93.93939393939394","727.8939393939394","727.8939393939394","black","no","legacy","legacy","legacy","0","uniform","1","undefined","undefined","undefined","1","f","0","0","0","0","65","0","0","0","65","0","61","65","61","0","61","3","65","0","65","Thu Feb 18 13:58:37 2021","The main experiment item","yes","Lexical_Decision_Task.osexp","C:/Users/Ethan/OneDrive/Documents","no","Andale Mono","no","18","no","white","no","yes","576","legacy","61","61","3","C:/Users/Ethan/OneDrive/Documents/subject-5207871.csv","legacy","Lentiform Loewenfeld","3.3.7","yes","yes","600bd7cfb6416f0113b04181","602110864497cf011d9c0822","0","f","NA","return","unknown key","return","return","f","1351","NA","2993","18990","7555","6370","1351","2","legacy","1024","2","48000","-16","task","5207871","odd","NA","39475","44473","41479","167871","4000","30552","22995","168374","140219","167869","168375","167742","44473","169728","37621","167242","3991","156954","Lexical Decision Task","62","48041","66","yes","1024"
"3.091901331","0","9","nipe","non-word","94.02985074626865","94.02985074626865","728.9104477611941","728.9104477611941","black","no","legacy","legacy","legacy","0","uniform","1","undefined","undefined","undefined","1","f","0","0","0","0","66","0","0","0","66","0","62","66","62","0","62","3","66","0","66","Thu Feb 18 13:58:37 2021","The main experiment item","yes","Lexical_Decision_Task.osexp","C:/Users/Ethan/OneDrive/Documents","no","Andale Mono","no","18","no","white","no","yes","576","legacy","62","62","3","C:/Users/Ethan/OneDrive/Documents/subject-5207871.csv","legacy","Lentiform Loewenfeld","3.3.7","yes","yes","600bd7cfb6416f0113b04181","602110864497cf011d9c0822","0","f","NA","return","unknown key","return","return","f","796","NA","2993","18990","7555","6370","796","2","legacy","1024","2","48000","-16","task","5207871","odd","NA","39475","44473","41479","170369","4000","30552","22995","170872","140219","170367","170873","170243","44473","171670","37621","169743","3991","156954","Lexical Decision Task","63","48837","67","yes","1024"
"3.29439347","8.6","9","wand","word","94.11764705882354","94.11764705882354","728.25","728.25","black","no","legacy","legacy","legacy","0","uniform","1","undefined","undefined","undefined","1","j","0","0","0","0","67","0","0","0","67","0","63","67","63","0","63","3","67","0","67","Thu Feb 18 13:58:37 2021","The main experiment item","yes","Lexical_Decision_Task.osexp","C:/Users/Ethan/OneDrive/Documents","no","Andale Mono","no","18","no","white","no","yes","576","legacy","63","63","3","C:/Users/Ethan/OneDrive/Documents/subject-5207871.csv","legacy","Lentiform Loewenfeld","3.3.7","yes","yes","600bd7cfb6416f0113b04181","602110864497cf011d9c0822","0","j","NA","return","unknown key","return","return","j","684","NA","2993","18990","7555","6370","684","2","legacy","1024","2","48000","-16","task","5207871","odd","NA","39475","44473","41479","172312","4000","30552","22995","172814","140219","172311","172815","172185","44473","173501","37621","171685","3991","156954","Lexical Decision Task","64","49521","68","yes","1024"
"3.259832699","0","9","flar","non-word","94.20289855072464","94.20289855072464","728.463768115942","728.463768115942","black","no","legacy","legacy","legacy","0","uniform","1","undefined","undefined","undefined","1","f","0","0","0","0","68","0","0","0","68","0","64","68","64","0","64","3","68","0","68","Thu Feb 18 13:58:37 2021","The main experiment item","yes","Lexical_Decision_Task.osexp","C:/Users/Ethan/OneDrive/Documents","no","Andale Mono","no","18","no","white","no","yes","576","legacy","64","64","3","C:/Users/Ethan/OneDrive/Documents/subject-5207871.csv","legacy","Lentiform Loewenfeld","3.3.7","yes","yes","600bd7cfb6416f0113b04181","602110864497cf011d9c0822","0","f","NA","return","unknown key","return","return","f","743","NA","2993","18990","7555","6370","743","2","legacy","1024","2","48000","-16","task","5207871","odd","NA","39475","44473","41479","174137","4000","30552","22995","174640","140219","174134","174641","174009","44473","175386","37621","173509","3991","156954","Lexical Decision Task","65","50264","69","yes","1024"
"3.132473155","0","4","glim","non-word","94.28571428571429","94.28571428571429","727.0428571428571","727.0428571428571","black","no","legacy","legacy","legacy","0","uniform","1","undefined","undefined","undefined","1","f","0","0","0","0","69","0","0","0","69","0","65","69","65","0","65","3","69","0","69","Thu Feb 18 13:58:37 2021","The main experiment item","yes","Lexical_Decision_Task.osexp","C:/Users/Ethan/OneDrive/Documents","no","Andale Mono","no","18","no","white","no","yes","576","legacy","65","65","3","C:/Users/Ethan/OneDrive/Documents/subject-5207871.csv","legacy","Lentiform Loewenfeld","3.3.7","yes","yes","600bd7cfb6416f0113b04181","602110864497cf011d9c0822","0","f","NA","return","unknown key","return","return","f","629","NA","2993","18990","7555","6370","629","2","legacy","1024","2","48000","-16","task","5207871","odd","NA","39475","44473","41479","176030","4000","30552","22995","176533","140219","176029","176534","175902","44473","177165","37621","175402","3991","156954","Lexical Decision Task","66","50893","70","yes","1024"
"2.6599162","0","6","flug","non-word","92.95774647887323","92.95774647887323","723.7464788732394","723.7464788732394","black","no","legacy","legacy","legacy","0","uniform","0","undefined","undefined","undefined","0","f","0","0","0","0","70","0","0","0","70","0","66","70","66","0","66","3","70","0","70","Thu Feb 18 13:58:37 2021","The main experiment item","yes","Lexical_Decision_Task.osexp","C:/Users/Ethan/OneDrive/Documents","no","Andale Mono","no","18","no","white","no","yes","576","legacy","66","66","3","C:/Users/Ethan/OneDrive/Documents/subject-5207871.csv","legacy","Lentiform Loewenfeld","3.3.7","yes","yes","600bd7cfb6416f0113b04181","602110864497cf011d9c0822","0","j","NA","return","unknown key","return","return","j","493","NA","2993","18990","7555","6370","493","2","legacy","1024","2","48000","-16","task","5207871","odd","NA","39475","44473","41479","177808","4000","30552","22995","178311","140219","177806","178311","177682","44473","178807","37621","177182","3991","156954","Lexical Decision Task","66","51386","71","yes","1024"
"3.257359335","8","6","brew","word","93.05555555555556","93.05555555555556","723.25","723.25","black","no","legacy","legacy","legacy","0","uniform","1","undefined","undefined","undefined","1","j","0","0","0","0","71","0","0","0","71","0","67","71","67","0","67","3","71","0","71","Thu Feb 18 13:58:37 2021","The main experiment item","yes","Lexical_Decision_Task.osexp","C:/Users/Ethan/OneDrive/Documents","no","Andale Mono","no","18","no","white","no","yes","576","legacy","67","67","3","C:/Users/Ethan/OneDrive/Documents/subject-5207871.csv","legacy","Lentiform Loewenfeld","3.3.7","yes","yes","600bd7cfb6416f0113b04181","602110864497cf011d9c0822","0","j","NA","return","unknown key","return","return","j","688","NA","2993","18990","7555","6370","688","2","legacy","1024","2","48000","-16","task","5207871","odd","NA","39475","44473","41479","180461","4000","30552","22995","180963","140219","180459","180965","180324","44473","181654","37621","177182","3991","178824","Lexical Decision Task","67","52074","72","yes","1024"
"3.082307743","9.68","8","camp","word","93.15068493150685","93.15068493150685","722.931506849315","722.931506849315","black","no","legacy","legacy","legacy","0","uniform","1","undefined","undefined","undefined","1","j","0","0","0","0","72","0","0","0","72","0","68","72","68","0","68","3","72","0","72","Thu Feb 18 13:58:37 2021","The main experiment item","yes","Lexical_Decision_Task.osexp","C:/Users/Ethan/OneDrive/Documents","no","Andale Mono","no","18","no","white","no","yes","576","legacy","68","68","3","C:/Users/Ethan/OneDrive/Documents/subject-5207871.csv","legacy","Lentiform Loewenfeld","3.3.7","yes","yes","600bd7cfb6416f0113b04181","602110864497cf011d9c0822","0","j","NA","return","unknown key","return","return","j","700","NA","2993","18990","7555","6370","700","2","legacy","1024","2","48000","-16","task","5207871","odd","NA","39475","44473","41479","182298","4000","30552","22995","182801","140219","182296","182801","182166","44473","183504","37621","181666","3991","178824","Lexical Decision Task","68","52774","73","yes","1024"
"2.668385917","5.48","4","twig","word","93.24324324324324","93.24324324324324","723.2702702702703","723.2702702702703","black","no","legacy","legacy","legacy","0","uniform","1","undefined","undefined","undefined","1","j","0","0","0","0","73","0","0","0","73","0","69","73","69","0","69","3","73","0","73","Thu Feb 18 13:58:37 2021","The main experiment item","yes","Lexical_Decision_Task.osexp","C:/Users/Ethan/OneDrive/Documents","no","Andale Mono","no","18","no","white","no","yes","576","legacy","69","69","3","C:/Users/Ethan/OneDrive/Documents/subject-5207871.csv","legacy","Lentiform Loewenfeld","3.3.7","yes","yes","600bd7cfb6416f0113b04181","602110864497cf011d9c0822","0","j","NA","return","unknown key","return","return","j","748","NA","2993","18990","7555","6370","748","2","legacy","1024","2","48000","-16","task","5207871","odd","NA","39475","44473","41479","184150","4000","30552","22995","184652","140219","184149","184653","184020","44473","185403","37621","183520","3991","178824","Lexical Decision Task","69","53522","74","yes","1024"
"2.82129731","6.72","5","plum","word","93.33333333333333","93.33333333333333","722.7466666666667","722.7466666666667","black","no","legacy","legacy","legacy","0","uniform","1","undefined","undefined","undefined","1","j","0","0","0","0","74","0","0","0","74","0","70","74","70","0","70","3","74","0","74","Thu Feb 18 13:58:37 2021","The main experiment item","yes","Lexical_Decision_Task.osexp","C:/Users/Ethan/OneDrive/Documents","no","Andale Mono","no","18","no","white","no","yes","576","legacy","70","70","3","C:/Users/Ethan/OneDrive/Documents/subject-5207871.csv","legacy","Lentiform Loewenfeld","3.3.7","yes","yes","600bd7cfb6416f0113b04181","602110864497cf011d9c0822","0","j","NA","return","unknown key","return","return","j","684","NA","2993","18990","7555","6370","684","2","legacy","1024","2","48000","-16","task","5207871","odd","NA","39475","44473","41479","186049","4000","30552","22995","186552","140219","186047","186553","185919","44473","187238","37621","185419","3991","178824","Lexical Decision Task","70","54206","75","yes","1024"
"3.263399331","0","8","cour","non-word","93.42105263157895","93.42105263157895","722.5263157894736","722.5263157894736","black","no","legacy","legacy","legacy","0","uniform","1","undefined","undefined","undefined","1","f","0","0","0","0","75","0","0","0","75","0","71","75","71","0","71","3","75","0","75","Thu Feb 18 13:58:37 2021","The main experiment item","yes","Lexical_Decision_Task.osexp","C:/Users/Ethan/OneDrive/Documents","no","Andale Mono","no","18","no","white","no","yes","576","legacy","71","71","3","C:/Users/Ethan/OneDrive/Documents/subject-5207871.csv","legacy","Lentiform Loewenfeld","3.3.7","yes","yes","600bd7cfb6416f0113b04181","602110864497cf011d9c0822","0","f","NA","return","unknown key","return","return","f","706","NA","2993","18990","7555","6370","706","2","legacy","1024","2","48000","-16","task","5207871","odd","NA","39475","44473","41479","187880","4000","30552","22995","188383","140219","187878","188383","187749","44473","189093","37621","187249","3991","178824","Lexical Decision Task","71","54912","76","yes","1024"
"2.714888338","0","3","brug","non-word","93.50649350649351","93.50649350649351","724.025974025974","724.025974025974","black","no","legacy","legacy","legacy","0","uniform","1","undefined","undefined","undefined","1","f","0","0","0","0","76","0","0","0","76","0","72","76","72","0","72","3","76","0","76","Thu Feb 18 13:58:37 2021","The main experiment item","yes","Lexical_Decision_Task.osexp","C:/Users/Ethan/OneDrive/Documents","no","Andale Mono","no","18","no","white","no","yes","576","legacy","72","72","3","C:/Users/Ethan/OneDrive/Documents/subject-5207871.csv","legacy","Lentiform Loewenfeld","3.3.7","yes","yes","600bd7cfb6416f0113b04181","602110864497cf011d9c0822","0","f","NA","return","unknown key","return","return","f","838","NA","2993","18990","7555","6370","838","2","legacy","1024","2","48000","-16","task","5207871","odd","NA","39475","44473","41479","189732","4000","30552","22995","190235","140219","189731","190236","189609","44473","191076","37621","189109","3991","178824","Lexical Decision Task","72","55750","77","yes","1024"
"3.440331212","7.35","6","stew","word","93.58974358974359","93.58974358974359","724.9230769230769","724.9230769230769","black","no","legacy","legacy","legacy","0","uniform","1","undefined","undefined","undefined","1","j","0","0","0","0","77","0","0","0","77","0","73","77","73","0","73","3","77","0","77","Thu Feb 18 13:58:37 2021","The main experiment item","yes","Lexical_Decision_Task.osexp","C:/Users/Ethan/OneDrive/Documents","no","Andale Mono","no","18","no","white","no","yes","576","legacy","73","73","3","C:/Users/Ethan/OneDrive/Documents/subject-5207871.csv","legacy","Lentiform Loewenfeld","3.3.7","yes","yes","600bd7cfb6416f0113b04181","602110864497cf011d9c0822","0","j","NA","return","unknown key","return","return","j","794","NA","2993","18990","7555","6370","794","2","legacy","1024","2","48000","-16","task","5207871","odd","NA","39475","44473","41479","191715","4000","30552","22995","192218","140219","191713","192219","191593","44473","193016","37621","191093","3991","178824","Lexical Decision Task","73","56544","78","yes","1024"
"3.064581521","5.51","6","cask","word","92.40506329113924","92.40506329113924","726","726","black","no","legacy","legacy","legacy","0","uniform","0","undefined","undefined","undefined","0","j","0","0","0","0","78","0","0","0","78","0","74","78","74","0","74","3","78","0","78","Thu Feb 18 13:58:37 2021","The main experiment item","yes","Lexical_Decision_Task.osexp","C:/Users/Ethan/OneDrive/Documents","no","Andale Mono","no","18","no","white","no","yes","576","legacy","74","74","3","C:/Users/Ethan/OneDrive/Documents/subject-5207871.csv","legacy","Lentiform Loewenfeld","3.3.7","yes","yes","600bd7cfb6416f0113b04181","602110864497cf011d9c0822","0","f","NA","return","unknown key","return","return","f","810","NA","2993","18990","7555","6370","810","2","legacy","1024","2","48000","-16","task","5207871","odd","NA","39475","44473","41479","193693","4000","30552","22995","194196","140219","193690","194196","193532","44473","195009","37621","193032","3991","178824","Lexical Decision Task","73","57354","79","yes","1024"
"3.028977705","0","7","frow","non-word","92.5","92.5","726.375","726.375","black","no","legacy","legacy","legacy","0","uniform","1","undefined","undefined","undefined","1","f","0","0","0","0","79","0","0","0","79","0","75","79","75","0","75","3","79","0","79","Thu Feb 18 13:58:37 2021","The main experiment item","yes","Lexical_Decision_Task.osexp","C:/Users/Ethan/OneDrive/Documents","no","Andale Mono","no","18","no","white","no","yes","576","legacy","75","75","3","C:/Users/Ethan/OneDrive/Documents/subject-5207871.csv","legacy","Lentiform Loewenfeld","3.3.7","yes","yes","600bd7cfb6416f0113b04181","602110864497cf011d9c0822","0","f","NA","return","unknown key","return","return","f","756","NA","2993","18990","7555","6370","756","2","legacy","1024","2","48000","-16","task","5207871","odd","NA","39475","44473","41479","196662","4000","30552","22995","197165","140219","196660","197165","196526","44473","197923","37621","193032","3991","195026","Lexical Decision Task","74","58110","80","yes","1024"
"3.140404328","10.66","9","deep","word","92.5925925925926","92.5925925925926","727.679012345679","727.679012345679","black","no","legacy","legacy","legacy","0","uniform","1","undefined","undefined","undefined","1","j","0","0","0","0","80","0","0","0","80","0","76","80","76","0","76","3","80","0","80","Thu Feb 18 13:58:37 2021","The main experiment item","yes","Lexical_Decision_Task.osexp","C:/Users/Ethan/OneDrive/Documents","no","Andale Mono","no","18","no","white","no","yes","576","legacy","76","76","3","C:/Users/Ethan/OneDrive/Documents/subject-5207871.csv","legacy","Lentiform Loewenfeld","3.3.7","yes","yes","600bd7cfb6416f0113b04181","602110864497cf011d9c0822","0","j","NA","return","unknown key","return","return","j","832","NA","2993","18990","7555","6370","832","2","legacy","1024","2","48000","-16","task","5207871","odd","NA","39475","44473","41479","198574","4000","30552","22995","199077","140219","198571","199078","198440","44473","199913","37621","197940","3991","195026","Lexical Decision Task","75","58942","81","yes","1024"
"2.69019608","9.01","2","myth","word","92.6829268292683","92.6829268292683","724.7926829268292","724.7926829268292","black","no","legacy","legacy","legacy","0","uniform","1","undefined","undefined","undefined","1","j","0","0","0","0","81","0","0","0","81","0","77","81","77","0","77","3","81","0","81","Thu Feb 18 13:58:37 2021","The main experiment item","yes","Lexical_Decision_Task.osexp","C:/Users/Ethan/OneDrive/Documents","no","Andale Mono","no","18","no","white","no","yes","576","legacy","77","77","3","C:/Users/Ethan/OneDrive/Documents/subject-5207871.csv","legacy","Lentiform Loewenfeld","3.3.7","yes","yes","600bd7cfb6416f0113b04181","602110864497cf011d9c0822","0","j","NA","return","unknown key","return","return","j","491","NA","2993","18990","7555","6370","491","2","legacy","1024","2","48000","-16","task","5207871","odd","NA","39475","44473","41479","200568","4000","30552","22995","201071","140219","200567","201072","200432","44473","201566","37621","199931","3991","195026","Lexical Decision Task","76","59433","82","yes","1024"
"2.803231716","5.26","3","kiln","word","91.56626506024097","91.56626506024097","723.2168674698795","723.2168674698795","black","no","legacy","legacy","legacy","0","uniform","0","undefined","undefined","undefined","0","j","0","0","0","0","82","0","0","0","82","0","78","82","78","0","78","3","82","0","82","Thu Feb 18 13:58:37 2021","The main experiment item","yes","Lexical_Decision_Task.osexp","C:/Users/Ethan/OneDrive/Documents","no","Andale Mono","no","18","no","white","no","yes","576","legacy","78","78","3","C:/Users/Ethan/OneDrive/Documents/subject-5207871.csv","legacy","Lentiform Loewenfeld","3.3.7","yes","yes","600bd7cfb6416f0113b04181","602110864497cf011d9c0822","0","f","NA","return","unknown key","return","return","f","594","NA","2993","18990","7555","6370","594","2","legacy","1024","2","48000","-16","task","5207871","odd","NA","39475","44473","41479","202202","4000","30552","22995","202705","140219","202201","202706","202075","44473","203303","37621","201574","3991","195026","Lexical Decision Task","76","60027","83","yes","1024"
"3.705778213","0","6","stin","non-word","91.66666666666667","91.66666666666667","723.5595238095239","723.5595238095239","black","no","legacy","legacy","legacy","0","uniform","1","undefined","undefined","undefined","1","f","0","0","0","0","83","0","0","0","83","0","79","83","79","0","79","3","83","0","83","Thu Feb 18 13:58:37 2021","The main experiment item","yes","Lexical_Decision_Task.osexp","C:/Users/Ethan/OneDrive/Documents","no","Andale Mono","no","18","no","white","no","yes","576","legacy","79","79","3","C:/Users/Ethan/OneDrive/Documents/subject-5207871.csv","legacy","Lentiform Loewenfeld","3.3.7","yes","yes","600bd7cfb6416f0113b04181","602110864497cf011d9c0822","0","f","NA","return","unknown key","return","return","f","752","NA","2993","18990","7555","6370","752","2","legacy","1024","2","48000","-16","task","5207871","odd","NA","39475","44473","41479","204957","4000","30552","22995","205460","140219","204955","205460","204820","44473","206214","37621","201574","3991","203320","Lexical Decision Task","77","60779","84","yes","1024"
"3.492014979","0","9","yine","non-word","91.76470588235294","91.76470588235294","725.5411764705882","725.5411764705882","black","no","legacy","legacy","legacy","0","uniform","1","undefined","undefined","undefined","1","f","0","0","0","0","84","0","0","0","84","0","80","84","80","0","80","3","84","0","84","Thu Feb 18 13:58:37 2021","The main experiment item","yes","Lexical_Decision_Task.osexp","C:/Users/Ethan/OneDrive/Documents","no","Andale Mono","no","18","no","white","no","yes","576","legacy","80","80","3","C:/Users/Ethan/OneDrive/Documents/subject-5207871.csv","legacy","Lentiform Loewenfeld","3.3.7","yes","yes","600bd7cfb6416f0113b04181","602110864497cf011d9c0822","0","f","NA","return","unknown key","return","return","f","892","NA","2993","18990","7555","6370","892","2","legacy","1024","2","48000","-16","task","5207871","odd","NA","39475","44473","41479","206862","4000","30552","22995","207365","140219","206861","207366","206730","44473","208260","37621","206229","3991","203320","Lexical Decision Task","78","61671","85","yes","1024"
"3.2757719","0","5","slea","non-word","91.86046511627907","91.86046511627907","724.1976744186046","724.1976744186046","black","no","legacy","legacy","legacy","0","uniform","1","undefined","undefined","undefined","1","f","0","0","0","0","85","0","0","0","85","0","81","85","81","0","81","3","85","0","85","Thu Feb 18 13:58:37 2021","The main experiment item","yes","Lexical_Decision_Task.osexp","C:/Users/Ethan/OneDrive/Documents","no","Andale Mono","no","18","no","white","no","yes","576","legacy","81","81","3","C:/Users/Ethan/OneDrive/Documents/subject-5207871.csv","legacy","Lentiform Loewenfeld","3.3.7","yes","yes","600bd7cfb6416f0113b04181","602110864497cf011d9c0822","0","f","NA","return","unknown key","return","return","f","610","NA","2993","18990","7555","6370","610","2","legacy","1024","2","48000","-16","task","5207871","odd","NA","39475","44473","41479","208901","4000","30552","22995","209404","140219","208900","209404","208775","44473","210017","37621","208275","3991","203320","Lexical Decision Task","79","62281","86","yes","1024"
"3.363486562","6.93","9","lush","word","91.95402298850574","91.95402298850574","723.3563218390805","723.3563218390805","black","no","legacy","legacy","legacy","0","uniform","1","undefined","undefined","undefined","1","j","0","0","0","0","86","0","0","0","86","0","82","86","82","0","82","3","86","0","86","Thu Feb 18 13:58:37 2021","The main experiment item","yes","Lexical_Decision_Task.osexp","C:/Users/Ethan/OneDrive/Documents","no","Andale Mono","no","18","no","white","no","yes","576","legacy","82","82","3","C:/Users/Ethan/OneDrive/Documents/subject-5207871.csv","legacy","Lentiform Loewenfeld","3.3.7","yes","yes","600bd7cfb6416f0113b04181","602110864497cf011d9c0822","0","j","NA","return","unknown key","return","return","j","651","NA","2993","18990","7555","6370","651","2","legacy","1024","2","48000","-16","task","5207871","odd","NA","39475","44473","41479","210654","4000","30552","22995","211158","140219","210652","211158","210534","44473","211811","37621","210034","3991","203320","Lexical Decision Task","80","62932","87","yes","1024"
"3.174641193","0","3","ramb","non-word","90.9090909090909","90.9090909090909","721.1477272727273","721.1477272727273","black","no","legacy","legacy","legacy","0","uniform","0","undefined","undefined","undefined","0","f","0","0","0","0","87","0","0","0","87","0","83","87","83","0","83","3","87","0","87","Thu Feb 18 13:58:37 2021","The main experiment item","yes","Lexical_Decision_Task.osexp","C:/Users/Ethan/OneDrive/Documents","no","Andale Mono","no","18","no","white","no","yes","576","legacy","83","83","3","C:/Users/Ethan/OneDrive/Documents/subject-5207871.csv","legacy","Lentiform Loewenfeld","3.3.7","yes","yes","600bd7cfb6416f0113b04181","602110864497cf011d9c0822","0","j","NA","return","unknown key","return","return","j","529","NA","2993","18990","7555","6370","529","2","legacy","1024","2","48000","-16","task","5207871","odd","NA","39475","44473","41479","212452","4000","30552","22995","212955","140219","212450","212956","212323","44473","213487","37621","211823","3991","203320","Lexical Decision Task","80","63461","88","yes","1024"
"2.920123326","7.43","4","duel","word","91.01123595505618","91.01123595505618","721.7977528089888","721.7977528089888","black","no","legacy","legacy","legacy","0","uniform","1","undefined","undefined","undefined","1","j","0","0","0","0","88","0","0","0","88","0","84","88","84","0","84","3","88","0","88","Thu Feb 18 13:58:37 2021","The main experiment item","yes","Lexical_Decision_Task.osexp","C:/Users/Ethan/OneDrive/Documents","no","Andale Mono","no","18","no","white","no","yes","576","legacy","84","84","3","C:/Users/Ethan/OneDrive/Documents/subject-5207871.csv","legacy","Lentiform Loewenfeld","3.3.7","yes","yes","600bd7cfb6416f0113b04181","602110864497cf011d9c0822","0","j","NA","return","unknown key","return","return","j","779","NA","2993","18990","7555","6370","779","2","legacy","1024","2","48000","-16","task","5207871","odd","NA","39475","44473","41479","215138","4000","30552","22995","215641","140219","215136","215642","215004","44473","216425","37621","211823","3991","213504","Lexical Decision Task","81","64240","89","yes","1024"
"3.031812271","6.52","3","gulp","word","91.11111111111111","91.11111111111111","725.3444444444444","725.3444444444444","black","no","legacy","legacy","legacy","0","uniform","1","undefined","undefined","undefined","1","j","0","0","0","0","89","0","0","0","89","0","85","89","85","0","85","3","89","0","89","Thu Feb 18 13:58:37 2021","The main experiment item","yes","Lexical_Decision_Task.osexp","C:/Users/Ethan/OneDrive/Documents","no","Andale Mono","no","18","no","white","no","yes","576","legacy","85","85","3","C:/Users/Ethan/OneDrive/Documents/subject-5207871.csv","legacy","Lentiform Loewenfeld","3.3.7","yes","yes","600bd7cfb6416f0113b04181","602110864497cf011d9c0822","0","j","NA","return","unknown key","return","return","j","1041","NA","2993","18990","7555","6370","1041","2","legacy","1024","2","48000","-16","task","5207871","odd","NA","39475","44473","41479","217063","4000","30552","22995","217567","140219","217062","217567","216934","44473","218611","37621","216434","3991","213504","Lexical Decision Task","82","65281","90","yes","1024"
"2.755364069","7.72","2","hoax","word","91.20879120879121","91.20879120879121","723.8901098901099","723.8901098901099","black","no","legacy","legacy","legacy","0","uniform","1","undefined","undefined","undefined","1","j","0","0","0","0","90","0","0","0","90","0","86","90","86","0","86","3","90","0","90","Thu Feb 18 13:58:37 2021","The main experiment item","yes","Lexical_Decision_Task.osexp","C:/Users/Ethan/OneDrive/Documents","no","Andale Mono","no","18","no","white","no","yes","576","legacy","86","86","3","C:/Users/Ethan/OneDrive/Documents/subject-5207871.csv","legacy","Lentiform Loewenfeld","3.3.7","yes","yes","600bd7cfb6416f0113b04181","602110864497cf011d9c0822","0","j","NA","return","unknown key","return","return","j","593","NA","2993","18990","7555","6370","593","2","legacy","1024","2","48000","-16","task","5207871","odd","NA","39475","44473","41479","219251","4000","30552","22995","219755","140219","219249","219755","219128","44473","220350","37621","218628","3991","213504","Lexical Decision Task","83","65874","91","yes","1024"
"2.893578687","8.69","3","surf","word","91.30434782608695","91.30434782608695","724.1847826086956","724.1847826086956","black","no","legacy","legacy","legacy","0","uniform","1","undefined","undefined","undefined","1","j","0","0","0","0","91","0","0","0","91","0","87","91","87","0","87","3","91","0","91","Thu Feb 18 13:58:37 2021","The main experiment item","yes","Lexical_Decision_Task.osexp","C:/Users/Ethan/OneDrive/Documents","no","Andale Mono","no","18","no","white","no","yes","576","legacy","87","87","3","C:/Users/Ethan/OneDrive/Documents/subject-5207871.csv","legacy","Lentiform Loewenfeld","3.3.7","yes","yes","600bd7cfb6416f0113b04181","602110864497cf011d9c0822","0","j","NA","return","unknown key","return","return","j","751","NA","2993","18990","7555","6370","751","2","legacy","1024","2","48000","-16","task","5207871","odd","NA","39475","44473","41479","220989","4000","30552","22995","221492","140219","220987","221493","220864","44473","222246","37621","220364","3991","213504","Lexical Decision Task","84","66625","92","yes","1024"
"3.274157849","0","8","leet","non-word","91.39784946236558","91.39784946236558","724.4516129032259","724.4516129032259","black","no","legacy","legacy","legacy","0","uniform","1","undefined","undefined","undefined","1","f","0","0","0","0","92","0","0","0","92","0","88","92","88","0","88","3","92","0","92","Thu Feb 18 13:58:37 2021","The main experiment item","yes","Lexical_Decision_Task.osexp","C:/Users/Ethan/OneDrive/Documents","no","Andale Mono","no","18","no","white","no","yes","576","legacy","88","88","3","C:/Users/Ethan/OneDrive/Documents/subject-5207871.csv","legacy","Lentiform Loewenfeld","3.3.7","yes","yes","600bd7cfb6416f0113b04181","602110864497cf011d9c0822","0","f","NA","return","unknown key","return","return","f","749","NA","2993","18990","7555","6370","749","2","legacy","1024","2","48000","-16","task","5207871","odd","NA","39475","44473","41479","222894","4000","30552","22995","223398","140219","222893","223398","222763","44473","224150","37621","222263","3991","213504","Lexical Decision Task","85","67374","93","yes","1024"
"2.68604012","0","4","pumb","non-word","90.42553191489361","90.42553191489361","723.4893617021277","723.4893617021277","black","no","legacy","legacy","legacy","0","uniform","0","undefined","undefined","undefined","0","f","0","0","0","0","93","0","0","0","93","0","89","93","89","0","89","3","93","0","93","Thu Feb 18 13:58:37 2021","The main experiment item","yes","Lexical_Decision_Task.osexp","C:/Users/Ethan/OneDrive/Documents","no","Andale Mono","no","18","no","white","no","yes","576","legacy","89","89","3","C:/Users/Ethan/OneDrive/Documents/subject-5207871.csv","legacy","Lentiform Loewenfeld","3.3.7","yes","yes","600bd7cfb6416f0113b04181","602110864497cf011d9c0822","0","j","NA","return","unknown key","return","return","j","634","NA","2993","18990","7555","6370","634","2","legacy","1024","2","48000","-16","task","5207871","odd","NA","39475","44473","41479","224795","4000","30552","22995","225298","140219","224793","225299","224666","44473","225937","37621","224166","3991","213504","Lexical Decision Task","85","68008","94","yes","1024"
"2.873320602","0","4","lurg","non-word","90.52631578947368","90.52631578947368","723.5368421052632","723.5368421052632","black","no","legacy","legacy","legacy","0","uniform","1","undefined","undefined","undefined","1","f","0","0","0","0","94","0","0","0","94","0","90","94","90","0","90","3","94","0","94","Thu Feb 18 13:58:37 2021","The main experiment item","yes","Lexical_Decision_Task.osexp","C:/Users/Ethan/OneDrive/Documents","no","Andale Mono","no","18","no","white","no","yes","576","legacy","90","90","3","C:/Users/Ethan/OneDrive/Documents/subject-5207871.csv","legacy","Lentiform Loewenfeld","3.3.7","yes","yes","600bd7cfb6416f0113b04181","602110864497cf011d9c0822","0","f","NA","return","unknown key","return","return","f","728","NA","2993","18990","7555","6370","728","2","legacy","1024","2","48000","-16","task","5207871","odd","NA","39475","44473","41479","227607","4000","30552","22995","228110","140219","227604","228110","227452","44473","228840","37621","224166","3991","225952","Lexical Decision Task","86","68736","95","yes","1024"
"3.20996159","0","4","clee","non-word","90.625","90.625","725.4479166666666","725.4479166666666","black","no","legacy","legacy","legacy","0","uniform","1","undefined","undefined","undefined","1","f","0","0","0","0","95","0","0","0","95","0","91","95","91","0","91","3","95","0","95","Thu Feb 18 13:58:37 2021","The main experiment item","yes","Lexical_Decision_Task.osexp","C:/Users/Ethan/OneDrive/Documents","no","Andale Mono","no","18","no","white","no","yes","576","legacy","91","91","3","C:/Users/Ethan/OneDrive/Documents/subject-5207871.csv","legacy","Lentiform Loewenfeld","3.3.7","yes","yes","600bd7cfb6416f0113b04181","602110864497cf011d9c0822","0","f","NA","return","unknown key","return","return","f","907","NA","2993","18990","7555","6370","907","2","legacy","1024","2","48000","-16","task","5207871","odd","NA","39475","44473","41479","229481","4000","30552","22995","229984","140219","229479","229984","229349","44473","230893","37621","228849","3991","225952","Lexical Decision Task","87","69643","96","yes","1024"
"2.814027728","8.2","4","foam","word","90.72164948453609","90.72164948453609","724.9072164948453","724.9072164948453","black","no","legacy","legacy","legacy","0","uniform","1","undefined","undefined","undefined","1","j","0","0","0","0","96","0","0","0","96","0","92","96","92","0","92","3","96","0","96","Thu Feb 18 13:58:37 2021","The main experiment item","yes","Lexical_Decision_Task.osexp","C:/Users/Ethan/OneDrive/Documents","no","Andale Mono","no","18","no","white","no","yes","576","legacy","92","92","3","C:/Users/Ethan/OneDrive/Documents/subject-5207871.csv","legacy","Lentiform Loewenfeld","3.3.7","yes","yes","600bd7cfb6416f0113b04181","602110864497cf011d9c0822","0","j","NA","return","unknown key","return","return","j","673","NA","2993","18990","7555","6370","673","2","legacy","1024","2","48000","-16","task","5207871","odd","NA","39475","44473","41479","231536","4000","30552","22995","232040","140219","231534","232040","231413","44473","232716","37621","230911","3991","225952","Lexical Decision Task","88","70316","97","yes","1024"
"3.382617311","0","4","pret","non-word","89.79591836734694","89.79591836734694","718.765306122449","718.765306122449","black","no","legacy","legacy","legacy","0","uniform","0","undefined","undefined","undefined","0","f","0","0","0","0","97","0","0","0","97","0","93","97","93","0","93","3","97","0","97","Thu Feb 18 13:58:37 2021","The main experiment item","yes","Lexical_Decision_Task.osexp","C:/Users/Ethan/OneDrive/Documents","no","Andale Mono","no","18","no","white","no","yes","576","legacy","93","93","3","C:/Users/Ethan/OneDrive/Documents/subject-5207871.csv","legacy","Lentiform Loewenfeld","3.3.7","yes","yes","600bd7cfb6416f0113b04181","602110864497cf011d9c0822","0","j","NA","return","unknown key","return","return","j","123","NA","2993","18990","7555","6370","123","2","legacy","1024","2","48000","-16","task","5207871","odd","NA","39475","44473","41479","233378","4000","30552","22995","233882","140219","233375","233883","233232","44473","234009","37621","232732","3991","225952","Lexical Decision Task","88","70439","98","yes","1024"
"3.067070856","9.39","3","loud","word","89.8989898989899","89.8989898989899","719.2121212121212","719.2121212121212","black","no","legacy","legacy","legacy","0","uniform","1","undefined","undefined","undefined","1","j","0","0","0","0","98","0","0","0","98","0","94","98","94","0","94","3","98","0","98","Thu Feb 18 13:58:37 2021","The main experiment item","yes","Lexical_Decision_Task.osexp","C:/Users/Ethan/OneDrive/Documents","no","Andale Mono","no","18","no","white","no","yes","576","legacy","94","94","3","C:/Users/Ethan/OneDrive/Documents/subject-5207871.csv","legacy","Lentiform Loewenfeld","3.3.7","yes","yes","600bd7cfb6416f0113b04181","602110864497cf011d9c0822","0","j","NA","return","unknown key","return","return","j","763","NA","2993","18990","7555","6370","763","2","legacy","1024","2","48000","-16","task","5207871","odd","NA","39475","44473","41479","235664","4000","30552","22995","236168","140219","235662","236168","235528","44473","236934","37621","232732","3991","234027","Lexical Decision Task","89","71202","99","yes","1024"
