"Log_BG","Log_Freq_HAL","Ortho_N","Stimulus","Type","acc","accuracy","average_response_time","avg_rt","background","bidi","canvas_backend","clock_backend","color_backend","compensation","coordinates","correct","correct_Experimental_intro","correct_Introduction","correct_Practice_intro","correct_experimenter_kb","correct_response","count_End_Of_Experiment","count_End_Of_Practice","count_Experimental_Loop","count_Experimental_intro","count_Fixation","count_Introduction","count_Practice_Loop","count_Practice_intro","count_Stimulus","count_block_break_feedback","count_experimental_sequence","count_experimenter_kb","count_increment_trial_count","count_init_trial_count","count_logger","count_practice_sequence","count_right","count_task","count_wrong","datetime","description","disable_garbage_collection","experiment_file","experiment_path","font_bold","font_family","font_italic","font_size","font_underline","foreground","form_clicks","fullscreen","height","keyboard_backend","live_row","live_row_Experimental_Loop","live_row_Practice_Loop","logfile","mouse_backend","opensesame_codename","opensesame_version","osf_always_upload_data","osf_always_upload_experiment","osf_datanode_id","osf_id","repeat_cycle","response","response_End_Of_Experiment","response_Experimental_intro","response_Introduction","response_Practice_intro","response_block_break_feedback","response_experimenter_kb","response_time","response_time_End_Of_Experiment","response_time_Experimental_intro","response_time_Introduction","response_time_Practice_intro","response_time_block_break_feedback","response_time_experimenter_kb","round_decimals","sampler_backend","sound_buf_size","sound_channels","sound_freq","sound_sample_size","start","subject_nr","subject_parity","time_End_Of_Experiment","time_End_Of_Practice","time_Experimental_Loop","time_Experimental_intro","time_Fixation","time_Introduction","time_Practice_Loop","time_Practice_intro","time_Stimulus","time_block_break_feedback","time_experimental_sequence","time_experimenter_kb","time_increment_trial_count","time_init_trial_count","time_logger","time_practice_sequence","time_right","time_task","time_wrong","title","total_correct","total_response_time","total_responses","uniform_coordinates","width"
"3.132473155","0","4","glim","non-word","40","40","2364.8","2364.8","black","no","legacy","legacy","legacy","0","uniform","1","undefined","undefined","undefined","1","f","0","0","0","0","4","0","0","0","4","NA","0","4","0","0","0","3","4","0","4","Thu Feb 18 14:16:20 2021","The main experiment item","yes","Lexical_Decision_Task.osexp","C:/Users/abbyd/OneDrive/Documents/Uni/2nd year/Semester 2/Cognition and Language","no","Andale Mono","no","18","no","white","no","yes","576","legacy","0","0","3","C:/Users/abbyd/OneDrive/Documents/Uni/2nd year/Semester 2/Cognition and Language/subject-5206206.csv","legacy","Lentiform Loewenfeld","3.3.7","yes","yes","600bd7cfb6416f0113b04181","602110864497cf011d9c0822","0","f","NA","space","space","space","NA","f","2074","NA","5604","20896","3613","NA","2074","2","legacy","1024","2","48000","-16","task","5206206","even","NA","86235","93842","88237","93900","43692","68206","64591","94401","NA","93898","94402","NA","93842","96476","83529","85705","43652","81953","Lexical Decision Task","2","11824","5","yes","1024"
"3.16326079","0","5","parg","non-word","50","50","2145.8333333333335","2145.8333333333335","black","no","legacy","legacy","legacy","0","uniform","1","undefined","undefined","undefined","1","f","0","0","0","0","5","0","0","0","5","NA","1","5","1","0","1","3","5","0","5","Thu Feb 18 14:16:20 2021","The main experiment item","yes","Lexical_Decision_Task.osexp","C:/Users/abbyd/OneDrive/Documents/Uni/2nd year/Semester 2/Cognition and Language","no","Andale Mono","no","18","no","white","no","yes","576","legacy","1","1","3","C:/Users/abbyd/OneDrive/Documents/Uni/2nd year/Semester 2/Cognition and Language/subject-5206206.csv","legacy","Lentiform Loewenfeld","3.3.7","yes","yes","600bd7cfb6416f0113b04181","602110864497cf011d9c0822","0","f","NA","space","space","space","NA","f","1051","NA","5604","20896","3613","NA","1051","2","legacy","1024","2","48000","-16","task","5206206","even","NA","86235","93842","88237","97216","43692","68206","64591","97717","NA","97214","97717","97061","93842","98769","83529","96561","43652","81953","Lexical Decision Task","3","12875","6","yes","1024"
"3.209246849","0","7","slem","non-word","57.142857142857146","57.142857142857146","1948","1948","black","no","legacy","legacy","legacy","0","uniform","1","undefined","undefined","undefined","1","f","0","0","0","0","6","0","0","0","6","NA","2","6","2","0","2","3","6","0","6","Thu Feb 18 14:16:20 2021","The main experiment item","yes","Lexical_Decision_Task.osexp","C:/Users/abbyd/OneDrive/Documents/Uni/2nd year/Semester 2/Cognition and Language","no","Andale Mono","no","18","no","white","no","yes","576","legacy","2","2","3","C:/Users/abbyd/OneDrive/Documents/Uni/2nd year/Semester 2/Cognition and Language/subject-5206206.csv","legacy","Lentiform Loewenfeld","3.3.7","yes","yes","600bd7cfb6416f0113b04181","602110864497cf011d9c0822","0","f","NA","space","space","space","NA","f","761","NA","5604","20896","3613","NA","761","2","legacy","1024","2","48000","-16","task","5206206","even","NA","86235","93842","88237","99379","43692","68206","64591","99880","NA","99377","99881","99297","93842","100643","83529","98797","43652","81953","Lexical Decision Task","4","13636","7","yes","1024"
"2.664328519","0","4","plux","non-word","62.5","62.5","1778","1778","black","no","legacy","legacy","legacy","0","uniform","1","undefined","undefined","undefined","1","f","0","0","0","0","7","0","0","0","7","NA","3","7","3","0","3","3","7","0","7","Thu Feb 18 14:16:20 2021","The main experiment item","yes","Lexical_Decision_Task.osexp","C:/Users/abbyd/OneDrive/Documents/Uni/2nd year/Semester 2/Cognition and Language","no","Andale Mono","no","18","no","white","no","yes","576","legacy","3","3","3","C:/Users/abbyd/OneDrive/Documents/Uni/2nd year/Semester 2/Cognition and Language/subject-5206206.csv","legacy","Lentiform Loewenfeld","3.3.7","yes","yes","600bd7cfb6416f0113b04181","602110864497cf011d9c0822","0","f","NA","space","space","space","NA","f","588","NA","5604","20896","3613","NA","588","2","legacy","1024","2","48000","-16","task","5206206","even","NA","86235","93842","88237","101326","43692","68206","64591","101829","NA","101324","101829","101225","93842","102419","83529","100724","43652","81953","Lexical Decision Task","5","14224","8","yes","1024"
"3.062080345","0","6","tomp","non-word","66.66666666666667","66.66666666666667","1655.3333333333333","1655.3333333333333","black","no","legacy","legacy","legacy","0","uniform","1","undefined","undefined","undefined","1","f","0","0","0","0","8","0","0","0","8","NA","4","8","4","0","4","3","8","0","8","Thu Feb 18 14:16:20 2021","The main experiment item","yes","Lexical_Decision_Task.osexp","C:/Users/abbyd/OneDrive/Documents/Uni/2nd year/Semester 2/Cognition and Language","no","Andale Mono","no","18","no","white","no","yes","576","legacy","4","4","3","C:/Users/abbyd/OneDrive/Documents/Uni/2nd year/Semester 2/Cognition and Language/subject-5206206.csv","legacy","Lentiform Loewenfeld","3.3.7","yes","yes","600bd7cfb6416f0113b04181","602110864497cf011d9c0822","0","f","NA","space","space","space","NA","f","674","NA","5604","20896","3613","NA","674","2","legacy","1024","2","48000","-16","task","5206206","even","NA","86235","93842","88237","103056","43692","68206","64591","103558","NA","103054","103558","102949","93842","104233","83529","102449","43652","81953","Lexical Decision Task","6","14898","9","yes","1024"
"3.159867847","5.98","5","brim","word","70","70","1639.7","1639.7","black","no","legacy","legacy","legacy","0","uniform","1","undefined","undefined","undefined","1","j","0","0","0","0","9","0","0","0","9","NA","5","9","5","0","5","3","9","0","9","Thu Feb 18 14:16:20 2021","The main experiment item","yes","Lexical_Decision_Task.osexp","C:/Users/abbyd/OneDrive/Documents/Uni/2nd year/Semester 2/Cognition and Language","no","Andale Mono","no","18","no","white","no","yes","576","legacy","5","5","3","C:/Users/abbyd/OneDrive/Documents/Uni/2nd year/Semester 2/Cognition and Language/subject-5206206.csv","legacy","Lentiform Loewenfeld","3.3.7","yes","yes","600bd7cfb6416f0113b04181","602110864497cf011d9c0822","0","j","NA","space","space","space","NA","j","1499","NA","5604","20896","3613","NA","1499","2","legacy","1024","2","48000","-16","task","5206206","even","NA","86235","93842","88237","104831","43692","68206","64591","105332","NA","104829","105332","104755","93842","106832","83529","104255","43652","81953","Lexical Decision Task","7","16397","10","yes","1024"
"2.794720352","0","9","koot","non-word","72.72727272727273","72.72727272727273","1654.2727272727273","1654.2727272727273","black","no","legacy","legacy","legacy","0","uniform","1","undefined","undefined","undefined","1","f","0","0","0","0","10","0","0","0","10","NA","6","10","6","0","6","3","10","0","10","Thu Feb 18 14:16:20 2021","The main experiment item","yes","Lexical_Decision_Task.osexp","C:/Users/abbyd/OneDrive/Documents/Uni/2nd year/Semester 2/Cognition and Language","no","Andale Mono","no","18","no","white","no","yes","576","legacy","6","6","3","C:/Users/abbyd/OneDrive/Documents/Uni/2nd year/Semester 2/Cognition and Language/subject-5206206.csv","legacy","Lentiform Loewenfeld","3.3.7","yes","yes","600bd7cfb6416f0113b04181","602110864497cf011d9c0822","0","f","NA","space","space","space","NA","f","1800","NA","5604","20896","3613","NA","1800","2","legacy","1024","2","48000","-16","task","5206206","even","NA","86235","93842","88237","107499","43692","68206","64591","108000","NA","107497","108000","107401","93842","109801","83529","106900","43652","81953","Lexical Decision Task","8","18197","11","yes","1024"
"2.695481676","0","7","goke","non-word","75","75","1599.25","1599.25","black","no","legacy","legacy","legacy","0","uniform","1","undefined","undefined","undefined","1","f","0","0","0","0","11","0","0","0","11","NA","7","11","7","0","7","3","11","0","11","Thu Feb 18 14:16:20 2021","The main experiment item","yes","Lexical_Decision_Task.osexp","C:/Users/abbyd/OneDrive/Documents/Uni/2nd year/Semester 2/Cognition and Language","no","Andale Mono","no","18","no","white","no","yes","576","legacy","7","7","3","C:/Users/abbyd/OneDrive/Documents/Uni/2nd year/Semester 2/Cognition and Language/subject-5206206.csv","legacy","Lentiform Loewenfeld","3.3.7","yes","yes","600bd7cfb6416f0113b04181","602110864497cf011d9c0822","0","f","NA","space","space","space","NA","f","994","NA","5604","20896","3613","NA","994","2","legacy","1024","2","48000","-16","task","5206206","even","NA","86235","93842","88237","110449","43692","68206","64591","110950","NA","110447","110950","110369","93842","111945","83529","109869","43652","81953","Lexical Decision Task","9","19191","12","yes","1024"
"3.431095062","5.74","9","perk","word","76.92307692307692","76.92307692307692","1526","1526","black","no","legacy","legacy","legacy","0","uniform","1","undefined","undefined","undefined","1","j","0","0","0","0","12","0","0","0","12","NA","8","12","8","0","8","3","12","0","12","Thu Feb 18 14:16:20 2021","The main experiment item","yes","Lexical_Decision_Task.osexp","C:/Users/abbyd/OneDrive/Documents/Uni/2nd year/Semester 2/Cognition and Language","no","Andale Mono","no","18","no","white","no","yes","576","legacy","8","8","3","C:/Users/abbyd/OneDrive/Documents/Uni/2nd year/Semester 2/Cognition and Language/subject-5206206.csv","legacy","Lentiform Loewenfeld","3.3.7","yes","yes","600bd7cfb6416f0113b04181","602110864497cf011d9c0822","0","j","NA","space","space","space","NA","j","647","NA","5604","20896","3613","NA","647","2","legacy","1024","2","48000","-16","task","5206206","even","NA","86235","93842","88237","112546","43692","68206","64591","113047","NA","112544","113047","112470","93842","113695","83529","111970","43652","81953","Lexical Decision Task","10","19838","13","yes","1024"
"2.706148589","0","4","hube","non-word","78.57142857142857","78.57142857142857","1468.5","1468.5","black","no","legacy","legacy","legacy","0","uniform","1","undefined","undefined","undefined","1","f","0","0","0","0","13","0","0","0","13","NA","9","13","9","0","9","3","13","0","13","Thu Feb 18 14:16:20 2021","The main experiment item","yes","Lexical_Decision_Task.osexp","C:/Users/abbyd/OneDrive/Documents/Uni/2nd year/Semester 2/Cognition and Language","no","Andale Mono","no","18","no","white","no","yes","576","legacy","9","9","3","C:/Users/abbyd/OneDrive/Documents/Uni/2nd year/Semester 2/Cognition and Language/subject-5206206.csv","legacy","Lentiform Loewenfeld","3.3.7","yes","yes","600bd7cfb6416f0113b04181","602110864497cf011d9c0822","0","f","NA","space","space","space","NA","f","721","NA","5604","20896","3613","NA","721","2","legacy","1024","2","48000","-16","task","5206206","even","NA","86235","93842","88237","114342","43692","68206","64591","114844","NA","114340","114844","114263","93842","115566","83529","113763","43652","81953","Lexical Decision Task","11","20559","14","yes","1024"
"3.031812271","6.52","3","gulp","word","80","80","1426.4","1426.4","black","no","legacy","legacy","legacy","0","uniform","1","undefined","undefined","undefined","1","j","0","0","0","0","14","0","0","0","14","NA","10","14","10","0","10","3","14","0","14","Thu Feb 18 14:16:20 2021","The main experiment item","yes","Lexical_Decision_Task.osexp","C:/Users/abbyd/OneDrive/Documents/Uni/2nd year/Semester 2/Cognition and Language","no","Andale Mono","no","18","no","white","no","yes","576","legacy","10","10","3","C:/Users/abbyd/OneDrive/Documents/Uni/2nd year/Semester 2/Cognition and Language/subject-5206206.csv","legacy","Lentiform Loewenfeld","3.3.7","yes","yes","600bd7cfb6416f0113b04181","602110864497cf011d9c0822","0","j","NA","space","space","space","NA","j","837","NA","5604","20896","3613","NA","837","2","legacy","1024","2","48000","-16","task","5206206","even","NA","86235","93842","88237","116165","43692","68206","64591","116666","NA","116163","116666","116090","93842","117505","83529","115589","43652","81953","Lexical Decision Task","12","21396","15","yes","1024"
"3.374198258","0","8","vist","non-word","75","75","1432.0625","1432.0625","black","no","legacy","legacy","legacy","0","uniform","0","undefined","undefined","undefined","0","f","0","0","0","0","15","0","0","0","15","NA","11","15","11","0","11","3","15","0","15","Thu Feb 18 14:16:20 2021","The main experiment item","yes","Lexical_Decision_Task.osexp","C:/Users/abbyd/OneDrive/Documents/Uni/2nd year/Semester 2/Cognition and Language","no","Andale Mono","no","18","no","white","no","yes","576","legacy","11","11","3","C:/Users/abbyd/OneDrive/Documents/Uni/2nd year/Semester 2/Cognition and Language/subject-5206206.csv","legacy","Lentiform Loewenfeld","3.3.7","yes","yes","600bd7cfb6416f0113b04181","602110864497cf011d9c0822","0","j","NA","space","space","space","NA","j","1517","NA","5604","20896","3613","NA","1517","2","legacy","1024","2","48000","-16","task","5206206","even","NA","86235","93842","88237","118174","43692","68206","64591","118675","NA","118171","118675","118071","93842","120194","83529","117571","43652","81953","Lexical Decision Task","12","22913","16","yes","1024"
"2.709837904","6.85","8","skim","word","70.58823529411765","70.58823529411765","1401.5882352941176","1401.5882352941176","black","no","legacy","legacy","legacy","0","uniform","0","undefined","undefined","undefined","0","j","0","0","0","0","16","0","0","0","16","NA","12","16","12","0","12","3","16","0","16","Thu Feb 18 14:16:20 2021","The main experiment item","yes","Lexical_Decision_Task.osexp","C:/Users/abbyd/OneDrive/Documents/Uni/2nd year/Semester 2/Cognition and Language","no","Andale Mono","no","18","no","white","no","yes","576","legacy","12","12","3","C:/Users/abbyd/OneDrive/Documents/Uni/2nd year/Semester 2/Cognition and Language/subject-5206206.csv","legacy","Lentiform Loewenfeld","3.3.7","yes","yes","600bd7cfb6416f0113b04181","602110864497cf011d9c0822","0","f","NA","space","space","space","NA","f","914","NA","5604","20896","3613","NA","914","2","legacy","1024","2","48000","-16","task","5206206","even","NA","86235","93842","88237","121852","43692","68206","64591","122353","NA","121850","122353","121762","93842","123269","83529","117571","43652","120262","Lexical Decision Task","12","23827","17","yes","1024"
"2.782472624","10.55","2","huge","word","72.22222222222223","72.22222222222223","1355.0555555555557","1355.0555555555557","black","no","legacy","legacy","legacy","0","uniform","1","undefined","undefined","undefined","1","j","0","0","0","0","17","0","0","0","17","NA","13","17","13","0","13","3","17","0","17","Thu Feb 18 14:16:20 2021","The main experiment item","yes","Lexical_Decision_Task.osexp","C:/Users/abbyd/OneDrive/Documents/Uni/2nd year/Semester 2/Cognition and Language","no","Andale Mono","no","18","no","white","no","yes","576","legacy","13","13","3","C:/Users/abbyd/OneDrive/Documents/Uni/2nd year/Semester 2/Cognition and Language/subject-5206206.csv","legacy","Lentiform Loewenfeld","3.3.7","yes","yes","600bd7cfb6416f0113b04181","602110864497cf011d9c0822","0","j","NA","space","space","space","NA","j","564","NA","5604","20896","3613","NA","564","2","legacy","1024","2","48000","-16","task","5206206","even","NA","86235","93842","88237","124882","43692","68206","64591","125384","NA","124881","125384","124806","93842","125949","83529","117571","43652","123306","Lexical Decision Task","13","24391","18","yes","1024"
"2.953276337","6.32","4","thaw","word","68.42105263157895","68.42105263157895","1331.2631578947369","1331.2631578947369","black","no","legacy","legacy","legacy","0","uniform","0","undefined","undefined","undefined","0","j","0","0","0","0","18","0","0","0","18","NA","14","18","14","0","14","3","18","0","18","Thu Feb 18 14:16:20 2021","The main experiment item","yes","Lexical_Decision_Task.osexp","C:/Users/abbyd/OneDrive/Documents/Uni/2nd year/Semester 2/Cognition and Language","no","Andale Mono","no","18","no","white","no","yes","576","legacy","14","14","3","C:/Users/abbyd/OneDrive/Documents/Uni/2nd year/Semester 2/Cognition and Language/subject-5206206.csv","legacy","Lentiform Loewenfeld","3.3.7","yes","yes","600bd7cfb6416f0113b04181","602110864497cf011d9c0822","0","f","NA","space","space","space","NA","f","903","NA","5604","20896","3613","NA","903","2","legacy","1024","2","48000","-16","task","5206206","even","NA","86235","93842","88237","126615","43692","68206","64591","127117","NA","126613","127117","126518","93842","128021","83529","126018","43652","123306","Lexical Decision Task","13","25294","19","yes","1024"
"3.14849993","10.75","7","hour","word","70","70","1291.4","1291.4","black","no","legacy","legacy","legacy","0","uniform","1","undefined","undefined","undefined","1","j","0","0","0","0","19","0","0","0","19","NA","15","19","15","0","15","3","19","0","19","Thu Feb 18 14:16:20 2021","The main experiment item","yes","Lexical_Decision_Task.osexp","C:/Users/abbyd/OneDrive/Documents/Uni/2nd year/Semester 2/Cognition and Language","no","Andale Mono","no","18","no","white","no","yes","576","legacy","15","15","3","C:/Users/abbyd/OneDrive/Documents/Uni/2nd year/Semester 2/Cognition and Language/subject-5206206.csv","legacy","Lentiform Loewenfeld","3.3.7","yes","yes","600bd7cfb6416f0113b04181","602110864497cf011d9c0822","0","j","NA","space","space","space","NA","j","534","NA","5604","20896","3613","NA","534","2","legacy","1024","2","48000","-16","task","5206206","even","NA","86235","93842","88237","129633","43692","68206","64591","130134","NA","129631","130134","129544","93842","130669","83529","126018","43652","128044","Lexical Decision Task","14","25828","20","yes","1024"
"3.22685757","9.99","7","roll","word","71.42857142857143","71.42857142857143","1267.5714285714287","1267.5714285714287","black","no","legacy","legacy","legacy","0","uniform","1","undefined","undefined","undefined","1","j","0","0","0","0","20","0","0","0","20","NA","16","20","16","0","16","3","20","0","20","Thu Feb 18 14:16:20 2021","The main experiment item","yes","Lexical_Decision_Task.osexp","C:/Users/abbyd/OneDrive/Documents/Uni/2nd year/Semester 2/Cognition and Language","no","Andale Mono","no","18","no","white","no","yes","576","legacy","16","16","3","C:/Users/abbyd/OneDrive/Documents/Uni/2nd year/Semester 2/Cognition and Language/subject-5206206.csv","legacy","Lentiform Loewenfeld","3.3.7","yes","yes","600bd7cfb6416f0113b04181","602110864497cf011d9c0822","0","j","NA","space","space","space","NA","j","791","NA","5604","20896","3613","NA","791","2","legacy","1024","2","48000","-16","task","5206206","even","NA","86235","93842","88237","131288","43692","68206","64591","131789","NA","131286","131789","131212","93842","132581","83529","130712","43652","128044","Lexical Decision Task","15","26619","21","yes","1024"
"3.311895072","0","9","gung","non-word","72.72727272727273","72.72727272727273","1244.4545454545455","1244.4545454545455","black","no","legacy","legacy","legacy","0","uniform","1","undefined","undefined","undefined","1","f","0","0","0","0","21","0","0","0","21","NA","17","21","17","0","17","3","21","0","21","Thu Feb 18 14:16:20 2021","The main experiment item","yes","Lexical_Decision_Task.osexp","C:/Users/abbyd/OneDrive/Documents/Uni/2nd year/Semester 2/Cognition and Language","no","Andale Mono","no","18","no","white","no","yes","576","legacy","17","17","3","C:/Users/abbyd/OneDrive/Documents/Uni/2nd year/Semester 2/Cognition and Language/subject-5206206.csv","legacy","Lentiform Loewenfeld","3.3.7","yes","yes","600bd7cfb6416f0113b04181","602110864497cf011d9c0822","0","f","NA","space","space","space","NA","f","759","NA","5604","20896","3613","NA","759","2","legacy","1024","2","48000","-16","task","5206206","even","NA","86235","93842","88237","133225","43692","68206","64591","133728","NA","133224","133728","133149","93842","134488","83529","132649","43652","128044","Lexical Decision Task","16","27378","22","yes","1024"
"3.197740804","6.74","3","ache","word","73.91304347826087","73.91304347826087","1216.6521739130435","1216.6521739130435","black","no","legacy","legacy","legacy","0","uniform","1","undefined","undefined","undefined","1","j","0","0","0","0","22","0","0","0","22","NA","18","22","18","0","18","3","22","0","22","Thu Feb 18 14:16:20 2021","The main experiment item","yes","Lexical_Decision_Task.osexp","C:/Users/abbyd/OneDrive/Documents/Uni/2nd year/Semester 2/Cognition and Language","no","Andale Mono","no","18","no","white","no","yes","576","legacy","18","18","3","C:/Users/abbyd/OneDrive/Documents/Uni/2nd year/Semester 2/Cognition and Language/subject-5206206.csv","legacy","Lentiform Loewenfeld","3.3.7","yes","yes","600bd7cfb6416f0113b04181","602110864497cf011d9c0822","0","j","NA","space","space","space","NA","j","605","NA","5604","20896","3613","NA","605","2","legacy","1024","2","48000","-16","task","5206206","even","NA","86235","93842","88237","135407","43692","68206","64591","135908","NA","135405","135908","135329","93842","136514","83529","134829","43652","128044","Lexical Decision Task","17","27983","23","yes","1024"
"2.924968096","0","4","phim","non-word","75","75","1196.9166666666667","1196.9166666666667","black","no","legacy","legacy","legacy","0","uniform","1","undefined","undefined","undefined","1","f","0","0","0","0","23","0","0","0","23","NA","19","23","19","0","19","3","23","0","23","Thu Feb 18 14:16:20 2021","The main experiment item","yes","Lexical_Decision_Task.osexp","C:/Users/abbyd/OneDrive/Documents/Uni/2nd year/Semester 2/Cognition and Language","no","Andale Mono","no","18","no","white","no","yes","576","legacy","19","19","3","C:/Users/abbyd/OneDrive/Documents/Uni/2nd year/Semester 2/Cognition and Language/subject-5206206.csv","legacy","Lentiform Loewenfeld","3.3.7","yes","yes","600bd7cfb6416f0113b04181","602110864497cf011d9c0822","0","f","NA","space","space","space","NA","f","743","NA","5604","20896","3613","NA","743","2","legacy","1024","2","48000","-16","task","5206206","even","NA","86235","93842","88237","137110","43692","68206","64591","137611","NA","137108","137611","137035","93842","138356","83529","136535","43652","128044","Lexical Decision Task","18","28726","24","yes","1024"
"3.248054965","7.86","5","glow","word","76","76","1180.64","1180.64","black","no","legacy","legacy","legacy","0","uniform","1","undefined","undefined","undefined","1","j","0","0","0","0","24","0","0","0","24","NA","20","24","20","0","20","3","24","0","24","Thu Feb 18 14:16:20 2021","The main experiment item","yes","Lexical_Decision_Task.osexp","C:/Users/abbyd/OneDrive/Documents/Uni/2nd year/Semester 2/Cognition and Language","no","Andale Mono","no","18","no","white","no","yes","576","legacy","20","20","3","C:/Users/abbyd/OneDrive/Documents/Uni/2nd year/Semester 2/Cognition and Language/subject-5206206.csv","legacy","Lentiform Loewenfeld","3.3.7","yes","yes","600bd7cfb6416f0113b04181","602110864497cf011d9c0822","0","j","NA","space","space","space","NA","j","790","NA","5604","20896","3613","NA","790","2","legacy","1024","2","48000","-16","task","5206206","even","NA","86235","93842","88237","138993","43692","68206","64591","139494","NA","138991","139494","138916","93842","140285","83529","138416","43652","128044","Lexical Decision Task","19","29516","25","yes","1024"
"3.153001286","8.7","5","palm","word","76.92307692307692","76.92307692307692","1156.5384615384614","1156.5384615384614","black","no","legacy","legacy","legacy","0","uniform","1","undefined","undefined","undefined","1","j","0","0","0","0","25","0","0","0","25","NA","21","25","21","0","21","3","25","0","25","Thu Feb 18 14:16:20 2021","The main experiment item","yes","Lexical_Decision_Task.osexp","C:/Users/abbyd/OneDrive/Documents/Uni/2nd year/Semester 2/Cognition and Language","no","Andale Mono","no","18","no","white","no","yes","576","legacy","21","21","3","C:/Users/abbyd/OneDrive/Documents/Uni/2nd year/Semester 2/Cognition and Language/subject-5206206.csv","legacy","Lentiform Loewenfeld","3.3.7","yes","yes","600bd7cfb6416f0113b04181","602110864497cf011d9c0822","0","j","NA","space","space","space","NA","j","554","NA","5604","20896","3613","NA","554","2","legacy","1024","2","48000","-16","task","5206206","even","NA","86235","93842","88237","140886","43692","68206","64591","141387","NA","140884","141387","140809","93842","141943","83529","140309","43652","128044","Lexical Decision Task","20","30070","26","yes","1024"
"3.090140555","5.81","8","pout","word","74.07407407407408","74.07407407407408","1133.2222222222222","1133.2222222222222","black","no","legacy","legacy","legacy","0","uniform","0","undefined","undefined","undefined","0","j","0","0","0","0","26","0","0","0","26","NA","22","26","22","0","22","3","26","0","26","Thu Feb 18 14:16:20 2021","The main experiment item","yes","Lexical_Decision_Task.osexp","C:/Users/abbyd/OneDrive/Documents/Uni/2nd year/Semester 2/Cognition and Language","no","Andale Mono","no","18","no","white","no","yes","576","legacy","22","22","3","C:/Users/abbyd/OneDrive/Documents/Uni/2nd year/Semester 2/Cognition and Language/subject-5206206.csv","legacy","Lentiform Loewenfeld","3.3.7","yes","yes","600bd7cfb6416f0113b04181","602110864497cf011d9c0822","0","f","NA","space","space","space","NA","f","527","NA","5604","20896","3613","NA","527","2","legacy","1024","2","48000","-16","task","5206206","even","NA","86235","93842","88237","142618","43692","68206","64591","143119","NA","142615","143119","142515","93842","143647","83529","142015","43652","128044","Lexical Decision Task","20","30597","27","yes","1024"
"3.094121596","0","8","fode","non-word","75","75","1117.2857142857142","1117.2857142857142","black","no","legacy","legacy","legacy","0","uniform","1","undefined","undefined","undefined","1","f","0","0","0","0","27","0","0","0","27","NA","23","27","23","0","23","3","27","0","27","Thu Feb 18 14:16:20 2021","The main experiment item","yes","Lexical_Decision_Task.osexp","C:/Users/abbyd/OneDrive/Documents/Uni/2nd year/Semester 2/Cognition and Language","no","Andale Mono","no","18","no","white","no","yes","576","legacy","23","23","3","C:/Users/abbyd/OneDrive/Documents/Uni/2nd year/Semester 2/Cognition and Language/subject-5206206.csv","legacy","Lentiform Loewenfeld","3.3.7","yes","yes","600bd7cfb6416f0113b04181","602110864497cf011d9c0822","0","f","NA","space","space","space","NA","f","687","NA","5604","20896","3613","NA","687","2","legacy","1024","2","48000","-16","task","5206206","even","NA","86235","93842","88237","145251","43692","68206","64591","145753","NA","145248","145753","145174","93842","146441","83529","142015","43652","143674","Lexical Decision Task","21","31284","28","yes","1024"
"2.708989954","9.28","9","bowl","word","75.86206896551724","75.86206896551724","1097","1097","black","no","legacy","legacy","legacy","0","uniform","1","undefined","undefined","undefined","1","j","0","0","0","0","28","0","0","0","28","NA","24","28","24","0","24","3","28","0","28","Thu Feb 18 14:16:20 2021","The main experiment item","yes","Lexical_Decision_Task.osexp","C:/Users/abbyd/OneDrive/Documents/Uni/2nd year/Semester 2/Cognition and Language","no","Andale Mono","no","18","no","white","no","yes","576","legacy","24","24","3","C:/Users/abbyd/OneDrive/Documents/Uni/2nd year/Semester 2/Cognition and Language/subject-5206206.csv","legacy","Lentiform Loewenfeld","3.3.7","yes","yes","600bd7cfb6416f0113b04181","602110864497cf011d9c0822","0","j","NA","space","space","space","NA","j","529","NA","5604","20896","3613","NA","529","2","legacy","1024","2","48000","-16","task","5206206","even","NA","86235","93842","88237","147085","43692","68206","64591","147587","NA","147083","147587","147009","93842","148118","83529","146509","43652","143674","Lexical Decision Task","22","31813","29","yes","1024"
"3.384413096","10.15","3","glad","word","76.66666666666667","76.66666666666667","1076.9666666666667","1076.9666666666667","black","no","legacy","legacy","legacy","0","uniform","1","undefined","undefined","undefined","1","j","0","0","0","0","29","0","0","0","29","NA","25","29","25","0","25","3","29","0","29","Thu Feb 18 14:16:20 2021","The main experiment item","yes","Lexical_Decision_Task.osexp","C:/Users/abbyd/OneDrive/Documents/Uni/2nd year/Semester 2/Cognition and Language","no","Andale Mono","no","18","no","white","no","yes","576","legacy","25","25","3","C:/Users/abbyd/OneDrive/Documents/Uni/2nd year/Semester 2/Cognition and Language/subject-5206206.csv","legacy","Lentiform Loewenfeld","3.3.7","yes","yes","600bd7cfb6416f0113b04181","602110864497cf011d9c0822","0","j","NA","space","space","space","NA","j","496","NA","5604","20896","3613","NA","496","2","legacy","1024","2","48000","-16","task","5206206","even","NA","86235","93842","88237","148726","43692","68206","64591","149227","NA","148724","149227","148647","93842","149724","83529","148146","43652","143674","Lexical Decision Task","23","32309","30","yes","1024"
"2.696356389","0","1","pizz","non-word","77.41935483870968","77.41935483870968","1068.4516129032259","1068.4516129032259","black","no","legacy","legacy","legacy","0","uniform","1","undefined","undefined","undefined","1","f","0","0","0","0","30","0","0","0","30","NA","26","30","26","0","26","3","30","0","30","Thu Feb 18 14:16:20 2021","The main experiment item","yes","Lexical_Decision_Task.osexp","C:/Users/abbyd/OneDrive/Documents/Uni/2nd year/Semester 2/Cognition and Language","no","Andale Mono","no","18","no","white","no","yes","576","legacy","26","26","3","C:/Users/abbyd/OneDrive/Documents/Uni/2nd year/Semester 2/Cognition and Language/subject-5206206.csv","legacy","Lentiform Loewenfeld","3.3.7","yes","yes","600bd7cfb6416f0113b04181","602110864497cf011d9c0822","0","f","NA","space","space","space","NA","f","813","NA","5604","20896","3613","NA","813","2","legacy","1024","2","48000","-16","task","5206206","even","NA","86235","93842","88237","150335","43692","68206","64591","150836","NA","150332","150836","150252","93842","151650","83529","149752","43652","143674","Lexical Decision Task","24","33122","31","yes","1024"
"3.100255637","0","6","brax","non-word","78.125","78.125","1056.03125","1056.03125","black","no","legacy","legacy","legacy","0","uniform","1","undefined","undefined","undefined","1","f","0","0","0","0","31","0","0","0","31","NA","27","31","27","0","27","3","31","0","31","Thu Feb 18 14:16:20 2021","The main experiment item","yes","Lexical_Decision_Task.osexp","C:/Users/abbyd/OneDrive/Documents/Uni/2nd year/Semester 2/Cognition and Language","no","Andale Mono","no","18","no","white","no","yes","576","legacy","27","27","3","C:/Users/abbyd/OneDrive/Documents/Uni/2nd year/Semester 2/Cognition and Language/subject-5206206.csv","legacy","Lentiform Loewenfeld","3.3.7","yes","yes","600bd7cfb6416f0113b04181","602110864497cf011d9c0822","0","f","NA","space","space","space","NA","f","671","NA","5604","20896","3613","NA","671","2","legacy","1024","2","48000","-16","task","5206206","even","NA","86235","93842","88237","152257","43692","68206","64591","152758","NA","152255","152758","152178","93842","153431","83529","151678","43652","143674","Lexical Decision Task","25","33793","32","yes","1024"
"3.145920145","8.51","8","flew","word","78.78787878787878","78.78787878787878","1048.2727272727273","1048.2727272727273","black","no","legacy","legacy","legacy","0","uniform","1","undefined","undefined","undefined","1","j","0","0","0","0","32","0","0","0","32","NA","28","32","28","0","28","3","32","0","32","Thu Feb 18 14:16:20 2021","The main experiment item","yes","Lexical_Decision_Task.osexp","C:/Users/abbyd/OneDrive/Documents/Uni/2nd year/Semester 2/Cognition and Language","no","Andale Mono","no","18","no","white","no","yes","576","legacy","28","28","3","C:/Users/abbyd/OneDrive/Documents/Uni/2nd year/Semester 2/Cognition and Language/subject-5206206.csv","legacy","Lentiform Loewenfeld","3.3.7","yes","yes","600bd7cfb6416f0113b04181","602110864497cf011d9c0822","0","j","NA","space","space","space","NA","j","800","NA","5604","20896","3613","NA","800","2","legacy","1024","2","48000","-16","task","5206206","even","NA","86235","93842","88237","154036","43692","68206","64591","154537","NA","154034","154537","153960","93842","155338","83529","153460","43652","143674","Lexical Decision Task","26","34593","33","yes","1024"
"3.29439347","8.6","9","wand","word","79.41176470588235","79.41176470588235","1035.4411764705883","1035.4411764705883","black","no","legacy","legacy","legacy","0","uniform","1","undefined","undefined","undefined","1","j","0","0","0","0","33","0","0","0","33","NA","29","33","29","0","29","3","33","0","33","Thu Feb 18 14:16:20 2021","The main experiment item","yes","Lexical_Decision_Task.osexp","C:/Users/abbyd/OneDrive/Documents/Uni/2nd year/Semester 2/Cognition and Language","no","Andale Mono","no","18","no","white","no","yes","576","legacy","29","29","3","C:/Users/abbyd/OneDrive/Documents/Uni/2nd year/Semester 2/Cognition and Language/subject-5206206.csv","legacy","Lentiform Loewenfeld","3.3.7","yes","yes","600bd7cfb6416f0113b04181","602110864497cf011d9c0822","0","j","NA","space","space","space","NA","j","612","NA","5604","20896","3613","NA","612","2","legacy","1024","2","48000","-16","task","5206206","even","NA","86235","93842","88237","155942","43692","68206","64591","156444","NA","155940","156445","155864","93842","157058","83529","155364","43652","143674","Lexical Decision Task","27","35205","34","yes","1024"
"2.664011697","8.19","4","hawk","word","80","80","1026.4","1026.4","black","no","legacy","legacy","legacy","0","uniform","1","undefined","undefined","undefined","1","j","0","0","0","0","34","0","0","0","34","NA","30","34","30","0","30","3","34","0","34","Thu Feb 18 14:16:20 2021","The main experiment item","yes","Lexical_Decision_Task.osexp","C:/Users/abbyd/OneDrive/Documents/Uni/2nd year/Semester 2/Cognition and Language","no","Andale Mono","no","18","no","white","no","yes","576","legacy","30","30","3","C:/Users/abbyd/OneDrive/Documents/Uni/2nd year/Semester 2/Cognition and Language/subject-5206206.csv","legacy","Lentiform Loewenfeld","3.3.7","yes","yes","600bd7cfb6416f0113b04181","602110864497cf011d9c0822","0","j","NA","space","space","space","NA","j","719","NA","5604","20896","3613","NA","719","2","legacy","1024","2","48000","-16","task","5206206","even","NA","86235","93842","88237","157683","43692","68206","64591","158184","NA","157681","158184","157604","93842","158904","83529","157104","43652","143674","Lexical Decision Task","28","35924","35","yes","1024"
"2.813801082","5.47","7","nook","word","80.55555555555556","80.55555555555556","1019.6388888888889","1019.6388888888889","black","no","legacy","legacy","legacy","0","uniform","1","undefined","undefined","undefined","1","j","0","0","0","0","35","0","0","0","35","NA","31","35","31","0","31","3","35","0","35","Thu Feb 18 14:16:20 2021","The main experiment item","yes","Lexical_Decision_Task.osexp","C:/Users/abbyd/OneDrive/Documents/Uni/2nd year/Semester 2/Cognition and Language","no","Andale Mono","no","18","no","white","no","yes","576","legacy","31","31","3","C:/Users/abbyd/OneDrive/Documents/Uni/2nd year/Semester 2/Cognition and Language/subject-5206206.csv","legacy","Lentiform Loewenfeld","3.3.7","yes","yes","600bd7cfb6416f0113b04181","602110864497cf011d9c0822","0","j","NA","space","space","space","NA","j","783","NA","5604","20896","3613","NA","783","2","legacy","1024","2","48000","-16","task","5206206","even","NA","86235","93842","88237","159526","43692","68206","64591","160027","NA","159524","160027","159440","93842","160812","83529","158940","43652","143674","Lexical Decision Task","29","36707","36","yes","1024"
"2.67699827","0","6","hulf","non-word","78.37837837837837","78.37837837837837","1013.7567567567568","1013.7567567567568","black","no","legacy","legacy","legacy","0","uniform","0","undefined","undefined","undefined","0","f","0","0","0","0","36","0","0","0","36","NA","32","36","32","0","32","3","36","0","36","Thu Feb 18 14:16:20 2021","The main experiment item","yes","Lexical_Decision_Task.osexp","C:/Users/abbyd/OneDrive/Documents/Uni/2nd year/Semester 2/Cognition and Language","no","Andale Mono","no","18","no","white","no","yes","576","legacy","32","32","3","C:/Users/abbyd/OneDrive/Documents/Uni/2nd year/Semester 2/Cognition and Language/subject-5206206.csv","legacy","Lentiform Loewenfeld","3.3.7","yes","yes","600bd7cfb6416f0113b04181","602110864497cf011d9c0822","0","j","NA","space","space","space","NA","j","802","NA","5604","20896","3613","NA","802","2","legacy","1024","2","48000","-16","task","5206206","even","NA","86235","93842","88237","161413","43692","68206","64591","161914","NA","161411","161914","161333","93842","162717","83529","160833","43652","143674","Lexical Decision Task","29","37509","37","yes","1024"
"2.95456409","0","4","taud","non-word","78.94736842105263","78.94736842105263","1002.9473684210526","1002.9473684210526","black","no","legacy","legacy","legacy","0","uniform","1","undefined","undefined","undefined","1","f","0","0","0","0","37","0","0","0","37","NA","33","37","33","0","33","3","37","0","37","Thu Feb 18 14:16:20 2021","The main experiment item","yes","Lexical_Decision_Task.osexp","C:/Users/abbyd/OneDrive/Documents/Uni/2nd year/Semester 2/Cognition and Language","no","Andale Mono","no","18","no","white","no","yes","576","legacy","33","33","3","C:/Users/abbyd/OneDrive/Documents/Uni/2nd year/Semester 2/Cognition and Language/subject-5206206.csv","legacy","Lentiform Loewenfeld","3.3.7","yes","yes","600bd7cfb6416f0113b04181","602110864497cf011d9c0822","0","f","NA","space","space","space","NA","f","603","NA","5604","20896","3613","NA","603","2","legacy","1024","2","48000","-16","task","5206206","even","NA","86235","93842","88237","164370","43692","68206","64591","164871","NA","164367","164872","164281","93842","165476","83529","160833","43652","162781","Lexical Decision Task","30","38112","38","yes","1024"
"3.20996159","0","4","clee","non-word","79.48717948717949","79.48717948717949","995.974358974359","995.974358974359","black","no","legacy","legacy","legacy","0","uniform","1","undefined","undefined","undefined","1","f","0","0","0","0","38","0","0","0","38","NA","34","38","34","0","34","3","38","0","38","Thu Feb 18 14:16:20 2021","The main experiment item","yes","Lexical_Decision_Task.osexp","C:/Users/abbyd/OneDrive/Documents/Uni/2nd year/Semester 2/Cognition and Language","no","Andale Mono","no","18","no","white","no","yes","576","legacy","34","34","3","C:/Users/abbyd/OneDrive/Documents/Uni/2nd year/Semester 2/Cognition and Language/subject-5206206.csv","legacy","Lentiform Loewenfeld","3.3.7","yes","yes","600bd7cfb6416f0113b04181","602110864497cf011d9c0822","0","f","NA","space","space","space","NA","f","731","NA","5604","20896","3613","NA","731","2","legacy","1024","2","48000","-16","task","5206206","even","NA","86235","93842","88237","166089","43692","68206","64591","166590","NA","166087","166590","166005","93842","167322","83529","165505","43652","162781","Lexical Decision Task","31","38843","39","yes","1024"
"2.576725172","0","8","gowl","non-word","80","80","991.25","991.25","black","no","legacy","legacy","legacy","0","uniform","1","undefined","undefined","undefined","1","f","0","0","0","0","39","0","0","0","39","NA","35","39","35","0","35","3","39","0","39","Thu Feb 18 14:16:20 2021","The main experiment item","yes","Lexical_Decision_Task.osexp","C:/Users/abbyd/OneDrive/Documents/Uni/2nd year/Semester 2/Cognition and Language","no","Andale Mono","no","18","no","white","no","yes","576","legacy","35","35","3","C:/Users/abbyd/OneDrive/Documents/Uni/2nd year/Semester 2/Cognition and Language/subject-5206206.csv","legacy","Lentiform Loewenfeld","3.3.7","yes","yes","600bd7cfb6416f0113b04181","602110864497cf011d9c0822","0","f","NA","space","space","space","NA","f","807","NA","5604","20896","3613","NA","807","2","legacy","1024","2","48000","-16","task","5206206","even","NA","86235","93842","88237","167951","43692","68206","64591","168452","NA","167949","168452","167876","93842","169260","83529","167376","43652","162781","Lexical Decision Task","32","39650","40","yes","1024"
"3.20871002","7.15","8","cram","word","80.48780487804878","80.48780487804878","1001.390243902439","1001.390243902439","black","no","legacy","legacy","legacy","0","uniform","1","undefined","undefined","undefined","1","j","0","0","0","0","40","0","0","0","40","NA","36","40","36","0","36","3","40","0","40","Thu Feb 18 14:16:20 2021","The main experiment item","yes","Lexical_Decision_Task.osexp","C:/Users/abbyd/OneDrive/Documents/Uni/2nd year/Semester 2/Cognition and Language","no","Andale Mono","no","18","no","white","no","yes","576","legacy","36","36","3","C:/Users/abbyd/OneDrive/Documents/Uni/2nd year/Semester 2/Cognition and Language/subject-5206206.csv","legacy","Lentiform Loewenfeld","3.3.7","yes","yes","600bd7cfb6416f0113b04181","602110864497cf011d9c0822","0","j","NA","space","space","space","NA","j","1407","NA","5604","20896","3613","NA","1407","2","legacy","1024","2","48000","-16","task","5206206","even","NA","86235","93842","88237","169865","43692","68206","64591","170366","NA","169863","170366","169790","93842","171774","83529","169290","43652","162781","Lexical Decision Task","33","41057","41","yes","1024"
"3.382617311","0","4","pret","non-word","78.57142857142857","78.57142857142857","1014.3333333333334","1014.3333333333334","black","no","legacy","legacy","legacy","0","uniform","0","undefined","undefined","undefined","0","f","0","0","0","0","41","0","0","0","41","NA","37","41","37","0","37","3","41","0","41","Thu Feb 18 14:16:20 2021","The main experiment item","yes","Lexical_Decision_Task.osexp","C:/Users/abbyd/OneDrive/Documents/Uni/2nd year/Semester 2/Cognition and Language","no","Andale Mono","no","18","no","white","no","yes","576","legacy","37","37","3","C:/Users/abbyd/OneDrive/Documents/Uni/2nd year/Semester 2/Cognition and Language/subject-5206206.csv","legacy","Lentiform Loewenfeld","3.3.7","yes","yes","600bd7cfb6416f0113b04181","602110864497cf011d9c0822","0","j","NA","space","space","space","NA","j","1545","NA","5604","20896","3613","NA","1545","2","legacy","1024","2","48000","-16","task","5206206","even","NA","86235","93842","88237","172427","43692","68206","64591","172928","NA","172423","172928","172303","93842","174475","83529","171803","43652","162781","Lexical Decision Task","33","42602","42","yes","1024"
"3.137775856","7.39","5","comb","word","79.06976744186046","79.06976744186046","1044.1860465116279","1044.1860465116279","black","no","legacy","legacy","legacy","0","uniform","1","undefined","undefined","undefined","1","j","0","0","0","0","42","0","0","0","42","NA","38","42","38","0","38","3","42","0","42","Thu Feb 18 14:16:20 2021","The main experiment item","yes","Lexical_Decision_Task.osexp","C:/Users/abbyd/OneDrive/Documents/Uni/2nd year/Semester 2/Cognition and Language","no","Andale Mono","no","18","no","white","no","yes","576","legacy","38","38","3","C:/Users/abbyd/OneDrive/Documents/Uni/2nd year/Semester 2/Cognition and Language/subject-5206206.csv","legacy","Lentiform Loewenfeld","3.3.7","yes","yes","600bd7cfb6416f0113b04181","602110864497cf011d9c0822","0","j","NA","space","space","space","NA","j","2298","NA","5604","20896","3613","NA","2298","2","legacy","1024","2","48000","-16","task","5206206","even","NA","86235","93842","88237","176078","43692","68206","64591","176580","NA","176077","176580","176004","93842","178880","83529","171803","43652","174504","Lexical Decision Task","34","44900","43","yes","1024"
"3.168400243","9.12","6","horn","word","79.54545454545455","79.54545454545455","1073.0681818181818","1073.0681818181818","black","no","legacy","legacy","legacy","0","uniform","1","undefined","undefined","undefined","1","j","0","0","0","0","43","0","0","0","43","NA","39","43","39","0","39","3","43","0","43","Thu Feb 18 14:16:20 2021","The main experiment item","yes","Lexical_Decision_Task.osexp","C:/Users/abbyd/OneDrive/Documents/Uni/2nd year/Semester 2/Cognition and Language","no","Andale Mono","no","18","no","white","no","yes","576","legacy","39","39","3","C:/Users/abbyd/OneDrive/Documents/Uni/2nd year/Semester 2/Cognition and Language/subject-5206206.csv","legacy","Lentiform Loewenfeld","3.3.7","yes","yes","600bd7cfb6416f0113b04181","602110864497cf011d9c0822","0","j","NA","space","space","space","NA","j","2315","NA","5604","20896","3613","NA","2315","2","legacy","1024","2","48000","-16","task","5206206","even","NA","86235","93842","88237","179549","43692","68206","64591","180050","NA","179547","180050","179444","93842","182366","83529","178944","43652","174504","Lexical Decision Task","35","47215","44","yes","1024"
"2.695770526","7.34","6","pawn","word","80","80","1087.5111111111112","1087.5111111111112","black","no","legacy","legacy","legacy","0","uniform","1","undefined","undefined","undefined","1","j","0","0","0","0","44","0","0","0","44","NA","40","44","40","0","40","3","44","0","44","Thu Feb 18 14:16:20 2021","The main experiment item","yes","Lexical_Decision_Task.osexp","C:/Users/abbyd/OneDrive/Documents/Uni/2nd year/Semester 2/Cognition and Language","no","Andale Mono","no","18","no","white","no","yes","576","legacy","40","40","3","C:/Users/abbyd/OneDrive/Documents/Uni/2nd year/Semester 2/Cognition and Language/subject-5206206.csv","legacy","Lentiform Loewenfeld","3.3.7","yes","yes","600bd7cfb6416f0113b04181","602110864497cf011d9c0822","0","j","NA","space","space","space","NA","j","1723","NA","5604","20896","3613","NA","1723","2","legacy","1024","2","48000","-16","task","5206206","even","NA","86235","93842","88237","183037","43692","68206","64591","183538","NA","183035","183538","182931","93842","185263","83529","182431","43652","174504","Lexical Decision Task","36","48938","45","yes","1024"
"2.812467698","0","7","hafe","non-word","80.43478260869566","80.43478260869566","1082.6304347826087","1082.6304347826087","black","no","legacy","legacy","legacy","0","uniform","1","undefined","undefined","undefined","1","f","0","0","0","0","45","0","0","0","45","NA","41","45","41","0","41","3","45","0","45","Thu Feb 18 14:16:20 2021","The main experiment item","yes","Lexical_Decision_Task.osexp","C:/Users/abbyd/OneDrive/Documents/Uni/2nd year/Semester 2/Cognition and Language","no","Andale Mono","no","18","no","white","no","yes","576","legacy","41","41","3","C:/Users/abbyd/OneDrive/Documents/Uni/2nd year/Semester 2/Cognition and Language/subject-5206206.csv","legacy","Lentiform Loewenfeld","3.3.7","yes","yes","600bd7cfb6416f0113b04181","602110864497cf011d9c0822","0","f","NA","space","space","space","NA","f","863","NA","5604","20896","3613","NA","863","2","legacy","1024","2","48000","-16","task","5206206","even","NA","86235","93842","88237","185873","43692","68206","64591","186374","NA","185871","186374","185787","93842","187238","83529","185287","43652","174504","Lexical Decision Task","37","49801","46","yes","1024"
"3.068433376","8.09","2","bulb","word","78.72340425531915","78.72340425531915","1072.7659574468084","1072.7659574468084","black","no","legacy","legacy","legacy","0","uniform","0","undefined","undefined","undefined","0","j","0","0","0","0","46","0","0","0","46","NA","42","46","42","0","42","3","46","0","46","Thu Feb 18 14:16:20 2021","The main experiment item","yes","Lexical_Decision_Task.osexp","C:/Users/abbyd/OneDrive/Documents/Uni/2nd year/Semester 2/Cognition and Language","no","Andale Mono","no","18","no","white","no","yes","576","legacy","42","42","3","C:/Users/abbyd/OneDrive/Documents/Uni/2nd year/Semester 2/Cognition and Language/subject-5206206.csv","legacy","Lentiform Loewenfeld","3.3.7","yes","yes","600bd7cfb6416f0113b04181","602110864497cf011d9c0822","0","f","NA","space","space","space","NA","f","619","NA","5604","20896","3613","NA","619","2","legacy","1024","2","48000","-16","task","5206206","even","NA","86235","93842","88237","187849","43692","68206","64591","188350","NA","187847","188350","187769","93842","188970","83529","187269","43652","174504","Lexical Decision Task","37","50420","47","yes","1024"
"3.492014979","0","9","yine","non-word","79.16666666666667","79.16666666666667","1073.4166666666667","1073.4166666666667","black","no","legacy","legacy","legacy","0","uniform","1","undefined","undefined","undefined","1","f","0","0","0","0","47","0","0","0","47","NA","43","47","43","0","43","3","47","0","47","Thu Feb 18 14:16:20 2021","The main experiment item","yes","Lexical_Decision_Task.osexp","C:/Users/abbyd/OneDrive/Documents/Uni/2nd year/Semester 2/Cognition and Language","no","Andale Mono","no","18","no","white","no","yes","576","legacy","43","43","3","C:/Users/abbyd/OneDrive/Documents/Uni/2nd year/Semester 2/Cognition and Language/subject-5206206.csv","legacy","Lentiform Loewenfeld","3.3.7","yes","yes","600bd7cfb6416f0113b04181","602110864497cf011d9c0822","0","f","NA","space","space","space","NA","f","1104","NA","5604","20896","3613","NA","1104","2","legacy","1024","2","48000","-16","task","5206206","even","NA","86235","93842","88237","190574","43692","68206","64591","191075","NA","190572","191075","190496","93842","192181","83529","187269","43652","188996","Lexical Decision Task","38","51524","48","yes","1024"
"2.893578687","8.69","3","surf","word","79.59183673469387","79.59183673469387","1063.8775510204082","1063.8775510204082","black","no","legacy","legacy","legacy","0","uniform","1","undefined","undefined","undefined","1","j","0","0","0","0","48","0","0","0","48","NA","44","48","44","0","44","3","48","0","48","Thu Feb 18 14:16:20 2021","The main experiment item","yes","Lexical_Decision_Task.osexp","C:/Users/abbyd/OneDrive/Documents/Uni/2nd year/Semester 2/Cognition and Language","no","Andale Mono","no","18","no","white","no","yes","576","legacy","44","44","3","C:/Users/abbyd/OneDrive/Documents/Uni/2nd year/Semester 2/Cognition and Language/subject-5206206.csv","legacy","Lentiform Loewenfeld","3.3.7","yes","yes","600bd7cfb6416f0113b04181","602110864497cf011d9c0822","0","j","NA","space","space","space","NA","j","606","NA","5604","20896","3613","NA","606","2","legacy","1024","2","48000","-16","task","5206206","even","NA","86235","93842","88237","192786","43692","68206","64591","193287","NA","192785","193288","192706","93842","193895","83529","192206","43652","188996","Lexical Decision Task","39","52130","49","yes","1024"
"2.899092422","7.27","6","snag","word","80","80","1084.3","1084.3","black","no","legacy","legacy","legacy","0","uniform","1","undefined","undefined","undefined","1","j","0","0","0","0","49","0","0","0","49","NA","45","49","45","0","45","3","49","0","49","Thu Feb 18 14:16:20 2021","The main experiment item","yes","Lexical_Decision_Task.osexp","C:/Users/abbyd/OneDrive/Documents/Uni/2nd year/Semester 2/Cognition and Language","no","Andale Mono","no","18","no","white","no","yes","576","legacy","45","45","3","C:/Users/abbyd/OneDrive/Documents/Uni/2nd year/Semester 2/Cognition and Language/subject-5206206.csv","legacy","Lentiform Loewenfeld","3.3.7","yes","yes","600bd7cfb6416f0113b04181","602110864497cf011d9c0822","0","j","NA","space","space","space","NA","j","2085","NA","5604","20896","3613","NA","2085","2","legacy","1024","2","48000","-16","task","5206206","even","NA","86235","93842","88237","194498","43692","68206","64591","194999","NA","194496","194999","194422","93842","197085","83529","193922","43652","188996","Lexical Decision Task","40","54215","50","yes","1024"
"3.303771854","0","9","dath","non-word","78.43137254901961","78.43137254901961","1083.5882352941176","1083.5882352941176","black","no","legacy","legacy","legacy","0","uniform","0","undefined","undefined","undefined","0","f","0","0","0","0","50","0","0","0","50","NA","46","50","46","0","46","3","50","0","50","Thu Feb 18 14:16:20 2021","The main experiment item","yes","Lexical_Decision_Task.osexp","C:/Users/abbyd/OneDrive/Documents/Uni/2nd year/Semester 2/Cognition and Language","no","Andale Mono","no","18","no","white","no","yes","576","legacy","46","46","3","C:/Users/abbyd/OneDrive/Documents/Uni/2nd year/Semester 2/Cognition and Language/subject-5206206.csv","legacy","Lentiform Loewenfeld","3.3.7","yes","yes","600bd7cfb6416f0113b04181","602110864497cf011d9c0822","0","j","NA","space","space","space","NA","j","1048","NA","5604","20896","3613","NA","1048","2","legacy","1024","2","48000","-16","task","5206206","even","NA","86235","93842","88237","197732","43692","68206","64591","198233","NA","197730","198233","197655","93842","199282","83529","197155","43652","188996","Lexical Decision Task","40","55263","51","yes","1024"
"3.153104174","10.89","6","door","word","78.84615384615384","78.84615384615384","1076.1153846153845","1076.1153846153845","black","no","legacy","legacy","legacy","0","uniform","1","undefined","undefined","undefined","1","j","0","0","0","0","51","0","0","0","51","NA","47","51","47","0","47","3","51","0","51","Thu Feb 18 14:16:20 2021","The main experiment item","yes","Lexical_Decision_Task.osexp","C:/Users/abbyd/OneDrive/Documents/Uni/2nd year/Semester 2/Cognition and Language","no","Andale Mono","no","18","no","white","no","yes","576","legacy","47","47","3","C:/Users/abbyd/OneDrive/Documents/Uni/2nd year/Semester 2/Cognition and Language/subject-5206206.csv","legacy","Lentiform Loewenfeld","3.3.7","yes","yes","600bd7cfb6416f0113b04181","602110864497cf011d9c0822","0","j","NA","space","space","space","NA","j","695","NA","5604","20896","3613","NA","695","2","legacy","1024","2","48000","-16","task","5206206","even","NA","86235","93842","88237","200961","43692","68206","64591","201462","NA","200959","201462","200857","93842","202159","83529","197155","43652","199357","Lexical Decision Task","41","55958","52","yes","1024"
"3.353210739","0","9","reet","non-word","79.24528301886792","79.24528301886792","1075.132075471698","1075.132075471698","black","no","legacy","legacy","legacy","0","uniform","1","undefined","undefined","undefined","1","f","0","0","0","0","52","0","0","0","52","NA","48","52","48","0","48","3","52","0","52","Thu Feb 18 14:16:20 2021","The main experiment item","yes","Lexical_Decision_Task.osexp","C:/Users/abbyd/OneDrive/Documents/Uni/2nd year/Semester 2/Cognition and Language","no","Andale Mono","no","18","no","white","no","yes","576","legacy","48","48","3","C:/Users/abbyd/OneDrive/Documents/Uni/2nd year/Semester 2/Cognition and Language/subject-5206206.csv","legacy","Lentiform Loewenfeld","3.3.7","yes","yes","600bd7cfb6416f0113b04181","602110864497cf011d9c0822","0","f","NA","space","space","space","NA","f","1024","NA","5604","20896","3613","NA","1024","2","legacy","1024","2","48000","-16","task","5206206","even","NA","86235","93842","88237","202818","43692","68206","64591","203319","NA","202816","203319","202736","93842","204344","83529","202236","43652","199357","Lexical Decision Task","42","56982","53","yes","1024"
"3.091901331","0","9","nipe","non-word","79.62962962962963","79.62962962962963","1084.1296296296296","1084.1296296296296","black","no","legacy","legacy","legacy","0","uniform","1","undefined","undefined","undefined","1","f","0","0","0","0","53","0","0","0","53","NA","49","53","49","0","49","3","53","0","53","Thu Feb 18 14:16:20 2021","The main experiment item","yes","Lexical_Decision_Task.osexp","C:/Users/abbyd/OneDrive/Documents/Uni/2nd year/Semester 2/Cognition and Language","no","Andale Mono","no","18","no","white","no","yes","576","legacy","49","49","3","C:/Users/abbyd/OneDrive/Documents/Uni/2nd year/Semester 2/Cognition and Language/subject-5206206.csv","legacy","Lentiform Loewenfeld","3.3.7","yes","yes","600bd7cfb6416f0113b04181","602110864497cf011d9c0822","0","f","NA","space","space","space","NA","f","1561","NA","5604","20896","3613","NA","1561","2","legacy","1024","2","48000","-16","task","5206206","even","NA","86235","93842","88237","204949","43692","68206","64591","205450","NA","204947","205451","204872","93842","207013","83529","204372","43652","199357","Lexical Decision Task","43","58543","54","yes","1024"
"2.898725182","0","7","turl","non-word","78.18181818181819","78.18181818181819","1114.3636363636363","1114.3636363636363","black","no","legacy","legacy","legacy","0","uniform","0","undefined","undefined","undefined","0","f","0","0","0","0","54","0","0","0","54","0","50","54","50","0","50","3","54","0","54","Thu Feb 18 14:16:20 2021","The main experiment item","yes","Lexical_Decision_Task.osexp","C:/Users/abbyd/OneDrive/Documents/Uni/2nd year/Semester 2/Cognition and Language","no","Andale Mono","no","18","no","white","no","yes","576","legacy","50","50","3","C:/Users/abbyd/OneDrive/Documents/Uni/2nd year/Semester 2/Cognition and Language/subject-5206206.csv","legacy","Lentiform Loewenfeld","3.3.7","yes","yes","600bd7cfb6416f0113b04181","602110864497cf011d9c0822","0","j","NA","space","space","space","space","j","2747","NA","5604","20896","3613","5367","2747","2","legacy","1024","2","48000","-16","task","5206206","even","NA","86235","93842","88237","213076","43692","68206","64591","213577","207629","213074","213577","207574","93842","216325","83529","207074","43652","199357","Lexical Decision Task","43","61290","55","yes","1024"
"2.82129731","6.72","5","plum","word","78.57142857142857","78.57142857142857","1104.5357142857142","1104.5357142857142","black","no","legacy","legacy","legacy","0","uniform","1","undefined","undefined","undefined","1","j","0","0","0","0","55","0","0","0","55","0","51","55","51","0","51","3","55","0","55","Thu Feb 18 14:16:20 2021","The main experiment item","yes","Lexical_Decision_Task.osexp","C:/Users/abbyd/OneDrive/Documents/Uni/2nd year/Semester 2/Cognition and Language","no","Andale Mono","no","18","no","white","no","yes","576","legacy","51","51","3","C:/Users/abbyd/OneDrive/Documents/Uni/2nd year/Semester 2/Cognition and Language/subject-5206206.csv","legacy","Lentiform Loewenfeld","3.3.7","yes","yes","600bd7cfb6416f0113b04181","602110864497cf011d9c0822","0","j","NA","space","space","space","space","j","564","NA","5604","20896","3613","5367","564","2","legacy","1024","2","48000","-16","task","5206206","even","NA","86235","93842","88237","217931","43692","68206","64591","218433","207629","217929","218433","217850","93842","218998","83529","207074","43652","216350","Lexical Decision Task","44","61854","56","yes","1024"
"2.843025032","0","9","pusk","non-word","77.19298245614036","77.19298245614036","1099.1929824561403","1099.1929824561403","black","no","legacy","legacy","legacy","0","uniform","0","undefined","undefined","undefined","0","f","0","0","0","0","56","0","0","0","56","0","52","56","52","0","52","3","56","0","56","Thu Feb 18 14:16:20 2021","The main experiment item","yes","Lexical_Decision_Task.osexp","C:/Users/abbyd/OneDrive/Documents/Uni/2nd year/Semester 2/Cognition and Language","no","Andale Mono","no","18","no","white","no","yes","576","legacy","52","52","3","C:/Users/abbyd/OneDrive/Documents/Uni/2nd year/Semester 2/Cognition and Language/subject-5206206.csv","legacy","Lentiform Loewenfeld","3.3.7","yes","yes","600bd7cfb6416f0113b04181","602110864497cf011d9c0822","0","j","NA","space","space","space","space","j","800","NA","5604","20896","3613","5367","800","2","legacy","1024","2","48000","-16","task","5206206","even","NA","86235","93842","88237","219672","43692","68206","64591","220173","207629","219670","220173","219573","93842","220975","83529","219073","43652","216350","Lexical Decision Task","44","62654","57","yes","1024"
"3.131833513","7.66","4","limb","word","77.58620689655173","77.58620689655173","1090.6206896551723","1090.6206896551723","black","no","legacy","legacy","legacy","0","uniform","1","undefined","undefined","undefined","1","j","0","0","0","0","57","0","0","0","57","0","53","57","53","0","53","3","57","0","57","Thu Feb 18 14:16:20 2021","The main experiment item","yes","Lexical_Decision_Task.osexp","C:/Users/abbyd/OneDrive/Documents/Uni/2nd year/Semester 2/Cognition and Language","no","Andale Mono","no","18","no","white","no","yes","576","legacy","53","53","3","C:/Users/abbyd/OneDrive/Documents/Uni/2nd year/Semester 2/Cognition and Language/subject-5206206.csv","legacy","Lentiform Loewenfeld","3.3.7","yes","yes","600bd7cfb6416f0113b04181","602110864497cf011d9c0822","0","j","NA","space","space","space","space","j","602","NA","5604","20896","3613","5367","602","2","legacy","1024","2","48000","-16","task","5206206","even","NA","86235","93842","88237","222574","43692","68206","64591","223076","207629","222572","223076","222499","93842","223680","83529","219073","43652","220999","Lexical Decision Task","45","63256","58","yes","1024"
"2.880623071","0","9","curp","non-word","77.96610169491525","77.96610169491525","1086.406779661017","1086.406779661017","black","no","legacy","legacy","legacy","0","uniform","1","undefined","undefined","undefined","1","f","0","0","0","0","58","0","0","0","58","0","54","58","54","0","54","3","58","0","58","Thu Feb 18 14:16:20 2021","The main experiment item","yes","Lexical_Decision_Task.osexp","C:/Users/abbyd/OneDrive/Documents/Uni/2nd year/Semester 2/Cognition and Language","no","Andale Mono","no","18","no","white","no","yes","576","legacy","54","54","3","C:/Users/abbyd/OneDrive/Documents/Uni/2nd year/Semester 2/Cognition and Language/subject-5206206.csv","legacy","Lentiform Loewenfeld","3.3.7","yes","yes","600bd7cfb6416f0113b04181","602110864497cf011d9c0822","0","f","NA","space","space","space","space","f","842","NA","5604","20896","3613","5367","842","2","legacy","1024","2","48000","-16","task","5206206","even","NA","86235","93842","88237","224322","43692","68206","64591","224823","207629","224320","224823","224244","93842","225666","83529","223744","43652","220999","Lexical Decision Task","46","64098","59","yes","1024"
"3.474361976","5.24","6","veer","word","78.33333333333333","78.33333333333333","1086.8333333333333","1086.8333333333333","black","no","legacy","legacy","legacy","0","uniform","1","undefined","undefined","undefined","1","j","0","0","0","0","59","0","0","0","59","0","55","59","55","0","55","3","59","0","59","Thu Feb 18 14:16:20 2021","The main experiment item","yes","Lexical_Decision_Task.osexp","C:/Users/abbyd/OneDrive/Documents/Uni/2nd year/Semester 2/Cognition and Language","no","Andale Mono","no","18","no","white","no","yes","576","legacy","55","55","3","C:/Users/abbyd/OneDrive/Documents/Uni/2nd year/Semester 2/Cognition and Language/subject-5206206.csv","legacy","Lentiform Loewenfeld","3.3.7","yes","yes","600bd7cfb6416f0113b04181","602110864497cf011d9c0822","0","j","NA","space","space","space","space","j","1112","NA","5604","20896","3613","5367","1112","2","legacy","1024","2","48000","-16","task","5206206","even","NA","86235","93842","88237","226268","43692","68206","64591","226769","207629","226266","226769","226193","93842","227882","83529","225693","43652","220999","Lexical Decision Task","47","65210","60","yes","1024"
"2.839268497","0","8","maft","non-word","78.68852459016394","78.68852459016394","1083.7377049180327","1083.7377049180327","black","no","legacy","legacy","legacy","0","uniform","1","undefined","undefined","undefined","1","f","0","0","0","0","60","0","0","0","60","0","56","60","56","0","56","3","60","0","60","Thu Feb 18 14:16:20 2021","The main experiment item","yes","Lexical_Decision_Task.osexp","C:/Users/abbyd/OneDrive/Documents/Uni/2nd year/Semester 2/Cognition and Language","no","Andale Mono","no","18","no","white","no","yes","576","legacy","56","56","3","C:/Users/abbyd/OneDrive/Documents/Uni/2nd year/Semester 2/Cognition and Language/subject-5206206.csv","legacy","Lentiform Loewenfeld","3.3.7","yes","yes","600bd7cfb6416f0113b04181","602110864497cf011d9c0822","0","f","NA","space","space","space","space","f","898","NA","5604","20896","3613","5367","898","2","legacy","1024","2","48000","-16","task","5206206","even","NA","86235","93842","88237","228534","43692","68206","64591","229035","207629","228532","229035","228451","93842","229935","83529","227951","43652","220999","Lexical Decision Task","48","66108","61","yes","1024"
"2.895974732","6.65","5","sift","word","79.03225806451613","79.03225806451613","1077.258064516129","1077.258064516129","black","no","legacy","legacy","legacy","0","uniform","1","undefined","undefined","undefined","1","j","0","0","0","0","61","0","0","0","61","0","57","61","57","0","57","3","61","0","61","Thu Feb 18 14:16:20 2021","The main experiment item","yes","Lexical_Decision_Task.osexp","C:/Users/abbyd/OneDrive/Documents/Uni/2nd year/Semester 2/Cognition and Language","no","Andale Mono","no","18","no","white","no","yes","576","legacy","57","57","3","C:/Users/abbyd/OneDrive/Documents/Uni/2nd year/Semester 2/Cognition and Language/subject-5206206.csv","legacy","Lentiform Loewenfeld","3.3.7","yes","yes","600bd7cfb6416f0113b04181","602110864497cf011d9c0822","0","j","NA","space","space","space","space","j","682","NA","5604","20896","3613","5367","682","2","legacy","1024","2","48000","-16","task","5206206","even","NA","86235","93842","88237","230587","43692","68206","64591","231088","207629","230585","231088","230510","93842","231773","83529","230010","43652","220999","Lexical Decision Task","49","66790","62","yes","1024"
"3.269668578","0","7","trag","non-word","79.36507936507937","79.36507936507937","1077.6031746031747","1077.6031746031747","black","no","legacy","legacy","legacy","0","uniform","1","undefined","undefined","undefined","1","f","0","0","0","0","62","0","0","0","62","0","58","62","58","0","58","3","62","0","62","Thu Feb 18 14:16:20 2021","The main experiment item","yes","Lexical_Decision_Task.osexp","C:/Users/abbyd/OneDrive/Documents/Uni/2nd year/Semester 2/Cognition and Language","no","Andale Mono","no","18","no","white","no","yes","576","legacy","58","58","3","C:/Users/abbyd/OneDrive/Documents/Uni/2nd year/Semester 2/Cognition and Language/subject-5206206.csv","legacy","Lentiform Loewenfeld","3.3.7","yes","yes","600bd7cfb6416f0113b04181","602110864497cf011d9c0822","0","f","NA","space","space","space","space","f","1099","NA","5604","20896","3613","5367","1099","2","legacy","1024","2","48000","-16","task","5206206","even","NA","86235","93842","88237","232381","43692","68206","64591","232882","207629","232379","232882","232304","93842","233983","83529","231804","43652","220999","Lexical Decision Task","50","67889","63","yes","1024"
"3.119255889","6.63","2","itch","word","79.6875","79.6875","1072.203125","1072.203125","black","no","legacy","legacy","legacy","0","uniform","1","undefined","undefined","undefined","1","j","0","0","0","0","63","0","0","0","63","0","59","63","59","0","59","3","63","0","63","Thu Feb 18 14:16:20 2021","The main experiment item","yes","Lexical_Decision_Task.osexp","C:/Users/abbyd/OneDrive/Documents/Uni/2nd year/Semester 2/Cognition and Language","no","Andale Mono","no","18","no","white","no","yes","576","legacy","59","59","3","C:/Users/abbyd/OneDrive/Documents/Uni/2nd year/Semester 2/Cognition and Language/subject-5206206.csv","legacy","Lentiform Loewenfeld","3.3.7","yes","yes","600bd7cfb6416f0113b04181","602110864497cf011d9c0822","0","j","NA","space","space","space","space","j","732","NA","5604","20896","3613","5367","732","2","legacy","1024","2","48000","-16","task","5206206","even","NA","86235","93842","88237","234655","43692","68206","64591","235156","207629","234653","235156","234551","93842","235890","83529","234051","43652","220999","Lexical Decision Task","51","68621","64","yes","1024"
"3.102203805","7.21","3","drip","word","80","80","1064.8615384615384","1064.8615384615384","black","no","legacy","legacy","legacy","0","uniform","1","undefined","undefined","undefined","1","j","0","0","0","0","64","0","0","0","64","0","60","64","60","0","60","3","64","0","64","Thu Feb 18 14:16:20 2021","The main experiment item","yes","Lexical_Decision_Task.osexp","C:/Users/abbyd/OneDrive/Documents/Uni/2nd year/Semester 2/Cognition and Language","no","Andale Mono","no","18","no","white","no","yes","576","legacy","60","60","3","C:/Users/abbyd/OneDrive/Documents/Uni/2nd year/Semester 2/Cognition and Language/subject-5206206.csv","legacy","Lentiform Loewenfeld","3.3.7","yes","yes","600bd7cfb6416f0113b04181","602110864497cf011d9c0822","0","j","NA","space","space","space","space","j","595","NA","5604","20896","3613","5367","595","2","legacy","1024","2","48000","-16","task","5206206","even","NA","86235","93842","88237","236487","43692","68206","64591","236988","207629","236485","236988","236411","93842","237584","83529","235910","43652","220999","Lexical Decision Task","52","69216","65","yes","1024"
"3.299579929","0","2","flis","non-word","80.3030303030303","80.3030303030303","1060.378787878788","1060.378787878788","black","no","legacy","legacy","legacy","0","uniform","1","undefined","undefined","undefined","1","f","0","0","0","0","65","0","0","0","65","0","61","65","61","0","61","3","65","0","65","Thu Feb 18 14:16:20 2021","The main experiment item","yes","Lexical_Decision_Task.osexp","C:/Users/abbyd/OneDrive/Documents/Uni/2nd year/Semester 2/Cognition and Language","no","Andale Mono","no","18","no","white","no","yes","576","legacy","61","61","3","C:/Users/abbyd/OneDrive/Documents/Uni/2nd year/Semester 2/Cognition and Language/subject-5206206.csv","legacy","Lentiform Loewenfeld","3.3.7","yes","yes","600bd7cfb6416f0113b04181","602110864497cf011d9c0822","0","f","NA","space","space","space","space","f","769","NA","5604","20896","3613","5367","769","2","legacy","1024","2","48000","-16","task","5206206","even","NA","86235","93842","88237","238224","43692","68206","64591","238726","207629","238222","238726","238149","93842","239496","83529","237648","43652","220999","Lexical Decision Task","53","69985","66","yes","1024"
"2.746890964","9.67","3","plug","word","80.59701492537313","80.59701492537313","1055.2686567164178","1055.2686567164178","black","no","legacy","legacy","legacy","0","uniform","1","undefined","undefined","undefined","1","j","0","0","0","0","66","0","0","0","66","0","62","66","62","0","62","3","66","0","66","Thu Feb 18 14:16:20 2021","The main experiment item","yes","Lexical_Decision_Task.osexp","C:/Users/abbyd/OneDrive/Documents/Uni/2nd year/Semester 2/Cognition and Language","no","Andale Mono","no","18","no","white","no","yes","576","legacy","62","62","3","C:/Users/abbyd/OneDrive/Documents/Uni/2nd year/Semester 2/Cognition and Language/subject-5206206.csv","legacy","Lentiform Loewenfeld","3.3.7","yes","yes","600bd7cfb6416f0113b04181","602110864497cf011d9c0822","0","j","NA","space","space","space","space","j","718","NA","5604","20896","3613","5367","718","2","legacy","1024","2","48000","-16","task","5206206","even","NA","86235","93842","88237","240147","43692","68206","64591","240648","207629","240144","240648","240064","93842","241367","83529","239564","43652","220999","Lexical Decision Task","54","70703","67","yes","1024"
"3.481012421","8.34","5","teen","word","80.88235294117646","80.88235294117646","1052.1176470588234","1052.1176470588234","black","no","legacy","legacy","legacy","0","uniform","1","undefined","undefined","undefined","1","j","0","0","0","0","67","0","0","0","67","0","63","67","63","0","63","3","67","0","67","Thu Feb 18 14:16:20 2021","The main experiment item","yes","Lexical_Decision_Task.osexp","C:/Users/abbyd/OneDrive/Documents/Uni/2nd year/Semester 2/Cognition and Language","no","Andale Mono","no","18","no","white","no","yes","576","legacy","63","63","3","C:/Users/abbyd/OneDrive/Documents/Uni/2nd year/Semester 2/Cognition and Language/subject-5206206.csv","legacy","Lentiform Loewenfeld","3.3.7","yes","yes","600bd7cfb6416f0113b04181","602110864497cf011d9c0822","0","j","NA","space","space","space","space","j","841","NA","5604","20896","3613","5367","841","2","legacy","1024","2","48000","-16","task","5206206","even","NA","86235","93842","88237","241971","43692","68206","64591","242472","207629","241969","242472","241888","93842","243315","83529","241387","43652","220999","Lexical Decision Task","55","71544","68","yes","1024"
"2.897810299","0","5","glur","non-word","81.15942028985508","81.15942028985508","1047.8695652173913","1047.8695652173913","black","no","legacy","legacy","legacy","0","uniform","1","undefined","undefined","undefined","1","f","0","0","0","0","68","0","0","0","68","0","64","68","64","0","64","3","68","0","68","Thu Feb 18 14:16:20 2021","The main experiment item","yes","Lexical_Decision_Task.osexp","C:/Users/abbyd/OneDrive/Documents/Uni/2nd year/Semester 2/Cognition and Language","no","Andale Mono","no","18","no","white","no","yes","576","legacy","64","64","3","C:/Users/abbyd/OneDrive/Documents/Uni/2nd year/Semester 2/Cognition and Language/subject-5206206.csv","legacy","Lentiform Loewenfeld","3.3.7","yes","yes","600bd7cfb6416f0113b04181","602110864497cf011d9c0822","0","f","NA","space","space","space","space","f","759","NA","5604","20896","3613","5367","759","2","legacy","1024","2","48000","-16","task","5206206","even","NA","86235","93842","88237","243913","43692","68206","64591","244415","207629","243912","244415","243838","93842","245176","83529","243338","43652","220999","Lexical Decision Task","56","72303","69","yes","1024"
"3.105055783","0","2","norp","non-word","81.42857142857143","81.42857142857143","1045.0142857142857","1045.0142857142857","black","no","legacy","legacy","legacy","0","uniform","1","undefined","undefined","undefined","1","f","0","0","0","0","69","0","0","0","69","0","65","69","65","0","65","3","69","0","69","Thu Feb 18 14:16:20 2021","The main experiment item","yes","Lexical_Decision_Task.osexp","C:/Users/abbyd/OneDrive/Documents/Uni/2nd year/Semester 2/Cognition and Language","no","Andale Mono","no","18","no","white","no","yes","576","legacy","65","65","3","C:/Users/abbyd/OneDrive/Documents/Uni/2nd year/Semester 2/Cognition and Language/subject-5206206.csv","legacy","Lentiform Loewenfeld","3.3.7","yes","yes","600bd7cfb6416f0113b04181","602110864497cf011d9c0822","0","f","NA","space","space","space","space","f","848","NA","5604","20896","3613","5367","848","2","legacy","1024","2","48000","-16","task","5206206","even","NA","86235","93842","88237","245776","43692","68206","64591","246277","207629","245774","246277","245698","93842","247127","83529","245197","43652","220999","Lexical Decision Task","57","73151","70","yes","1024"
"2.64476673","0","5","moft","non-word","81.69014084507042","81.69014084507042","1040.3239436619717","1040.3239436619717","black","no","legacy","legacy","legacy","0","uniform","1","undefined","undefined","undefined","1","f","0","0","0","0","70","0","0","0","70","0","66","70","66","0","66","3","70","0","70","Thu Feb 18 14:16:20 2021","The main experiment item","yes","Lexical_Decision_Task.osexp","C:/Users/abbyd/OneDrive/Documents/Uni/2nd year/Semester 2/Cognition and Language","no","Andale Mono","no","18","no","white","no","yes","576","legacy","66","66","3","C:/Users/abbyd/OneDrive/Documents/Uni/2nd year/Semester 2/Cognition and Language/subject-5206206.csv","legacy","Lentiform Loewenfeld","3.3.7","yes","yes","600bd7cfb6416f0113b04181","602110864497cf011d9c0822","0","f","NA","space","space","space","space","f","712","NA","5604","20896","3613","5367","712","2","legacy","1024","2","48000","-16","task","5206206","even","NA","86235","93842","88237","247780","43692","68206","64591","248281","207629","247778","248281","247702","93842","248994","83529","247202","43652","220999","Lexical Decision Task","58","73863","71","yes","1024"
"2.68604012","0","4","pumb","non-word","81.94444444444444","81.94444444444444","1038.9444444444443","1038.9444444444443","black","no","legacy","legacy","legacy","0","uniform","1","undefined","undefined","undefined","1","f","0","0","0","0","71","0","0","0","71","0","67","71","67","0","67","3","71","0","71","Thu Feb 18 14:16:20 2021","The main experiment item","yes","Lexical_Decision_Task.osexp","C:/Users/abbyd/OneDrive/Documents/Uni/2nd year/Semester 2/Cognition and Language","no","Andale Mono","no","18","no","white","no","yes","576","legacy","67","67","3","C:/Users/abbyd/OneDrive/Documents/Uni/2nd year/Semester 2/Cognition and Language/subject-5206206.csv","legacy","Lentiform Loewenfeld","3.3.7","yes","yes","600bd7cfb6416f0113b04181","602110864497cf011d9c0822","0","f","NA","space","space","space","space","f","941","NA","5604","20896","3613","5367","941","2","legacy","1024","2","48000","-16","task","5206206","even","NA","86235","93842","88237","249609","43692","68206","64591","250110","207629","249604","250110","249518","93842","251052","83529","249017","43652","220999","Lexical Decision Task","59","74804","72","yes","1024"
"2.713490543","0","3","feps","non-word","82.1917808219178","82.1917808219178","1035.3150684931506","1035.3150684931506","black","no","legacy","legacy","legacy","0","uniform","1","undefined","undefined","undefined","1","f","0","0","0","0","72","0","0","0","72","0","68","72","68","0","68","3","72","0","72","Thu Feb 18 14:16:20 2021","The main experiment item","yes","Lexical_Decision_Task.osexp","C:/Users/abbyd/OneDrive/Documents/Uni/2nd year/Semester 2/Cognition and Language","no","Andale Mono","no","18","no","white","no","yes","576","legacy","68","68","3","C:/Users/abbyd/OneDrive/Documents/Uni/2nd year/Semester 2/Cognition and Language/subject-5206206.csv","legacy","Lentiform Loewenfeld","3.3.7","yes","yes","600bd7cfb6416f0113b04181","602110864497cf011d9c0822","0","f","NA","space","space","space","space","f","774","NA","5604","20896","3613","5367","774","2","legacy","1024","2","48000","-16","task","5206206","even","NA","86235","93842","88237","251666","43692","68206","64591","252167","207629","251665","252167","251587","93842","252944","83529","251087","43652","220999","Lexical Decision Task","60","75578","73","yes","1024"
"2.842815106","7.86","8","lump","word","82.43243243243244","82.43243243243244","1034.0675675675675","1034.0675675675675","black","no","legacy","legacy","legacy","0","uniform","1","undefined","undefined","undefined","1","j","0","0","0","0","73","0","0","0","73","0","69","73","69","0","69","3","73","0","73","Thu Feb 18 14:16:20 2021","The main experiment item","yes","Lexical_Decision_Task.osexp","C:/Users/abbyd/OneDrive/Documents/Uni/2nd year/Semester 2/Cognition and Language","no","Andale Mono","no","18","no","white","no","yes","576","legacy","69","69","3","C:/Users/abbyd/OneDrive/Documents/Uni/2nd year/Semester 2/Cognition and Language/subject-5206206.csv","legacy","Lentiform Loewenfeld","3.3.7","yes","yes","600bd7cfb6416f0113b04181","602110864497cf011d9c0822","0","j","NA","space","space","space","space","j","943","NA","5604","20896","3613","5367","943","2","legacy","1024","2","48000","-16","task","5206206","even","NA","86235","93842","88237","253569","43692","68206","64591","254070","207629","253567","254070","253490","93842","255015","83529","252990","43652","220999","Lexical Decision Task","61","76521","74","yes","1024"
"3.259832699","0","9","flar","non-word","82.66666666666667","82.66666666666667","1029.3333333333333","1029.3333333333333","black","no","legacy","legacy","legacy","0","uniform","1","undefined","undefined","undefined","1","f","0","0","0","0","74","0","0","0","74","0","70","74","70","0","70","3","74","0","74","Thu Feb 18 14:16:20 2021","The main experiment item","yes","Lexical_Decision_Task.osexp","C:/Users/abbyd/OneDrive/Documents/Uni/2nd year/Semester 2/Cognition and Language","no","Andale Mono","no","18","no","white","no","yes","576","legacy","70","70","3","C:/Users/abbyd/OneDrive/Documents/Uni/2nd year/Semester 2/Cognition and Language/subject-5206206.csv","legacy","Lentiform Loewenfeld","3.3.7","yes","yes","600bd7cfb6416f0113b04181","602110864497cf011d9c0822","0","f","NA","space","space","space","space","f","679","NA","5604","20896","3613","5367","679","2","legacy","1024","2","48000","-16","task","5206206","even","NA","86235","93842","88237","255630","43692","68206","64591","256131","207629","255628","256131","255539","93842","256811","83529","255039","43652","220999","Lexical Decision Task","62","77200","75","yes","1024"
"3.216517684","10.87","3","film","word","81.57894736842105","81.57894736842105","1023.9605263157895","1023.9605263157895","black","no","legacy","legacy","legacy","0","uniform","0","undefined","undefined","undefined","0","j","0","0","0","0","75","0","0","0","75","0","71","75","71","0","71","3","75","0","75","Thu Feb 18 14:16:20 2021","The main experiment item","yes","Lexical_Decision_Task.osexp","C:/Users/abbyd/OneDrive/Documents/Uni/2nd year/Semester 2/Cognition and Language","no","Andale Mono","no","18","no","white","no","yes","576","legacy","71","71","3","C:/Users/abbyd/OneDrive/Documents/Uni/2nd year/Semester 2/Cognition and Language/subject-5206206.csv","legacy","Lentiform Loewenfeld","3.3.7","yes","yes","600bd7cfb6416f0113b04181","602110864497cf011d9c0822","0","f","NA","space","space","space","space","f","621","NA","5604","20896","3613","5367","621","2","legacy","1024","2","48000","-16","task","5206206","even","NA","86235","93842","88237","257418","43692","68206","64591","257919","207629","257416","257919","257343","93842","258542","83529","256843","43652","220999","Lexical Decision Task","62","77821","76","yes","1024"
"3.133964479","0","8","graw","non-word","80.51948051948052","80.51948051948052","1049.6233766233765","1049.6233766233765","black","no","legacy","legacy","legacy","0","uniform","0","undefined","undefined","undefined","0","f","0","0","0","0","76","0","0","0","76","0","72","76","72","0","72","3","76","0","76","Thu Feb 18 14:16:20 2021","The main experiment item","yes","Lexical_Decision_Task.osexp","C:/Users/abbyd/OneDrive/Documents/Uni/2nd year/Semester 2/Cognition and Language","no","Andale Mono","no","18","no","white","no","yes","576","legacy","72","72","3","C:/Users/abbyd/OneDrive/Documents/Uni/2nd year/Semester 2/Cognition and Language/subject-5206206.csv","legacy","Lentiform Loewenfeld","3.3.7","yes","yes","600bd7cfb6416f0113b04181","602110864497cf011d9c0822","0","None","NA","space","space","space","space","None","3000","NA","5604","20896","3613","5367","3000","2","legacy","1024","2","48000","-16","task","5206206","even","NA","86235","93842","88237","260192","43692","68206","64591","260693","207629","260189","260693","260104","93842","263694","83529","256843","43652","258604","Lexical Decision Task","62","80821","77","yes","1024"
"3.134602053","0","8","jart","non-word","80.76923076923077","80.76923076923077","1046.179487179487","1046.179487179487","black","no","legacy","legacy","legacy","0","uniform","1","undefined","undefined","undefined","1","f","0","0","0","0","77","0","0","0","77","0","73","77","73","0","73","3","77","0","77","Thu Feb 18 14:16:20 2021","The main experiment item","yes","Lexical_Decision_Task.osexp","C:/Users/abbyd/OneDrive/Documents/Uni/2nd year/Semester 2/Cognition and Language","no","Andale Mono","no","18","no","white","no","yes","576","legacy","73","73","3","C:/Users/abbyd/OneDrive/Documents/Uni/2nd year/Semester 2/Cognition and Language/subject-5206206.csv","legacy","Lentiform Loewenfeld","3.3.7","yes","yes","600bd7cfb6416f0113b04181","602110864497cf011d9c0822","0","f","NA","space","space","space","space","f","781","NA","5604","20896","3613","5367","781","2","legacy","1024","2","48000","-16","task","5206206","even","NA","86235","93842","88237","265295","43692","68206","64591","265796","207629","265293","265796","265216","93842","266580","83529","256843","43652","263716","Lexical Decision Task","63","81602","78","yes","1024"
"2.920123326","7.43","4","duel","word","79.74683544303798","79.74683544303798","1042.3291139240507","1042.3291139240507","black","no","legacy","legacy","legacy","0","uniform","0","undefined","undefined","undefined","0","j","0","0","0","0","78","0","0","0","78","0","74","78","74","0","74","3","78","0","78","Thu Feb 18 14:16:20 2021","The main experiment item","yes","Lexical_Decision_Task.osexp","C:/Users/abbyd/OneDrive/Documents/Uni/2nd year/Semester 2/Cognition and Language","no","Andale Mono","no","18","no","white","no","yes","576","legacy","74","74","3","C:/Users/abbyd/OneDrive/Documents/Uni/2nd year/Semester 2/Cognition and Language/subject-5206206.csv","legacy","Lentiform Loewenfeld","3.3.7","yes","yes","600bd7cfb6416f0113b04181","602110864497cf011d9c0822","0","f","NA","space","space","space","space","f","742","NA","5604","20896","3613","5367","742","2","legacy","1024","2","48000","-16","task","5206206","even","NA","86235","93842","88237","267255","43692","68206","64591","267756","207629","267253","267757","267153","93842","268502","83529","266652","43652","263716","Lexical Decision Task","63","82344","79","yes","1024"
"2.986323777","10.85","8","ship","word","80","80","1034.7625","1034.7625","black","no","legacy","legacy","legacy","0","uniform","1","undefined","undefined","undefined","1","j","0","0","0","0","79","0","0","0","79","0","75","79","75","0","75","3","79","0","79","Thu Feb 18 14:16:20 2021","The main experiment item","yes","Lexical_Decision_Task.osexp","C:/Users/abbyd/OneDrive/Documents/Uni/2nd year/Semester 2/Cognition and Language","no","Andale Mono","no","18","no","white","no","yes","576","legacy","75","75","3","C:/Users/abbyd/OneDrive/Documents/Uni/2nd year/Semester 2/Cognition and Language/subject-5206206.csv","legacy","Lentiform Loewenfeld","3.3.7","yes","yes","600bd7cfb6416f0113b04181","602110864497cf011d9c0822","0","j","NA","space","space","space","space","j","437","NA","5604","20896","3613","5367","437","2","legacy","1024","2","48000","-16","task","5206206","even","NA","86235","93842","88237","270099","43692","68206","64591","270601","207629","270097","270601","270023","93842","271040","83529","266652","43652","268522","Lexical Decision Task","64","82781","80","yes","1024"
"3.174641193","0","3","ramb","non-word","80.24691358024691","80.24691358024691","1032.2469135802469","1032.2469135802469","black","no","legacy","legacy","legacy","0","uniform","1","undefined","undefined","undefined","1","f","0","0","0","0","80","0","0","0","80","0","76","80","76","0","76","3","80","0","80","Thu Feb 18 14:16:20 2021","The main experiment item","yes","Lexical_Decision_Task.osexp","C:/Users/abbyd/OneDrive/Documents/Uni/2nd year/Semester 2/Cognition and Language","no","Andale Mono","no","18","no","white","no","yes","576","legacy","76","76","3","C:/Users/abbyd/OneDrive/Documents/Uni/2nd year/Semester 2/Cognition and Language/subject-5206206.csv","legacy","Lentiform Loewenfeld","3.3.7","yes","yes","600bd7cfb6416f0113b04181","602110864497cf011d9c0822","0","f","NA","space","space","space","space","f","831","NA","5604","20896","3613","5367","831","2","legacy","1024","2","48000","-16","task","5206206","even","NA","86235","93842","88237","271697","43692","68206","64591","272198","207629","271695","272198","271613","93842","273031","83529","271113","43652","268522","Lexical Decision Task","65","83612","81","yes","1024"
"2.873320602","0","4","lurg","non-word","80.48780487804878","80.48780487804878","1032.2560975609756","1032.2560975609756","black","no","legacy","legacy","legacy","0","uniform","1","undefined","undefined","undefined","1","f","0","0","0","0","81","0","0","0","81","0","77","81","77","0","77","3","81","0","81","Thu Feb 18 14:16:20 2021","The main experiment item","yes","Lexical_Decision_Task.osexp","C:/Users/abbyd/OneDrive/Documents/Uni/2nd year/Semester 2/Cognition and Language","no","Andale Mono","no","18","no","white","no","yes","576","legacy","77","77","3","C:/Users/abbyd/OneDrive/Documents/Uni/2nd year/Semester 2/Cognition and Language/subject-5206206.csv","legacy","Lentiform Loewenfeld","3.3.7","yes","yes","600bd7cfb6416f0113b04181","602110864497cf011d9c0822","0","f","NA","space","space","space","space","f","1033","NA","5604","20896","3613","5367","1033","2","legacy","1024","2","48000","-16","task","5206206","even","NA","86235","93842","88237","273636","43692","68206","64591","274138","207629","273635","274138","273561","93842","275173","83529","273061","43652","268522","Lexical Decision Task","66","84645","82","yes","1024"
"3.460446784","0","5","dess","non-word","80.72289156626506","80.72289156626506","1031.1927710843374","1031.1927710843374","black","no","legacy","legacy","legacy","0","uniform","1","undefined","undefined","undefined","1","f","0","0","0","0","82","0","0","0","82","0","78","82","78","0","78","3","82","0","82","Thu Feb 18 14:16:20 2021","The main experiment item","yes","Lexical_Decision_Task.osexp","C:/Users/abbyd/OneDrive/Documents/Uni/2nd year/Semester 2/Cognition and Language","no","Andale Mono","no","18","no","white","no","yes","576","legacy","78","78","3","C:/Users/abbyd/OneDrive/Documents/Uni/2nd year/Semester 2/Cognition and Language/subject-5206206.csv","legacy","Lentiform Loewenfeld","3.3.7","yes","yes","600bd7cfb6416f0113b04181","602110864497cf011d9c0822","0","f","NA","space","space","space","space","f","944","NA","5604","20896","3613","5367","944","2","legacy","1024","2","48000","-16","task","5206206","even","NA","86235","93842","88237","275772","43692","68206","64591","276273","207629","275770","276273","275696","93842","277221","83529","275196","43652","268522","Lexical Decision Task","67","85589","83","yes","1024"
"3.195807436","0","6","stup","non-word","80.95238095238095","80.95238095238095","1028.3690476190477","1028.3690476190477","black","no","legacy","legacy","legacy","0","uniform","1","undefined","undefined","undefined","1","f","0","0","0","0","83","0","0","0","83","0","79","83","79","0","79","3","83","0","83","Thu Feb 18 14:16:20 2021","The main experiment item","yes","Lexical_Decision_Task.osexp","C:/Users/abbyd/OneDrive/Documents/Uni/2nd year/Semester 2/Cognition and Language","no","Andale Mono","no","18","no","white","no","yes","576","legacy","79","79","3","C:/Users/abbyd/OneDrive/Documents/Uni/2nd year/Semester 2/Cognition and Language/subject-5206206.csv","legacy","Lentiform Loewenfeld","3.3.7","yes","yes","600bd7cfb6416f0113b04181","602110864497cf011d9c0822","0","f","NA","space","space","space","space","f","794","NA","5604","20896","3613","5367","794","2","legacy","1024","2","48000","-16","task","5206206","even","NA","86235","93842","88237","277865","43692","68206","64591","278366","207629","277862","278366","277790","93842","279162","83529","277290","43652","268522","Lexical Decision Task","68","86383","84","yes","1024"
"3.347850856","10.51","2","rich","word","81.17647058823529","81.17647058823529","1023.1058823529412","1023.1058823529412","black","no","legacy","legacy","legacy","0","uniform","1","undefined","undefined","undefined","1","j","0","0","0","0","84","0","0","0","84","0","80","84","80","0","80","3","84","0","84","Thu Feb 18 14:16:20 2021","The main experiment item","yes","Lexical_Decision_Task.osexp","C:/Users/abbyd/OneDrive/Documents/Uni/2nd year/Semester 2/Cognition and Language","no","Andale Mono","no","18","no","white","no","yes","576","legacy","80","80","3","C:/Users/abbyd/OneDrive/Documents/Uni/2nd year/Semester 2/Cognition and Language/subject-5206206.csv","legacy","Lentiform Loewenfeld","3.3.7","yes","yes","600bd7cfb6416f0113b04181","602110864497cf011d9c0822","0","j","NA","space","space","space","space","j","581","NA","5604","20896","3613","5367","581","2","legacy","1024","2","48000","-16","task","5206206","even","NA","86235","93842","88237","279803","43692","68206","64591","280304","207629","279802","280304","279727","93842","280887","83529","279227","43652","268522","Lexical Decision Task","69","86964","85","yes","1024"
"3.15462682","0","6","noal","non-word","81.3953488372093","81.3953488372093","1020.4651162790698","1020.4651162790698","black","no","legacy","legacy","legacy","0","uniform","1","undefined","undefined","undefined","1","f","0","0","0","0","85","0","0","0","85","0","81","85","81","0","81","3","85","0","85","Thu Feb 18 14:16:20 2021","The main experiment item","yes","Lexical_Decision_Task.osexp","C:/Users/abbyd/OneDrive/Documents/Uni/2nd year/Semester 2/Cognition and Language","no","Andale Mono","no","18","no","white","no","yes","576","legacy","81","81","3","C:/Users/abbyd/OneDrive/Documents/Uni/2nd year/Semester 2/Cognition and Language/subject-5206206.csv","legacy","Lentiform Loewenfeld","3.3.7","yes","yes","600bd7cfb6416f0113b04181","602110864497cf011d9c0822","0","f","NA","space","space","space","space","f","796","NA","5604","20896","3613","5367","796","2","legacy","1024","2","48000","-16","task","5206206","even","NA","86235","93842","88237","281488","43692","68206","64591","281991","207629","281486","281992","281409","93842","282790","83529","280909","43652","268522","Lexical Decision Task","70","87760","86","yes","1024"
"3.003891166","8.05","2","frog","word","81.60919540229885","81.60919540229885","1019.2413793103449","1019.2413793103449","black","no","legacy","legacy","legacy","0","uniform","1","undefined","undefined","undefined","1","j","0","0","0","0","86","0","0","0","86","0","82","86","82","0","82","3","86","0","86","Thu Feb 18 14:16:20 2021","The main experiment item","yes","Lexical_Decision_Task.osexp","C:/Users/abbyd/OneDrive/Documents/Uni/2nd year/Semester 2/Cognition and Language","no","Andale Mono","no","18","no","white","no","yes","576","legacy","82","82","3","C:/Users/abbyd/OneDrive/Documents/Uni/2nd year/Semester 2/Cognition and Language/subject-5206206.csv","legacy","Lentiform Loewenfeld","3.3.7","yes","yes","600bd7cfb6416f0113b04181","602110864497cf011d9c0822","0","j","NA","space","space","space","space","j","914","NA","5604","20896","3613","5367","914","2","legacy","1024","2","48000","-16","task","5206206","even","NA","86235","93842","88237","283439","43692","68206","64591","283940","207629","283437","283940","283359","93842","284855","83529","282858","43652","268522","Lexical Decision Task","71","88674","87","yes","1024"
"2.858136002","0","4","phip","non-word","81.81818181818181","81.81818181818181","1015.0568181818181","1015.0568181818181","black","no","legacy","legacy","legacy","0","uniform","1","undefined","undefined","undefined","1","f","0","0","0","0","87","0","0","0","87","0","83","87","83","0","83","3","87","0","87","Thu Feb 18 14:16:20 2021","The main experiment item","yes","Lexical_Decision_Task.osexp","C:/Users/abbyd/OneDrive/Documents/Uni/2nd year/Semester 2/Cognition and Language","no","Andale Mono","no","18","no","white","no","yes","576","legacy","83","83","3","C:/Users/abbyd/OneDrive/Documents/Uni/2nd year/Semester 2/Cognition and Language/subject-5206206.csv","legacy","Lentiform Loewenfeld","3.3.7","yes","yes","600bd7cfb6416f0113b04181","602110864497cf011d9c0822","0","f","NA","space","space","space","space","f","651","NA","5604","20896","3613","5367","651","2","legacy","1024","2","48000","-16","task","5206206","even","NA","86235","93842","88237","285462","43692","68206","64591","285964","207629","285460","285964","285384","93842","286617","83529","284884","43652","268522","Lexical Decision Task","72","89325","88","yes","1024"
"3.049218023","7.4","9","robe","word","82.02247191011236","82.02247191011236","1013.8202247191011","1013.8202247191011","black","no","legacy","legacy","legacy","0","uniform","1","undefined","undefined","undefined","1","j","0","0","0","0","88","0","0","0","88","0","84","88","84","0","84","3","88","0","88","Thu Feb 18 14:16:20 2021","The main experiment item","yes","Lexical_Decision_Task.osexp","C:/Users/abbyd/OneDrive/Documents/Uni/2nd year/Semester 2/Cognition and Language","no","Andale Mono","no","18","no","white","no","yes","576","legacy","84","84","3","C:/Users/abbyd/OneDrive/Documents/Uni/2nd year/Semester 2/Cognition and Language/subject-5206206.csv","legacy","Lentiform Loewenfeld","3.3.7","yes","yes","600bd7cfb6416f0113b04181","602110864497cf011d9c0822","0","j","NA","space","space","space","space","j","905","NA","5604","20896","3613","5367","905","2","legacy","1024","2","48000","-16","task","5206206","even","NA","86235","93842","88237","287221","43692","68206","64591","287722","207629","287219","287722","287145","93842","288629","83529","286644","43652","268522","Lexical Decision Task","73","90230","89","yes","1024"
"3.252447662","9.67","9","boat","word","82.22222222222223","82.22222222222223","1007.3","1007.3","black","no","legacy","legacy","legacy","0","uniform","1","undefined","undefined","undefined","1","j","0","0","0","0","89","0","0","0","89","0","85","89","85","0","85","3","89","0","89","Thu Feb 18 14:16:20 2021","The main experiment item","yes","Lexical_Decision_Task.osexp","C:/Users/abbyd/OneDrive/Documents/Uni/2nd year/Semester 2/Cognition and Language","no","Andale Mono","no","18","no","white","no","yes","576","legacy","85","85","3","C:/Users/abbyd/OneDrive/Documents/Uni/2nd year/Semester 2/Cognition and Language/subject-5206206.csv","legacy","Lentiform Loewenfeld","3.3.7","yes","yes","600bd7cfb6416f0113b04181","602110864497cf011d9c0822","0","j","NA","space","space","space","space","j","427","NA","5604","20896","3613","5367","427","2","legacy","1024","2","48000","-16","task","5206206","even","NA","86235","93842","88237","289285","43692","68206","64591","289786","207629","289283","289786","289204","93842","290215","83529","288704","43652","268522","Lexical Decision Task","74","90657","90","yes","1024"
