"Log_BG","Log_Freq_HAL","Ortho_N","Stimulus","Type","acc","accuracy","average_response_time","avg_rt","background","bidi","canvas_backend","clock_backend","color_backend","compensation","coordinates","correct","correct_Experimental_intro","correct_Introduction","correct_Practice_intro","correct_experimenter_kb","correct_response","count_End_Of_Experiment","count_End_Of_Practice","count_Experimental_Loop","count_Experimental_intro","count_Fixation","count_Introduction","count_Practice_Loop","count_Practice_intro","count_Stimulus","count_block_break_feedback","count_experimental_sequence","count_experimenter_kb","count_increment_trial_count","count_init_trial_count","count_logger","count_practice_sequence","count_right","count_task","count_wrong","datetime","description","disable_garbage_collection","experiment_file","experiment_path","font_bold","font_family","font_italic","font_size","font_underline","foreground","form_clicks","fullscreen","height","keyboard_backend","live_row","live_row_Experimental_Loop","live_row_Practice_Loop","logfile","mouse_backend","opensesame_codename","opensesame_version","osf_always_upload_data","osf_always_upload_experiment","osf_datanode_id","osf_id","repeat_cycle","response","response_End_Of_Experiment","response_Experimental_intro","response_Introduction","response_Practice_intro","response_block_break_feedback","response_experimenter_kb","response_time","response_time_End_Of_Experiment","response_time_Experimental_intro","response_time_Introduction","response_time_Practice_intro","response_time_block_break_feedback","response_time_experimenter_kb","round_decimals","sampler_backend","sound_buf_size","sound_channels","sound_freq","sound_sample_size","start","subject_nr","subject_parity","time_End_Of_Experiment","time_End_Of_Practice","time_Experimental_Loop","time_Experimental_intro","time_Fixation","time_Introduction","time_Practice_Loop","time_Practice_intro","time_Stimulus","time_block_break_feedback","time_experimental_sequence","time_experimenter_kb","time_increment_trial_count","time_init_trial_count","time_logger","time_practice_sequence","time_right","time_task","time_wrong","title","total_correct","total_response_time","total_responses","uniform_coordinates","width"
"2.953276337","6.32","4","thaw","word","100","100","665.8","665.8","black","no","legacy","legacy","legacy","0","uniform","1","undefined","undefined","undefined","1","j","0","0","0","0","4","0","0","0","4","NA","0","4","0","0","0","3","4","0","4","Thu Feb 18 16:19:43 2021","The main experiment item","yes","Lexical_Decision_Task.osexp","/Users/zainab/Desktop","no","Andale Mono","no","18","no","white","no","yes","576","legacy","0","0","3","/Users/zainab/Desktop/subject-5219616.csv","legacy","Lentiform Loewenfeld","3.3.7","yes","yes","600bd7cfb6416f0113b04181","602110864497cf011d9c0822","0","j","NA","space","j","space","NA","j","726","NA","3735","7936","5827","NA","726","2","legacy","1024","2","48000","-16","task","5219616","even","NA","25580","31322","27586","31350","4907","18685","12856","31852","NA","31348","31852","NA","31322","32580","23980","25056","4862","NA","Lexical Decision Task","5","3329","5","yes","1024"
"2.839898939","8.99","6","soap","word","100","100","619","619","black","no","legacy","legacy","legacy","0","uniform","1","undefined","undefined","undefined","1","j","0","0","0","0","5","0","0","0","5","NA","1","5","1","0","1","3","5","0","5","Thu Feb 18 16:19:43 2021","The main experiment item","yes","Lexical_Decision_Task.osexp","/Users/zainab/Desktop","no","Andale Mono","no","18","no","white","no","yes","576","legacy","1","1","3","/Users/zainab/Desktop/subject-5219616.csv","legacy","Lentiform Loewenfeld","3.3.7","yes","yes","600bd7cfb6416f0113b04181","602110864497cf011d9c0822","0","j","NA","space","j","space","NA","j","385","NA","3735","7936","5827","NA","385","2","legacy","1024","2","48000","-16","task","5219616","even","NA","25580","31322","27586","33145","4907","18685","12856","33647","NA","33142","33647","33089","31322","34033","23980","32589","4862","NA","Lexical Decision Task","6","3714","6","yes","1024"
"2.980306438","0","7","slun","non-word","85.71428571428571","85.71428571428571","591.8571428571429","591.8571428571429","black","no","legacy","legacy","legacy","0","uniform","0","undefined","undefined","undefined","0","f","0","0","0","0","6","0","0","0","6","NA","2","6","2","0","2","3","6","0","6","Thu Feb 18 16:19:43 2021","The main experiment item","yes","Lexical_Decision_Task.osexp","/Users/zainab/Desktop","no","Andale Mono","no","18","no","white","no","yes","576","legacy","2","2","3","/Users/zainab/Desktop/subject-5219616.csv","legacy","Lentiform Loewenfeld","3.3.7","yes","yes","600bd7cfb6416f0113b04181","602110864497cf011d9c0822","0","j","NA","space","j","space","NA","j","429","NA","3735","7936","5827","NA","429","2","legacy","1024","2","48000","-16","task","5219616","even","NA","25580","31322","27586","34590","4907","18685","12856","35092","NA","34588","35092","34536","31322","35522","23980","34036","4862","NA","Lexical Decision Task","6","4143","7","yes","1024"
"3.282244367","0","6","fute","non-word","75","75","564.625","564.625","black","no","legacy","legacy","legacy","0","uniform","0","undefined","undefined","undefined","0","f","0","0","0","0","7","0","0","0","7","NA","3","7","3","0","3","3","7","0","7","Thu Feb 18 16:19:43 2021","The main experiment item","yes","Lexical_Decision_Task.osexp","/Users/zainab/Desktop","no","Andale Mono","no","18","no","white","no","yes","576","legacy","3","3","3","/Users/zainab/Desktop/subject-5219616.csv","legacy","Lentiform Loewenfeld","3.3.7","yes","yes","600bd7cfb6416f0113b04181","602110864497cf011d9c0822","0","j","NA","space","j","space","NA","j","374","NA","3735","7936","5827","NA","374","2","legacy","1024","2","48000","-16","task","5219616","even","NA","25580","31322","27586","37072","4907","18685","12856","37574","NA","37070","37574","37025","31322","37949","23980","34036","4862","35525","Lexical Decision Task","6","4517","8","yes","1024"
"3.039414119","0","9","meep","non-word","66.66666666666667","66.66666666666667","561.6666666666666","561.6666666666666","black","no","legacy","legacy","legacy","0","uniform","0","undefined","undefined","undefined","0","f","0","0","0","0","8","0","0","0","8","NA","4","8","4","0","4","3","8","0","8","Thu Feb 18 16:19:43 2021","The main experiment item","yes","Lexical_Decision_Task.osexp","/Users/zainab/Desktop","no","Andale Mono","no","18","no","white","no","yes","576","legacy","4","4","3","/Users/zainab/Desktop/subject-5219616.csv","legacy","Lentiform Loewenfeld","3.3.7","yes","yes","600bd7cfb6416f0113b04181","602110864497cf011d9c0822","0","j","NA","space","j","space","NA","j","538","NA","3735","7936","5827","NA","538","2","legacy","1024","2","48000","-16","task","5219616","even","NA","25580","31322","27586","39500","4907","18685","12856","40003","NA","39498","40003","39453","31322","40542","23980","34036","4862","37953","Lexical Decision Task","6","5055","9","yes","1024"
"3.397302518","7.01","2","knit","word","70","70","569.8","569.8","black","no","legacy","legacy","legacy","0","uniform","1","undefined","undefined","undefined","1","j","0","0","0","0","9","0","0","0","9","NA","5","9","5","0","5","3","9","0","9","Thu Feb 18 16:19:43 2021","The main experiment item","yes","Lexical_Decision_Task.osexp","/Users/zainab/Desktop","no","Andale Mono","no","18","no","white","no","yes","576","legacy","5","5","3","/Users/zainab/Desktop/subject-5219616.csv","legacy","Lentiform Loewenfeld","3.3.7","yes","yes","600bd7cfb6416f0113b04181","602110864497cf011d9c0822","0","j","NA","space","j","space","NA","j","643","NA","3735","7936","5827","NA","643","2","legacy","1024","2","48000","-16","task","5219616","even","NA","25580","31322","27586","42109","4907","18685","12856","42612","NA","42106","42612","42046","31322","43256","23980","34036","4862","40546","Lexical Decision Task","7","5698","10","yes","1024"
"3.492014979","0","9","yine","non-word","72.72727272727273","72.72727272727273","553","553","black","no","legacy","legacy","legacy","0","uniform","1","undefined","undefined","undefined","1","f","0","0","0","0","10","0","0","0","10","NA","6","10","6","0","6","3","10","0","10","Thu Feb 18 16:19:43 2021","The main experiment item","yes","Lexical_Decision_Task.osexp","/Users/zainab/Desktop","no","Andale Mono","no","18","no","white","no","yes","576","legacy","6","6","3","/Users/zainab/Desktop/subject-5219616.csv","legacy","Lentiform Loewenfeld","3.3.7","yes","yes","600bd7cfb6416f0113b04181","602110864497cf011d9c0822","0","f","NA","space","j","space","NA","f","385","NA","3735","7936","5827","NA","385","2","legacy","1024","2","48000","-16","task","5219616","even","NA","25580","31322","27586","43821","4907","18685","12856","44323","NA","43817","44323","43760","31322","44709","23980","43260","4862","40546","Lexical Decision Task","8","6083","11","yes","1024"
"2.793790385","5.67","9","swab","word","66.66666666666667","66.66666666666667","545.6666666666666","545.6666666666666","black","no","legacy","legacy","legacy","0","uniform","0","undefined","undefined","undefined","0","j","0","0","0","0","11","0","0","0","11","NA","7","11","7","0","7","3","11","0","11","Thu Feb 18 16:19:43 2021","The main experiment item","yes","Lexical_Decision_Task.osexp","/Users/zainab/Desktop","no","Andale Mono","no","18","no","white","no","yes","576","legacy","7","7","3","/Users/zainab/Desktop/subject-5219616.csv","legacy","Lentiform Loewenfeld","3.3.7","yes","yes","600bd7cfb6416f0113b04181","602110864497cf011d9c0822","0","f","NA","space","j","space","NA","f","465","NA","3735","7936","5827","NA","465","2","legacy","1024","2","48000","-16","task","5219616","even","NA","25580","31322","27586","45273","4907","18685","12856","45776","NA","45270","45776","45213","31322","46243","23980","44713","4862","40546","Lexical Decision Task","8","6548","12","yes","1024"
"2.755364069","7.72","2","hoax","word","69.23076923076923","69.23076923076923","538.4615384615385","538.4615384615385","black","no","legacy","legacy","legacy","0","uniform","1","undefined","undefined","undefined","1","j","0","0","0","0","12","0","0","0","12","NA","8","12","8","0","8","3","12","0","12","Thu Feb 18 16:19:43 2021","The main experiment item","yes","Lexical_Decision_Task.osexp","/Users/zainab/Desktop","no","Andale Mono","no","18","no","white","no","yes","576","legacy","8","8","3","/Users/zainab/Desktop/subject-5219616.csv","legacy","Lentiform Loewenfeld","3.3.7","yes","yes","600bd7cfb6416f0113b04181","602110864497cf011d9c0822","0","j","NA","space","j","space","NA","j","452","NA","3735","7936","5827","NA","452","2","legacy","1024","2","48000","-16","task","5219616","even","NA","25580","31322","27586","47808","4907","18685","12856","48311","NA","47805","48312","47746","31322","48765","23980","44713","4862","46246","Lexical Decision Task","9","7000","13","yes","1024"
"3.261341392","5.08","8","reek","word","64.28571428571429","64.28571428571429","532.2857142857143","532.2857142857143","black","no","legacy","legacy","legacy","0","uniform","0","undefined","undefined","undefined","0","j","0","0","0","0","13","0","0","0","13","NA","9","13","9","0","9","3","13","0","13","Thu Feb 18 16:19:43 2021","The main experiment item","yes","Lexical_Decision_Task.osexp","/Users/zainab/Desktop","no","Andale Mono","no","18","no","white","no","yes","576","legacy","9","9","3","/Users/zainab/Desktop/subject-5219616.csv","legacy","Lentiform Loewenfeld","3.3.7","yes","yes","600bd7cfb6416f0113b04181","602110864497cf011d9c0822","0","f","NA","space","j","space","NA","f","452","NA","3735","7936","5827","NA","452","2","legacy","1024","2","48000","-16","task","5219616","even","NA","25580","31322","27586","49328","4907","18685","12856","49832","NA","49325","49832","49269","31322","50285","23980","48769","4862","46246","Lexical Decision Task","9","7452","14","yes","1024"
"2.771097306","0","9","jold","non-word","66.66666666666667","66.66666666666667","538.2666666666667","538.2666666666667","black","no","legacy","legacy","legacy","0","uniform","1","undefined","undefined","undefined","1","f","0","0","0","0","14","0","0","0","14","NA","10","14","10","0","10","3","14","0","14","Thu Feb 18 16:19:43 2021","The main experiment item","yes","Lexical_Decision_Task.osexp","/Users/zainab/Desktop","no","Andale Mono","no","18","no","white","no","yes","576","legacy","10","10","3","/Users/zainab/Desktop/subject-5219616.csv","legacy","Lentiform Loewenfeld","3.3.7","yes","yes","600bd7cfb6416f0113b04181","602110864497cf011d9c0822","0","f","NA","space","j","space","NA","f","622","NA","3735","7936","5827","NA","622","2","legacy","1024","2","48000","-16","task","5219616","even","NA","25580","31322","27586","51852","4907","18685","12856","52354","NA","51849","52354","51788","31322","52977","23980","48769","4862","50288","Lexical Decision Task","10","8074","15","yes","1024"
"3.037294994","8.64","7","roof","word","68.75","68.75","539.6875","539.6875","black","no","legacy","legacy","legacy","0","uniform","1","undefined","undefined","undefined","1","j","0","0","0","0","15","0","0","0","15","NA","11","15","11","0","11","3","15","0","15","Thu Feb 18 16:19:43 2021","The main experiment item","yes","Lexical_Decision_Task.osexp","/Users/zainab/Desktop","no","Andale Mono","no","18","no","white","no","yes","576","legacy","11","11","3","/Users/zainab/Desktop/subject-5219616.csv","legacy","Lentiform Loewenfeld","3.3.7","yes","yes","600bd7cfb6416f0113b04181","602110864497cf011d9c0822","0","j","NA","space","j","space","NA","j","561","NA","3735","7936","5827","NA","561","2","legacy","1024","2","48000","-16","task","5219616","even","NA","25580","31322","27586","53539","4907","18685","12856","54042","NA","53537","54042","53481","31322","54604","23980","52981","4862","50288","Lexical Decision Task","11","8635","16","yes","1024"
"3.067070856","9.39","3","loud","word","70.58823529411765","70.58823529411765","545.1764705882352","545.1764705882352","black","no","legacy","legacy","legacy","0","uniform","1","undefined","undefined","undefined","1","j","0","0","0","0","16","0","0","0","16","NA","12","16","12","0","12","3","16","0","16","Thu Feb 18 16:19:43 2021","The main experiment item","yes","Lexical_Decision_Task.osexp","/Users/zainab/Desktop","no","Andale Mono","no","18","no","white","no","yes","576","legacy","12","12","3","/Users/zainab/Desktop/subject-5219616.csv","legacy","Lentiform Loewenfeld","3.3.7","yes","yes","600bd7cfb6416f0113b04181","602110864497cf011d9c0822","0","j","NA","space","j","space","NA","j","633","NA","3735","7936","5827","NA","633","2","legacy","1024","2","48000","-16","task","5219616","even","NA","25580","31322","27586","55168","4907","18685","12856","55671","NA","55165","55671","55108","31322","56305","23980","54608","4862","50288","Lexical Decision Task","12","9268","17","yes","1024"
"2.814027728","8.2","4","foam","word","72.22222222222223","72.22222222222223","542.6666666666666","542.6666666666666","black","no","legacy","legacy","legacy","0","uniform","1","undefined","undefined","undefined","1","j","0","0","0","0","17","0","0","0","17","NA","13","17","13","0","13","3","17","0","17","Thu Feb 18 16:19:43 2021","The main experiment item","yes","Lexical_Decision_Task.osexp","/Users/zainab/Desktop","no","Andale Mono","no","18","no","white","no","yes","576","legacy","13","13","3","/Users/zainab/Desktop/subject-5219616.csv","legacy","Lentiform Loewenfeld","3.3.7","yes","yes","600bd7cfb6416f0113b04181","602110864497cf011d9c0822","0","j","NA","space","j","space","NA","j","500","NA","3735","7936","5827","NA","500","2","legacy","1024","2","48000","-16","task","5219616","even","NA","25580","31322","27586","56867","4907","18685","12856","57370","NA","56865","57371","56809","31322","57872","23980","56309","4862","50288","Lexical Decision Task","13","9768","18","yes","1024"
"3.067193647","6.73","6","raft","word","68.42105263157895","68.42105263157895","544.421052631579","544.421052631579","black","no","legacy","legacy","legacy","0","uniform","0","undefined","undefined","undefined","0","j","0","0","0","0","18","0","0","0","18","NA","14","18","14","0","14","3","18","0","18","Thu Feb 18 16:19:43 2021","The main experiment item","yes","Lexical_Decision_Task.osexp","/Users/zainab/Desktop","no","Andale Mono","no","18","no","white","no","yes","576","legacy","14","14","3","/Users/zainab/Desktop/subject-5219616.csv","legacy","Lentiform Loewenfeld","3.3.7","yes","yes","600bd7cfb6416f0113b04181","602110864497cf011d9c0822","0","f","NA","space","j","space","NA","f","576","NA","3735","7936","5827","NA","576","2","legacy","1024","2","48000","-16","task","5219616","even","NA","25580","31322","27586","58435","4907","18685","12856","58938","NA","58432","58938","58375","31322","59515","23980","57875","4862","50288","Lexical Decision Task","13","10344","19","yes","1024"
"3.120135028","0","3","vals","non-word","65","65","544.1","544.1","black","no","legacy","legacy","legacy","0","uniform","0","undefined","undefined","undefined","0","f","0","0","0","0","19","0","0","0","19","NA","15","19","15","0","15","3","19","0","19","Thu Feb 18 16:19:43 2021","The main experiment item","yes","Lexical_Decision_Task.osexp","/Users/zainab/Desktop","no","Andale Mono","no","18","no","white","no","yes","576","legacy","15","15","3","/Users/zainab/Desktop/subject-5219616.csv","legacy","Lentiform Loewenfeld","3.3.7","yes","yes","600bd7cfb6416f0113b04181","602110864497cf011d9c0822","0","j","NA","space","j","space","NA","j","538","NA","3735","7936","5827","NA","538","2","legacy","1024","2","48000","-16","task","5219616","even","NA","25580","31322","27586","61081","4907","18685","12856","61584","NA","61079","61584","61020","31322","62123","23980","57875","4862","59520","Lexical Decision Task","13","10882","20","yes","1024"
"2.6599162","0","6","flug","non-word","61.904761904761905","61.904761904761905","548.0952380952381","548.0952380952381","black","no","legacy","legacy","legacy","0","uniform","0","undefined","undefined","undefined","0","f","0","0","0","0","20","0","0","0","20","NA","16","20","16","0","16","3","20","0","20","Thu Feb 18 16:19:43 2021","The main experiment item","yes","Lexical_Decision_Task.osexp","/Users/zainab/Desktop","no","Andale Mono","no","18","no","white","no","yes","576","legacy","16","16","3","/Users/zainab/Desktop/subject-5219616.csv","legacy","Lentiform Loewenfeld","3.3.7","yes","yes","600bd7cfb6416f0113b04181","602110864497cf011d9c0822","0","j","NA","space","j","space","NA","j","628","NA","3735","7936","5827","NA","628","2","legacy","1024","2","48000","-16","task","5219616","even","NA","25580","31322","27586","63694","4907","18685","12856","64197","NA","63692","64197","63627","31322","64826","23980","57875","4862","62127","Lexical Decision Task","13","11510","21","yes","1024"
"3.134602053","0","8","jart","non-word","59.09090909090909","59.09090909090909","566.0909090909091","566.0909090909091","black","no","legacy","legacy","legacy","0","uniform","0","undefined","undefined","undefined","0","f","0","0","0","0","21","0","0","0","21","NA","17","21","17","0","17","3","21","0","21","Thu Feb 18 16:19:43 2021","The main experiment item","yes","Lexical_Decision_Task.osexp","/Users/zainab/Desktop","no","Andale Mono","no","18","no","white","no","yes","576","legacy","17","17","3","/Users/zainab/Desktop/subject-5219616.csv","legacy","Lentiform Loewenfeld","3.3.7","yes","yes","600bd7cfb6416f0113b04181","602110864497cf011d9c0822","0","j","NA","space","j","space","NA","j","944","NA","3735","7936","5827","NA","944","2","legacy","1024","2","48000","-16","task","5219616","even","NA","25580","31322","27586","66391","4907","18685","12856","66894","NA","66388","66894","66329","31322","67840","23980","57875","4862","64829","Lexical Decision Task","13","12454","22","yes","1024"
"2.576725172","0","8","gowl","non-word","56.52173913043478","56.52173913043478","565.4782608695652","565.4782608695652","black","no","legacy","legacy","legacy","0","uniform","0","undefined","undefined","undefined","0","f","0","0","0","0","22","0","0","0","22","NA","18","22","18","0","18","3","22","0","22","Thu Feb 18 16:19:43 2021","The main experiment item","yes","Lexical_Decision_Task.osexp","/Users/zainab/Desktop","no","Andale Mono","no","18","no","white","no","yes","576","legacy","18","18","3","/Users/zainab/Desktop/subject-5219616.csv","legacy","Lentiform Loewenfeld","3.3.7","yes","yes","600bd7cfb6416f0113b04181","602110864497cf011d9c0822","0","j","NA","space","j","space","NA","j","552","NA","3735","7936","5827","NA","552","2","legacy","1024","2","48000","-16","task","5219616","even","NA","25580","31322","27586","69404","4907","18685","12856","69906","NA","69401","69906","69343","31322","70459","23980","57875","4862","67843","Lexical Decision Task","13","13006","23","yes","1024"
"3.474361976","5.24","6","veer","word","54.166666666666664","54.166666666666664","561.375","561.375","black","no","legacy","legacy","legacy","0","uniform","0","undefined","undefined","undefined","0","j","0","0","0","0","23","0","0","0","23","NA","19","23","19","0","19","3","23","0","23","Thu Feb 18 16:19:43 2021","The main experiment item","yes","Lexical_Decision_Task.osexp","/Users/zainab/Desktop","no","Andale Mono","no","18","no","white","no","yes","576","legacy","19","19","3","/Users/zainab/Desktop/subject-5219616.csv","legacy","Lentiform Loewenfeld","3.3.7","yes","yes","600bd7cfb6416f0113b04181","602110864497cf011d9c0822","0","f","NA","space","j","space","NA","f","467","NA","3735","7936","5827","NA","467","2","legacy","1024","2","48000","-16","task","5219616","even","NA","25580","31322","27586","72028","4907","18685","12856","72530","NA","72025","72531","71962","31322","73000","23980","57875","4862","70462","Lexical Decision Task","13","13473","24","yes","1024"
"2.924968096","0","4","phim","non-word","56","56","559.16","559.16","black","no","legacy","legacy","legacy","0","uniform","1","undefined","undefined","undefined","1","f","0","0","0","0","24","0","0","0","24","NA","20","24","20","0","20","3","24","0","24","Thu Feb 18 16:19:43 2021","The main experiment item","yes","Lexical_Decision_Task.osexp","/Users/zainab/Desktop","no","Andale Mono","no","18","no","white","no","yes","576","legacy","20","20","3","/Users/zainab/Desktop/subject-5219616.csv","legacy","Lentiform Loewenfeld","3.3.7","yes","yes","600bd7cfb6416f0113b04181","602110864497cf011d9c0822","0","f","NA","space","j","space","NA","f","506","NA","3735","7936","5827","NA","506","2","legacy","1024","2","48000","-16","task","5219616","even","NA","25580","31322","27586","74566","4907","18685","12856","75068","NA","74563","75068","74503","31322","75575","23980","57875","4862","73003","Lexical Decision Task","14","13979","25","yes","1024"
"3.043885998","0","9","gome","non-word","57.69230769230769","57.69230769230769","559.8076923076923","559.8076923076923","black","no","legacy","legacy","legacy","0","uniform","1","undefined","undefined","undefined","1","f","0","0","0","0","25","0","0","0","25","NA","21","25","21","0","21","3","25","0","25","Thu Feb 18 16:19:43 2021","The main experiment item","yes","Lexical_Decision_Task.osexp","/Users/zainab/Desktop","no","Andale Mono","no","18","no","white","no","yes","576","legacy","21","21","3","/Users/zainab/Desktop/subject-5219616.csv","legacy","Lentiform Loewenfeld","3.3.7","yes","yes","600bd7cfb6416f0113b04181","602110864497cf011d9c0822","0","f","NA","space","j","space","NA","f","576","NA","3735","7936","5827","NA","576","2","legacy","1024","2","48000","-16","task","5219616","even","NA","25580","31322","27586","76136","4907","18685","12856","76639","NA","76134","76639","76078","31322","77217","23980","75578","4862","73003","Lexical Decision Task","15","14555","26","yes","1024"
"3.303771854","0","9","dath","non-word","59.25925925925926","59.25925925925926","554.8888888888889","554.8888888888889","black","no","legacy","legacy","legacy","0","uniform","1","undefined","undefined","undefined","1","f","0","0","0","0","26","0","0","0","26","NA","22","26","22","0","22","3","26","0","26","Thu Feb 18 16:19:43 2021","The main experiment item","yes","Lexical_Decision_Task.osexp","/Users/zainab/Desktop","no","Andale Mono","no","18","no","white","no","yes","576","legacy","22","22","3","/Users/zainab/Desktop/subject-5219616.csv","legacy","Lentiform Loewenfeld","3.3.7","yes","yes","600bd7cfb6416f0113b04181","602110864497cf011d9c0822","0","f","NA","space","j","space","NA","f","427","NA","3735","7936","5827","NA","427","2","legacy","1024","2","48000","-16","task","5219616","even","NA","25580","31322","27586","77781","4907","18685","12856","78284","NA","77778","78284","77721","31322","78712","23980","77221","4862","73003","Lexical Decision Task","16","14982","27","yes","1024"
"2.799799878","0","4","ciff","non-word","60.714285714285715","60.714285714285715","550.2857142857143","550.2857142857143","black","no","legacy","legacy","legacy","0","uniform","1","undefined","undefined","undefined","1","f","0","0","0","0","27","0","0","0","27","NA","23","27","23","0","23","3","27","0","27","Thu Feb 18 16:19:43 2021","The main experiment item","yes","Lexical_Decision_Task.osexp","/Users/zainab/Desktop","no","Andale Mono","no","18","no","white","no","yes","576","legacy","23","23","3","/Users/zainab/Desktop/subject-5219616.csv","legacy","Lentiform Loewenfeld","3.3.7","yes","yes","600bd7cfb6416f0113b04181","602110864497cf011d9c0822","0","f","NA","space","j","space","NA","f","426","NA","3735","7936","5827","NA","426","2","legacy","1024","2","48000","-16","task","5219616","even","NA","25580","31322","27586","79275","4907","18685","12856","79778","NA","79272","79778","79216","31322","80205","23980","78716","4862","73003","Lexical Decision Task","17","15408","28","yes","1024"
"3.529815197","0","3","lerm","non-word","62.06896551724138","62.06896551724138","545.3448275862069","545.3448275862069","black","no","legacy","legacy","legacy","0","uniform","1","undefined","undefined","undefined","1","f","0","0","0","0","28","0","0","0","28","NA","24","28","24","0","24","3","28","0","28","Thu Feb 18 16:19:43 2021","The main experiment item","yes","Lexical_Decision_Task.osexp","/Users/zainab/Desktop","no","Andale Mono","no","18","no","white","no","yes","576","legacy","24","24","3","/Users/zainab/Desktop/subject-5219616.csv","legacy","Lentiform Loewenfeld","3.3.7","yes","yes","600bd7cfb6416f0113b04181","602110864497cf011d9c0822","0","f","NA","space","j","space","NA","f","407","NA","3735","7936","5827","NA","407","2","legacy","1024","2","48000","-16","task","5219616","even","NA","25580","31322","27586","80765","4907","18685","12856","81268","NA","80763","81268","80708","31322","81677","23980","80208","4862","73003","Lexical Decision Task","18","15815","29","yes","1024"
"3.088136089","8.32","9","worm","word","60","60","543.7333333333333","543.7333333333333","black","no","legacy","legacy","legacy","0","uniform","0","undefined","undefined","undefined","0","j","0","0","0","0","29","0","0","0","29","NA","25","29","25","0","25","3","29","0","29","Thu Feb 18 16:19:43 2021","The main experiment item","yes","Lexical_Decision_Task.osexp","/Users/zainab/Desktop","no","Andale Mono","no","18","no","white","no","yes","576","legacy","25","25","3","/Users/zainab/Desktop/subject-5219616.csv","legacy","Lentiform Loewenfeld","3.3.7","yes","yes","600bd7cfb6416f0113b04181","602110864497cf011d9c0822","0","f","NA","space","j","space","NA","f","497","NA","3735","7936","5827","NA","497","2","legacy","1024","2","48000","-16","task","5219616","even","NA","25580","31322","27586","82238","4907","18685","12856","82741","NA","82235","82741","82180","31322","83239","23980","81680","4862","73003","Lexical Decision Task","18","16312","30","yes","1024"
"3.531734309","0","6","lerd","non-word","61.29032258064516","61.29032258064516","547.3225806451613","547.3225806451613","black","no","legacy","legacy","legacy","0","uniform","1","undefined","undefined","undefined","1","f","0","0","0","0","30","0","0","0","30","NA","26","30","26","0","26","3","30","0","30","Thu Feb 18 16:19:43 2021","The main experiment item","yes","Lexical_Decision_Task.osexp","/Users/zainab/Desktop","no","Andale Mono","no","18","no","white","no","yes","576","legacy","26","26","3","/Users/zainab/Desktop/subject-5219616.csv","legacy","Lentiform Loewenfeld","3.3.7","yes","yes","600bd7cfb6416f0113b04181","602110864497cf011d9c0822","0","f","NA","space","j","space","NA","f","655","NA","3735","7936","5827","NA","655","2","legacy","1024","2","48000","-16","task","5219616","even","NA","25580","31322","27586","84805","4907","18685","12856","85308","NA","84803","85308","84743","31322","85964","23980","81680","4862","83243","Lexical Decision Task","19","16967","31","yes","1024"
"3.29439347","8.6","9","wand","word","59.375","59.375","546.9375","546.9375","black","no","legacy","legacy","legacy","0","uniform","0","undefined","undefined","undefined","0","j","0","0","0","0","31","0","0","0","31","NA","27","31","27","0","27","3","31","0","31","Thu Feb 18 16:19:43 2021","The main experiment item","yes","Lexical_Decision_Task.osexp","/Users/zainab/Desktop","no","Andale Mono","no","18","no","white","no","yes","576","legacy","27","27","3","/Users/zainab/Desktop/subject-5219616.csv","legacy","Lentiform Loewenfeld","3.3.7","yes","yes","600bd7cfb6416f0113b04181","602110864497cf011d9c0822","0","f","NA","space","j","space","NA","f","535","NA","3735","7936","5827","NA","535","2","legacy","1024","2","48000","-16","task","5219616","even","NA","25580","31322","27586","86527","4907","18685","12856","87030","NA","86524","87031","86468","31322","87567","23980","85968","4862","83243","Lexical Decision Task","19","17502","32","yes","1024"
"2.767650507","0","6","yolt","non-word","60.60606060606061","60.60606060606061","546.060606060606","546.060606060606","black","no","legacy","legacy","legacy","0","uniform","1","undefined","undefined","undefined","1","f","0","0","0","0","32","0","0","0","32","NA","28","32","28","0","28","3","32","0","32","Thu Feb 18 16:19:43 2021","The main experiment item","yes","Lexical_Decision_Task.osexp","/Users/zainab/Desktop","no","Andale Mono","no","18","no","white","no","yes","576","legacy","28","28","3","/Users/zainab/Desktop/subject-5219616.csv","legacy","Lentiform Loewenfeld","3.3.7","yes","yes","600bd7cfb6416f0113b04181","602110864497cf011d9c0822","0","f","NA","space","j","space","NA","f","518","NA","3735","7936","5827","NA","518","2","legacy","1024","2","48000","-16","task","5219616","even","NA","25580","31322","27586","89133","4907","18685","12856","89636","NA","89130","89636","89071","31322","90156","23980","85968","4862","87570","Lexical Decision Task","20","18020","33","yes","1024"
"3.311895072","0","9","gung","non-word","61.76470588235294","61.76470588235294","545.8529411764706","545.8529411764706","black","no","legacy","legacy","legacy","0","uniform","1","undefined","undefined","undefined","1","f","0","0","0","0","33","0","0","0","33","NA","29","33","29","0","29","3","33","0","33","Thu Feb 18 16:19:43 2021","The main experiment item","yes","Lexical_Decision_Task.osexp","/Users/zainab/Desktop","no","Andale Mono","no","18","no","white","no","yes","576","legacy","29","29","3","/Users/zainab/Desktop/subject-5219616.csv","legacy","Lentiform Loewenfeld","3.3.7","yes","yes","600bd7cfb6416f0113b04181","602110864497cf011d9c0822","0","f","NA","space","j","space","NA","f","539","NA","3735","7936","5827","NA","539","2","legacy","1024","2","48000","-16","task","5219616","even","NA","25580","31322","27586","90718","4907","18685","12856","91221","NA","90715","91221","90659","31322","91761","23980","90159","4862","87570","Lexical Decision Task","21","18559","34","yes","1024"
"3.257359335","8","6","brew","word","62.857142857142854","62.857142857142854","543.2571428571429","543.2571428571429","black","no","legacy","legacy","legacy","0","uniform","1","undefined","undefined","undefined","1","j","0","0","0","0","34","0","0","0","34","NA","30","34","30","0","30","3","34","0","34","Thu Feb 18 16:19:43 2021","The main experiment item","yes","Lexical_Decision_Task.osexp","/Users/zainab/Desktop","no","Andale Mono","no","18","no","white","no","yes","576","legacy","30","30","3","/Users/zainab/Desktop/subject-5219616.csv","legacy","Lentiform Loewenfeld","3.3.7","yes","yes","600bd7cfb6416f0113b04181","602110864497cf011d9c0822","0","j","NA","space","j","space","NA","j","455","NA","3735","7936","5827","NA","455","2","legacy","1024","2","48000","-16","task","5219616","even","NA","25580","31322","27586","92324","4907","18685","12856","92827","NA","92321","92827","92265","31322","93283","23980","91765","4862","87570","Lexical Decision Task","22","19014","35","yes","1024"
"3.156347201","0","8","lasp","non-word","63.888888888888886","63.888888888888886","543.7777777777778","543.7777777777778","black","no","legacy","legacy","legacy","0","uniform","1","undefined","undefined","undefined","1","f","0","0","0","0","35","0","0","0","35","NA","31","35","31","0","31","3","35","0","35","Thu Feb 18 16:19:43 2021","The main experiment item","yes","Lexical_Decision_Task.osexp","/Users/zainab/Desktop","no","Andale Mono","no","18","no","white","no","yes","576","legacy","31","31","3","/Users/zainab/Desktop/subject-5219616.csv","legacy","Lentiform Loewenfeld","3.3.7","yes","yes","600bd7cfb6416f0113b04181","602110864497cf011d9c0822","0","f","NA","space","j","space","NA","f","562","NA","3735","7936","5827","NA","562","2","legacy","1024","2","48000","-16","task","5219616","even","NA","25580","31322","27586","93848","4907","18685","12856","94351","NA","93846","94351","93790","31322","94914","23980","93290","4862","87570","Lexical Decision Task","23","19576","36","yes","1024"
"2.807758206","6.25","4","hurl","word","62.16216216216216","62.16216216216216","540.918918918919","540.918918918919","black","no","legacy","legacy","legacy","0","uniform","0","undefined","undefined","undefined","0","j","0","0","0","0","36","0","0","0","36","NA","32","36","32","0","32","3","36","0","36","Thu Feb 18 16:19:43 2021","The main experiment item","yes","Lexical_Decision_Task.osexp","/Users/zainab/Desktop","no","Andale Mono","no","18","no","white","no","yes","576","legacy","32","32","3","/Users/zainab/Desktop/subject-5219616.csv","legacy","Lentiform Loewenfeld","3.3.7","yes","yes","600bd7cfb6416f0113b04181","602110864497cf011d9c0822","0","f","NA","space","j","space","NA","f","438","NA","3735","7936","5827","NA","438","2","legacy","1024","2","48000","-16","task","5219616","even","NA","25580","31322","27586","95476","4907","18685","12856","95979","NA","95474","95979","95418","31322","96418","23980","94918","4862","87570","Lexical Decision Task","23","20014","37","yes","1024"
"3.062080345","0","6","tomp","non-word","63.1578947368421","63.1578947368421","544.578947368421","544.578947368421","black","no","legacy","legacy","legacy","0","uniform","1","undefined","undefined","undefined","1","f","0","0","0","0","37","0","0","0","37","NA","33","37","33","0","33","3","37","0","37","Thu Feb 18 16:19:43 2021","The main experiment item","yes","Lexical_Decision_Task.osexp","/Users/zainab/Desktop","no","Andale Mono","no","18","no","white","no","yes","576","legacy","33","33","3","/Users/zainab/Desktop/subject-5219616.csv","legacy","Lentiform Loewenfeld","3.3.7","yes","yes","600bd7cfb6416f0113b04181","602110864497cf011d9c0822","0","f","NA","space","j","space","NA","f","680","NA","3735","7936","5827","NA","680","2","legacy","1024","2","48000","-16","task","5219616","even","NA","25580","31322","27586","97983","4907","18685","12856","98486","NA","97981","98486","97922","31322","99167","23980","94918","4862","96422","Lexical Decision Task","24","20694","38","yes","1024"
"2.64476673","0","5","moft","non-word","61.53846153846154","61.53846153846154","544","544","black","no","legacy","legacy","legacy","0","uniform","0","undefined","undefined","undefined","0","f","0","0","0","0","38","0","0","0","38","NA","34","38","34","0","34","3","38","0","38","Thu Feb 18 16:19:43 2021","The main experiment item","yes","Lexical_Decision_Task.osexp","/Users/zainab/Desktop","no","Andale Mono","no","18","no","white","no","yes","576","legacy","34","34","3","/Users/zainab/Desktop/subject-5219616.csv","legacy","Lentiform Loewenfeld","3.3.7","yes","yes","600bd7cfb6416f0113b04181","602110864497cf011d9c0822","0","j","NA","space","j","space","NA","j","522","NA","3735","7936","5827","NA","522","2","legacy","1024","2","48000","-16","task","5219616","even","NA","25580","31322","27586","99732","4907","18685","12856","100235","NA","99729","100235","99670","31322","100758","23980","99170","4862","96422","Lexical Decision Task","24","21216","39","yes","1024"
"2.706148589","0","4","hube","non-word","62.5","62.5","543.85","543.85","black","no","legacy","legacy","legacy","0","uniform","1","undefined","undefined","undefined","1","f","0","0","0","0","39","0","0","0","39","NA","35","39","35","0","35","3","39","0","39","Thu Feb 18 16:19:43 2021","The main experiment item","yes","Lexical_Decision_Task.osexp","/Users/zainab/Desktop","no","Andale Mono","no","18","no","white","no","yes","576","legacy","35","35","3","/Users/zainab/Desktop/subject-5219616.csv","legacy","Lentiform Loewenfeld","3.3.7","yes","yes","600bd7cfb6416f0113b04181","602110864497cf011d9c0822","0","f","NA","space","j","space","NA","f","538","NA","3735","7936","5827","NA","538","2","legacy","1024","2","48000","-16","task","5219616","even","NA","25580","31322","27586","102324","4907","18685","12856","102827","NA","102321","102827","102262","31322","103366","23980","99170","4862","100762","Lexical Decision Task","25","21754","40","yes","1024"
"2.899092422","7.27","6","snag","word","60.97560975609756","60.97560975609756","540.0975609756098","540.0975609756098","black","no","legacy","legacy","legacy","0","uniform","0","undefined","undefined","undefined","0","j","0","0","0","0","40","0","0","0","40","NA","36","40","36","0","36","3","40","0","40","Thu Feb 18 16:19:43 2021","The main experiment item","yes","Lexical_Decision_Task.osexp","/Users/zainab/Desktop","no","Andale Mono","no","18","no","white","no","yes","576","legacy","36","36","3","/Users/zainab/Desktop/subject-5219616.csv","legacy","Lentiform Loewenfeld","3.3.7","yes","yes","600bd7cfb6416f0113b04181","602110864497cf011d9c0822","0","f","NA","space","j","space","NA","f","390","NA","3735","7936","5827","NA","390","2","legacy","1024","2","48000","-16","task","5219616","even","NA","25580","31322","27586","103928","4907","18685","12856","104430","NA","103926","104430","103870","31322","104821","23980","103370","4862","100762","Lexical Decision Task","25","22144","41","yes","1024"
"2.709837904","6.85","8","skim","word","61.904761904761905","61.904761904761905","537.9285714285714","537.9285714285714","black","no","legacy","legacy","legacy","0","uniform","1","undefined","undefined","undefined","1","j","0","0","0","0","41","0","0","0","41","NA","37","41","37","0","37","3","41","0","41","Thu Feb 18 16:19:43 2021","The main experiment item","yes","Lexical_Decision_Task.osexp","/Users/zainab/Desktop","no","Andale Mono","no","18","no","white","no","yes","576","legacy","37","37","3","/Users/zainab/Desktop/subject-5219616.csv","legacy","Lentiform Loewenfeld","3.3.7","yes","yes","600bd7cfb6416f0113b04181","602110864497cf011d9c0822","0","j","NA","space","j","space","NA","j","449","NA","3735","7936","5827","NA","449","2","legacy","1024","2","48000","-16","task","5219616","even","NA","25580","31322","27586","106386","4907","18685","12856","106889","NA","106383","106889","106324","31322","107340","23980","103370","4862","104824","Lexical Decision Task","26","22593","42","yes","1024"
"2.821076612","0","4","lult","non-word","62.7906976744186","62.7906976744186","534.7674418604652","534.7674418604652","black","no","legacy","legacy","legacy","0","uniform","1","undefined","undefined","undefined","1","f","0","0","0","0","42","0","0","0","42","NA","38","42","38","0","38","3","42","0","42","Thu Feb 18 16:19:43 2021","The main experiment item","yes","Lexical_Decision_Task.osexp","/Users/zainab/Desktop","no","Andale Mono","no","18","no","white","no","yes","576","legacy","38","38","3","/Users/zainab/Desktop/subject-5219616.csv","legacy","Lentiform Loewenfeld","3.3.7","yes","yes","600bd7cfb6416f0113b04181","602110864497cf011d9c0822","0","f","NA","space","j","space","NA","f","402","NA","3735","7936","5827","NA","402","2","legacy","1024","2","48000","-16","task","5219616","even","NA","25580","31322","27586","107901","4907","18685","12856","108404","NA","107898","108404","107843","31322","108807","23980","107343","4862","104824","Lexical Decision Task","27","22995","43","yes","1024"
"3.269668578","0","7","trag","non-word","63.63636363636363","63.63636363636363","535.0227272727273","535.0227272727273","black","no","legacy","legacy","legacy","0","uniform","1","undefined","undefined","undefined","1","f","0","0","0","0","43","0","0","0","43","NA","39","43","39","0","39","3","43","0","43","Thu Feb 18 16:19:43 2021","The main experiment item","yes","Lexical_Decision_Task.osexp","/Users/zainab/Desktop","no","Andale Mono","no","18","no","white","no","yes","576","legacy","39","39","3","/Users/zainab/Desktop/subject-5219616.csv","legacy","Lentiform Loewenfeld","3.3.7","yes","yes","600bd7cfb6416f0113b04181","602110864497cf011d9c0822","0","f","NA","space","j","space","NA","f","546","NA","3735","7936","5827","NA","546","2","legacy","1024","2","48000","-16","task","5219616","even","NA","25580","31322","27586","109368","4907","18685","12856","109871","NA","109365","109871","109310","31322","110419","23980","108810","4862","104824","Lexical Decision Task","28","23541","44","yes","1024"
"3.363486562","6.93","9","lush","word","64.44444444444444","64.44444444444444","532.1333333333333","532.1333333333333","black","no","legacy","legacy","legacy","0","uniform","1","undefined","undefined","undefined","1","j","0","0","0","0","44","0","0","0","44","NA","40","44","40","0","40","3","44","0","44","Thu Feb 18 16:19:43 2021","The main experiment item","yes","Lexical_Decision_Task.osexp","/Users/zainab/Desktop","no","Andale Mono","no","18","no","white","no","yes","576","legacy","40","40","3","/Users/zainab/Desktop/subject-5219616.csv","legacy","Lentiform Loewenfeld","3.3.7","yes","yes","600bd7cfb6416f0113b04181","602110864497cf011d9c0822","0","j","NA","space","j","space","NA","j","405","NA","3735","7936","5827","NA","405","2","legacy","1024","2","48000","-16","task","5219616","even","NA","25580","31322","27586","110980","4907","18685","12856","111483","NA","110978","111483","110923","31322","111890","23980","110423","4862","104824","Lexical Decision Task","29","23946","45","yes","1024"
"2.68604012","0","4","pumb","non-word","65.21739130434783","65.21739130434783","531.9782608695652","531.9782608695652","black","no","legacy","legacy","legacy","0","uniform","1","undefined","undefined","undefined","1","f","0","0","0","0","45","0","0","0","45","NA","41","45","41","0","41","3","45","0","45","Thu Feb 18 16:19:43 2021","The main experiment item","yes","Lexical_Decision_Task.osexp","/Users/zainab/Desktop","no","Andale Mono","no","18","no","white","no","yes","576","legacy","41","41","3","/Users/zainab/Desktop/subject-5219616.csv","legacy","Lentiform Loewenfeld","3.3.7","yes","yes","600bd7cfb6416f0113b04181","602110864497cf011d9c0822","0","f","NA","space","j","space","NA","f","525","NA","3735","7936","5827","NA","525","2","legacy","1024","2","48000","-16","task","5219616","even","NA","25580","31322","27586","112452","4907","18685","12856","112955","NA","112449","112955","112393","31322","113482","23980","111893","4862","104824","Lexical Decision Task","30","24471","46","yes","1024"
"3.149629599","0","2","cleb","non-word","65.95744680851064","65.95744680851064","531.4893617021277","531.4893617021277","black","no","legacy","legacy","legacy","0","uniform","1","undefined","undefined","undefined","1","f","0","0","0","0","46","0","0","0","46","NA","42","46","42","0","42","3","46","0","46","Thu Feb 18 16:19:43 2021","The main experiment item","yes","Lexical_Decision_Task.osexp","/Users/zainab/Desktop","no","Andale Mono","no","18","no","white","no","yes","576","legacy","42","42","3","/Users/zainab/Desktop/subject-5219616.csv","legacy","Lentiform Loewenfeld","3.3.7","yes","yes","600bd7cfb6416f0113b04181","602110864497cf011d9c0822","0","f","NA","space","j","space","NA","f","509","NA","3735","7936","5827","NA","509","2","legacy","1024","2","48000","-16","task","5219616","even","NA","25580","31322","27586","114044","4907","18685","12856","114547","NA","114041","114547","113986","31322","115057","23980","113486","4862","104824","Lexical Decision Task","31","24980","47","yes","1024"
"2.86332286","6.71","2","feud","word","66.66666666666667","66.66666666666667","531.2291666666666","531.2291666666666","black","no","legacy","legacy","legacy","0","uniform","1","undefined","undefined","undefined","1","j","0","0","0","0","47","0","0","0","47","NA","43","47","43","0","43","3","47","0","47","Thu Feb 18 16:19:43 2021","The main experiment item","yes","Lexical_Decision_Task.osexp","/Users/zainab/Desktop","no","Andale Mono","no","18","no","white","no","yes","576","legacy","43","43","3","/Users/zainab/Desktop/subject-5219616.csv","legacy","Lentiform Loewenfeld","3.3.7","yes","yes","600bd7cfb6416f0113b04181","602110864497cf011d9c0822","0","j","NA","space","j","space","NA","j","519","NA","3735","7936","5827","NA","519","2","legacy","1024","2","48000","-16","task","5219616","even","NA","25580","31322","27586","115619","4907","18685","12856","116122","NA","115617","116122","115561","31322","116642","23980","115060","4862","104824","Lexical Decision Task","32","25499","48","yes","1024"
"3.495914186","0","4","peng","non-word","67.34693877551021","67.34693877551021","527.8571428571429","527.8571428571429","black","no","legacy","legacy","legacy","0","uniform","1","undefined","undefined","undefined","1","f","0","0","0","0","48","0","0","0","48","NA","44","48","44","0","44","3","48","0","48","Thu Feb 18 16:19:43 2021","The main experiment item","yes","Lexical_Decision_Task.osexp","/Users/zainab/Desktop","no","Andale Mono","no","18","no","white","no","yes","576","legacy","44","44","3","/Users/zainab/Desktop/subject-5219616.csv","legacy","Lentiform Loewenfeld","3.3.7","yes","yes","600bd7cfb6416f0113b04181","602110864497cf011d9c0822","0","f","NA","space","j","space","NA","f","366","NA","3735","7936","5827","NA","366","2","legacy","1024","2","48000","-16","task","5219616","even","NA","25580","31322","27586","117204","4907","18685","12856","117707","NA","117202","117707","117146","31322","118074","23980","116646","4862","104824","Lexical Decision Task","33","25865","49","yes","1024"
"2.858136002","0","4","phip","non-word","66","66","528.14","528.14","black","no","legacy","legacy","legacy","0","uniform","0","undefined","undefined","undefined","0","f","0","0","0","0","49","0","0","0","49","NA","45","49","45","0","45","3","49","0","49","Thu Feb 18 16:19:43 2021","The main experiment item","yes","Lexical_Decision_Task.osexp","/Users/zainab/Desktop","no","Andale Mono","no","18","no","white","no","yes","576","legacy","45","45","3","/Users/zainab/Desktop/subject-5219616.csv","legacy","Lentiform Loewenfeld","3.3.7","yes","yes","600bd7cfb6416f0113b04181","602110864497cf011d9c0822","0","j","NA","space","j","space","NA","j","542","NA","3735","7936","5827","NA","542","2","legacy","1024","2","48000","-16","task","5219616","even","NA","25580","31322","27586","118636","4907","18685","12856","119139","NA","118634","119139","118578","31322","119683","23980","118078","4862","104824","Lexical Decision Task","33","26407","50","yes","1024"
"3.705778213","0","6","stin","non-word","66.66666666666667","66.66666666666667","530.5294117647059","530.5294117647059","black","no","legacy","legacy","legacy","0","uniform","1","undefined","undefined","undefined","1","f","0","0","0","0","50","0","0","0","50","NA","46","50","46","0","46","3","50","0","50","Thu Feb 18 16:19:43 2021","The main experiment item","yes","Lexical_Decision_Task.osexp","/Users/zainab/Desktop","no","Andale Mono","no","18","no","white","no","yes","576","legacy","46","46","3","/Users/zainab/Desktop/subject-5219616.csv","legacy","Lentiform Loewenfeld","3.3.7","yes","yes","600bd7cfb6416f0113b04181","602110864497cf011d9c0822","0","f","NA","space","j","space","NA","f","650","NA","3735","7936","5827","NA","650","2","legacy","1024","2","48000","-16","task","5219616","even","NA","25580","31322","27586","121249","4907","18685","12856","121752","NA","121246","121752","121186","31322","122403","23980","118078","4862","119686","Lexical Decision Task","34","27057","51","yes","1024"
"2.784379519","0","2","snaf","non-word","67.3076923076923","67.3076923076923","529.8076923076923","529.8076923076923","black","no","legacy","legacy","legacy","0","uniform","1","undefined","undefined","undefined","1","f","0","0","0","0","51","0","0","0","51","NA","47","51","47","0","47","3","51","0","51","Thu Feb 18 16:19:43 2021","The main experiment item","yes","Lexical_Decision_Task.osexp","/Users/zainab/Desktop","no","Andale Mono","no","18","no","white","no","yes","576","legacy","47","47","3","/Users/zainab/Desktop/subject-5219616.csv","legacy","Lentiform Loewenfeld","3.3.7","yes","yes","600bd7cfb6416f0113b04181","602110864497cf011d9c0822","0","f","NA","space","j","space","NA","f","493","NA","3735","7936","5827","NA","493","2","legacy","1024","2","48000","-16","task","5219616","even","NA","25580","31322","27586","122965","4907","18685","12856","123468","NA","122963","123468","122907","31322","123962","23980","122407","4862","119686","Lexical Decision Task","35","27550","52","yes","1024"
"2.884795364","0","6","flob","non-word","67.9245283018868","67.9245283018868","528.3018867924528","528.3018867924528","black","no","legacy","legacy","legacy","0","uniform","1","undefined","undefined","undefined","1","f","0","0","0","0","52","0","0","0","52","NA","48","52","48","0","48","3","52","0","52","Thu Feb 18 16:19:43 2021","The main experiment item","yes","Lexical_Decision_Task.osexp","/Users/zainab/Desktop","no","Andale Mono","no","18","no","white","no","yes","576","legacy","48","48","3","/Users/zainab/Desktop/subject-5219616.csv","legacy","Lentiform Loewenfeld","3.3.7","yes","yes","600bd7cfb6416f0113b04181","602110864497cf011d9c0822","0","f","NA","space","j","space","NA","f","450","NA","3735","7936","5827","NA","450","2","legacy","1024","2","48000","-16","task","5219616","even","NA","25580","31322","27586","124524","4907","18685","12856","125027","NA","124522","125027","124466","31322","125478","23980","123966","4862","119686","Lexical Decision Task","36","28000","53","yes","1024"
"3.460446784","0","5","dess","non-word","68.51851851851852","68.51851851851852","530.6111111111111","530.6111111111111","black","no","legacy","legacy","legacy","0","uniform","1","undefined","undefined","undefined","1","f","0","0","0","0","53","0","0","0","53","NA","49","53","49","0","49","3","53","0","53","Thu Feb 18 16:19:43 2021","The main experiment item","yes","Lexical_Decision_Task.osexp","/Users/zainab/Desktop","no","Andale Mono","no","18","no","white","no","yes","576","legacy","49","49","3","/Users/zainab/Desktop/subject-5219616.csv","legacy","Lentiform Loewenfeld","3.3.7","yes","yes","600bd7cfb6416f0113b04181","602110864497cf011d9c0822","0","f","NA","space","j","space","NA","f","653","NA","3735","7936","5827","NA","653","2","legacy","1024","2","48000","-16","task","5219616","even","NA","25580","31322","27586","126041","4907","18685","12856","126543","NA","126038","126544","125983","31322","127198","23980","125483","4862","119686","Lexical Decision Task","37","28653","54","yes","1024"
"3.003891166","8.05","2","frog","word","69.0909090909091","69.0909090909091","530.6545454545454","530.6545454545454","black","no","legacy","legacy","legacy","0","uniform","1","undefined","undefined","undefined","1","j","0","0","0","0","54","0","0","0","54","0","50","54","50","0","50","3","54","0","54","Thu Feb 18 16:19:43 2021","The main experiment item","yes","Lexical_Decision_Task.osexp","/Users/zainab/Desktop","no","Andale Mono","no","18","no","white","no","yes","576","legacy","50","50","3","/Users/zainab/Desktop/subject-5219616.csv","legacy","Lentiform Loewenfeld","3.3.7","yes","yes","600bd7cfb6416f0113b04181","602110864497cf011d9c0822","0","j","NA","space","j","space","space","j","533","NA","3735","7936","5827","8763","533","2","legacy","1024","2","48000","-16","task","5219616","even","NA","25580","31322","27586","136550","4907","18685","12856","137053","127731","136548","137053","127702","31322","137588","23980","127202","4862","119686","Lexical Decision Task","38","29186","55","yes","1024"
"2.972819734","0","4","scew","non-word","67.85714285714286","67.85714285714286","528.9285714285714","528.9285714285714","black","no","legacy","legacy","legacy","0","uniform","0","undefined","undefined","undefined","0","f","0","0","0","0","55","0","0","0","55","0","51","55","51","0","51","3","55","0","55","Thu Feb 18 16:19:43 2021","The main experiment item","yes","Lexical_Decision_Task.osexp","/Users/zainab/Desktop","no","Andale Mono","no","18","no","white","no","yes","576","legacy","51","51","3","/Users/zainab/Desktop/subject-5219616.csv","legacy","Lentiform Loewenfeld","3.3.7","yes","yes","600bd7cfb6416f0113b04181","602110864497cf011d9c0822","0","j","NA","space","j","space","space","j","434","NA","3735","7936","5827","8763","434","2","legacy","1024","2","48000","-16","task","5219616","even","NA","25580","31322","27586","138148","4907","18685","12856","138652","127731","138146","138652","138091","31322","139087","23980","137591","4862","119686","Lexical Decision Task","38","29620","56","yes","1024"
"2.698100546","0","9","mulk","non-word","68.42105263157895","68.42105263157895","530.4736842105264","530.4736842105264","black","no","legacy","legacy","legacy","0","uniform","1","undefined","undefined","undefined","1","f","0","0","0","0","56","0","0","0","56","0","52","56","52","0","52","3","56","0","56","Thu Feb 18 16:19:43 2021","The main experiment item","yes","Lexical_Decision_Task.osexp","/Users/zainab/Desktop","no","Andale Mono","no","18","no","white","no","yes","576","legacy","52","52","3","/Users/zainab/Desktop/subject-5219616.csv","legacy","Lentiform Loewenfeld","3.3.7","yes","yes","600bd7cfb6416f0113b04181","602110864497cf011d9c0822","0","f","NA","space","j","space","space","f","617","NA","3735","7936","5827","8763","617","2","legacy","1024","2","48000","-16","task","5219616","even","NA","25580","31322","27586","140652","4907","18685","12856","141155","127731","140649","141155","140591","31322","141773","23980","137591","4862","139091","Lexical Decision Task","39","30237","57","yes","1024"
"2.705007959","6.01","4","wept","word","67.24137931034483","67.24137931034483","530.8620689655172","530.8620689655172","black","no","legacy","legacy","legacy","0","uniform","0","undefined","undefined","undefined","0","j","0","0","0","0","57","0","0","0","57","0","53","57","53","0","53","3","57","0","57","Thu Feb 18 16:19:43 2021","The main experiment item","yes","Lexical_Decision_Task.osexp","/Users/zainab/Desktop","no","Andale Mono","no","18","no","white","no","yes","576","legacy","53","53","3","/Users/zainab/Desktop/subject-5219616.csv","legacy","Lentiform Loewenfeld","3.3.7","yes","yes","600bd7cfb6416f0113b04181","602110864497cf011d9c0822","0","f","NA","space","j","space","space","f","553","NA","3735","7936","5827","8763","553","2","legacy","1024","2","48000","-16","task","5219616","even","NA","25580","31322","27586","142337","4907","18685","12856","142840","127731","142334","142840","142277","31322","143394","23980","141777","4862","139091","Lexical Decision Task","39","30790","58","yes","1024"
"2.95456409","0","4","taud","non-word","67.79661016949153","67.79661016949153","533.0338983050848","533.0338983050848","black","no","legacy","legacy","legacy","0","uniform","1","undefined","undefined","undefined","1","f","0","0","0","0","58","0","0","0","58","0","54","58","54","0","54","3","58","0","58","Thu Feb 18 16:19:43 2021","The main experiment item","yes","Lexical_Decision_Task.osexp","/Users/zainab/Desktop","no","Andale Mono","no","18","no","white","no","yes","576","legacy","54","54","3","/Users/zainab/Desktop/subject-5219616.csv","legacy","Lentiform Loewenfeld","3.3.7","yes","yes","600bd7cfb6416f0113b04181","602110864497cf011d9c0822","0","f","NA","space","j","space","space","f","659","NA","3735","7936","5827","8763","659","2","legacy","1024","2","48000","-16","task","5219616","even","NA","25580","31322","27586","144956","4907","18685","12856","145460","127731","144954","145460","144897","31322","146120","23980","141777","4862","143396","Lexical Decision Task","40","31449","59","yes","1024"
"3.168400243","9.12","6","horn","word","68.33333333333333","68.33333333333333","534.6666666666666","534.6666666666666","black","no","legacy","legacy","legacy","0","uniform","1","undefined","undefined","undefined","1","j","0","0","0","0","59","0","0","0","59","0","55","59","55","0","55","3","59","0","59","Thu Feb 18 16:19:43 2021","The main experiment item","yes","Lexical_Decision_Task.osexp","/Users/zainab/Desktop","no","Andale Mono","no","18","no","white","no","yes","576","legacy","55","55","3","/Users/zainab/Desktop/subject-5219616.csv","legacy","Lentiform Loewenfeld","3.3.7","yes","yes","600bd7cfb6416f0113b04181","602110864497cf011d9c0822","0","j","NA","space","j","space","space","j","631","NA","3735","7936","5827","8763","631","2","legacy","1024","2","48000","-16","task","5219616","even","NA","25580","31322","27586","146681","4907","18685","12856","147184","127731","146679","147184","146623","31322","147817","23980","146123","4862","143396","Lexical Decision Task","41","32080","60","yes","1024"
"3.2757719","0","5","slea","non-word","68.85245901639344","68.85245901639344","534.1967213114754","534.1967213114754","black","no","legacy","legacy","legacy","0","uniform","1","undefined","undefined","undefined","1","f","0","0","0","0","60","0","0","0","60","0","56","60","56","0","56","3","60","0","60","Thu Feb 18 16:19:43 2021","The main experiment item","yes","Lexical_Decision_Task.osexp","/Users/zainab/Desktop","no","Andale Mono","no","18","no","white","no","yes","576","legacy","56","56","3","/Users/zainab/Desktop/subject-5219616.csv","legacy","Lentiform Loewenfeld","3.3.7","yes","yes","600bd7cfb6416f0113b04181","602110864497cf011d9c0822","0","f","NA","space","j","space","space","f","506","NA","3735","7936","5827","8763","506","2","legacy","1024","2","48000","-16","task","5219616","even","NA","25580","31322","27586","148379","4907","18685","12856","148882","127731","148376","148882","148320","31322","149389","23980","147820","4862","143396","Lexical Decision Task","42","32586","61","yes","1024"
"2.668385917","5.48","4","twig","word","67.74193548387096","67.74193548387096","535.5806451612904","535.5806451612904","black","no","legacy","legacy","legacy","0","uniform","0","undefined","undefined","undefined","0","j","0","0","0","0","61","0","0","0","61","0","57","61","57","0","57","3","61","0","61","Thu Feb 18 16:19:43 2021","The main experiment item","yes","Lexical_Decision_Task.osexp","/Users/zainab/Desktop","no","Andale Mono","no","18","no","white","no","yes","576","legacy","57","57","3","/Users/zainab/Desktop/subject-5219616.csv","legacy","Lentiform Loewenfeld","3.3.7","yes","yes","600bd7cfb6416f0113b04181","602110864497cf011d9c0822","0","f","NA","space","j","space","space","f","620","NA","3735","7936","5827","8763","620","2","legacy","1024","2","48000","-16","task","5219616","even","NA","25580","31322","27586","149951","4907","18685","12856","150454","127731","149948","150454","149893","31322","151076","23980","149393","4862","143396","Lexical Decision Task","42","33206","62","yes","1024"
"2.708989954","9.28","9","bowl","word","68.25396825396825","68.25396825396825","535.4920634920635","535.4920634920635","black","no","legacy","legacy","legacy","0","uniform","1","undefined","undefined","undefined","1","j","0","0","0","0","62","0","0","0","62","0","58","62","58","0","58","3","62","0","62","Thu Feb 18 16:19:43 2021","The main experiment item","yes","Lexical_Decision_Task.osexp","/Users/zainab/Desktop","no","Andale Mono","no","18","no","white","no","yes","576","legacy","58","58","3","/Users/zainab/Desktop/subject-5219616.csv","legacy","Lentiform Loewenfeld","3.3.7","yes","yes","600bd7cfb6416f0113b04181","602110864497cf011d9c0822","0","j","NA","space","j","space","space","j","530","NA","3735","7936","5827","8763","530","2","legacy","1024","2","48000","-16","task","5219616","even","NA","25580","31322","27586","152640","4907","18685","12856","153143","127731","152638","153143","152579","31322","153674","23980","149393","4862","151079","Lexical Decision Task","43","33736","63","yes","1024"
"3.374198258","0","8","vist","non-word","67.1875","67.1875","536.015625","536.015625","black","no","legacy","legacy","legacy","0","uniform","0","undefined","undefined","undefined","0","f","0","0","0","0","63","0","0","0","63","0","59","63","59","0","59","3","63","0","63","Thu Feb 18 16:19:43 2021","The main experiment item","yes","Lexical_Decision_Task.osexp","/Users/zainab/Desktop","no","Andale Mono","no","18","no","white","no","yes","576","legacy","59","59","3","/Users/zainab/Desktop/subject-5219616.csv","legacy","Lentiform Loewenfeld","3.3.7","yes","yes","600bd7cfb6416f0113b04181","602110864497cf011d9c0822","0","j","NA","space","j","space","space","j","569","NA","3735","7936","5827","8763","569","2","legacy","1024","2","48000","-16","task","5219616","even","NA","25580","31322","27586","154236","4907","18685","12856","154739","127731","154234","154739","154178","31322","155310","23980","153678","4862","151079","Lexical Decision Task","43","34305","64","yes","1024"
"3.259832699","0","9","flar","non-word","66.15384615384616","66.15384615384616","536.4615384615385","536.4615384615385","black","no","legacy","legacy","legacy","0","uniform","0","undefined","undefined","undefined","0","f","0","0","0","0","64","0","0","0","64","0","60","64","60","0","60","3","64","0","64","Thu Feb 18 16:19:43 2021","The main experiment item","yes","Lexical_Decision_Task.osexp","/Users/zainab/Desktop","no","Andale Mono","no","18","no","white","no","yes","576","legacy","60","60","3","/Users/zainab/Desktop/subject-5219616.csv","legacy","Lentiform Loewenfeld","3.3.7","yes","yes","600bd7cfb6416f0113b04181","602110864497cf011d9c0822","0","j","NA","space","j","space","space","j","565","NA","3735","7936","5827","8763","565","2","legacy","1024","2","48000","-16","task","5219616","even","NA","25580","31322","27586","156876","4907","18685","12856","157380","127731","156874","157380","156814","31322","157946","23980","153678","4862","155314","Lexical Decision Task","43","34870","65","yes","1024"
"3.090140555","5.81","8","pout","word","66.66666666666667","66.66666666666667","536.3030303030303","536.3030303030303","black","no","legacy","legacy","legacy","0","uniform","1","undefined","undefined","undefined","1","j","0","0","0","0","65","0","0","0","65","0","61","65","61","0","61","3","65","0","65","Thu Feb 18 16:19:43 2021","The main experiment item","yes","Lexical_Decision_Task.osexp","/Users/zainab/Desktop","no","Andale Mono","no","18","no","white","no","yes","576","legacy","61","61","3","/Users/zainab/Desktop/subject-5219616.csv","legacy","Lentiform Loewenfeld","3.3.7","yes","yes","600bd7cfb6416f0113b04181","602110864497cf011d9c0822","0","j","NA","space","j","space","space","j","526","NA","3735","7936","5827","8763","526","2","legacy","1024","2","48000","-16","task","5219616","even","NA","25580","31322","27586","159511","4907","18685","12856","160013","127731","159508","160013","159450","31322","160541","23980","153678","4862","157950","Lexical Decision Task","44","35396","66","yes","1024"
"2.778633532","0","3","jurp","non-word","67.16417910447761","67.16417910447761","535.7313432835821","535.7313432835821","black","no","legacy","legacy","legacy","0","uniform","1","undefined","undefined","undefined","1","f","0","0","0","0","66","0","0","0","66","0","62","66","62","0","62","3","66","0","66","Thu Feb 18 16:19:43 2021","The main experiment item","yes","Lexical_Decision_Task.osexp","/Users/zainab/Desktop","no","Andale Mono","no","18","no","white","no","yes","576","legacy","62","62","3","/Users/zainab/Desktop/subject-5219616.csv","legacy","Lentiform Loewenfeld","3.3.7","yes","yes","600bd7cfb6416f0113b04181","602110864497cf011d9c0822","0","f","NA","space","j","space","space","f","498","NA","3735","7936","5827","8763","498","2","legacy","1024","2","48000","-16","task","5219616","even","NA","25580","31322","27586","161103","4907","18685","12856","161605","127731","161100","161606","161045","31322","162105","23980","160545","4862","157950","Lexical Decision Task","45","35894","67","yes","1024"
"3.230789326","5.38","5","prim","word","66.17647058823529","66.17647058823529","534.4558823529412","534.4558823529412","black","no","legacy","legacy","legacy","0","uniform","0","undefined","undefined","undefined","0","j","0","0","0","0","67","0","0","0","67","0","63","67","63","0","63","3","67","0","67","Thu Feb 18 16:19:43 2021","The main experiment item","yes","Lexical_Decision_Task.osexp","/Users/zainab/Desktop","no","Andale Mono","no","18","no","white","no","yes","576","legacy","63","63","3","/Users/zainab/Desktop/subject-5219616.csv","legacy","Lentiform Loewenfeld","3.3.7","yes","yes","600bd7cfb6416f0113b04181","602110864497cf011d9c0822","0","f","NA","space","j","space","space","f","449","NA","3735","7936","5827","8763","449","2","legacy","1024","2","48000","-16","task","5219616","even","NA","25580","31322","27586","162669","4907","18685","12856","163172","127731","162666","163172","162609","31322","163623","23980","162109","4862","157950","Lexical Decision Task","45","36343","68","yes","1024"
"3.347850856","10.51","2","rich","word","66.66666666666667","66.66666666666667","534.4927536231884","534.4927536231884","black","no","legacy","legacy","legacy","0","uniform","1","undefined","undefined","undefined","1","j","0","0","0","0","68","0","0","0","68","0","64","68","64","0","64","3","68","0","68","Thu Feb 18 16:19:43 2021","The main experiment item","yes","Lexical_Decision_Task.osexp","/Users/zainab/Desktop","no","Andale Mono","no","18","no","white","no","yes","576","legacy","64","64","3","/Users/zainab/Desktop/subject-5219616.csv","legacy","Lentiform Loewenfeld","3.3.7","yes","yes","600bd7cfb6416f0113b04181","602110864497cf011d9c0822","0","j","NA","space","j","space","space","j","537","NA","3735","7936","5827","8763","537","2","legacy","1024","2","48000","-16","task","5219616","even","NA","25580","31322","27586","165188","4907","18685","12856","165691","127731","165185","165691","165126","31322","166230","23980","162109","4862","163626","Lexical Decision Task","46","36880","69","yes","1024"
"2.664328519","0","4","plux","non-word","65.71428571428571","65.71428571428571","536.3714285714286","536.3714285714286","black","no","legacy","legacy","legacy","0","uniform","0","undefined","undefined","undefined","0","f","0","0","0","0","69","0","0","0","69","0","65","69","65","0","65","3","69","0","69","Thu Feb 18 16:19:43 2021","The main experiment item","yes","Lexical_Decision_Task.osexp","/Users/zainab/Desktop","no","Andale Mono","no","18","no","white","no","yes","576","legacy","65","65","3","/Users/zainab/Desktop/subject-5219616.csv","legacy","Lentiform Loewenfeld","3.3.7","yes","yes","600bd7cfb6416f0113b04181","602110864497cf011d9c0822","0","j","NA","space","j","space","space","j","666","NA","3735","7936","5827","8763","666","2","legacy","1024","2","48000","-16","task","5219616","even","NA","25580","31322","27586","166792","4907","18685","12856","167295","127731","166790","167295","166734","31322","167963","23980","166234","4862","163626","Lexical Decision Task","46","37546","70","yes","1024"
"3.195807436","0","6","stup","non-word","66.19718309859155","66.19718309859155","539.7323943661971","539.7323943661971","black","no","legacy","legacy","legacy","0","uniform","1","undefined","undefined","undefined","1","f","0","0","0","0","70","0","0","0","70","0","66","70","66","0","66","3","70","0","70","Thu Feb 18 16:19:43 2021","The main experiment item","yes","Lexical_Decision_Task.osexp","/Users/zainab/Desktop","no","Andale Mono","no","18","no","white","no","yes","576","legacy","66","66","3","/Users/zainab/Desktop/subject-5219616.csv","legacy","Lentiform Loewenfeld","3.3.7","yes","yes","600bd7cfb6416f0113b04181","602110864497cf011d9c0822","0","f","NA","space","j","space","space","f","775","NA","3735","7936","5827","8763","775","2","legacy","1024","2","48000","-16","task","5219616","even","NA","25580","31322","27586","169528","4907","18685","12856","170031","127731","169526","170032","169467","31322","170808","23980","166234","4862","167966","Lexical Decision Task","47","38321","71","yes","1024"
"3.165936429","0","7","leps","non-word","65.27777777777777","65.27777777777777","540.2777777777778","540.2777777777778","black","no","legacy","legacy","legacy","0","uniform","0","undefined","undefined","undefined","0","f","0","0","0","0","71","0","0","0","71","0","67","71","67","0","67","3","71","0","71","Thu Feb 18 16:19:43 2021","The main experiment item","yes","Lexical_Decision_Task.osexp","/Users/zainab/Desktop","no","Andale Mono","no","18","no","white","no","yes","576","legacy","67","67","3","/Users/zainab/Desktop/subject-5219616.csv","legacy","Lentiform Loewenfeld","3.3.7","yes","yes","600bd7cfb6416f0113b04181","602110864497cf011d9c0822","0","j","NA","space","j","space","space","j","579","NA","3735","7936","5827","8763","579","2","legacy","1024","2","48000","-16","task","5219616","even","NA","25580","31322","27586","171370","4907","18685","12856","171873","127731","171367","171873","171312","31322","172453","23980","170812","4862","167966","Lexical Decision Task","47","38900","72","yes","1024"
"3.031812271","6.52","3","gulp","word","65.75342465753425","65.75342465753425","543.8082191780821","543.8082191780821","black","no","legacy","legacy","legacy","0","uniform","1","undefined","undefined","undefined","1","j","0","0","0","0","72","0","0","0","72","0","68","72","68","0","68","3","72","0","72","Thu Feb 18 16:19:43 2021","The main experiment item","yes","Lexical_Decision_Task.osexp","/Users/zainab/Desktop","no","Andale Mono","no","18","no","white","no","yes","576","legacy","68","68","3","/Users/zainab/Desktop/subject-5219616.csv","legacy","Lentiform Loewenfeld","3.3.7","yes","yes","600bd7cfb6416f0113b04181","602110864497cf011d9c0822","0","j","NA","space","j","space","space","j","798","NA","3735","7936","5827","8763","798","2","legacy","1024","2","48000","-16","task","5219616","even","NA","25580","31322","27586","174019","4907","18685","12856","174522","127731","174016","174522","173957","31322","175321","23980","170812","4862","172457","Lexical Decision Task","48","39698","73","yes","1024"
"2.675164031","8.57","6","glue","word","66.21621621621621","66.21621621621621","544.7567567567568","544.7567567567568","black","no","legacy","legacy","legacy","0","uniform","1","undefined","undefined","undefined","1","j","0","0","0","0","73","0","0","0","73","0","69","73","69","0","69","3","73","0","73","Thu Feb 18 16:19:43 2021","The main experiment item","yes","Lexical_Decision_Task.osexp","/Users/zainab/Desktop","no","Andale Mono","no","18","no","white","no","yes","576","legacy","69","69","3","/Users/zainab/Desktop/subject-5219616.csv","legacy","Lentiform Loewenfeld","3.3.7","yes","yes","600bd7cfb6416f0113b04181","602110864497cf011d9c0822","0","j","NA","space","j","space","space","j","614","NA","3735","7936","5827","8763","614","2","legacy","1024","2","48000","-16","task","5219616","even","NA","25580","31322","27586","175884","4907","18685","12856","176386","127731","175882","176387","175825","31322","177002","23980","175325","4862","172457","Lexical Decision Task","49","40312","74","yes","1024"
"3.378276681","6.39","8","bran","word","65.33333333333333","65.33333333333333","545.6533333333333","545.6533333333333","black","no","legacy","legacy","legacy","0","uniform","0","undefined","undefined","undefined","0","j","0","0","0","0","74","0","0","0","74","0","70","74","70","0","70","3","74","0","74","Thu Feb 18 16:19:43 2021","The main experiment item","yes","Lexical_Decision_Task.osexp","/Users/zainab/Desktop","no","Andale Mono","no","18","no","white","no","yes","576","legacy","70","70","3","/Users/zainab/Desktop/subject-5219616.csv","legacy","Lentiform Loewenfeld","3.3.7","yes","yes","600bd7cfb6416f0113b04181","602110864497cf011d9c0822","0","f","NA","space","j","space","space","f","612","NA","3735","7936","5827","8763","612","2","legacy","1024","2","48000","-16","task","5219616","even","NA","25580","31322","27586","177565","4907","18685","12856","178067","127731","177562","178068","177506","31322","178682","23980","177006","4862","172457","Lexical Decision Task","49","40924","75","yes","1024"
"3.049218023","7.4","9","robe","word","65.78947368421052","65.78947368421052","545.6447368421053","545.6447368421053","black","no","legacy","legacy","legacy","0","uniform","1","undefined","undefined","undefined","1","j","0","0","0","0","75","0","0","0","75","0","71","75","71","0","71","3","75","0","75","Thu Feb 18 16:19:43 2021","The main experiment item","yes","Lexical_Decision_Task.osexp","/Users/zainab/Desktop","no","Andale Mono","no","18","no","white","no","yes","576","legacy","71","71","3","/Users/zainab/Desktop/subject-5219616.csv","legacy","Lentiform Loewenfeld","3.3.7","yes","yes","600bd7cfb6416f0113b04181","602110864497cf011d9c0822","0","j","NA","space","j","space","space","j","545","NA","3735","7936","5827","8763","545","2","legacy","1024","2","48000","-16","task","5219616","even","NA","25580","31322","27586","180247","4907","18685","12856","180750","127731","180244","180750","180186","31322","181296","23980","177006","4862","178686","Lexical Decision Task","50","41469","76","yes","1024"
"3.119255889","6.63","2","itch","word","66.23376623376623","66.23376623376623","547.4415584415584","547.4415584415584","black","no","legacy","legacy","legacy","0","uniform","1","undefined","undefined","undefined","1","j","0","0","0","0","76","0","0","0","76","0","72","76","72","0","72","3","76","0","76","Thu Feb 18 16:19:43 2021","The main experiment item","yes","Lexical_Decision_Task.osexp","/Users/zainab/Desktop","no","Andale Mono","no","18","no","white","no","yes","576","legacy","72","72","3","/Users/zainab/Desktop/subject-5219616.csv","legacy","Lentiform Loewenfeld","3.3.7","yes","yes","600bd7cfb6416f0113b04181","602110864497cf011d9c0822","0","j","NA","space","j","space","space","j","684","NA","3735","7936","5827","8763","684","2","legacy","1024","2","48000","-16","task","5219616","even","NA","25580","31322","27586","181858","4907","18685","12856","182362","127731","181856","182362","181800","31322","183047","23980","181300","4862","178686","Lexical Decision Task","51","42153","77","yes","1024"
"2.845304797","0","6","buct","non-word","66.66666666666667","66.66666666666667","547.025641025641","547.025641025641","black","no","legacy","legacy","legacy","0","uniform","1","undefined","undefined","undefined","1","f","0","0","0","0","77","0","0","0","77","0","73","77","73","0","73","3","77","0","77","Thu Feb 18 16:19:43 2021","The main experiment item","yes","Lexical_Decision_Task.osexp","/Users/zainab/Desktop","no","Andale Mono","no","18","no","white","no","yes","576","legacy","73","73","3","/Users/zainab/Desktop/subject-5219616.csv","legacy","Lentiform Loewenfeld","3.3.7","yes","yes","600bd7cfb6416f0113b04181","602110864497cf011d9c0822","0","f","NA","space","j","space","space","f","515","NA","3735","7936","5827","8763","515","2","legacy","1024","2","48000","-16","task","5219616","even","NA","25580","31322","27586","183610","4907","18685","12856","184113","127731","183608","184113","183552","31322","184630","23980","183052","4862","178686","Lexical Decision Task","52","42668","78","yes","1024"
"2.714888338","0","3","brug","non-word","65.82278481012658","65.82278481012658","546.8481012658228","546.8481012658228","black","no","legacy","legacy","legacy","0","uniform","0","undefined","undefined","undefined","0","f","0","0","0","0","78","0","0","0","78","0","74","78","74","0","74","3","78","0","78","Thu Feb 18 16:19:43 2021","The main experiment item","yes","Lexical_Decision_Task.osexp","/Users/zainab/Desktop","no","Andale Mono","no","18","no","white","no","yes","576","legacy","74","74","3","/Users/zainab/Desktop/subject-5219616.csv","legacy","Lentiform Loewenfeld","3.3.7","yes","yes","600bd7cfb6416f0113b04181","602110864497cf011d9c0822","0","j","NA","space","j","space","space","j","533","NA","3735","7936","5827","8763","533","2","legacy","1024","2","48000","-16","task","5219616","even","NA","25580","31322","27586","185191","4907","18685","12856","185694","127731","185189","185694","185133","31322","186229","23980","184633","4862","178686","Lexical Decision Task","52","43201","79","yes","1024"
"3.208978517","10.33","4","fish","word","66.25","66.25","545.575","545.575","black","no","legacy","legacy","legacy","0","uniform","1","undefined","undefined","undefined","1","j","0","0","0","0","79","0","0","0","79","0","75","79","75","0","75","3","79","0","79","Thu Feb 18 16:19:43 2021","The main experiment item","yes","Lexical_Decision_Task.osexp","/Users/zainab/Desktop","no","Andale Mono","no","18","no","white","no","yes","576","legacy","75","75","3","/Users/zainab/Desktop/subject-5219616.csv","legacy","Lentiform Loewenfeld","3.3.7","yes","yes","600bd7cfb6416f0113b04181","602110864497cf011d9c0822","0","j","NA","space","j","space","space","j","445","NA","3735","7936","5827","8763","445","2","legacy","1024","2","48000","-16","task","5219616","even","NA","25580","31322","27586","187794","4907","18685","12856","188297","127731","187792","188297","187733","31322","188743","23980","184633","4862","186233","Lexical Decision Task","53","43646","80","yes","1024"
"2.803231716","5.26","3","kiln","word","65.4320987654321","65.4320987654321","545.1234567901234","545.1234567901234","black","no","legacy","legacy","legacy","0","uniform","0","undefined","undefined","undefined","0","j","0","0","0","0","80","0","0","0","80","0","76","80","76","0","76","3","80","0","80","Thu Feb 18 16:19:43 2021","The main experiment item","yes","Lexical_Decision_Task.osexp","/Users/zainab/Desktop","no","Andale Mono","no","18","no","white","no","yes","576","legacy","76","76","3","/Users/zainab/Desktop/subject-5219616.csv","legacy","Lentiform Loewenfeld","3.3.7","yes","yes","600bd7cfb6416f0113b04181","602110864497cf011d9c0822","0","f","NA","space","j","space","space","f","509","NA","3735","7936","5827","8763","509","2","legacy","1024","2","48000","-16","task","5219616","even","NA","25580","31322","27586","189307","4907","18685","12856","189810","127731","189305","189810","189247","31322","190320","23980","188747","4862","186233","Lexical Decision Task","53","44155","81","yes","1024"
"2.971428938","9.86","7","spot","word","65.85365853658537","65.85365853658537","544.9024390243902","544.9024390243902","black","no","legacy","legacy","legacy","0","uniform","1","undefined","undefined","undefined","1","j","0","0","0","0","81","0","0","0","81","0","77","81","77","0","77","3","81","0","81","Thu Feb 18 16:19:43 2021","The main experiment item","yes","Lexical_Decision_Task.osexp","/Users/zainab/Desktop","no","Andale Mono","no","18","no","white","no","yes","576","legacy","77","77","3","/Users/zainab/Desktop/subject-5219616.csv","legacy","Lentiform Loewenfeld","3.3.7","yes","yes","600bd7cfb6416f0113b04181","602110864497cf011d9c0822","0","j","NA","space","j","space","space","j","527","NA","3735","7936","5827","8763","527","2","legacy","1024","2","48000","-16","task","5219616","even","NA","25580","31322","27586","191886","4907","18685","12856","192389","127731","191883","192389","191824","31322","192918","23980","188747","4862","190324","Lexical Decision Task","54","44682","82","yes","1024"
"2.868644438","10.52","4","town","word","66.26506024096386","66.26506024096386","544.5903614457832","544.5903614457832","black","no","legacy","legacy","legacy","0","uniform","1","undefined","undefined","undefined","1","j","0","0","0","0","82","0","0","0","82","0","78","82","78","0","78","3","82","0","82","Thu Feb 18 16:19:43 2021","The main experiment item","yes","Lexical_Decision_Task.osexp","/Users/zainab/Desktop","no","Andale Mono","no","18","no","white","no","yes","576","legacy","78","78","3","/Users/zainab/Desktop/subject-5219616.csv","legacy","Lentiform Loewenfeld","3.3.7","yes","yes","600bd7cfb6416f0113b04181","602110864497cf011d9c0822","0","j","NA","space","j","space","space","j","519","NA","3735","7936","5827","8763","519","2","legacy","1024","2","48000","-16","task","5219616","even","NA","25580","31322","27586","193479","4907","18685","12856","193982","127731","193477","193982","193422","31322","194503","23980","192921","4862","190324","Lexical Decision Task","55","45201","83","yes","1024"
"3.218535505","7.85","7","goat","word","66.66666666666667","66.66666666666667","544.2142857142857","544.2142857142857","black","no","legacy","legacy","legacy","0","uniform","1","undefined","undefined","undefined","1","j","0","0","0","0","83","0","0","0","83","0","79","83","79","0","79","3","83","0","83","Thu Feb 18 16:19:43 2021","The main experiment item","yes","Lexical_Decision_Task.osexp","/Users/zainab/Desktop","no","Andale Mono","no","18","no","white","no","yes","576","legacy","79","79","3","/Users/zainab/Desktop/subject-5219616.csv","legacy","Lentiform Loewenfeld","3.3.7","yes","yes","600bd7cfb6416f0113b04181","602110864497cf011d9c0822","0","j","NA","space","j","space","space","j","513","NA","3735","7936","5827","8763","513","2","legacy","1024","2","48000","-16","task","5219616","even","NA","25580","31322","27586","195064","4907","18685","12856","195567","127731","195062","195567","195006","31322","196082","23980","194506","4862","190324","Lexical Decision Task","56","45714","84","yes","1024"
"3.16326079","0","5","parg","non-word","67.05882352941177","67.05882352941177","544.1882352941177","544.1882352941177","black","no","legacy","legacy","legacy","0","uniform","1","undefined","undefined","undefined","1","f","0","0","0","0","84","0","0","0","84","0","80","84","80","0","80","3","84","0","84","Thu Feb 18 16:19:43 2021","The main experiment item","yes","Lexical_Decision_Task.osexp","/Users/zainab/Desktop","no","Andale Mono","no","18","no","white","no","yes","576","legacy","80","80","3","/Users/zainab/Desktop/subject-5219616.csv","legacy","Lentiform Loewenfeld","3.3.7","yes","yes","600bd7cfb6416f0113b04181","602110864497cf011d9c0822","0","f","NA","space","j","space","space","f","542","NA","3735","7936","5827","8763","542","2","legacy","1024","2","48000","-16","task","5219616","even","NA","25580","31322","27586","196644","4907","18685","12856","197147","127731","196642","197147","196586","31322","197690","23980","196086","4862","190324","Lexical Decision Task","57","46256","85","yes","1024"
"3.216517684","10.87","3","film","word","67.44186046511628","67.44186046511628","544.8023255813954","544.8023255813954","black","no","legacy","legacy","legacy","0","uniform","1","undefined","undefined","undefined","1","j","0","0","0","0","85","0","0","0","85","0","81","85","81","0","81","3","85","0","85","Thu Feb 18 16:19:43 2021","The main experiment item","yes","Lexical_Decision_Task.osexp","/Users/zainab/Desktop","no","Andale Mono","no","18","no","white","no","yes","576","legacy","81","81","3","/Users/zainab/Desktop/subject-5219616.csv","legacy","Lentiform Loewenfeld","3.3.7","yes","yes","600bd7cfb6416f0113b04181","602110864497cf011d9c0822","0","j","NA","space","j","space","space","j","597","NA","3735","7936","5827","8763","597","2","legacy","1024","2","48000","-16","task","5219616","even","NA","25580","31322","27586","198253","4907","18685","12856","198756","127731","198250","198756","198194","31322","199355","23980","197694","4862","190324","Lexical Decision Task","58","46853","86","yes","1024"
"2.907588697","8.91","9","mood","word","67.816091954023","67.816091954023","544.1724137931035","544.1724137931035","black","no","legacy","legacy","legacy","0","uniform","1","undefined","undefined","undefined","1","j","0","0","0","0","86","0","0","0","86","0","82","86","82","0","82","3","86","0","86","Thu Feb 18 16:19:43 2021","The main experiment item","yes","Lexical_Decision_Task.osexp","/Users/zainab/Desktop","no","Andale Mono","no","18","no","white","no","yes","576","legacy","82","82","3","/Users/zainab/Desktop/subject-5219616.csv","legacy","Lentiform Loewenfeld","3.3.7","yes","yes","600bd7cfb6416f0113b04181","602110864497cf011d9c0822","0","j","NA","space","j","space","space","j","490","NA","3735","7936","5827","8763","490","2","legacy","1024","2","48000","-16","task","5219616","even","NA","25580","31322","27586","199917","4907","18685","12856","200420","127731","199914","200420","199858","31322","200912","23980","199358","4862","190324","Lexical Decision Task","59","47343","87","yes","1024"
"3.443783828","7.65","3","verb","word","68.18181818181819","68.18181818181819","543.7272727272727","543.7272727272727","black","no","legacy","legacy","legacy","0","uniform","1","undefined","undefined","undefined","1","j","0","0","0","0","87","0","0","0","87","0","83","87","83","0","83","3","87","0","87","Thu Feb 18 16:19:43 2021","The main experiment item","yes","Lexical_Decision_Task.osexp","/Users/zainab/Desktop","no","Andale Mono","no","18","no","white","no","yes","576","legacy","83","83","3","/Users/zainab/Desktop/subject-5219616.csv","legacy","Lentiform Loewenfeld","3.3.7","yes","yes","600bd7cfb6416f0113b04181","602110864497cf011d9c0822","0","j","NA","space","j","space","space","j","505","NA","3735","7936","5827","8763","505","2","legacy","1024","2","48000","-16","task","5219616","even","NA","25580","31322","27586","201474","4907","18685","12856","201977","127731","201471","201977","201416","31322","202484","23980","200915","4862","190324","Lexical Decision Task","60","47848","88","yes","1024"
"3.159867847","5.98","5","brim","word","67.41573033707866","67.41573033707866","543.9101123595506","543.9101123595506","black","no","legacy","legacy","legacy","0","uniform","0","undefined","undefined","undefined","0","j","0","0","0","0","88","0","0","0","88","0","84","88","84","0","84","3","88","0","88","Thu Feb 18 16:19:43 2021","The main experiment item","yes","Lexical_Decision_Task.osexp","/Users/zainab/Desktop","no","Andale Mono","no","18","no","white","no","yes","576","legacy","84","84","3","/Users/zainab/Desktop/subject-5219616.csv","legacy","Lentiform Loewenfeld","3.3.7","yes","yes","600bd7cfb6416f0113b04181","602110864497cf011d9c0822","0","f","NA","space","j","space","space","f","560","NA","3735","7936","5827","8763","560","2","legacy","1024","2","48000","-16","task","5219616","even","NA","25580","31322","27586","203047","4907","18685","12856","203550","127731","203045","203550","202989","31322","204112","23980","202489","4862","190324","Lexical Decision Task","60","48408","89","yes","1024"
"3.481012421","8.34","5","teen","word","67.77777777777777","67.77777777777777","544.8333333333334","544.8333333333334","black","no","legacy","legacy","legacy","0","uniform","1","undefined","undefined","undefined","1","j","0","0","0","0","89","0","0","0","89","0","85","89","85","0","85","3","89","0","89","Thu Feb 18 16:19:43 2021","The main experiment item","yes","Lexical_Decision_Task.osexp","/Users/zainab/Desktop","no","Andale Mono","no","18","no","white","no","yes","576","legacy","85","85","3","/Users/zainab/Desktop/subject-5219616.csv","legacy","Lentiform Loewenfeld","3.3.7","yes","yes","600bd7cfb6416f0113b04181","602110864497cf011d9c0822","0","j","NA","space","j","space","space","j","627","NA","3735","7936","5827","8763","627","2","legacy","1024","2","48000","-16","task","5219616","even","NA","25580","31322","27586","205678","4907","18685","12856","206181","127731","205675","206181","205615","31322","206810","23980","202489","4862","204115","Lexical Decision Task","61","49035","90","yes","1024"
"3.082307743","9.68","8","camp","word","68.13186813186813","68.13186813186813","544.6483516483516","544.6483516483516","black","no","legacy","legacy","legacy","0","uniform","1","undefined","undefined","undefined","1","j","0","0","0","0","90","0","0","0","90","0","86","90","86","0","86","3","90","0","90","Thu Feb 18 16:19:43 2021","The main experiment item","yes","Lexical_Decision_Task.osexp","/Users/zainab/Desktop","no","Andale Mono","no","18","no","white","no","yes","576","legacy","86","86","3","/Users/zainab/Desktop/subject-5219616.csv","legacy","Lentiform Loewenfeld","3.3.7","yes","yes","600bd7cfb6416f0113b04181","602110864497cf011d9c0822","0","j","NA","space","j","space","space","j","528","NA","3735","7936","5827","8763","528","2","legacy","1024","2","48000","-16","task","5219616","even","NA","25580","31322","27586","207372","4907","18685","12856","207875","127731","207369","207875","207313","31322","208405","23980","206813","4862","204115","Lexical Decision Task","62","49563","91","yes","1024"
"2.981215883","10.66","5","hair","word","68.47826086956522","68.47826086956522","543.4021739130435","543.4021739130435","black","no","legacy","legacy","legacy","0","uniform","1","undefined","undefined","undefined","1","j","0","0","0","0","91","0","0","0","91","0","87","91","87","0","87","3","91","0","91","Thu Feb 18 16:19:43 2021","The main experiment item","yes","Lexical_Decision_Task.osexp","/Users/zainab/Desktop","no","Andale Mono","no","18","no","white","no","yes","576","legacy","87","87","3","/Users/zainab/Desktop/subject-5219616.csv","legacy","Lentiform Loewenfeld","3.3.7","yes","yes","600bd7cfb6416f0113b04181","602110864497cf011d9c0822","0","j","NA","space","j","space","space","j","430","NA","3735","7936","5827","8763","430","2","legacy","1024","2","48000","-16","task","5219616","even","NA","25580","31322","27586","208967","4907","18685","12856","209470","127731","208965","209470","208909","31322","209902","23980","208409","4862","204115","Lexical Decision Task","63","49993","92","yes","1024"
"3.299579929","0","2","flis","non-word","68.81720430107526","68.81720430107526","544.2688172043011","544.2688172043011","black","no","legacy","legacy","legacy","0","uniform","1","undefined","undefined","undefined","1","f","0","0","0","0","92","0","0","0","92","0","88","92","88","0","88","3","92","0","92","Thu Feb 18 16:19:43 2021","The main experiment item","yes","Lexical_Decision_Task.osexp","/Users/zainab/Desktop","no","Andale Mono","no","18","no","white","no","yes","576","legacy","88","88","3","/Users/zainab/Desktop/subject-5219616.csv","legacy","Lentiform Loewenfeld","3.3.7","yes","yes","600bd7cfb6416f0113b04181","602110864497cf011d9c0822","0","f","NA","space","j","space","space","f","624","NA","3735","7936","5827","8763","624","2","legacy","1024","2","48000","-16","task","5219616","even","NA","25580","31322","27586","210463","4907","18685","12856","210966","127731","210460","210966","210405","31322","211592","23980","209905","4862","204115","Lexical Decision Task","64","50617","93","yes","1024"
"3.252447662","9.67","9","boat","word","69.14893617021276","69.14893617021276","543.2872340425532","543.2872340425532","black","no","legacy","legacy","legacy","0","uniform","1","undefined","undefined","undefined","1","j","0","0","0","0","93","0","0","0","93","0","89","93","89","0","89","3","93","0","93","Thu Feb 18 16:19:43 2021","The main experiment item","yes","Lexical_Decision_Task.osexp","/Users/zainab/Desktop","no","Andale Mono","no","18","no","white","no","yes","576","legacy","89","89","3","/Users/zainab/Desktop/subject-5219616.csv","legacy","Lentiform Loewenfeld","3.3.7","yes","yes","600bd7cfb6416f0113b04181","602110864497cf011d9c0822","0","j","NA","space","j","space","space","j","452","NA","3735","7936","5827","8763","452","2","legacy","1024","2","48000","-16","task","5219616","even","NA","25580","31322","27586","212153","4907","18685","12856","212656","127731","212151","212656","212096","31322","213110","23980","211596","4862","204115","Lexical Decision Task","65","51069","94","yes","1024"
"2.7084209","0","8","vump","non-word","69.47368421052632","69.47368421052632","543.6210526315789","543.6210526315789","black","no","legacy","legacy","legacy","0","uniform","1","undefined","undefined","undefined","1","f","0","0","0","0","94","0","0","0","94","0","90","94","90","0","90","3","94","0","94","Thu Feb 18 16:19:43 2021","The main experiment item","yes","Lexical_Decision_Task.osexp","/Users/zainab/Desktop","no","Andale Mono","no","18","no","white","no","yes","576","legacy","90","90","3","/Users/zainab/Desktop/subject-5219616.csv","legacy","Lentiform Loewenfeld","3.3.7","yes","yes","600bd7cfb6416f0113b04181","602110864497cf011d9c0822","0","f","NA","space","j","space","space","f","575","NA","3735","7936","5827","8763","575","2","legacy","1024","2","48000","-16","task","5219616","even","NA","25580","31322","27586","213672","4907","18685","12856","214175","127731","213670","214175","213614","31322","214751","23980","213114","4862","204115","Lexical Decision Task","66","51644","95","yes","1024"
"2.696356389","0","1","pizz","non-word","69.79166666666667","69.79166666666667","546.0104166666666","546.0104166666666","black","no","legacy","legacy","legacy","0","uniform","1","undefined","undefined","undefined","1","f","0","0","0","0","95","0","0","0","95","0","91","95","91","0","91","3","95","0","95","Thu Feb 18 16:19:43 2021","The main experiment item","yes","Lexical_Decision_Task.osexp","/Users/zainab/Desktop","no","Andale Mono","no","18","no","white","no","yes","576","legacy","91","91","3","/Users/zainab/Desktop/subject-5219616.csv","legacy","Lentiform Loewenfeld","3.3.7","yes","yes","600bd7cfb6416f0113b04181","602110864497cf011d9c0822","0","f","NA","space","j","space","space","f","773","NA","3735","7936","5827","8763","773","2","legacy","1024","2","48000","-16","task","5219616","even","NA","25580","31322","27586","215314","4907","18685","12856","215817","127731","215311","215817","215255","31322","216592","23980","214755","4862","204115","Lexical Decision Task","67","52417","96","yes","1024"
"3.353210739","0","9","reet","non-word","70.10309278350516","70.10309278350516","546.2061855670103","546.2061855670103","black","no","legacy","legacy","legacy","0","uniform","1","undefined","undefined","undefined","1","f","0","0","0","0","96","0","0","0","96","0","92","96","92","0","92","3","96","0","96","Thu Feb 18 16:19:43 2021","The main experiment item","yes","Lexical_Decision_Task.osexp","/Users/zainab/Desktop","no","Andale Mono","no","18","no","white","no","yes","576","legacy","92","92","3","/Users/zainab/Desktop/subject-5219616.csv","legacy","Lentiform Loewenfeld","3.3.7","yes","yes","600bd7cfb6416f0113b04181","602110864497cf011d9c0822","0","f","NA","space","j","space","space","f","565","NA","3735","7936","5827","8763","565","2","legacy","1024","2","48000","-16","task","5219616","even","NA","25580","31322","27586","217155","4907","18685","12856","217658","127731","217153","217658","217096","31322","218224","23980","216596","4862","204115","Lexical Decision Task","68","52982","97","yes","1024"
"2.842815106","7.86","8","lump","word","70.40816326530613","70.40816326530613","550.5714285714286","550.5714285714286","black","no","legacy","legacy","legacy","0","uniform","1","undefined","undefined","undefined","1","j","0","0","0","0","97","0","0","0","97","0","93","97","93","0","93","3","97","0","97","Thu Feb 18 16:19:43 2021","The main experiment item","yes","Lexical_Decision_Task.osexp","/Users/zainab/Desktop","no","Andale Mono","no","18","no","white","no","yes","576","legacy","93","93","3","/Users/zainab/Desktop/subject-5219616.csv","legacy","Lentiform Loewenfeld","3.3.7","yes","yes","600bd7cfb6416f0113b04181","602110864497cf011d9c0822","0","j","NA","space","j","space","space","j","974","NA","3735","7936","5827","8763","974","2","legacy","1024","2","48000","-16","task","5219616","even","NA","25580","31322","27586","218785","4907","18685","12856","219288","127731","218783","219288","218728","31322","220263","23980","218228","4862","204115","Lexical Decision Task","69","53956","98","yes","1024"
"3.20871002","7.15","8","cram","word","70.70707070707071","70.70707070707071","552.1212121212121","552.1212121212121","black","no","legacy","legacy","legacy","0","uniform","1","undefined","undefined","undefined","1","j","0","0","0","0","98","0","0","0","98","0","94","98","94","0","94","3","98","0","98","Thu Feb 18 16:19:43 2021","The main experiment item","yes","Lexical_Decision_Task.osexp","/Users/zainab/Desktop","no","Andale Mono","no","18","no","white","no","yes","576","legacy","94","94","3","/Users/zainab/Desktop/subject-5219616.csv","legacy","Lentiform Loewenfeld","3.3.7","yes","yes","600bd7cfb6416f0113b04181","602110864497cf011d9c0822","0","j","NA","space","j","space","space","j","704","NA","3735","7936","5827","8763","704","2","legacy","1024","2","48000","-16","task","5219616","even","NA","25580","31322","27586","220825","4907","18685","12856","221328","127731","220823","221328","220767","31322","222033","23980","220267","4862","204115","Lexical Decision Task","70","54660","99","yes","1024"
"3.209246849","0","7","slem","non-word","71","71","552.63","552.63","black","no","legacy","legacy","legacy","0","uniform","1","undefined","undefined","undefined","1","f","0","0","0","0","99","0","0","0","99","0","95","99","95","0","95","3","99","0","99","Thu Feb 18 16:19:43 2021","The main experiment item","yes","Lexical_Decision_Task.osexp","/Users/zainab/Desktop","no","Andale Mono","no","18","no","white","no","yes","576","legacy","95","95","3","/Users/zainab/Desktop/subject-5219616.csv","legacy","Lentiform Loewenfeld","3.3.7","yes","yes","600bd7cfb6416f0113b04181","602110864497cf011d9c0822","0","f","NA","space","j","space","space","f","603","NA","3735","7936","5827","8763","603","2","legacy","1024","2","48000","-16","task","5219616","even","NA","25580","31322","27586","222596","4907","18685","12856","223098","127731","222593","223098","222538","31322","223702","23980","222037","4862","204115","Lexical Decision Task","71","55263","100","yes","1024"
"3.140404328","10.66","9","deep","word","71.2871287128713","71.2871287128713","553.2376237623762","553.2376237623762","black","no","legacy","legacy","legacy","0","uniform","1","undefined","undefined","undefined","1","j","0","0","0","0","100","0","0","0","100","0","96","100","96","0","96","3","100","0","100","Thu Feb 18 16:19:43 2021","The main experiment item","yes","Lexical_Decision_Task.osexp","/Users/zainab/Desktop","no","Andale Mono","no","18","no","white","no","yes","576","legacy","96","96","3","/Users/zainab/Desktop/subject-5219616.csv","legacy","Lentiform Loewenfeld","3.3.7","yes","yes","600bd7cfb6416f0113b04181","602110864497cf011d9c0822","0","j","NA","space","j","space","space","j","614","NA","3735","7936","5827","8763","614","2","legacy","1024","2","48000","-16","task","5219616","even","NA","25580","31322","27586","224264","4907","18685","12856","224767","127731","224262","224767","224206","31322","225382","23980","223706","4862","204115","Lexical Decision Task","72","55877","101","yes","1024"
