"Log_BG","Log_Freq_HAL","Ortho_N","Stimulus","Type","acc","accuracy","average_response_time","avg_rt","background","bidi","canvas_backend","clock_backend","color_backend","compensation","coordinates","correct","correct_Experimental_intro","correct_Introduction","correct_Practice_intro","correct_experimenter_kb","correct_response","count_End_Of_Experiment","count_End_Of_Practice","count_Experimental_Loop","count_Experimental_intro","count_Fixation","count_Introduction","count_Practice_Loop","count_Practice_intro","count_Stimulus","count_block_break_feedback","count_experimental_sequence","count_experimenter_kb","count_increment_trial_count","count_init_trial_count","count_logger","count_practice_sequence","count_right","count_task","count_wrong","datetime","description","disable_garbage_collection","experiment_file","experiment_path","font_bold","font_family","font_italic","font_size","font_underline","foreground","form_clicks","fullscreen","height","keyboard_backend","live_row","live_row_Experimental_Loop","live_row_Practice_Loop","logfile","mouse_backend","opensesame_codename","opensesame_version","osf_always_upload_data","osf_always_upload_experiment","osf_datanode_id","osf_id","repeat_cycle","response","response_End_Of_Experiment","response_Experimental_intro","response_Introduction","response_Practice_intro","response_block_break_feedback","response_experimenter_kb","response_time","response_time_End_Of_Experiment","response_time_Experimental_intro","response_time_Introduction","response_time_Practice_intro","response_time_block_break_feedback","response_time_experimenter_kb","round_decimals","sampler_backend","sound_buf_size","sound_channels","sound_freq","sound_sample_size","start","subject_nr","subject_parity","time_End_Of_Experiment","time_End_Of_Practice","time_Experimental_Loop","time_Experimental_intro","time_Fixation","time_Introduction","time_Practice_Loop","time_Practice_intro","time_Stimulus","time_block_break_feedback","time_experimental_sequence","time_experimenter_kb","time_increment_trial_count","time_init_trial_count","time_logger","time_practice_sequence","time_right","time_task","time_wrong","title","total_correct","total_response_time","total_responses","uniform_coordinates","width"
"2.952953801","0","8","clax","non-word","100","100","856.2","856.2","black","no","legacy","legacy","legacy","0","uniform","1","undefined","undefined","undefined","1","f","0","0","0","0","4","0","0","0","4","NA","0","4","0","0","0","3","4","0","4","Fri Feb 19 16:49:59 2021","The main experiment item","yes","Lexical_Decision_Task.osexp","/Users/amberhook/Documents/YEAR 2/COG PSYCH /Asessment ","no","Andale Mono","no","18","no","white","no","yes","576","legacy","0","0","3","/Users/amberhook/Documents/YEAR 2/COG PSYCH /Asessment /subject-5220412 LDT.csv","legacy","Lentiform Loewenfeld","3.3.7","yes","yes","600bd7cfb6416f0113b04181","602110864497cf011d9c0822","0","f","NA","j","space","space","NA","f","1040","NA","6356","15152","6451","NA","1040","2","legacy","1024","2","48000","-16","task","5220412","even","NA","36488","44846","38489","44870","7407","29021","22569","45372","NA","44867","45372","NA","44846","46413","34776","35965","7337","NA","Lexical Decision Task","5","4281","5","yes","1024"
"3.307211407","6.07","7","honk","word","100","100","832.1666666666666","832.1666666666666","black","no","legacy","legacy","legacy","0","uniform","1","undefined","undefined","undefined","1","j","0","0","0","0","5","0","0","0","5","NA","1","5","1","0","1","3","5","0","5","Fri Feb 19 16:49:59 2021","The main experiment item","yes","Lexical_Decision_Task.osexp","/Users/amberhook/Documents/YEAR 2/COG PSYCH /Asessment ","no","Andale Mono","no","18","no","white","no","yes","576","legacy","1","1","3","/Users/amberhook/Documents/YEAR 2/COG PSYCH /Asessment /subject-5220412 LDT.csv","legacy","Lentiform Loewenfeld","3.3.7","yes","yes","600bd7cfb6416f0113b04181","602110864497cf011d9c0822","0","j","NA","j","space","space","NA","j","712","NA","6356","15152","6451","NA","712","2","legacy","1024","2","48000","-16","task","5220412","even","NA","36488","44846","38489","46964","7407","29021","22569","47466","NA","46962","47466","46920","44846","48179","34776","46420","7337","NA","Lexical Decision Task","6","4993","6","yes","1024"
"2.897810299","0","5","glur","non-word","100","100","818.7142857142857","818.7142857142857","black","no","legacy","legacy","legacy","0","uniform","1","undefined","undefined","undefined","1","f","0","0","0","0","6","0","0","0","6","NA","2","6","2","0","2","3","6","0","6","Fri Feb 19 16:49:59 2021","The main experiment item","yes","Lexical_Decision_Task.osexp","/Users/amberhook/Documents/YEAR 2/COG PSYCH /Asessment ","no","Andale Mono","no","18","no","white","no","yes","576","legacy","2","2","3","/Users/amberhook/Documents/YEAR 2/COG PSYCH /Asessment /subject-5220412 LDT.csv","legacy","Lentiform Loewenfeld","3.3.7","yes","yes","600bd7cfb6416f0113b04181","602110864497cf011d9c0822","0","f","NA","j","space","space","NA","f","738","NA","6356","15152","6451","NA","738","2","legacy","1024","2","48000","-16","task","5220412","even","NA","36488","44846","38489","48726","7407","29021","22569","49228","NA","48724","49228","48683","44846","49967","34776","48183","7337","NA","Lexical Decision Task","7","5731","7","yes","1024"
"3.066077331","0","7","vorn","non-word","100","100","823.375","823.375","black","no","legacy","legacy","legacy","0","uniform","1","undefined","undefined","undefined","1","f","0","0","0","0","7","0","0","0","7","NA","3","7","3","0","3","3","7","0","7","Fri Feb 19 16:49:59 2021","The main experiment item","yes","Lexical_Decision_Task.osexp","/Users/amberhook/Documents/YEAR 2/COG PSYCH /Asessment ","no","Andale Mono","no","18","no","white","no","yes","576","legacy","3","3","3","/Users/amberhook/Documents/YEAR 2/COG PSYCH /Asessment /subject-5220412 LDT.csv","legacy","Lentiform Loewenfeld","3.3.7","yes","yes","600bd7cfb6416f0113b04181","602110864497cf011d9c0822","0","f","NA","j","space","space","NA","f","856","NA","6356","15152","6451","NA","856","2","legacy","1024","2","48000","-16","task","5220412","even","NA","36488","44846","38489","50514","7407","29021","22569","51016","NA","50511","51016","50471","44846","51873","34776","49971","7337","NA","Lexical Decision Task","8","6587","8","yes","1024"
"2.990042563","6.64","9","plow","word","100","100","794.6666666666666","794.6666666666666","black","no","legacy","legacy","legacy","0","uniform","1","undefined","undefined","undefined","1","j","0","0","0","0","8","0","0","0","8","NA","4","8","4","0","4","3","8","0","8","Fri Feb 19 16:49:59 2021","The main experiment item","yes","Lexical_Decision_Task.osexp","/Users/amberhook/Documents/YEAR 2/COG PSYCH /Asessment ","no","Andale Mono","no","18","no","white","no","yes","576","legacy","4","4","3","/Users/amberhook/Documents/YEAR 2/COG PSYCH /Asessment /subject-5220412 LDT.csv","legacy","Lentiform Loewenfeld","3.3.7","yes","yes","600bd7cfb6416f0113b04181","602110864497cf011d9c0822","0","j","NA","j","space","space","NA","j","565","NA","6356","15152","6451","NA","565","2","legacy","1024","2","48000","-16","task","5220412","even","NA","36488","44846","38489","52420","7407","29021","22569","52921","NA","52418","52922","52377","44846","53488","34776","51877","7337","NA","Lexical Decision Task","9","7152","9","yes","1024"
"3.261341392","5.08","8","reek","word","100","100","783","783","black","no","legacy","legacy","legacy","0","uniform","1","undefined","undefined","undefined","1","j","0","0","0","0","9","0","0","0","9","NA","5","9","5","0","5","3","9","0","9","Fri Feb 19 16:49:59 2021","The main experiment item","yes","Lexical_Decision_Task.osexp","/Users/amberhook/Documents/YEAR 2/COG PSYCH /Asessment ","no","Andale Mono","no","18","no","white","no","yes","576","legacy","5","5","3","/Users/amberhook/Documents/YEAR 2/COG PSYCH /Asessment /subject-5220412 LDT.csv","legacy","Lentiform Loewenfeld","3.3.7","yes","yes","600bd7cfb6416f0113b04181","602110864497cf011d9c0822","0","j","NA","j","space","space","NA","j","678","NA","6356","15152","6451","NA","678","2","legacy","1024","2","48000","-16","task","5220412","even","NA","36488","44846","38489","54040","7407","29021","22569","54541","NA","54037","54542","53992","44846","55221","34776","53492","7337","NA","Lexical Decision Task","10","7830","10","yes","1024"
"2.675164031","8.57","6","glue","word","100","100","759.9090909090909","759.9090909090909","black","no","legacy","legacy","legacy","0","uniform","1","undefined","undefined","undefined","1","j","0","0","0","0","10","0","0","0","10","NA","6","10","6","0","6","3","10","0","10","Fri Feb 19 16:49:59 2021","The main experiment item","yes","Lexical_Decision_Task.osexp","/Users/amberhook/Documents/YEAR 2/COG PSYCH /Asessment ","no","Andale Mono","no","18","no","white","no","yes","576","legacy","6","6","3","/Users/amberhook/Documents/YEAR 2/COG PSYCH /Asessment /subject-5220412 LDT.csv","legacy","Lentiform Loewenfeld","3.3.7","yes","yes","600bd7cfb6416f0113b04181","602110864497cf011d9c0822","0","j","NA","j","space","space","NA","j","529","NA","6356","15152","6451","NA","529","2","legacy","1024","2","48000","-16","task","5220412","even","NA","36488","44846","38489","55767","7407","29021","22569","56269","NA","55765","56269","55725","44846","56799","34776","55224","7337","NA","Lexical Decision Task","11","8359","11","yes","1024"
"3.366547468","0","6","plat","non-word","91.66666666666667","91.66666666666667","769.9166666666666","769.9166666666666","black","no","legacy","legacy","legacy","0","uniform","0","undefined","undefined","undefined","0","f","0","0","0","0","11","0","0","0","11","NA","7","11","7","0","7","3","11","0","11","Fri Feb 19 16:49:59 2021","The main experiment item","yes","Lexical_Decision_Task.osexp","/Users/amberhook/Documents/YEAR 2/COG PSYCH /Asessment ","no","Andale Mono","no","18","no","white","no","yes","576","legacy","7","7","3","/Users/amberhook/Documents/YEAR 2/COG PSYCH /Asessment /subject-5220412 LDT.csv","legacy","Lentiform Loewenfeld","3.3.7","yes","yes","600bd7cfb6416f0113b04181","602110864497cf011d9c0822","0","j","NA","j","space","space","NA","j","880","NA","6356","15152","6451","NA","880","2","legacy","1024","2","48000","-16","task","5220412","even","NA","36488","44846","38489","57345","7407","29021","22569","57847","NA","57343","57847","57303","44846","58728","34776","56803","7337","NA","Lexical Decision Task","11","9239","12","yes","1024"
"3.067070856","9.39","3","loud","word","92.3076923076923","92.3076923076923","756.8461538461538","756.8461538461538","black","no","legacy","legacy","legacy","0","uniform","1","undefined","undefined","undefined","1","j","0","0","0","0","12","0","0","0","12","NA","8","12","8","0","8","3","12","0","12","Fri Feb 19 16:49:59 2021","The main experiment item","yes","Lexical_Decision_Task.osexp","/Users/amberhook/Documents/YEAR 2/COG PSYCH /Asessment ","no","Andale Mono","no","18","no","white","no","yes","576","legacy","8","8","3","/Users/amberhook/Documents/YEAR 2/COG PSYCH /Asessment /subject-5220412 LDT.csv","legacy","Lentiform Loewenfeld","3.3.7","yes","yes","600bd7cfb6416f0113b04181","602110864497cf011d9c0822","0","j","NA","j","space","space","NA","j","600","NA","6356","15152","6451","NA","600","2","legacy","1024","2","48000","-16","task","5220412","even","NA","36488","44846","38489","60277","7407","29021","22569","60779","NA","60275","60779","60232","44846","61381","34776","56803","7337","58732","Lexical Decision Task","12","9839","13","yes","1024"
"2.807758206","6.25","4","hurl","word","92.85714285714286","92.85714285714286","755.8571428571429","755.8571428571429","black","no","legacy","legacy","legacy","0","uniform","1","undefined","undefined","undefined","1","j","0","0","0","0","13","0","0","0","13","NA","9","13","9","0","9","3","13","0","13","Fri Feb 19 16:49:59 2021","The main experiment item","yes","Lexical_Decision_Task.osexp","/Users/amberhook/Documents/YEAR 2/COG PSYCH /Asessment ","no","Andale Mono","no","18","no","white","no","yes","576","legacy","9","9","3","/Users/amberhook/Documents/YEAR 2/COG PSYCH /Asessment /subject-5220412 LDT.csv","legacy","Lentiform Loewenfeld","3.3.7","yes","yes","600bd7cfb6416f0113b04181","602110864497cf011d9c0822","0","j","NA","j","space","space","NA","j","743","NA","6356","15152","6451","NA","743","2","legacy","1024","2","48000","-16","task","5220412","even","NA","36488","44846","38489","61927","7407","29021","22569","62429","NA","61925","62429","61885","44846","63173","34776","61385","7337","58732","Lexical Decision Task","13","10582","14","yes","1024"
"2.64476673","0","5","moft","non-word","93.33333333333333","93.33333333333333","738.5333333333333","738.5333333333333","black","no","legacy","legacy","legacy","0","uniform","1","undefined","undefined","undefined","1","f","0","0","0","0","14","0","0","0","14","NA","10","14","10","0","10","3","14","0","14","Fri Feb 19 16:49:59 2021","The main experiment item","yes","Lexical_Decision_Task.osexp","/Users/amberhook/Documents/YEAR 2/COG PSYCH /Asessment ","no","Andale Mono","no","18","no","white","no","yes","576","legacy","10","10","3","/Users/amberhook/Documents/YEAR 2/COG PSYCH /Asessment /subject-5220412 LDT.csv","legacy","Lentiform Loewenfeld","3.3.7","yes","yes","600bd7cfb6416f0113b04181","602110864497cf011d9c0822","0","f","NA","j","space","space","NA","f","496","NA","6356","15152","6451","NA","496","2","legacy","1024","2","48000","-16","task","5220412","even","NA","36488","44846","38489","63718","7407","29021","22569","64220","NA","63716","64220","63675","44846","64717","34776","63175","7337","58732","Lexical Decision Task","14","11078","15","yes","1024"
"2.9737419","7.69","7","claw","word","93.75","93.75","726.6875","726.6875","black","no","legacy","legacy","legacy","0","uniform","1","undefined","undefined","undefined","1","j","0","0","0","0","15","0","0","0","15","NA","11","15","11","0","11","3","15","0","15","Fri Feb 19 16:49:59 2021","The main experiment item","yes","Lexical_Decision_Task.osexp","/Users/amberhook/Documents/YEAR 2/COG PSYCH /Asessment ","no","Andale Mono","no","18","no","white","no","yes","576","legacy","11","11","3","/Users/amberhook/Documents/YEAR 2/COG PSYCH /Asessment /subject-5220412 LDT.csv","legacy","Lentiform Loewenfeld","3.3.7","yes","yes","600bd7cfb6416f0113b04181","602110864497cf011d9c0822","0","j","NA","j","space","space","NA","j","549","NA","6356","15152","6451","NA","549","2","legacy","1024","2","48000","-16","task","5220412","even","NA","36488","44846","38489","65265","7407","29021","22569","65768","NA","65264","65768","65222","44846","66318","34776","64722","7337","58732","Lexical Decision Task","15","11627","16","yes","1024"
"3.081107167","0","6","chot","non-word","94.11764705882354","94.11764705882354","713.3529411764706","713.3529411764706","black","no","legacy","legacy","legacy","0","uniform","1","undefined","undefined","undefined","1","f","0","0","0","0","16","0","0","0","16","NA","12","16","12","0","12","3","16","0","16","Fri Feb 19 16:49:59 2021","The main experiment item","yes","Lexical_Decision_Task.osexp","/Users/amberhook/Documents/YEAR 2/COG PSYCH /Asessment ","no","Andale Mono","no","18","no","white","no","yes","576","legacy","12","12","3","/Users/amberhook/Documents/YEAR 2/COG PSYCH /Asessment /subject-5220412 LDT.csv","legacy","Lentiform Loewenfeld","3.3.7","yes","yes","600bd7cfb6416f0113b04181","602110864497cf011d9c0822","0","f","NA","j","space","space","NA","f","500","NA","6356","15152","6451","NA","500","2","legacy","1024","2","48000","-16","task","5220412","even","NA","36488","44846","38489","66863","7407","29021","22569","67366","NA","66861","67366","66820","44846","67867","34776","66320","7337","58732","Lexical Decision Task","16","12127","17","yes","1024"
"2.6599162","0","2","saff","non-word","94.44444444444444","94.44444444444444","723.6111111111111","723.6111111111111","black","no","legacy","legacy","legacy","0","uniform","1","undefined","undefined","undefined","1","f","0","0","0","0","17","0","0","0","17","NA","13","17","13","0","13","3","17","0","17","Fri Feb 19 16:49:59 2021","The main experiment item","yes","Lexical_Decision_Task.osexp","/Users/amberhook/Documents/YEAR 2/COG PSYCH /Asessment ","no","Andale Mono","no","18","no","white","no","yes","576","legacy","13","13","3","/Users/amberhook/Documents/YEAR 2/COG PSYCH /Asessment /subject-5220412 LDT.csv","legacy","Lentiform Loewenfeld","3.3.7","yes","yes","600bd7cfb6416f0113b04181","602110864497cf011d9c0822","0","f","NA","j","space","space","NA","f","898","NA","6356","15152","6451","NA","898","2","legacy","1024","2","48000","-16","task","5220412","even","NA","36488","44846","38489","68414","7407","29021","22569","68916","NA","68412","68916","68372","44846","69815","34776","67871","7337","58732","Lexical Decision Task","17","13025","18","yes","1024"
"2.980911938","7.15","7","hoop","word","94.73684210526316","94.73684210526316","720.0526315789474","720.0526315789474","black","no","legacy","legacy","legacy","0","uniform","1","undefined","undefined","undefined","1","j","0","0","0","0","18","0","0","0","18","NA","14","18","14","0","14","3","18","0","18","Fri Feb 19 16:49:59 2021","The main experiment item","yes","Lexical_Decision_Task.osexp","/Users/amberhook/Documents/YEAR 2/COG PSYCH /Asessment ","no","Andale Mono","no","18","no","white","no","yes","576","legacy","14","14","3","/Users/amberhook/Documents/YEAR 2/COG PSYCH /Asessment /subject-5220412 LDT.csv","legacy","Lentiform Loewenfeld","3.3.7","yes","yes","600bd7cfb6416f0113b04181","602110864497cf011d9c0822","0","j","NA","j","space","space","NA","j","656","NA","6356","15152","6451","NA","656","2","legacy","1024","2","48000","-16","task","5220412","even","NA","36488","44846","38489","70361","7407","29021","22569","70863","NA","70360","70863","70319","44846","71520","34776","69819","7337","58732","Lexical Decision Task","18","13681","19","yes","1024"
"2.784379519","0","2","snaf","non-word","95","95","712.1","712.1","black","no","legacy","legacy","legacy","0","uniform","1","undefined","undefined","undefined","1","f","0","0","0","0","19","0","0","0","19","NA","15","19","15","0","15","3","19","0","19","Fri Feb 19 16:49:59 2021","The main experiment item","yes","Lexical_Decision_Task.osexp","/Users/amberhook/Documents/YEAR 2/COG PSYCH /Asessment ","no","Andale Mono","no","18","no","white","no","yes","576","legacy","15","15","3","/Users/amberhook/Documents/YEAR 2/COG PSYCH /Asessment /subject-5220412 LDT.csv","legacy","Lentiform Loewenfeld","3.3.7","yes","yes","600bd7cfb6416f0113b04181","602110864497cf011d9c0822","0","f","NA","j","space","space","NA","f","561","NA","6356","15152","6451","NA","561","2","legacy","1024","2","48000","-16","task","5220412","even","NA","36488","44846","38489","72066","7407","29021","22569","72568","NA","72064","72568","72024","44846","73130","34776","71524","7337","58732","Lexical Decision Task","19","14242","20","yes","1024"
"2.868644438","10.52","4","town","word","95.23809523809524","95.23809523809524","702.2857142857143","702.2857142857143","black","no","legacy","legacy","legacy","0","uniform","1","undefined","undefined","undefined","1","j","0","0","0","0","20","0","0","0","20","NA","16","20","16","0","16","3","20","0","20","Fri Feb 19 16:49:59 2021","The main experiment item","yes","Lexical_Decision_Task.osexp","/Users/amberhook/Documents/YEAR 2/COG PSYCH /Asessment ","no","Andale Mono","no","18","no","white","no","yes","576","legacy","16","16","3","/Users/amberhook/Documents/YEAR 2/COG PSYCH /Asessment /subject-5220412 LDT.csv","legacy","Lentiform Loewenfeld","3.3.7","yes","yes","600bd7cfb6416f0113b04181","602110864497cf011d9c0822","0","j","NA","j","space","space","NA","j","506","NA","6356","15152","6451","NA","506","2","legacy","1024","2","48000","-16","task","5220412","even","NA","36488","44846","38489","73676","7407","29021","22569","74178","NA","73674","74178","73634","44846","74685","34776","73134","7337","58732","Lexical Decision Task","20","14748","21","yes","1024"
"2.698100546","0","9","mulk","non-word","95.45454545454545","95.45454545454545","696.3636363636364","696.3636363636364","black","no","legacy","legacy","legacy","0","uniform","1","undefined","undefined","undefined","1","f","0","0","0","0","21","0","0","0","21","NA","17","21","17","0","17","3","21","0","21","Fri Feb 19 16:49:59 2021","The main experiment item","yes","Lexical_Decision_Task.osexp","/Users/amberhook/Documents/YEAR 2/COG PSYCH /Asessment ","no","Andale Mono","no","18","no","white","no","yes","576","legacy","17","17","3","/Users/amberhook/Documents/YEAR 2/COG PSYCH /Asessment /subject-5220412 LDT.csv","legacy","Lentiform Loewenfeld","3.3.7","yes","yes","600bd7cfb6416f0113b04181","602110864497cf011d9c0822","0","f","NA","j","space","space","NA","f","572","NA","6356","15152","6451","NA","572","2","legacy","1024","2","48000","-16","task","5220412","even","NA","36488","44846","38489","75231","7407","29021","22569","75733","NA","75229","75733","75189","44846","76306","34776","74689","7337","58732","Lexical Decision Task","21","15320","22","yes","1024"
"3.384413096","10.15","3","glad","word","95.65217391304348","95.65217391304348","697.5652173913044","697.5652173913044","black","no","legacy","legacy","legacy","0","uniform","1","undefined","undefined","undefined","1","j","0","0","0","0","22","0","0","0","22","NA","18","22","18","0","18","3","22","0","22","Fri Feb 19 16:49:59 2021","The main experiment item","yes","Lexical_Decision_Task.osexp","/Users/amberhook/Documents/YEAR 2/COG PSYCH /Asessment ","no","Andale Mono","no","18","no","white","no","yes","576","legacy","18","18","3","/Users/amberhook/Documents/YEAR 2/COG PSYCH /Asessment /subject-5220412 LDT.csv","legacy","Lentiform Loewenfeld","3.3.7","yes","yes","600bd7cfb6416f0113b04181","602110864497cf011d9c0822","0","j","NA","j","space","space","NA","j","724","NA","6356","15152","6451","NA","724","2","legacy","1024","2","48000","-16","task","5220412","even","NA","36488","44846","38489","76852","7407","29021","22569","77354","NA","76850","77354","76810","44846","78079","34776","76310","7337","58732","Lexical Decision Task","22","16044","23","yes","1024"
"3.039414119","0","9","meep","non-word","95.83333333333333","95.83333333333333","700.0416666666666","700.0416666666666","black","no","legacy","legacy","legacy","0","uniform","1","undefined","undefined","undefined","1","f","0","0","0","0","23","0","0","0","23","NA","19","23","19","0","19","3","23","0","23","Fri Feb 19 16:49:59 2021","The main experiment item","yes","Lexical_Decision_Task.osexp","/Users/amberhook/Documents/YEAR 2/COG PSYCH /Asessment ","no","Andale Mono","no","18","no","white","no","yes","576","legacy","19","19","3","/Users/amberhook/Documents/YEAR 2/COG PSYCH /Asessment /subject-5220412 LDT.csv","legacy","Lentiform Loewenfeld","3.3.7","yes","yes","600bd7cfb6416f0113b04181","602110864497cf011d9c0822","0","f","NA","j","space","space","NA","f","757","NA","6356","15152","6451","NA","757","2","legacy","1024","2","48000","-16","task","5220412","even","NA","36488","44846","38489","78625","7407","29021","22569","79127","NA","78623","79127","78583","44846","79885","34776","78083","7337","58732","Lexical Decision Task","23","16801","24","yes","1024"
"3.488597715","0","9","nain","non-word","96","96","703.72","703.72","black","no","legacy","legacy","legacy","0","uniform","1","undefined","undefined","undefined","1","f","0","0","0","0","24","0","0","0","24","NA","20","24","20","0","20","3","24","0","24","Fri Feb 19 16:49:59 2021","The main experiment item","yes","Lexical_Decision_Task.osexp","/Users/amberhook/Documents/YEAR 2/COG PSYCH /Asessment ","no","Andale Mono","no","18","no","white","no","yes","576","legacy","20","20","3","/Users/amberhook/Documents/YEAR 2/COG PSYCH /Asessment /subject-5220412 LDT.csv","legacy","Lentiform Loewenfeld","3.3.7","yes","yes","600bd7cfb6416f0113b04181","602110864497cf011d9c0822","0","f","NA","j","space","space","NA","f","792","NA","6356","15152","6451","NA","792","2","legacy","1024","2","48000","-16","task","5220412","even","NA","36488","44846","38489","80432","7407","29021","22569","80934","NA","80430","80934","80389","44846","81727","34776","79889","7337","58732","Lexical Decision Task","24","17593","25","yes","1024"
"2.576725172","0","8","gowl","non-word","96.15384615384616","96.15384615384616","705.9615384615385","705.9615384615385","black","no","legacy","legacy","legacy","0","uniform","1","undefined","undefined","undefined","1","f","0","0","0","0","25","0","0","0","25","NA","21","25","21","0","21","3","25","0","25","Fri Feb 19 16:49:59 2021","The main experiment item","yes","Lexical_Decision_Task.osexp","/Users/amberhook/Documents/YEAR 2/COG PSYCH /Asessment ","no","Andale Mono","no","18","no","white","no","yes","576","legacy","21","21","3","/Users/amberhook/Documents/YEAR 2/COG PSYCH /Asessment /subject-5220412 LDT.csv","legacy","Lentiform Loewenfeld","3.3.7","yes","yes","600bd7cfb6416f0113b04181","602110864497cf011d9c0822","0","f","NA","j","space","space","NA","f","762","NA","6356","15152","6451","NA","762","2","legacy","1024","2","48000","-16","task","5220412","even","NA","36488","44846","38489","82273","7407","29021","22569","82775","NA","82272","82775","82231","44846","83538","34776","81731","7337","58732","Lexical Decision Task","25","18355","26","yes","1024"
"2.67699827","0","6","hulf","non-word","96.29629629629629","96.29629629629629","702.9629629629629","702.9629629629629","black","no","legacy","legacy","legacy","0","uniform","1","undefined","undefined","undefined","1","f","0","0","0","0","26","0","0","0","26","NA","22","26","22","0","22","3","26","0","26","Fri Feb 19 16:49:59 2021","The main experiment item","yes","Lexical_Decision_Task.osexp","/Users/amberhook/Documents/YEAR 2/COG PSYCH /Asessment ","no","Andale Mono","no","18","no","white","no","yes","576","legacy","22","22","3","/Users/amberhook/Documents/YEAR 2/COG PSYCH /Asessment /subject-5220412 LDT.csv","legacy","Lentiform Loewenfeld","3.3.7","yes","yes","600bd7cfb6416f0113b04181","602110864497cf011d9c0822","0","f","NA","j","space","space","NA","f","625","NA","6356","15152","6451","NA","625","2","legacy","1024","2","48000","-16","task","5220412","even","NA","36488","44846","38489","84084","7407","29021","22569","84586","NA","84082","84586","84042","44846","85212","34776","83542","7337","58732","Lexical Decision Task","26","18980","27","yes","1024"
"2.971428938","9.86","7","spot","word","96.42857142857143","96.42857142857143","698.6071428571429","698.6071428571429","black","no","legacy","legacy","legacy","0","uniform","1","undefined","undefined","undefined","1","j","0","0","0","0","27","0","0","0","27","NA","23","27","23","0","23","3","27","0","27","Fri Feb 19 16:49:59 2021","The main experiment item","yes","Lexical_Decision_Task.osexp","/Users/amberhook/Documents/YEAR 2/COG PSYCH /Asessment ","no","Andale Mono","no","18","no","white","no","yes","576","legacy","23","23","3","/Users/amberhook/Documents/YEAR 2/COG PSYCH /Asessment /subject-5220412 LDT.csv","legacy","Lentiform Loewenfeld","3.3.7","yes","yes","600bd7cfb6416f0113b04181","602110864497cf011d9c0822","0","j","NA","j","space","space","NA","j","581","NA","6356","15152","6451","NA","581","2","legacy","1024","2","48000","-16","task","5220412","even","NA","36488","44846","38489","85759","7407","29021","22569","86261","NA","85757","86261","85717","44846","86843","34776","85217","7337","58732","Lexical Decision Task","27","19561","28","yes","1024"
"3.194328374","9.42","6","harm","word","96.55172413793103","96.55172413793103","696.3793103448276","696.3793103448276","black","no","legacy","legacy","legacy","0","uniform","1","undefined","undefined","undefined","1","j","0","0","0","0","28","0","0","0","28","NA","24","28","24","0","24","3","28","0","28","Fri Feb 19 16:49:59 2021","The main experiment item","yes","Lexical_Decision_Task.osexp","/Users/amberhook/Documents/YEAR 2/COG PSYCH /Asessment ","no","Andale Mono","no","18","no","white","no","yes","576","legacy","24","24","3","/Users/amberhook/Documents/YEAR 2/COG PSYCH /Asessment /subject-5220412 LDT.csv","legacy","Lentiform Loewenfeld","3.3.7","yes","yes","600bd7cfb6416f0113b04181","602110864497cf011d9c0822","0","j","NA","j","space","space","NA","j","634","NA","6356","15152","6451","NA","634","2","legacy","1024","2","48000","-16","task","5220412","even","NA","36488","44846","38489","87388","7407","29021","22569","87890","NA","87386","87890","87347","44846","88525","34776","86847","7337","58732","Lexical Decision Task","28","20195","29","yes","1024"
"3.263399331","0","8","cour","non-word","96.66666666666667","96.66666666666667","690.6","690.6","black","no","legacy","legacy","legacy","0","uniform","1","undefined","undefined","undefined","1","f","0","0","0","0","29","0","0","0","29","NA","25","29","25","0","25","3","29","0","29","Fri Feb 19 16:49:59 2021","The main experiment item","yes","Lexical_Decision_Task.osexp","/Users/amberhook/Documents/YEAR 2/COG PSYCH /Asessment ","no","Andale Mono","no","18","no","white","no","yes","576","legacy","25","25","3","/Users/amberhook/Documents/YEAR 2/COG PSYCH /Asessment /subject-5220412 LDT.csv","legacy","Lentiform Loewenfeld","3.3.7","yes","yes","600bd7cfb6416f0113b04181","602110864497cf011d9c0822","0","f","NA","j","space","space","NA","f","523","NA","6356","15152","6451","NA","523","2","legacy","1024","2","48000","-16","task","5220412","even","NA","36488","44846","38489","89071","7407","29021","22569","89573","NA","89069","89573","89029","44846","90097","34776","88529","7337","58732","Lexical Decision Task","29","20718","30","yes","1024"
"2.966923697","5.4","2","fume","word","93.54838709677419","93.54838709677419","690.0967741935484","690.0967741935484","black","no","legacy","legacy","legacy","0","uniform","0","undefined","undefined","undefined","0","j","0","0","0","0","30","0","0","0","30","NA","26","30","26","0","26","3","30","0","30","Fri Feb 19 16:49:59 2021","The main experiment item","yes","Lexical_Decision_Task.osexp","/Users/amberhook/Documents/YEAR 2/COG PSYCH /Asessment ","no","Andale Mono","no","18","no","white","no","yes","576","legacy","26","26","3","/Users/amberhook/Documents/YEAR 2/COG PSYCH /Asessment /subject-5220412 LDT.csv","legacy","Lentiform Loewenfeld","3.3.7","yes","yes","600bd7cfb6416f0113b04181","602110864497cf011d9c0822","0","f","NA","j","space","space","NA","f","675","NA","6356","15152","6451","NA","675","2","legacy","1024","2","48000","-16","task","5220412","even","NA","36488","44846","38489","90644","7407","29021","22569","91146","NA","90642","91146","90602","44846","91822","34776","90102","7337","58732","Lexical Decision Task","29","21393","31","yes","1024"
"3.368162872","0","4","ferk","non-word","93.75","93.75","689.53125","689.53125","black","no","legacy","legacy","legacy","0","uniform","1","undefined","undefined","undefined","1","f","0","0","0","0","31","0","0","0","31","NA","27","31","27","0","27","3","31","0","31","Fri Feb 19 16:49:59 2021","The main experiment item","yes","Lexical_Decision_Task.osexp","/Users/amberhook/Documents/YEAR 2/COG PSYCH /Asessment ","no","Andale Mono","no","18","no","white","no","yes","576","legacy","27","27","3","/Users/amberhook/Documents/YEAR 2/COG PSYCH /Asessment /subject-5220412 LDT.csv","legacy","Lentiform Loewenfeld","3.3.7","yes","yes","600bd7cfb6416f0113b04181","602110864497cf011d9c0822","0","f","NA","j","space","space","NA","f","672","NA","6356","15152","6451","NA","672","2","legacy","1024","2","48000","-16","task","5220412","even","NA","36488","44846","38489","93368","7407","29021","22569","93869","NA","93366","93870","93326","44846","94543","34776","90102","7337","91826","Lexical Decision Task","30","22065","32","yes","1024"
"3.153001286","8.7","5","palm","word","93.93939393939394","93.93939393939394","685.969696969697","685.969696969697","black","no","legacy","legacy","legacy","0","uniform","1","undefined","undefined","undefined","1","j","0","0","0","0","32","0","0","0","32","NA","28","32","28","0","28","3","32","0","32","Fri Feb 19 16:49:59 2021","The main experiment item","yes","Lexical_Decision_Task.osexp","/Users/amberhook/Documents/YEAR 2/COG PSYCH /Asessment ","no","Andale Mono","no","18","no","white","no","yes","576","legacy","28","28","3","/Users/amberhook/Documents/YEAR 2/COG PSYCH /Asessment /subject-5220412 LDT.csv","legacy","Lentiform Loewenfeld","3.3.7","yes","yes","600bd7cfb6416f0113b04181","602110864497cf011d9c0822","0","j","NA","j","space","space","NA","j","572","NA","6356","15152","6451","NA","572","2","legacy","1024","2","48000","-16","task","5220412","even","NA","36488","44846","38489","95090","7407","29021","22569","95592","NA","95088","95592","95048","44846","96165","34776","94548","7337","91826","Lexical Decision Task","31","22637","33","yes","1024"
"3.303771854","0","9","dath","non-word","94.11764705882354","94.11764705882354","683.9705882352941","683.9705882352941","black","no","legacy","legacy","legacy","0","uniform","1","undefined","undefined","undefined","1","f","0","0","0","0","33","0","0","0","33","NA","29","33","29","0","29","3","33","0","33","Fri Feb 19 16:49:59 2021","The main experiment item","yes","Lexical_Decision_Task.osexp","/Users/amberhook/Documents/YEAR 2/COG PSYCH /Asessment ","no","Andale Mono","no","18","no","white","no","yes","576","legacy","29","29","3","/Users/amberhook/Documents/YEAR 2/COG PSYCH /Asessment /subject-5220412 LDT.csv","legacy","Lentiform Loewenfeld","3.3.7","yes","yes","600bd7cfb6416f0113b04181","602110864497cf011d9c0822","0","f","NA","j","space","space","NA","f","618","NA","6356","15152","6451","NA","618","2","legacy","1024","2","48000","-16","task","5220412","even","NA","36488","44846","38489","96723","7407","29021","22569","97225","NA","96720","97225","96669","44846","97844","34776","96169","7337","91826","Lexical Decision Task","32","23255","34","yes","1024"
"3.443783828","7.65","3","verb","word","94.28571428571429","94.28571428571429","683.3142857142857","683.3142857142857","black","no","legacy","legacy","legacy","0","uniform","1","undefined","undefined","undefined","1","j","0","0","0","0","34","0","0","0","34","NA","30","34","30","0","30","3","34","0","34","Fri Feb 19 16:49:59 2021","The main experiment item","yes","Lexical_Decision_Task.osexp","/Users/amberhook/Documents/YEAR 2/COG PSYCH /Asessment ","no","Andale Mono","no","18","no","white","no","yes","576","legacy","30","30","3","/Users/amberhook/Documents/YEAR 2/COG PSYCH /Asessment /subject-5220412 LDT.csv","legacy","Lentiform Loewenfeld","3.3.7","yes","yes","600bd7cfb6416f0113b04181","602110864497cf011d9c0822","0","j","NA","j","space","space","NA","j","661","NA","6356","15152","6451","NA","661","2","legacy","1024","2","48000","-16","task","5220412","even","NA","36488","44846","38489","98390","7407","29021","22569","98892","NA","98388","98892","98348","44846","99554","34776","97848","7337","91826","Lexical Decision Task","33","23916","35","yes","1024"
"3.431095062","5.74","9","perk","word","91.66666666666667","91.66666666666667","678.6666666666666","678.6666666666666","black","no","legacy","legacy","legacy","0","uniform","0","undefined","undefined","undefined","0","j","0","0","0","0","35","0","0","0","35","NA","31","35","31","0","31","3","35","0","35","Fri Feb 19 16:49:59 2021","The main experiment item","yes","Lexical_Decision_Task.osexp","/Users/amberhook/Documents/YEAR 2/COG PSYCH /Asessment ","no","Andale Mono","no","18","no","white","no","yes","576","legacy","31","31","3","/Users/amberhook/Documents/YEAR 2/COG PSYCH /Asessment /subject-5220412 LDT.csv","legacy","Lentiform Loewenfeld","3.3.7","yes","yes","600bd7cfb6416f0113b04181","602110864497cf011d9c0822","0","f","NA","j","space","space","NA","f","516","NA","6356","15152","6451","NA","516","2","legacy","1024","2","48000","-16","task","5220412","even","NA","36488","44846","38489","100100","7407","29021","22569","100602","NA","100098","100602","100058","44846","101119","34776","99558","7337","91826","Lexical Decision Task","33","24432","36","yes","1024"
"3.311895072","0","9","gung","non-word","91.89189189189189","91.89189189189189","678.5945945945946","678.5945945945946","black","no","legacy","legacy","legacy","0","uniform","1","undefined","undefined","undefined","1","f","0","0","0","0","36","0","0","0","36","NA","32","36","32","0","32","3","36","0","36","Fri Feb 19 16:49:59 2021","The main experiment item","yes","Lexical_Decision_Task.osexp","/Users/amberhook/Documents/YEAR 2/COG PSYCH /Asessment ","no","Andale Mono","no","18","no","white","no","yes","576","legacy","32","32","3","/Users/amberhook/Documents/YEAR 2/COG PSYCH /Asessment /subject-5220412 LDT.csv","legacy","Lentiform Loewenfeld","3.3.7","yes","yes","600bd7cfb6416f0113b04181","602110864497cf011d9c0822","0","f","NA","j","space","space","NA","f","676","NA","6356","15152","6451","NA","676","2","legacy","1024","2","48000","-16","task","5220412","even","NA","36488","44846","38489","102667","7407","29021","22569","103169","NA","102665","103169","102623","44846","103846","34776","99558","7337","101123","Lexical Decision Task","34","25108","37","yes","1024"
"2.68604012","0","4","pumb","non-word","89.47368421052632","89.47368421052632","678.8684210526316","678.8684210526316","black","no","legacy","legacy","legacy","0","uniform","0","undefined","undefined","undefined","0","f","0","0","0","0","37","0","0","0","37","NA","33","37","33","0","33","3","37","0","37","Fri Feb 19 16:49:59 2021","The main experiment item","yes","Lexical_Decision_Task.osexp","/Users/amberhook/Documents/YEAR 2/COG PSYCH /Asessment ","no","Andale Mono","no","18","no","white","no","yes","576","legacy","33","33","3","/Users/amberhook/Documents/YEAR 2/COG PSYCH /Asessment /subject-5220412 LDT.csv","legacy","Lentiform Loewenfeld","3.3.7","yes","yes","600bd7cfb6416f0113b04181","602110864497cf011d9c0822","0","j","NA","j","space","space","NA","j","689","NA","6356","15152","6451","NA","689","2","legacy","1024","2","48000","-16","task","5220412","even","NA","36488","44846","38489","104392","7407","29021","22569","104894","NA","104390","104894","104350","44846","105584","34776","103850","7337","101123","Lexical Decision Task","34","25797","38","yes","1024"
"3.090140555","5.81","8","pout","word","89.74358974358974","89.74358974358974","680.3076923076923","680.3076923076923","black","no","legacy","legacy","legacy","0","uniform","1","undefined","undefined","undefined","1","j","0","0","0","0","38","0","0","0","38","NA","34","38","34","0","34","3","38","0","38","Fri Feb 19 16:49:59 2021","The main experiment item","yes","Lexical_Decision_Task.osexp","/Users/amberhook/Documents/YEAR 2/COG PSYCH /Asessment ","no","Andale Mono","no","18","no","white","no","yes","576","legacy","34","34","3","/Users/amberhook/Documents/YEAR 2/COG PSYCH /Asessment /subject-5220412 LDT.csv","legacy","Lentiform Loewenfeld","3.3.7","yes","yes","600bd7cfb6416f0113b04181","602110864497cf011d9c0822","0","j","NA","j","space","space","NA","j","735","NA","6356","15152","6451","NA","735","2","legacy","1024","2","48000","-16","task","5220412","even","NA","36488","44846","38489","107131","7407","29021","22569","107633","NA","107129","107633","107088","44846","108369","34776","103850","7337","105588","Lexical Decision Task","35","26532","39","yes","1024"
"2.693726949","5.08","3","swig","word","87.5","87.5","676.325","676.325","black","no","legacy","legacy","legacy","0","uniform","0","undefined","undefined","undefined","0","j","0","0","0","0","39","0","0","0","39","NA","35","39","35","0","35","3","39","0","39","Fri Feb 19 16:49:59 2021","The main experiment item","yes","Lexical_Decision_Task.osexp","/Users/amberhook/Documents/YEAR 2/COG PSYCH /Asessment ","no","Andale Mono","no","18","no","white","no","yes","576","legacy","35","35","3","/Users/amberhook/Documents/YEAR 2/COG PSYCH /Asessment /subject-5220412 LDT.csv","legacy","Lentiform Loewenfeld","3.3.7","yes","yes","600bd7cfb6416f0113b04181","602110864497cf011d9c0822","0","f","NA","j","space","space","NA","f","521","NA","6356","15152","6451","NA","521","2","legacy","1024","2","48000","-16","task","5220412","even","NA","36488","44846","38489","108914","7407","29021","22569","109416","NA","108912","109416","108872","44846","109938","34776","108372","7337","105588","Lexical Decision Task","35","27053","40","yes","1024"
"3.168400243","9.12","6","horn","word","87.8048780487805","87.8048780487805","674.7317073170732","674.7317073170732","black","no","legacy","legacy","legacy","0","uniform","1","undefined","undefined","undefined","1","j","0","0","0","0","40","0","0","0","40","NA","36","40","36","0","36","3","40","0","40","Fri Feb 19 16:49:59 2021","The main experiment item","yes","Lexical_Decision_Task.osexp","/Users/amberhook/Documents/YEAR 2/COG PSYCH /Asessment ","no","Andale Mono","no","18","no","white","no","yes","576","legacy","36","36","3","/Users/amberhook/Documents/YEAR 2/COG PSYCH /Asessment /subject-5220412 LDT.csv","legacy","Lentiform Loewenfeld","3.3.7","yes","yes","600bd7cfb6416f0113b04181","602110864497cf011d9c0822","0","j","NA","j","space","space","NA","j","611","NA","6356","15152","6451","NA","611","2","legacy","1024","2","48000","-16","task","5220412","even","NA","36488","44846","38489","111493","7407","29021","22569","111995","NA","111490","111995","111443","44846","112607","34776","108372","7337","109943","Lexical Decision Task","36","27664","41","yes","1024"
"3.495914186","0","4","peng","non-word","85.71428571428571","85.71428571428571","676.0714285714286","676.0714285714286","black","no","legacy","legacy","legacy","0","uniform","0","undefined","undefined","undefined","0","f","0","0","0","0","41","0","0","0","41","NA","37","41","37","0","37","3","41","0","41","Fri Feb 19 16:49:59 2021","The main experiment item","yes","Lexical_Decision_Task.osexp","/Users/amberhook/Documents/YEAR 2/COG PSYCH /Asessment ","no","Andale Mono","no","18","no","white","no","yes","576","legacy","37","37","3","/Users/amberhook/Documents/YEAR 2/COG PSYCH /Asessment /subject-5220412 LDT.csv","legacy","Lentiform Loewenfeld","3.3.7","yes","yes","600bd7cfb6416f0113b04181","602110864497cf011d9c0822","0","j","NA","j","space","space","NA","j","731","NA","6356","15152","6451","NA","731","2","legacy","1024","2","48000","-16","task","5220412","even","NA","36488","44846","38489","113153","7407","29021","22569","113655","NA","113151","113655","113112","44846","114387","34776","112612","7337","109943","Lexical Decision Task","36","28395","42","yes","1024"
"2.696644658","5.78","2","yolk","word","86.04651162790698","86.04651162790698","681.6046511627907","681.6046511627907","black","no","legacy","legacy","legacy","0","uniform","1","undefined","undefined","undefined","1","j","0","0","0","0","42","0","0","0","42","NA","38","42","38","0","38","3","42","0","42","Fri Feb 19 16:49:59 2021","The main experiment item","yes","Lexical_Decision_Task.osexp","/Users/amberhook/Documents/YEAR 2/COG PSYCH /Asessment ","no","Andale Mono","no","18","no","white","no","yes","576","legacy","38","38","3","/Users/amberhook/Documents/YEAR 2/COG PSYCH /Asessment /subject-5220412 LDT.csv","legacy","Lentiform Loewenfeld","3.3.7","yes","yes","600bd7cfb6416f0113b04181","602110864497cf011d9c0822","0","j","NA","j","space","space","NA","j","914","NA","6356","15152","6451","NA","914","2","legacy","1024","2","48000","-16","task","5220412","even","NA","36488","44846","38489","115935","7407","29021","22569","116437","NA","115933","116437","115891","44846","117352","34776","112612","7337","114391","Lexical Decision Task","37","29309","43","yes","1024"
"3.003891166","8.05","2","frog","word","86.36363636363636","86.36363636363636","680.6590909090909","680.6590909090909","black","no","legacy","legacy","legacy","0","uniform","1","undefined","undefined","undefined","1","j","0","0","0","0","43","0","0","0","43","NA","39","43","39","0","39","3","43","0","43","Fri Feb 19 16:49:59 2021","The main experiment item","yes","Lexical_Decision_Task.osexp","/Users/amberhook/Documents/YEAR 2/COG PSYCH /Asessment ","no","Andale Mono","no","18","no","white","no","yes","576","legacy","39","39","3","/Users/amberhook/Documents/YEAR 2/COG PSYCH /Asessment /subject-5220412 LDT.csv","legacy","Lentiform Loewenfeld","3.3.7","yes","yes","600bd7cfb6416f0113b04181","602110864497cf011d9c0822","0","j","NA","j","space","space","NA","j","640","NA","6356","15152","6451","NA","640","2","legacy","1024","2","48000","-16","task","5220412","even","NA","36488","44846","38489","117899","7407","29021","22569","118401","NA","117897","118401","117857","44846","119042","34776","117357","7337","114391","Lexical Decision Task","38","29949","44","yes","1024"
"3.208978517","10.33","4","fish","word","86.66666666666667","86.66666666666667","676.5333333333333","676.5333333333333","black","no","legacy","legacy","legacy","0","uniform","1","undefined","undefined","undefined","1","j","0","0","0","0","44","0","0","0","44","NA","40","44","40","0","40","3","44","0","44","Fri Feb 19 16:49:59 2021","The main experiment item","yes","Lexical_Decision_Task.osexp","/Users/amberhook/Documents/YEAR 2/COG PSYCH /Asessment ","no","Andale Mono","no","18","no","white","no","yes","576","legacy","40","40","3","/Users/amberhook/Documents/YEAR 2/COG PSYCH /Asessment /subject-5220412 LDT.csv","legacy","Lentiform Loewenfeld","3.3.7","yes","yes","600bd7cfb6416f0113b04181","602110864497cf011d9c0822","0","j","NA","j","space","space","NA","j","495","NA","6356","15152","6451","NA","495","2","legacy","1024","2","48000","-16","task","5220412","even","NA","36488","44846","38489","119588","7407","29021","22569","120090","NA","119586","120090","119547","44846","120586","34776","119047","7337","114391","Lexical Decision Task","39","30444","45","yes","1024"
"2.69019608","9.01","2","myth","word","86.95652173913044","86.95652173913044","672.9565217391304","672.9565217391304","black","no","legacy","legacy","legacy","0","uniform","1","undefined","undefined","undefined","1","j","0","0","0","0","45","0","0","0","45","NA","41","45","41","0","41","3","45","0","45","Fri Feb 19 16:49:59 2021","The main experiment item","yes","Lexical_Decision_Task.osexp","/Users/amberhook/Documents/YEAR 2/COG PSYCH /Asessment ","no","Andale Mono","no","18","no","white","no","yes","576","legacy","41","41","3","/Users/amberhook/Documents/YEAR 2/COG PSYCH /Asessment /subject-5220412 LDT.csv","legacy","Lentiform Loewenfeld","3.3.7","yes","yes","600bd7cfb6416f0113b04181","602110864497cf011d9c0822","0","j","NA","j","space","space","NA","j","512","NA","6356","15152","6451","NA","512","2","legacy","1024","2","48000","-16","task","5220412","even","NA","36488","44846","38489","121132","7407","29021","22569","121634","NA","121130","121634","121090","44846","122147","34776","120590","7337","114391","Lexical Decision Task","40","30956","46","yes","1024"
"2.713490543","0","3","feps","non-word","87.23404255319149","87.23404255319149","673.4042553191489","673.4042553191489","black","no","legacy","legacy","legacy","0","uniform","1","undefined","undefined","undefined","1","f","0","0","0","0","46","0","0","0","46","NA","42","46","42","0","42","3","46","0","46","Fri Feb 19 16:49:59 2021","The main experiment item","yes","Lexical_Decision_Task.osexp","/Users/amberhook/Documents/YEAR 2/COG PSYCH /Asessment ","no","Andale Mono","no","18","no","white","no","yes","576","legacy","42","42","3","/Users/amberhook/Documents/YEAR 2/COG PSYCH /Asessment /subject-5220412 LDT.csv","legacy","Lentiform Loewenfeld","3.3.7","yes","yes","600bd7cfb6416f0113b04181","602110864497cf011d9c0822","0","f","NA","j","space","space","NA","f","694","NA","6356","15152","6451","NA","694","2","legacy","1024","2","48000","-16","task","5220412","even","NA","36488","44846","38489","122694","7407","29021","22569","123196","NA","122692","123196","122651","44846","123891","34776","122151","7337","114391","Lexical Decision Task","41","31650","47","yes","1024"
"3.374198258","0","8","vist","non-word","85.41666666666667","85.41666666666667","670.9375","670.9375","black","no","legacy","legacy","legacy","0","uniform","0","undefined","undefined","undefined","0","f","0","0","0","0","47","0","0","0","47","NA","43","47","43","0","43","3","47","0","47","Fri Feb 19 16:49:59 2021","The main experiment item","yes","Lexical_Decision_Task.osexp","/Users/amberhook/Documents/YEAR 2/COG PSYCH /Asessment ","no","Andale Mono","no","18","no","white","no","yes","576","legacy","43","43","3","/Users/amberhook/Documents/YEAR 2/COG PSYCH /Asessment /subject-5220412 LDT.csv","legacy","Lentiform Loewenfeld","3.3.7","yes","yes","600bd7cfb6416f0113b04181","602110864497cf011d9c0822","0","j","NA","j","space","space","NA","j","555","NA","6356","15152","6451","NA","555","2","legacy","1024","2","48000","-16","task","5220412","even","NA","36488","44846","38489","124436","7407","29021","22569","124939","NA","124435","124939","124395","44846","125495","34776","123895","7337","114391","Lexical Decision Task","41","32205","48","yes","1024"
"3.091901331","0","9","nipe","non-word","83.6734693877551","83.6734693877551","671.0612244897959","671.0612244897959","black","no","legacy","legacy","legacy","0","uniform","0","undefined","undefined","undefined","0","f","0","0","0","0","48","0","0","0","48","NA","44","48","44","0","44","3","48","0","48","Fri Feb 19 16:49:59 2021","The main experiment item","yes","Lexical_Decision_Task.osexp","/Users/amberhook/Documents/YEAR 2/COG PSYCH /Asessment ","no","Andale Mono","no","18","no","white","no","yes","576","legacy","44","44","3","/Users/amberhook/Documents/YEAR 2/COG PSYCH /Asessment /subject-5220412 LDT.csv","legacy","Lentiform Loewenfeld","3.3.7","yes","yes","600bd7cfb6416f0113b04181","602110864497cf011d9c0822","0","j","NA","j","space","space","NA","j","677","NA","6356","15152","6451","NA","677","2","legacy","1024","2","48000","-16","task","5220412","even","NA","36488","44846","38489","127053","7407","29021","22569","127555","NA","127051","127555","126999","44846","128233","34776","123895","7337","125499","Lexical Decision Task","41","32882","49","yes","1024"
"2.895974732","6.65","5","sift","word","82","82","672.28","672.28","black","no","legacy","legacy","legacy","0","uniform","0","undefined","undefined","undefined","0","j","0","0","0","0","49","0","0","0","49","NA","45","49","45","0","45","3","49","0","49","Fri Feb 19 16:49:59 2021","The main experiment item","yes","Lexical_Decision_Task.osexp","/Users/amberhook/Documents/YEAR 2/COG PSYCH /Asessment ","no","Andale Mono","no","18","no","white","no","yes","576","legacy","45","45","3","/Users/amberhook/Documents/YEAR 2/COG PSYCH /Asessment /subject-5220412 LDT.csv","legacy","Lentiform Loewenfeld","3.3.7","yes","yes","600bd7cfb6416f0113b04181","602110864497cf011d9c0822","0","f","NA","j","space","space","NA","f","732","NA","6356","15152","6451","NA","732","2","legacy","1024","2","48000","-16","task","5220412","even","NA","36488","44846","38489","129781","7407","29021","22569","130283","NA","129779","130283","129737","44846","131016","34776","123895","7337","128237","Lexical Decision Task","41","33614","50","yes","1024"
"3.082307743","9.68","8","camp","word","82.3529411764706","82.3529411764706","670.7254901960785","670.7254901960785","black","no","legacy","legacy","legacy","0","uniform","1","undefined","undefined","undefined","1","j","0","0","0","0","50","0","0","0","50","NA","46","50","46","0","46","3","50","0","50","Fri Feb 19 16:49:59 2021","The main experiment item","yes","Lexical_Decision_Task.osexp","/Users/amberhook/Documents/YEAR 2/COG PSYCH /Asessment ","no","Andale Mono","no","18","no","white","no","yes","576","legacy","46","46","3","/Users/amberhook/Documents/YEAR 2/COG PSYCH /Asessment /subject-5220412 LDT.csv","legacy","Lentiform Loewenfeld","3.3.7","yes","yes","600bd7cfb6416f0113b04181","602110864497cf011d9c0822","0","j","NA","j","space","space","NA","j","593","NA","6356","15152","6451","NA","593","2","legacy","1024","2","48000","-16","task","5220412","even","NA","36488","44846","38489","132563","7407","29021","22569","133065","NA","132561","133065","132520","44846","133659","34776","123895","7337","131020","Lexical Decision Task","42","34207","51","yes","1024"
"3.274157849","0","8","leet","non-word","80.76923076923077","80.76923076923077","670.4038461538462","670.4038461538462","black","no","legacy","legacy","legacy","0","uniform","0","undefined","undefined","undefined","0","f","0","0","0","0","51","0","0","0","51","NA","47","51","47","0","47","3","51","0","51","Fri Feb 19 16:49:59 2021","The main experiment item","yes","Lexical_Decision_Task.osexp","/Users/amberhook/Documents/YEAR 2/COG PSYCH /Asessment ","no","Andale Mono","no","18","no","white","no","yes","576","legacy","47","47","3","/Users/amberhook/Documents/YEAR 2/COG PSYCH /Asessment /subject-5220412 LDT.csv","legacy","Lentiform Loewenfeld","3.3.7","yes","yes","600bd7cfb6416f0113b04181","602110864497cf011d9c0822","0","j","NA","j","space","space","NA","j","654","NA","6356","15152","6451","NA","654","2","legacy","1024","2","48000","-16","task","5220412","even","NA","36488","44846","38489","134204","7407","29021","22569","134706","NA","134202","134706","134163","44846","135362","34776","133663","7337","131020","Lexical Decision Task","42","34861","52","yes","1024"
"2.843025032","0","9","pusk","non-word","81.13207547169812","81.13207547169812","672.0943396226415","672.0943396226415","black","no","legacy","legacy","legacy","0","uniform","1","undefined","undefined","undefined","1","f","0","0","0","0","52","0","0","0","52","NA","48","52","48","0","48","3","52","0","52","Fri Feb 19 16:49:59 2021","The main experiment item","yes","Lexical_Decision_Task.osexp","/Users/amberhook/Documents/YEAR 2/COG PSYCH /Asessment ","no","Andale Mono","no","18","no","white","no","yes","576","legacy","48","48","3","/Users/amberhook/Documents/YEAR 2/COG PSYCH /Asessment /subject-5220412 LDT.csv","legacy","Lentiform Loewenfeld","3.3.7","yes","yes","600bd7cfb6416f0113b04181","602110864497cf011d9c0822","0","f","NA","j","space","space","NA","f","760","NA","6356","15152","6451","NA","760","2","legacy","1024","2","48000","-16","task","5220412","even","NA","36488","44846","38489","136910","7407","29021","22569","137412","NA","136908","137412","136866","44846","138173","34776","133663","7337","135366","Lexical Decision Task","43","35621","53","yes","1024"
"2.664011697","8.19","4","hawk","word","81.48148148148148","81.48148148148148","670.3148148148148","670.3148148148148","black","no","legacy","legacy","legacy","0","uniform","1","undefined","undefined","undefined","1","j","0","0","0","0","53","0","0","0","53","NA","49","53","49","0","49","3","53","0","53","Fri Feb 19 16:49:59 2021","The main experiment item","yes","Lexical_Decision_Task.osexp","/Users/amberhook/Documents/YEAR 2/COG PSYCH /Asessment ","no","Andale Mono","no","18","no","white","no","yes","576","legacy","49","49","3","/Users/amberhook/Documents/YEAR 2/COG PSYCH /Asessment /subject-5220412 LDT.csv","legacy","Lentiform Loewenfeld","3.3.7","yes","yes","600bd7cfb6416f0113b04181","602110864497cf011d9c0822","0","j","NA","j","space","space","NA","j","576","NA","6356","15152","6451","NA","576","2","legacy","1024","2","48000","-16","task","5220412","even","NA","36488","44846","38489","138721","7407","29021","22569","139223","NA","138719","139223","138678","44846","139800","34776","138178","7337","135366","Lexical Decision Task","44","36197","54","yes","1024"
"2.812467698","0","7","hafe","non-word","81.81818181818181","81.81818181818181","673.8363636363637","673.8363636363637","black","no","legacy","legacy","legacy","0","uniform","1","undefined","undefined","undefined","1","f","0","0","0","0","54","0","0","0","54","0","50","54","50","0","50","3","54","0","54","Fri Feb 19 16:49:59 2021","The main experiment item","yes","Lexical_Decision_Task.osexp","/Users/amberhook/Documents/YEAR 2/COG PSYCH /Asessment ","no","Andale Mono","no","18","no","white","no","yes","576","legacy","50","50","3","/Users/amberhook/Documents/YEAR 2/COG PSYCH /Asessment /subject-5220412 LDT.csv","legacy","Lentiform Loewenfeld","3.3.7","yes","yes","600bd7cfb6416f0113b04181","602110864497cf011d9c0822","0","f","NA","j","space","space","j","f","864","NA","6356","15152","6451","15305","864","2","legacy","1024","2","48000","-16","task","5220412","even","NA","36488","44846","38489","155675","7407","29021","22569","156177","140327","155672","156177","140305","44846","157042","34776","139805","7337","135366","Lexical Decision Task","45","37061","55","yes","1024"
"3.209246849","0","7","slem","non-word","82.14285714285714","82.14285714285714","676.2321428571429","676.2321428571429","black","no","legacy","legacy","legacy","0","uniform","1","undefined","undefined","undefined","1","f","0","0","0","0","55","0","0","0","55","0","51","55","51","0","51","3","55","0","55","Fri Feb 19 16:49:59 2021","The main experiment item","yes","Lexical_Decision_Task.osexp","/Users/amberhook/Documents/YEAR 2/COG PSYCH /Asessment ","no","Andale Mono","no","18","no","white","no","yes","576","legacy","51","51","3","/Users/amberhook/Documents/YEAR 2/COG PSYCH /Asessment /subject-5220412 LDT.csv","legacy","Lentiform Loewenfeld","3.3.7","yes","yes","600bd7cfb6416f0113b04181","602110864497cf011d9c0822","0","f","NA","j","space","space","j","f","808","NA","6356","15152","6451","15305","808","2","legacy","1024","2","48000","-16","task","5220412","even","NA","36488","44846","38489","157590","7407","29021","22569","158092","140327","157588","158092","157548","44846","158901","34776","157047","7337","135366","Lexical Decision Task","46","37869","56","yes","1024"
"3.2757719","0","5","slea","non-word","82.45614035087719","82.45614035087719","676.3157894736842","676.3157894736842","black","no","legacy","legacy","legacy","0","uniform","1","undefined","undefined","undefined","1","f","0","0","0","0","56","0","0","0","56","0","52","56","52","0","52","3","56","0","56","Fri Feb 19 16:49:59 2021","The main experiment item","yes","Lexical_Decision_Task.osexp","/Users/amberhook/Documents/YEAR 2/COG PSYCH /Asessment ","no","Andale Mono","no","18","no","white","no","yes","576","legacy","52","52","3","/Users/amberhook/Documents/YEAR 2/COG PSYCH /Asessment /subject-5220412 LDT.csv","legacy","Lentiform Loewenfeld","3.3.7","yes","yes","600bd7cfb6416f0113b04181","602110864497cf011d9c0822","0","f","NA","j","space","space","j","f","681","NA","6356","15152","6451","15305","681","2","legacy","1024","2","48000","-16","task","5220412","even","NA","36488","44846","38489","159447","7407","29021","22569","159949","140327","159445","159949","159405","44846","160631","34776","158905","7337","135366","Lexical Decision Task","47","38550","57","yes","1024"
"3.372543801","9.24","8","coat","word","82.75862068965517","82.75862068965517","680.1724137931035","680.1724137931035","black","no","legacy","legacy","legacy","0","uniform","1","undefined","undefined","undefined","1","j","0","0","0","0","57","0","0","0","57","0","53","57","53","0","53","3","57","0","57","Fri Feb 19 16:49:59 2021","The main experiment item","yes","Lexical_Decision_Task.osexp","/Users/amberhook/Documents/YEAR 2/COG PSYCH /Asessment ","no","Andale Mono","no","18","no","white","no","yes","576","legacy","53","53","3","/Users/amberhook/Documents/YEAR 2/COG PSYCH /Asessment /subject-5220412 LDT.csv","legacy","Lentiform Loewenfeld","3.3.7","yes","yes","600bd7cfb6416f0113b04181","602110864497cf011d9c0822","0","j","NA","j","space","space","j","j","900","NA","6356","15152","6451","15305","900","2","legacy","1024","2","48000","-16","task","5220412","even","NA","36488","44846","38489","161179","7407","29021","22569","161681","140327","161177","161681","161136","44846","162582","34776","160636","7337","135366","Lexical Decision Task","48","39450","58","yes","1024"
"2.980306438","0","7","slun","non-word","83.05084745762711","83.05084745762711","681.9661016949152","681.9661016949152","black","no","legacy","legacy","legacy","0","uniform","1","undefined","undefined","undefined","1","f","0","0","0","0","58","0","0","0","58","0","54","58","54","0","54","3","58","0","58","Fri Feb 19 16:49:59 2021","The main experiment item","yes","Lexical_Decision_Task.osexp","/Users/amberhook/Documents/YEAR 2/COG PSYCH /Asessment ","no","Andale Mono","no","18","no","white","no","yes","576","legacy","54","54","3","/Users/amberhook/Documents/YEAR 2/COG PSYCH /Asessment /subject-5220412 LDT.csv","legacy","Lentiform Loewenfeld","3.3.7","yes","yes","600bd7cfb6416f0113b04181","602110864497cf011d9c0822","0","f","NA","j","space","space","j","f","786","NA","6356","15152","6451","15305","786","2","legacy","1024","2","48000","-16","task","5220412","even","NA","36488","44846","38489","163128","7407","29021","22569","163630","140327","163126","163630","163086","44846","164417","34776","162586","7337","135366","Lexical Decision Task","49","40236","59","yes","1024"
"3.248054965","7.86","5","glow","word","83.33333333333333","83.33333333333333","682.2833333333333","682.2833333333333","black","no","legacy","legacy","legacy","0","uniform","1","undefined","undefined","undefined","1","j","0","0","0","0","59","0","0","0","59","0","55","59","55","0","55","3","59","0","59","Fri Feb 19 16:49:59 2021","The main experiment item","yes","Lexical_Decision_Task.osexp","/Users/amberhook/Documents/YEAR 2/COG PSYCH /Asessment ","no","Andale Mono","no","18","no","white","no","yes","576","legacy","55","55","3","/Users/amberhook/Documents/YEAR 2/COG PSYCH /Asessment /subject-5220412 LDT.csv","legacy","Lentiform Loewenfeld","3.3.7","yes","yes","600bd7cfb6416f0113b04181","602110864497cf011d9c0822","0","j","NA","j","space","space","j","j","701","NA","6356","15152","6451","15305","701","2","legacy","1024","2","48000","-16","task","5220412","even","NA","36488","44846","38489","164962","7407","29021","22569","165465","140327","164961","165465","164921","44846","166167","34776","164421","7337","135366","Lexical Decision Task","50","40937","60","yes","1024"
"3.218535505","7.85","7","goat","word","83.60655737704919","83.60655737704919","679.6065573770492","679.6065573770492","black","no","legacy","legacy","legacy","0","uniform","1","undefined","undefined","undefined","1","j","0","0","0","0","60","0","0","0","60","0","56","60","56","0","56","3","60","0","60","Fri Feb 19 16:49:59 2021","The main experiment item","yes","Lexical_Decision_Task.osexp","/Users/amberhook/Documents/YEAR 2/COG PSYCH /Asessment ","no","Andale Mono","no","18","no","white","no","yes","576","legacy","56","56","3","/Users/amberhook/Documents/YEAR 2/COG PSYCH /Asessment /subject-5220412 LDT.csv","legacy","Lentiform Loewenfeld","3.3.7","yes","yes","600bd7cfb6416f0113b04181","602110864497cf011d9c0822","0","j","NA","j","space","space","j","j","519","NA","6356","15152","6451","15305","519","2","legacy","1024","2","48000","-16","task","5220412","even","NA","36488","44846","38489","166712","7407","29021","22569","167214","140327","166710","167214","166670","44846","167734","34776","166170","7337","135366","Lexical Decision Task","51","41456","61","yes","1024"
"2.972819734","0","4","scew","non-word","82.25806451612904","82.25806451612904","678","678","black","no","legacy","legacy","legacy","0","uniform","0","undefined","undefined","undefined","0","f","0","0","0","0","61","0","0","0","61","0","57","61","57","0","57","3","61","0","61","Fri Feb 19 16:49:59 2021","The main experiment item","yes","Lexical_Decision_Task.osexp","/Users/amberhook/Documents/YEAR 2/COG PSYCH /Asessment ","no","Andale Mono","no","18","no","white","no","yes","576","legacy","57","57","3","/Users/amberhook/Documents/YEAR 2/COG PSYCH /Asessment /subject-5220412 LDT.csv","legacy","Lentiform Loewenfeld","3.3.7","yes","yes","600bd7cfb6416f0113b04181","602110864497cf011d9c0822","0","j","NA","j","space","space","j","j","580","NA","6356","15152","6451","15305","580","2","legacy","1024","2","48000","-16","task","5220412","even","NA","36488","44846","38489","168280","7407","29021","22569","168782","140327","168278","168782","168238","44846","169364","34776","167738","7337","135366","Lexical Decision Task","51","42036","62","yes","1024"
"3.077974404","10.41","8","tool","word","82.53968253968254","82.53968253968254","676.3492063492064","676.3492063492064","black","no","legacy","legacy","legacy","0","uniform","1","undefined","undefined","undefined","1","j","0","0","0","0","62","0","0","0","62","0","58","62","58","0","58","3","62","0","62","Fri Feb 19 16:49:59 2021","The main experiment item","yes","Lexical_Decision_Task.osexp","/Users/amberhook/Documents/YEAR 2/COG PSYCH /Asessment ","no","Andale Mono","no","18","no","white","no","yes","576","legacy","58","58","3","/Users/amberhook/Documents/YEAR 2/COG PSYCH /Asessment /subject-5220412 LDT.csv","legacy","Lentiform Loewenfeld","3.3.7","yes","yes","600bd7cfb6416f0113b04181","602110864497cf011d9c0822","0","j","NA","j","space","space","j","j","574","NA","6356","15152","6451","15305","574","2","legacy","1024","2","48000","-16","task","5220412","even","NA","36488","44846","38489","170912","7407","29021","22569","171414","140327","170910","171414","170868","44846","171989","34776","167738","7337","169368","Lexical Decision Task","52","42610","63","yes","1024"
"2.821076612","0","4","lult","non-word","82.8125","82.8125","674.25","674.25","black","no","legacy","legacy","legacy","0","uniform","1","undefined","undefined","undefined","1","f","0","0","0","0","63","0","0","0","63","0","59","63","59","0","59","3","63","0","63","Fri Feb 19 16:49:59 2021","The main experiment item","yes","Lexical_Decision_Task.osexp","/Users/amberhook/Documents/YEAR 2/COG PSYCH /Asessment ","no","Andale Mono","no","18","no","white","no","yes","576","legacy","59","59","3","/Users/amberhook/Documents/YEAR 2/COG PSYCH /Asessment /subject-5220412 LDT.csv","legacy","Lentiform Loewenfeld","3.3.7","yes","yes","600bd7cfb6416f0113b04181","602110864497cf011d9c0822","0","f","NA","j","space","space","j","f","542","NA","6356","15152","6451","15305","542","2","legacy","1024","2","48000","-16","task","5220412","even","NA","36488","44846","38489","172535","7407","29021","22569","173037","140327","172533","173037","172493","44846","173581","34776","171993","7337","169368","Lexical Decision Task","53","43152","64","yes","1024"
"3.197740804","6.74","3","ache","word","83.07692307692308","83.07692307692308","673.8153846153846","673.8153846153846","black","no","legacy","legacy","legacy","0","uniform","1","undefined","undefined","undefined","1","j","0","0","0","0","64","0","0","0","64","0","60","64","60","0","60","3","64","0","64","Fri Feb 19 16:49:59 2021","The main experiment item","yes","Lexical_Decision_Task.osexp","/Users/amberhook/Documents/YEAR 2/COG PSYCH /Asessment ","no","Andale Mono","no","18","no","white","no","yes","576","legacy","60","60","3","/Users/amberhook/Documents/YEAR 2/COG PSYCH /Asessment /subject-5220412 LDT.csv","legacy","Lentiform Loewenfeld","3.3.7","yes","yes","600bd7cfb6416f0113b04181","602110864497cf011d9c0822","0","j","NA","j","space","space","j","j","646","NA","6356","15152","6451","15305","646","2","legacy","1024","2","48000","-16","task","5220412","even","NA","36488","44846","38489","174127","7407","29021","22569","174629","140327","174125","174629","174085","44846","175276","34776","173585","7337","169368","Lexical Decision Task","54","43798","65","yes","1024"
"2.898725182","0","7","turl","non-word","83.33333333333333","83.33333333333333","673.8636363636364","673.8636363636364","black","no","legacy","legacy","legacy","0","uniform","1","undefined","undefined","undefined","1","f","0","0","0","0","65","0","0","0","65","0","61","65","61","0","61","3","65","0","65","Fri Feb 19 16:49:59 2021","The main experiment item","yes","Lexical_Decision_Task.osexp","/Users/amberhook/Documents/YEAR 2/COG PSYCH /Asessment ","no","Andale Mono","no","18","no","white","no","yes","576","legacy","61","61","3","/Users/amberhook/Documents/YEAR 2/COG PSYCH /Asessment /subject-5220412 LDT.csv","legacy","Lentiform Loewenfeld","3.3.7","yes","yes","600bd7cfb6416f0113b04181","602110864497cf011d9c0822","0","f","NA","j","space","space","j","f","677","NA","6356","15152","6451","15305","677","2","legacy","1024","2","48000","-16","task","5220412","even","NA","36488","44846","38489","175823","7407","29021","22569","176325","140327","175821","176325","175781","44846","177003","34776","175281","7337","169368","Lexical Decision Task","55","44475","66","yes","1024"
"3.068433376","8.09","2","bulb","word","83.58208955223881","83.58208955223881","673.820895522388","673.820895522388","black","no","legacy","legacy","legacy","0","uniform","1","undefined","undefined","undefined","1","j","0","0","0","0","66","0","0","0","66","0","62","66","62","0","62","3","66","0","66","Fri Feb 19 16:49:59 2021","The main experiment item","yes","Lexical_Decision_Task.osexp","/Users/amberhook/Documents/YEAR 2/COG PSYCH /Asessment ","no","Andale Mono","no","18","no","white","no","yes","576","legacy","62","62","3","/Users/amberhook/Documents/YEAR 2/COG PSYCH /Asessment /subject-5220412 LDT.csv","legacy","Lentiform Loewenfeld","3.3.7","yes","yes","600bd7cfb6416f0113b04181","602110864497cf011d9c0822","0","j","NA","j","space","space","j","j","671","NA","6356","15152","6451","15305","671","2","legacy","1024","2","48000","-16","task","5220412","even","NA","36488","44846","38489","177550","7407","29021","22569","178052","140327","177548","178052","177508","44846","178724","34776","177008","7337","169368","Lexical Decision Task","56","45146","67","yes","1024"
"3.29439347","8.6","9","wand","word","83.82352941176471","83.82352941176471","672.9558823529412","672.9558823529412","black","no","legacy","legacy","legacy","0","uniform","1","undefined","undefined","undefined","1","j","0","0","0","0","67","0","0","0","67","0","63","67","63","0","63","3","67","0","67","Fri Feb 19 16:49:59 2021","The main experiment item","yes","Lexical_Decision_Task.osexp","/Users/amberhook/Documents/YEAR 2/COG PSYCH /Asessment ","no","Andale Mono","no","18","no","white","no","yes","576","legacy","63","63","3","/Users/amberhook/Documents/YEAR 2/COG PSYCH /Asessment /subject-5220412 LDT.csv","legacy","Lentiform Loewenfeld","3.3.7","yes","yes","600bd7cfb6416f0113b04181","602110864497cf011d9c0822","0","j","NA","j","space","space","j","j","615","NA","6356","15152","6451","15305","615","2","legacy","1024","2","48000","-16","task","5220412","even","NA","36488","44846","38489","179272","7407","29021","22569","179774","140327","179270","179774","179229","44846","180390","34776","178729","7337","169368","Lexical Decision Task","57","45761","68","yes","1024"
"3.062080345","0","6","tomp","non-word","84.05797101449275","84.05797101449275","673.5217391304348","673.5217391304348","black","no","legacy","legacy","legacy","0","uniform","1","undefined","undefined","undefined","1","f","0","0","0","0","68","0","0","0","68","0","64","68","64","0","64","3","68","0","68","Fri Feb 19 16:49:59 2021","The main experiment item","yes","Lexical_Decision_Task.osexp","/Users/amberhook/Documents/YEAR 2/COG PSYCH /Asessment ","no","Andale Mono","no","18","no","white","no","yes","576","legacy","64","64","3","/Users/amberhook/Documents/YEAR 2/COG PSYCH /Asessment /subject-5220412 LDT.csv","legacy","Lentiform Loewenfeld","3.3.7","yes","yes","600bd7cfb6416f0113b04181","602110864497cf011d9c0822","0","f","NA","j","space","space","j","f","712","NA","6356","15152","6451","15305","712","2","legacy","1024","2","48000","-16","task","5220412","even","NA","36488","44846","38489","180936","7407","29021","22569","181438","140327","180935","181438","180894","44846","182151","34776","180394","7337","169368","Lexical Decision Task","58","46473","69","yes","1024"
"3.15462682","0","6","noal","non-word","84.28571428571429","84.28571428571429","675.6428571428571","675.6428571428571","black","no","legacy","legacy","legacy","0","uniform","1","undefined","undefined","undefined","1","f","0","0","0","0","69","0","0","0","69","0","65","69","65","0","65","3","69","0","69","Fri Feb 19 16:49:59 2021","The main experiment item","yes","Lexical_Decision_Task.osexp","/Users/amberhook/Documents/YEAR 2/COG PSYCH /Asessment ","no","Andale Mono","no","18","no","white","no","yes","576","legacy","65","65","3","/Users/amberhook/Documents/YEAR 2/COG PSYCH /Asessment /subject-5220412 LDT.csv","legacy","Lentiform Loewenfeld","3.3.7","yes","yes","600bd7cfb6416f0113b04181","602110864497cf011d9c0822","0","f","NA","j","space","space","j","f","822","NA","6356","15152","6451","15305","822","2","legacy","1024","2","48000","-16","task","5220412","even","NA","36488","44846","38489","182697","7407","29021","22569","183198","140327","182695","183198","182655","44846","184021","34776","182155","7337","169368","Lexical Decision Task","59","47295","70","yes","1024"
"2.771097306","0","9","jold","non-word","84.50704225352112","84.50704225352112","677.4084507042254","677.4084507042254","black","no","legacy","legacy","legacy","0","uniform","1","undefined","undefined","undefined","1","f","0","0","0","0","70","0","0","0","70","0","66","70","66","0","66","3","70","0","70","Fri Feb 19 16:49:59 2021","The main experiment item","yes","Lexical_Decision_Task.osexp","/Users/amberhook/Documents/YEAR 2/COG PSYCH /Asessment ","no","Andale Mono","no","18","no","white","no","yes","576","legacy","66","66","3","/Users/amberhook/Documents/YEAR 2/COG PSYCH /Asessment /subject-5220412 LDT.csv","legacy","Lentiform Loewenfeld","3.3.7","yes","yes","600bd7cfb6416f0113b04181","602110864497cf011d9c0822","0","f","NA","j","space","space","j","f","801","NA","6356","15152","6451","15305","801","2","legacy","1024","2","48000","-16","task","5220412","even","NA","36488","44846","38489","184601","7407","29021","22569","185103","140327","184569","185103","184525","44846","185905","34776","184025","7337","169368","Lexical Decision Task","60","48096","71","yes","1024"
"3.105055783","0","2","norp","non-word","84.72222222222223","84.72222222222223","677.4027777777778","677.4027777777778","black","no","legacy","legacy","legacy","0","uniform","1","undefined","undefined","undefined","1","f","0","0","0","0","71","0","0","0","71","0","67","71","67","0","67","3","71","0","71","Fri Feb 19 16:49:59 2021","The main experiment item","yes","Lexical_Decision_Task.osexp","/Users/amberhook/Documents/YEAR 2/COG PSYCH /Asessment ","no","Andale Mono","no","18","no","white","no","yes","576","legacy","67","67","3","/Users/amberhook/Documents/YEAR 2/COG PSYCH /Asessment /subject-5220412 LDT.csv","legacy","Lentiform Loewenfeld","3.3.7","yes","yes","600bd7cfb6416f0113b04181","602110864497cf011d9c0822","0","f","NA","j","space","space","j","f","677","NA","6356","15152","6451","15305","677","2","legacy","1024","2","48000","-16","task","5220412","even","NA","36488","44846","38489","186451","7407","29021","22569","186953","140327","186449","186953","186409","44846","187631","34776","185909","7337","169368","Lexical Decision Task","61","48773","72","yes","1024"
"3.140404328","10.66","9","deep","word","84.93150684931507","84.93150684931507","676.7260273972603","676.7260273972603","black","no","legacy","legacy","legacy","0","uniform","1","undefined","undefined","undefined","1","j","0","0","0","0","72","0","0","0","72","0","68","72","68","0","68","3","72","0","72","Fri Feb 19 16:49:59 2021","The main experiment item","yes","Lexical_Decision_Task.osexp","/Users/amberhook/Documents/YEAR 2/COG PSYCH /Asessment ","no","Andale Mono","no","18","no","white","no","yes","576","legacy","68","68","3","/Users/amberhook/Documents/YEAR 2/COG PSYCH /Asessment /subject-5220412 LDT.csv","legacy","Lentiform Loewenfeld","3.3.7","yes","yes","600bd7cfb6416f0113b04181","602110864497cf011d9c0822","0","j","NA","j","space","space","j","j","628","NA","6356","15152","6451","15305","628","2","legacy","1024","2","48000","-16","task","5220412","even","NA","36488","44846","38489","188184","7407","29021","22569","188686","140327","188182","188686","188136","44846","189315","34776","187635","7337","169368","Lexical Decision Task","62","49401","73","yes","1024"
"2.813801082","5.47","7","nook","word","83.78378378378379","83.78378378378379","676.5675675675676","676.5675675675676","black","no","legacy","legacy","legacy","0","uniform","0","undefined","undefined","undefined","0","j","0","0","0","0","73","0","0","0","73","0","69","73","69","0","69","3","73","0","73","Fri Feb 19 16:49:59 2021","The main experiment item","yes","Lexical_Decision_Task.osexp","/Users/amberhook/Documents/YEAR 2/COG PSYCH /Asessment ","no","Andale Mono","no","18","no","white","no","yes","576","legacy","69","69","3","/Users/amberhook/Documents/YEAR 2/COG PSYCH /Asessment /subject-5220412 LDT.csv","legacy","Lentiform Loewenfeld","3.3.7","yes","yes","600bd7cfb6416f0113b04181","602110864497cf011d9c0822","0","f","NA","j","space","space","j","f","665","NA","6356","15152","6451","15305","665","2","legacy","1024","2","48000","-16","task","5220412","even","NA","36488","44846","38489","189861","7407","29021","22569","190364","140327","189860","190364","189819","44846","191030","34776","189319","7337","169368","Lexical Decision Task","62","50066","74","yes","1024"
"2.899638141","0","3","hapt","non-word","84","84","676.2133333333334","676.2133333333334","black","no","legacy","legacy","legacy","0","uniform","1","undefined","undefined","undefined","1","f","0","0","0","0","74","0","0","0","74","0","70","74","70","0","70","3","74","0","74","Fri Feb 19 16:49:59 2021","The main experiment item","yes","Lexical_Decision_Task.osexp","/Users/amberhook/Documents/YEAR 2/COG PSYCH /Asessment ","no","Andale Mono","no","18","no","white","no","yes","576","legacy","70","70","3","/Users/amberhook/Documents/YEAR 2/COG PSYCH /Asessment /subject-5220412 LDT.csv","legacy","Lentiform Loewenfeld","3.3.7","yes","yes","600bd7cfb6416f0113b04181","602110864497cf011d9c0822","0","f","NA","j","space","space","j","f","650","NA","6356","15152","6451","15305","650","2","legacy","1024","2","48000","-16","task","5220412","even","NA","36488","44846","38489","192577","7407","29021","22569","193079","140327","192575","193079","192534","44846","193730","34776","189319","7337","191034","Lexical Decision Task","63","50716","75","yes","1024"
"2.920123326","7.43","4","duel","word","84.21052631578948","84.21052631578948","675.3947368421053","675.3947368421053","black","no","legacy","legacy","legacy","0","uniform","1","undefined","undefined","undefined","1","j","0","0","0","0","75","0","0","0","75","0","71","75","71","0","71","3","75","0","75","Fri Feb 19 16:49:59 2021","The main experiment item","yes","Lexical_Decision_Task.osexp","/Users/amberhook/Documents/YEAR 2/COG PSYCH /Asessment ","no","Andale Mono","no","18","no","white","no","yes","576","legacy","71","71","3","/Users/amberhook/Documents/YEAR 2/COG PSYCH /Asessment /subject-5220412 LDT.csv","legacy","Lentiform Loewenfeld","3.3.7","yes","yes","600bd7cfb6416f0113b04181","602110864497cf011d9c0822","0","j","NA","j","space","space","j","j","614","NA","6356","15152","6451","15305","614","2","legacy","1024","2","48000","-16","task","5220412","even","NA","36488","44846","38489","194276","7407","29021","22569","194778","140327","194274","194778","194234","44846","195393","34776","193734","7337","191034","Lexical Decision Task","64","51330","76","yes","1024"
"3.120025233","0","2","nyst","non-word","84.41558441558442","84.41558441558442","675.5974025974026","675.5974025974026","black","no","legacy","legacy","legacy","0","uniform","1","undefined","undefined","undefined","1","f","0","0","0","0","76","0","0","0","76","0","72","76","72","0","72","3","76","0","76","Fri Feb 19 16:49:59 2021","The main experiment item","yes","Lexical_Decision_Task.osexp","/Users/amberhook/Documents/YEAR 2/COG PSYCH /Asessment ","no","Andale Mono","no","18","no","white","no","yes","576","legacy","72","72","3","/Users/amberhook/Documents/YEAR 2/COG PSYCH /Asessment /subject-5220412 LDT.csv","legacy","Lentiform Loewenfeld","3.3.7","yes","yes","600bd7cfb6416f0113b04181","602110864497cf011d9c0822","0","f","NA","j","space","space","j","f","691","NA","6356","15152","6451","15305","691","2","legacy","1024","2","48000","-16","task","5220412","even","NA","36488","44846","38489","195940","7407","29021","22569","196442","140327","195938","196442","195897","44846","197134","34776","195397","7337","191034","Lexical Decision Task","65","52021","77","yes","1024"
"2.706148589","0","4","hube","non-word","84.61538461538461","84.61538461538461","678.7820512820513","678.7820512820513","black","no","legacy","legacy","legacy","0","uniform","1","undefined","undefined","undefined","1","f","0","0","0","0","77","0","0","0","77","0","73","77","73","0","73","3","77","0","77","Fri Feb 19 16:49:59 2021","The main experiment item","yes","Lexical_Decision_Task.osexp","/Users/amberhook/Documents/YEAR 2/COG PSYCH /Asessment ","no","Andale Mono","no","18","no","white","no","yes","576","legacy","73","73","3","/Users/amberhook/Documents/YEAR 2/COG PSYCH /Asessment /subject-5220412 LDT.csv","legacy","Lentiform Loewenfeld","3.3.7","yes","yes","600bd7cfb6416f0113b04181","602110864497cf011d9c0822","0","f","NA","j","space","space","j","f","924","NA","6356","15152","6451","15305","924","2","legacy","1024","2","48000","-16","task","5220412","even","NA","36488","44846","38489","197680","7407","29021","22569","198182","140327","197678","198182","197638","44846","199107","34776","197138","7337","191034","Lexical Decision Task","66","52945","78","yes","1024"
"2.924968096","0","4","phim","non-word","84.81012658227849","84.81012658227849","677.873417721519","677.873417721519","black","no","legacy","legacy","legacy","0","uniform","1","undefined","undefined","undefined","1","f","0","0","0","0","78","0","0","0","78","0","74","78","74","0","74","3","78","0","78","Fri Feb 19 16:49:59 2021","The main experiment item","yes","Lexical_Decision_Task.osexp","/Users/amberhook/Documents/YEAR 2/COG PSYCH /Asessment ","no","Andale Mono","no","18","no","white","no","yes","576","legacy","74","74","3","/Users/amberhook/Documents/YEAR 2/COG PSYCH /Asessment /subject-5220412 LDT.csv","legacy","Lentiform Loewenfeld","3.3.7","yes","yes","600bd7cfb6416f0113b04181","602110864497cf011d9c0822","0","f","NA","j","space","space","j","f","607","NA","6356","15152","6451","15305","607","2","legacy","1024","2","48000","-16","task","5220412","even","NA","36488","44846","38489","199653","7407","29021","22569","200155","140327","199651","200155","199611","44846","200763","34776","199111","7337","191034","Lexical Decision Task","67","53552","79","yes","1024"
"3.257359335","8","6","brew","word","85","85","676.825","676.825","black","no","legacy","legacy","legacy","0","uniform","1","undefined","undefined","undefined","1","j","0","0","0","0","79","0","0","0","79","0","75","79","75","0","75","3","79","0","79","Fri Feb 19 16:49:59 2021","The main experiment item","yes","Lexical_Decision_Task.osexp","/Users/amberhook/Documents/YEAR 2/COG PSYCH /Asessment ","no","Andale Mono","no","18","no","white","no","yes","576","legacy","75","75","3","/Users/amberhook/Documents/YEAR 2/COG PSYCH /Asessment /subject-5220412 LDT.csv","legacy","Lentiform Loewenfeld","3.3.7","yes","yes","600bd7cfb6416f0113b04181","602110864497cf011d9c0822","0","j","NA","j","space","space","j","j","594","NA","6356","15152","6451","15305","594","2","legacy","1024","2","48000","-16","task","5220412","even","NA","36488","44846","38489","201311","7407","29021","22569","201813","140327","201309","201814","201269","44846","202409","34776","200769","7337","191034","Lexical Decision Task","68","54146","80","yes","1024"
"2.778633532","0","3","jurp","non-word","85.18518518518519","85.18518518518519","676.3333333333334","676.3333333333334","black","no","legacy","legacy","legacy","0","uniform","1","undefined","undefined","undefined","1","f","0","0","0","0","80","0","0","0","80","0","76","80","76","0","76","3","80","0","80","Fri Feb 19 16:49:59 2021","The main experiment item","yes","Lexical_Decision_Task.osexp","/Users/amberhook/Documents/YEAR 2/COG PSYCH /Asessment ","no","Andale Mono","no","18","no","white","no","yes","576","legacy","76","76","3","/Users/amberhook/Documents/YEAR 2/COG PSYCH /Asessment /subject-5220412 LDT.csv","legacy","Lentiform Loewenfeld","3.3.7","yes","yes","600bd7cfb6416f0113b04181","602110864497cf011d9c0822","0","f","NA","j","space","space","j","f","637","NA","6356","15152","6451","15305","637","2","legacy","1024","2","48000","-16","task","5220412","even","NA","36488","44846","38489","202955","7407","29021","22569","203457","140327","202953","203457","202914","44846","204095","34776","202414","7337","191034","Lexical Decision Task","69","54783","81","yes","1024"
"2.839898939","8.99","6","soap","word","85.36585365853658","85.36585365853658","675.3414634146342","675.3414634146342","black","no","legacy","legacy","legacy","0","uniform","1","undefined","undefined","undefined","1","j","0","0","0","0","81","0","0","0","81","0","77","81","77","0","77","3","81","0","81","Fri Feb 19 16:49:59 2021","The main experiment item","yes","Lexical_Decision_Task.osexp","/Users/amberhook/Documents/YEAR 2/COG PSYCH /Asessment ","no","Andale Mono","no","18","no","white","no","yes","576","legacy","77","77","3","/Users/amberhook/Documents/YEAR 2/COG PSYCH /Asessment /subject-5220412 LDT.csv","legacy","Lentiform Loewenfeld","3.3.7","yes","yes","600bd7cfb6416f0113b04181","602110864497cf011d9c0822","0","j","NA","j","space","space","j","j","595","NA","6356","15152","6451","15305","595","2","legacy","1024","2","48000","-16","task","5220412","even","NA","36488","44846","38489","204641","7407","29021","22569","205143","140327","204639","205143","204599","44846","205739","34776","204099","7337","191034","Lexical Decision Task","70","55378","82","yes","1024"
"3.174641193","0","3","ramb","non-word","84.33734939759036","84.33734939759036","677.0240963855422","677.0240963855422","black","no","legacy","legacy","legacy","0","uniform","0","undefined","undefined","undefined","0","f","0","0","0","0","82","0","0","0","82","0","78","82","78","0","78","3","82","0","82","Fri Feb 19 16:49:59 2021","The main experiment item","yes","Lexical_Decision_Task.osexp","/Users/amberhook/Documents/YEAR 2/COG PSYCH /Asessment ","no","Andale Mono","no","18","no","white","no","yes","576","legacy","78","78","3","/Users/amberhook/Documents/YEAR 2/COG PSYCH /Asessment /subject-5220412 LDT.csv","legacy","Lentiform Loewenfeld","3.3.7","yes","yes","600bd7cfb6416f0113b04181","602110864497cf011d9c0822","0","j","NA","j","space","space","j","j","815","NA","6356","15152","6451","15305","815","2","legacy","1024","2","48000","-16","task","5220412","even","NA","36488","44846","38489","206284","7407","29021","22569","206786","140327","206282","206786","206242","44846","207602","34776","205742","7337","191034","Lexical Decision Task","70","56193","83","yes","1024"
"2.746890964","9.67","3","plug","word","84.52380952380952","84.52380952380952","675.8333333333334","675.8333333333334","black","no","legacy","legacy","legacy","0","uniform","1","undefined","undefined","undefined","1","j","0","0","0","0","83","0","0","0","83","0","79","83","79","0","79","3","83","0","83","Fri Feb 19 16:49:59 2021","The main experiment item","yes","Lexical_Decision_Task.osexp","/Users/amberhook/Documents/YEAR 2/COG PSYCH /Asessment ","no","Andale Mono","no","18","no","white","no","yes","576","legacy","79","79","3","/Users/amberhook/Documents/YEAR 2/COG PSYCH /Asessment /subject-5220412 LDT.csv","legacy","Lentiform Loewenfeld","3.3.7","yes","yes","600bd7cfb6416f0113b04181","602110864497cf011d9c0822","0","j","NA","j","space","space","j","j","577","NA","6356","15152","6451","15305","577","2","legacy","1024","2","48000","-16","task","5220412","even","NA","36488","44846","38489","209151","7407","29021","22569","209653","140327","209148","209653","209106","44846","210231","34776","205742","7337","207606","Lexical Decision Task","71","56770","84","yes","1024"
"2.616654026","9.37","5","gift","word","84.70588235294117","84.70588235294117","674.7529411764706","674.7529411764706","black","no","legacy","legacy","legacy","0","uniform","1","undefined","undefined","undefined","1","j","0","0","0","0","84","0","0","0","84","0","80","84","80","0","80","3","84","0","84","Fri Feb 19 16:49:59 2021","The main experiment item","yes","Lexical_Decision_Task.osexp","/Users/amberhook/Documents/YEAR 2/COG PSYCH /Asessment ","no","Andale Mono","no","18","no","white","no","yes","576","legacy","80","80","3","/Users/amberhook/Documents/YEAR 2/COG PSYCH /Asessment /subject-5220412 LDT.csv","legacy","Lentiform Loewenfeld","3.3.7","yes","yes","600bd7cfb6416f0113b04181","602110864497cf011d9c0822","0","j","NA","j","space","space","j","j","584","NA","6356","15152","6451","15305","584","2","legacy","1024","2","48000","-16","task","5220412","even","NA","36488","44846","38489","210777","7407","29021","22569","211279","140327","210775","211279","210735","44846","211864","34776","210235","7337","207606","Lexical Decision Task","72","57354","85","yes","1024"
"2.983324025","9.56","2","debt","word","84.88372093023256","84.88372093023256","673.8372093023256","673.8372093023256","black","no","legacy","legacy","legacy","0","uniform","1","undefined","undefined","undefined","1","j","0","0","0","0","85","0","0","0","85","0","81","85","81","0","81","3","85","0","85","Fri Feb 19 16:49:59 2021","The main experiment item","yes","Lexical_Decision_Task.osexp","/Users/amberhook/Documents/YEAR 2/COG PSYCH /Asessment ","no","Andale Mono","no","18","no","white","no","yes","576","legacy","81","81","3","/Users/amberhook/Documents/YEAR 2/COG PSYCH /Asessment /subject-5220412 LDT.csv","legacy","Lentiform Loewenfeld","3.3.7","yes","yes","600bd7cfb6416f0113b04181","602110864497cf011d9c0822","0","j","NA","j","space","space","j","j","596","NA","6356","15152","6451","15305","596","2","legacy","1024","2","48000","-16","task","5220412","even","NA","36488","44846","38489","212409","7407","29021","22569","212912","140327","212408","212912","212368","44846","213509","34776","211868","7337","207606","Lexical Decision Task","73","57950","86","yes","1024"
"3.316948329","0","1","besc","non-word","85.05747126436782","85.05747126436782","672.8505747126437","672.8505747126437","black","no","legacy","legacy","legacy","0","uniform","1","undefined","undefined","undefined","1","f","0","0","0","0","86","0","0","0","86","0","82","86","82","0","82","3","86","0","86","Fri Feb 19 16:49:59 2021","The main experiment item","yes","Lexical_Decision_Task.osexp","/Users/amberhook/Documents/YEAR 2/COG PSYCH /Asessment ","no","Andale Mono","no","18","no","white","no","yes","576","legacy","82","82","3","/Users/amberhook/Documents/YEAR 2/COG PSYCH /Asessment /subject-5220412 LDT.csv","legacy","Lentiform Loewenfeld","3.3.7","yes","yes","600bd7cfb6416f0113b04181","602110864497cf011d9c0822","0","f","NA","j","space","space","j","f","588","NA","6356","15152","6451","15305","588","2","legacy","1024","2","48000","-16","task","5220412","even","NA","36488","44846","38489","214054","7407","29021","22569","214556","140327","214052","214556","214013","44846","215145","34776","213513","7337","207606","Lexical Decision Task","74","58538","87","yes","1024"
"3.14849993","10.75","7","hour","word","85.22727272727273","85.22727272727273","671.5227272727273","671.5227272727273","black","no","legacy","legacy","legacy","0","uniform","1","undefined","undefined","undefined","1","j","0","0","0","0","87","0","0","0","87","0","83","87","83","0","83","3","87","0","87","Fri Feb 19 16:49:59 2021","The main experiment item","yes","Lexical_Decision_Task.osexp","/Users/amberhook/Documents/YEAR 2/COG PSYCH /Asessment ","no","Andale Mono","no","18","no","white","no","yes","576","legacy","83","83","3","/Users/amberhook/Documents/YEAR 2/COG PSYCH /Asessment /subject-5220412 LDT.csv","legacy","Lentiform Loewenfeld","3.3.7","yes","yes","600bd7cfb6416f0113b04181","602110864497cf011d9c0822","0","j","NA","j","space","space","j","j","556","NA","6356","15152","6451","15305","556","2","legacy","1024","2","48000","-16","task","5220412","even","NA","36488","44846","38489","215689","7407","29021","22569","216192","140327","215688","216192","215649","44846","216749","34776","215149","7337","207606","Lexical Decision Task","75","59094","88","yes","1024"
"2.6599162","0","6","flug","non-word","84.26966292134831","84.26966292134831","671.4269662921348","671.4269662921348","black","no","legacy","legacy","legacy","0","uniform","0","undefined","undefined","undefined","0","f","0","0","0","0","88","0","0","0","88","0","84","88","84","0","84","3","88","0","88","Fri Feb 19 16:49:59 2021","The main experiment item","yes","Lexical_Decision_Task.osexp","/Users/amberhook/Documents/YEAR 2/COG PSYCH /Asessment ","no","Andale Mono","no","18","no","white","no","yes","576","legacy","84","84","3","/Users/amberhook/Documents/YEAR 2/COG PSYCH /Asessment /subject-5220412 LDT.csv","legacy","Lentiform Loewenfeld","3.3.7","yes","yes","600bd7cfb6416f0113b04181","602110864497cf011d9c0822","0","j","NA","j","space","space","j","j","663","NA","6356","15152","6451","15305","663","2","legacy","1024","2","48000","-16","task","5220412","even","NA","36488","44846","38489","217294","7407","29021","22569","217796","140327","217292","217796","217252","44846","218460","34776","216752","7337","207606","Lexical Decision Task","75","59757","89","yes","1024"
"2.714888338","0","3","brug","non-word","84.44444444444444","84.44444444444444","672.1888888888889","672.1888888888889","black","no","legacy","legacy","legacy","0","uniform","1","undefined","undefined","undefined","1","f","0","0","0","0","89","0","0","0","89","0","85","89","85","0","85","3","89","0","89","Fri Feb 19 16:49:59 2021","The main experiment item","yes","Lexical_Decision_Task.osexp","/Users/amberhook/Documents/YEAR 2/COG PSYCH /Asessment ","no","Andale Mono","no","18","no","white","no","yes","576","legacy","85","85","3","/Users/amberhook/Documents/YEAR 2/COG PSYCH /Asessment /subject-5220412 LDT.csv","legacy","Lentiform Loewenfeld","3.3.7","yes","yes","600bd7cfb6416f0113b04181","602110864497cf011d9c0822","0","f","NA","j","space","space","j","f","740","NA","6356","15152","6451","15305","740","2","legacy","1024","2","48000","-16","task","5220412","even","NA","36488","44846","38489","220008","7407","29021","22569","220510","140327","220006","220510","219964","44846","221251","34776","216752","7337","218464","Lexical Decision Task","76","60497","90","yes","1024"
"3.274543461","7.46","7","scar","word","84.61538461538461","84.61538461538461","671.0989010989011","671.0989010989011","black","no","legacy","legacy","legacy","0","uniform","1","undefined","undefined","undefined","1","j","0","0","0","0","90","0","0","0","90","0","86","90","86","0","86","3","90","0","90","Fri Feb 19 16:49:59 2021","The main experiment item","yes","Lexical_Decision_Task.osexp","/Users/amberhook/Documents/YEAR 2/COG PSYCH /Asessment ","no","Andale Mono","no","18","no","white","no","yes","576","legacy","86","86","3","/Users/amberhook/Documents/YEAR 2/COG PSYCH /Asessment /subject-5220412 LDT.csv","legacy","Lentiform Loewenfeld","3.3.7","yes","yes","600bd7cfb6416f0113b04181","602110864497cf011d9c0822","0","j","NA","j","space","space","j","j","573","NA","6356","15152","6451","15305","573","2","legacy","1024","2","48000","-16","task","5220412","even","NA","36488","44846","38489","221797","7407","29021","22569","222299","140327","221795","222299","221755","44846","222873","34776","221255","7337","218464","Lexical Decision Task","77","61070","91","yes","1024"
"2.819763221","0","2","durp","non-word","84.78260869565217","84.78260869565217","669.9673913043479","669.9673913043479","black","no","legacy","legacy","legacy","0","uniform","1","undefined","undefined","undefined","1","f","0","0","0","0","91","0","0","0","91","0","87","91","87","0","87","3","91","0","91","Fri Feb 19 16:49:59 2021","The main experiment item","yes","Lexical_Decision_Task.osexp","/Users/amberhook/Documents/YEAR 2/COG PSYCH /Asessment ","no","Andale Mono","no","18","no","white","no","yes","576","legacy","87","87","3","/Users/amberhook/Documents/YEAR 2/COG PSYCH /Asessment /subject-5220412 LDT.csv","legacy","Lentiform Loewenfeld","3.3.7","yes","yes","600bd7cfb6416f0113b04181","602110864497cf011d9c0822","0","f","NA","j","space","space","j","f","567","NA","6356","15152","6451","15305","567","2","legacy","1024","2","48000","-16","task","5220412","even","NA","36488","44846","38489","223420","7407","29021","22569","223922","140327","223418","223922","223377","44846","224491","34776","222877","7337","218464","Lexical Decision Task","78","61637","92","yes","1024"
"3.028977705","0","7","frow","non-word","84.94623655913979","84.94623655913979","669.4731182795699","669.4731182795699","black","no","legacy","legacy","legacy","0","uniform","1","undefined","undefined","undefined","1","f","0","0","0","0","92","0","0","0","92","0","88","92","88","0","88","3","92","0","92","Fri Feb 19 16:49:59 2021","The main experiment item","yes","Lexical_Decision_Task.osexp","/Users/amberhook/Documents/YEAR 2/COG PSYCH /Asessment ","no","Andale Mono","no","18","no","white","no","yes","576","legacy","88","88","3","/Users/amberhook/Documents/YEAR 2/COG PSYCH /Asessment /subject-5220412 LDT.csv","legacy","Lentiform Loewenfeld","3.3.7","yes","yes","600bd7cfb6416f0113b04181","602110864497cf011d9c0822","0","f","NA","j","space","space","j","f","624","NA","6356","15152","6451","15305","624","2","legacy","1024","2","48000","-16","task","5220412","even","NA","36488","44846","38489","225038","7407","29021","22569","225540","140327","225036","225540","224996","44846","226166","34776","224496","7337","218464","Lexical Decision Task","79","62261","93","yes","1024"
"2.996511672","0","7","hoil","non-word","85.1063829787234","85.1063829787234","669.3723404255319","669.3723404255319","black","no","legacy","legacy","legacy","0","uniform","1","undefined","undefined","undefined","1","f","0","0","0","0","93","0","0","0","93","0","89","93","89","0","89","3","93","0","93","Fri Feb 19 16:49:59 2021","The main experiment item","yes","Lexical_Decision_Task.osexp","/Users/amberhook/Documents/YEAR 2/COG PSYCH /Asessment ","no","Andale Mono","no","18","no","white","no","yes","576","legacy","89","89","3","/Users/amberhook/Documents/YEAR 2/COG PSYCH /Asessment /subject-5220412 LDT.csv","legacy","Lentiform Loewenfeld","3.3.7","yes","yes","600bd7cfb6416f0113b04181","602110864497cf011d9c0822","0","f","NA","j","space","space","j","f","660","NA","6356","15152","6451","15305","660","2","legacy","1024","2","48000","-16","task","5220412","even","NA","36488","44846","38489","226712","7407","29021","22569","227214","140327","226710","227214","226670","44846","227875","34776","226170","7337","218464","Lexical Decision Task","80","62921","94","yes","1024"
"3.353210739","0","9","reet","non-word","85.26315789473684","85.26315789473684","667.9578947368421","667.9578947368421","black","no","legacy","legacy","legacy","0","uniform","1","undefined","undefined","undefined","1","f","0","0","0","0","94","0","0","0","94","0","90","94","90","0","90","3","94","0","94","Fri Feb 19 16:49:59 2021","The main experiment item","yes","Lexical_Decision_Task.osexp","/Users/amberhook/Documents/YEAR 2/COG PSYCH /Asessment ","no","Andale Mono","no","18","no","white","no","yes","576","legacy","90","90","3","/Users/amberhook/Documents/YEAR 2/COG PSYCH /Asessment /subject-5220412 LDT.csv","legacy","Lentiform Loewenfeld","3.3.7","yes","yes","600bd7cfb6416f0113b04181","602110864497cf011d9c0822","0","f","NA","j","space","space","j","f","535","NA","6356","15152","6451","15305","535","2","legacy","1024","2","48000","-16","task","5220412","even","NA","36488","44846","38489","228422","7407","29021","22569","228924","140327","228421","228924","228380","44846","229460","34776","227880","7337","218464","Lexical Decision Task","81","63456","95","yes","1024"
