"Log_BG","Log_Freq_HAL","Ortho_N","Stimulus","Type","acc","accuracy","average_response_time","avg_rt","background","bidi","canvas_backend","clock_backend","color_backend","compensation","coordinates","correct","correct_Experimental_intro","correct_Introduction","correct_Practice_intro","correct_experimenter_kb","correct_response","count_End_Of_Experiment","count_End_Of_Practice","count_Experimental_Loop","count_Experimental_intro","count_Fixation","count_Introduction","count_Practice_Loop","count_Practice_intro","count_Stimulus","count_block_break_feedback","count_experimental_sequence","count_experimenter_kb","count_increment_trial_count","count_init_trial_count","count_logger","count_practice_sequence","count_right","count_task","count_wrong","datetime","description","disable_garbage_collection","experiment_file","experiment_path","font_bold","font_family","font_italic","font_size","font_underline","foreground","form_clicks","fullscreen","height","keyboard_backend","live_row","live_row_Experimental_Loop","live_row_Practice_Loop","logfile","mouse_backend","opensesame_codename","opensesame_version","osf_always_upload_data","osf_always_upload_experiment","osf_datanode_id","osf_id","repeat_cycle","response","response_End_Of_Experiment","response_Experimental_intro","response_Introduction","response_Practice_intro","response_block_break_feedback","response_experimenter_kb","response_time","response_time_End_Of_Experiment","response_time_Experimental_intro","response_time_Introduction","response_time_Practice_intro","response_time_block_break_feedback","response_time_experimenter_kb","round_decimals","sampler_backend","sound_buf_size","sound_channels","sound_freq","sound_sample_size","start","subject_nr","subject_parity","time_End_Of_Experiment","time_End_Of_Practice","time_Experimental_Loop","time_Experimental_intro","time_Fixation","time_Introduction","time_Practice_Loop","time_Practice_intro","time_Stimulus","time_block_break_feedback","time_experimental_sequence","time_experimenter_kb","time_increment_trial_count","time_init_trial_count","time_logger","time_practice_sequence","time_right","time_task","time_wrong","title","total_correct","total_response_time","total_responses","uniform_coordinates","width"
"3.081107167","0","6","chot","non-word","100","100","1070.4","1070.4","black","no","legacy","legacy","legacy","0","uniform","1","undefined","undefined","undefined","1","f","0","0","0","0","4","0","0","0","4","NA","0","4","0","0","0","3","4","0","4","Thu Feb 18 15:29:38 2021","The main experiment item","yes","Lexical_Decision_Task.osexp","C:/Users/matthew/OneDrive/Documents/Ames","no","Andale Mono","no","18","no","white","no","yes","576","legacy","0","0","3","C:/Users/matthew/OneDrive/Documents/Ames/subject-5214420.csv","legacy","Lentiform Loewenfeld","3.3.7","yes","yes","600bd7cfb6416f0113b04181","602110864497cf011d9c0822","0","f","NA","space","space","space","NA","f","720","NA","5985","9929","10004","NA","720","2","legacy","1024","2","48000","-16","task","5214420","even","NA","33597","41587","35601","41654","4395","24333","14328","42158","NA","41652","42158","NA","41587","42879","31071","33058","4388","NA","Lexical Decision Task","5","5352","5","yes","1024"
"2.705007959","6.01","4","wept","word","83.33333333333333","83.33333333333333","1022.3333333333334","1022.3333333333334","black","no","legacy","legacy","legacy","0","uniform","0","undefined","undefined","undefined","0","j","0","0","0","0","5","0","0","0","5","NA","1","5","1","0","1","3","5","0","5","Thu Feb 18 15:29:38 2021","The main experiment item","yes","Lexical_Decision_Task.osexp","C:/Users/matthew/OneDrive/Documents/Ames","no","Andale Mono","no","18","no","white","no","yes","576","legacy","1","1","3","C:/Users/matthew/OneDrive/Documents/Ames/subject-5214420.csv","legacy","Lentiform Loewenfeld","3.3.7","yes","yes","600bd7cfb6416f0113b04181","602110864497cf011d9c0822","0","f","NA","space","space","space","NA","f","782","NA","5985","9929","10004","NA","782","2","legacy","1024","2","48000","-16","task","5214420","even","NA","33597","41587","35601","43600","4395","24333","14328","44104","NA","43598","44104","43441","41587","44887","31071","42940","4388","NA","Lexical Decision Task","5","6134","6","yes","1024"
"2.664011697","8.19","4","hawk","word","85.71428571428571","85.71428571428571","1066.5714285714287","1066.5714285714287","black","no","legacy","legacy","legacy","0","uniform","1","undefined","undefined","undefined","1","j","0","0","0","0","6","0","0","0","6","NA","2","6","2","0","2","3","6","0","6","Thu Feb 18 15:29:38 2021","The main experiment item","yes","Lexical_Decision_Task.osexp","C:/Users/matthew/OneDrive/Documents/Ames","no","Andale Mono","no","18","no","white","no","yes","576","legacy","2","2","3","C:/Users/matthew/OneDrive/Documents/Ames/subject-5214420.csv","legacy","Lentiform Loewenfeld","3.3.7","yes","yes","600bd7cfb6416f0113b04181","602110864497cf011d9c0822","0","j","NA","space","space","space","NA","j","1332","NA","5985","9929","10004","NA","1332","2","legacy","1024","2","48000","-16","task","5214420","even","NA","33597","41587","35601","46539","4395","24333","14328","47043","NA","46537","47044","46437","41587","48376","31071","42940","4388","44937","Lexical Decision Task","6","7466","7","yes","1024"
"2.703007489","8.37","3","pulp","word","87.5","87.5","1051.375","1051.375","black","no","legacy","legacy","legacy","0","uniform","1","undefined","undefined","undefined","1","j","0","0","0","0","7","0","0","0","7","NA","3","7","3","0","3","3","7","0","7","Thu Feb 18 15:29:38 2021","The main experiment item","yes","Lexical_Decision_Task.osexp","C:/Users/matthew/OneDrive/Documents/Ames","no","Andale Mono","no","18","no","white","no","yes","576","legacy","3","3","3","C:/Users/matthew/OneDrive/Documents/Ames/subject-5214420.csv","legacy","Lentiform Loewenfeld","3.3.7","yes","yes","600bd7cfb6416f0113b04181","602110864497cf011d9c0822","0","j","NA","space","space","space","NA","j","945","NA","5985","9929","10004","NA","945","2","legacy","1024","2","48000","-16","task","5214420","even","NA","33597","41587","35601","48999","4395","24333","14328","49503","NA","48997","49503","48896","41587","50449","31071","48396","4388","44937","Lexical Decision Task","7","8411","8","yes","1024"
"2.972819734","0","4","scew","non-word","88.88888888888889","88.88888888888889","1083.888888888889","1083.888888888889","black","no","legacy","legacy","legacy","0","uniform","1","undefined","undefined","undefined","1","f","0","0","0","0","8","0","0","0","8","NA","4","8","4","0","4","3","8","0","8","Thu Feb 18 15:29:38 2021","The main experiment item","yes","Lexical_Decision_Task.osexp","C:/Users/matthew/OneDrive/Documents/Ames","no","Andale Mono","no","18","no","white","no","yes","576","legacy","4","4","3","C:/Users/matthew/OneDrive/Documents/Ames/subject-5214420.csv","legacy","Lentiform Loewenfeld","3.3.7","yes","yes","600bd7cfb6416f0113b04181","602110864497cf011d9c0822","0","f","NA","space","space","space","NA","f","1344","NA","5985","9929","10004","NA","1344","2","legacy","1024","2","48000","-16","task","5214420","even","NA","33597","41587","35601","51098","4395","24333","14328","51600","NA","51096","51600","50998","41587","52945","31071","50498","4388","44937","Lexical Decision Task","8","9755","9","yes","1024"
"3.481012421","8.34","5","teen","word","90","90","1033.7","1033.7","black","no","legacy","legacy","legacy","0","uniform","1","undefined","undefined","undefined","1","j","0","0","0","0","9","0","0","0","9","NA","5","9","5","0","5","3","9","0","9","Thu Feb 18 15:29:38 2021","The main experiment item","yes","Lexical_Decision_Task.osexp","C:/Users/matthew/OneDrive/Documents/Ames","no","Andale Mono","no","18","no","white","no","yes","576","legacy","5","5","3","C:/Users/matthew/OneDrive/Documents/Ames/subject-5214420.csv","legacy","Lentiform Loewenfeld","3.3.7","yes","yes","600bd7cfb6416f0113b04181","602110864497cf011d9c0822","0","j","NA","space","space","space","NA","j","582","NA","5985","9929","10004","NA","582","2","legacy","1024","2","48000","-16","task","5214420","even","NA","33597","41587","35601","53597","4395","24333","14328","54101","NA","53595","54101","53491","41587","54684","31071","52991","4388","44937","Lexical Decision Task","9","10337","10","yes","1024"
"2.67699827","0","6","hulf","non-word","90.9090909090909","90.9090909090909","1019.2727272727273","1019.2727272727273","black","no","legacy","legacy","legacy","0","uniform","1","undefined","undefined","undefined","1","f","0","0","0","0","10","0","0","0","10","NA","6","10","6","0","6","3","10","0","10","Thu Feb 18 15:29:38 2021","The main experiment item","yes","Lexical_Decision_Task.osexp","C:/Users/matthew/OneDrive/Documents/Ames","no","Andale Mono","no","18","no","white","no","yes","576","legacy","6","6","3","C:/Users/matthew/OneDrive/Documents/Ames/subject-5214420.csv","legacy","Lentiform Loewenfeld","3.3.7","yes","yes","600bd7cfb6416f0113b04181","602110864497cf011d9c0822","0","f","NA","space","space","space","NA","f","875","NA","5985","9929","10004","NA","875","2","legacy","1024","2","48000","-16","task","5214420","even","NA","33597","41587","35601","55382","4395","24333","14328","55886","NA","55380","55886","55285","41587","56762","31071","54785","4388","44937","Lexical Decision Task","10","11212","11","yes","1024"
"2.767650507","0","6","yolt","non-word","91.66666666666667","91.66666666666667","1014.0833333333334","1014.0833333333334","black","no","legacy","legacy","legacy","0","uniform","1","undefined","undefined","undefined","1","f","0","0","0","0","11","0","0","0","11","NA","7","11","7","0","7","3","11","0","11","Thu Feb 18 15:29:38 2021","The main experiment item","yes","Lexical_Decision_Task.osexp","C:/Users/matthew/OneDrive/Documents/Ames","no","Andale Mono","no","18","no","white","no","yes","576","legacy","7","7","3","C:/Users/matthew/OneDrive/Documents/Ames/subject-5214420.csv","legacy","Lentiform Loewenfeld","3.3.7","yes","yes","600bd7cfb6416f0113b04181","602110864497cf011d9c0822","0","f","NA","space","space","space","NA","f","957","NA","5985","9929","10004","NA","957","2","legacy","1024","2","48000","-16","task","5214420","even","NA","33597","41587","35601","57402","4395","24333","14328","57907","NA","57400","57907","57300","41587","58864","31071","56800","4388","44937","Lexical Decision Task","11","12169","12","yes","1024"
"3.225825991","0","7","talm","non-word","92.3076923076923","92.3076923076923","1006","1006","black","no","legacy","legacy","legacy","0","uniform","1","undefined","undefined","undefined","1","f","0","0","0","0","12","0","0","0","12","NA","8","12","8","0","8","3","12","0","12","Thu Feb 18 15:29:38 2021","The main experiment item","yes","Lexical_Decision_Task.osexp","C:/Users/matthew/OneDrive/Documents/Ames","no","Andale Mono","no","18","no","white","no","yes","576","legacy","8","8","3","C:/Users/matthew/OneDrive/Documents/Ames/subject-5214420.csv","legacy","Lentiform Loewenfeld","3.3.7","yes","yes","600bd7cfb6416f0113b04181","602110864497cf011d9c0822","0","f","NA","space","space","space","NA","f","909","NA","5985","9929","10004","NA","909","2","legacy","1024","2","48000","-16","task","5214420","even","NA","33597","41587","35601","59509","4395","24333","14328","60013","NA","59507","60013","59415","41587","60923","31071","58915","4388","44937","Lexical Decision Task","12","13078","13","yes","1024"
"3.028977705","0","7","frow","non-word","92.85714285714286","92.85714285714286","1002.9285714285714","1002.9285714285714","black","no","legacy","legacy","legacy","0","uniform","1","undefined","undefined","undefined","1","f","0","0","0","0","13","0","0","0","13","NA","9","13","9","0","9","3","13","0","13","Thu Feb 18 15:29:38 2021","The main experiment item","yes","Lexical_Decision_Task.osexp","C:/Users/matthew/OneDrive/Documents/Ames","no","Andale Mono","no","18","no","white","no","yes","576","legacy","9","9","3","C:/Users/matthew/OneDrive/Documents/Ames/subject-5214420.csv","legacy","Lentiform Loewenfeld","3.3.7","yes","yes","600bd7cfb6416f0113b04181","602110864497cf011d9c0822","0","f","NA","space","space","space","NA","f","963","NA","5985","9929","10004","NA","963","2","legacy","1024","2","48000","-16","task","5214420","even","NA","33597","41587","35601","61569","4395","24333","14328","62073","NA","61567","62073","61471","41587","63037","31071","60970","4388","44937","Lexical Decision Task","13","14041","14","yes","1024"
"3.049218023","7.4","9","robe","word","93.33333333333333","93.33333333333333","979","979","black","no","legacy","legacy","legacy","0","uniform","1","undefined","undefined","undefined","1","j","0","0","0","0","14","0","0","0","14","NA","10","14","10","0","10","3","14","0","14","Thu Feb 18 15:29:38 2021","The main experiment item","yes","Lexical_Decision_Task.osexp","C:/Users/matthew/OneDrive/Documents/Ames","no","Andale Mono","no","18","no","white","no","yes","576","legacy","10","10","3","C:/Users/matthew/OneDrive/Documents/Ames/subject-5214420.csv","legacy","Lentiform Loewenfeld","3.3.7","yes","yes","600bd7cfb6416f0113b04181","602110864497cf011d9c0822","0","j","NA","space","space","space","NA","j","644","NA","5985","9929","10004","NA","644","2","legacy","1024","2","48000","-16","task","5214420","even","NA","33597","41587","35601","63689","4395","24333","14328","64191","NA","63687","64191","63590","41587","64836","31071","63090","4388","44937","Lexical Decision Task","14","14685","15","yes","1024"
"2.675164031","8.57","6","glue","word","93.75","93.75","963.375","963.375","black","no","legacy","legacy","legacy","0","uniform","1","undefined","undefined","undefined","1","j","0","0","0","0","15","0","0","0","15","NA","11","15","11","0","11","3","15","0","15","Thu Feb 18 15:29:38 2021","The main experiment item","yes","Lexical_Decision_Task.osexp","C:/Users/matthew/OneDrive/Documents/Ames","no","Andale Mono","no","18","no","white","no","yes","576","legacy","11","11","3","C:/Users/matthew/OneDrive/Documents/Ames/subject-5214420.csv","legacy","Lentiform Loewenfeld","3.3.7","yes","yes","600bd7cfb6416f0113b04181","602110864497cf011d9c0822","0","j","NA","space","space","space","NA","j","729","NA","5985","9929","10004","NA","729","2","legacy","1024","2","48000","-16","task","5214420","even","NA","33597","41587","35601","65471","4395","24333","14328","65975","NA","65469","65975","65373","41587","66705","31071","64873","4388","44937","Lexical Decision Task","15","15414","16","yes","1024"
"2.972357144","0","5","dasp","non-word","94.11764705882354","94.11764705882354","953.1176470588235","953.1176470588235","black","no","legacy","legacy","legacy","0","uniform","1","undefined","undefined","undefined","1","f","0","0","0","0","16","0","0","0","16","NA","12","16","12","0","12","3","16","0","16","Thu Feb 18 15:29:38 2021","The main experiment item","yes","Lexical_Decision_Task.osexp","C:/Users/matthew/OneDrive/Documents/Ames","no","Andale Mono","no","18","no","white","no","yes","576","legacy","12","12","3","C:/Users/matthew/OneDrive/Documents/Ames/subject-5214420.csv","legacy","Lentiform Loewenfeld","3.3.7","yes","yes","600bd7cfb6416f0113b04181","602110864497cf011d9c0822","0","f","NA","space","space","space","NA","f","789","NA","5985","9929","10004","NA","789","2","legacy","1024","2","48000","-16","task","5214420","even","NA","33597","41587","35601","67374","4395","24333","14328","67878","NA","67372","67878","67279","41587","68667","31071","66779","4388","44937","Lexical Decision Task","16","16203","17","yes","1024"
"3.067193647","6.73","6","raft","word","94.44444444444444","94.44444444444444","983","983","black","no","legacy","legacy","legacy","0","uniform","1","undefined","undefined","undefined","1","j","0","0","0","0","17","0","0","0","17","NA","13","17","13","0","13","3","17","0","17","Thu Feb 18 15:29:38 2021","The main experiment item","yes","Lexical_Decision_Task.osexp","C:/Users/matthew/OneDrive/Documents/Ames","no","Andale Mono","no","18","no","white","no","yes","576","legacy","13","13","3","C:/Users/matthew/OneDrive/Documents/Ames/subject-5214420.csv","legacy","Lentiform Loewenfeld","3.3.7","yes","yes","600bd7cfb6416f0113b04181","602110864497cf011d9c0822","0","j","NA","space","space","space","NA","j","1491","NA","5985","9929","10004","NA","1491","2","legacy","1024","2","48000","-16","task","5214420","even","NA","33597","41587","35601","69339","4395","24333","14328","69843","NA","69337","69843","69237","41587","71335","31071","68737","4388","44937","Lexical Decision Task","17","17694","18","yes","1024"
"2.576725172","0","8","gowl","non-word","94.73684210526316","94.73684210526316","986.7368421052631","986.7368421052631","black","no","legacy","legacy","legacy","0","uniform","1","undefined","undefined","undefined","1","f","0","0","0","0","18","0","0","0","18","NA","14","18","14","0","14","3","18","0","18","Thu Feb 18 15:29:38 2021","The main experiment item","yes","Lexical_Decision_Task.osexp","C:/Users/matthew/OneDrive/Documents/Ames","no","Andale Mono","no","18","no","white","no","yes","576","legacy","14","14","3","C:/Users/matthew/OneDrive/Documents/Ames/subject-5214420.csv","legacy","Lentiform Loewenfeld","3.3.7","yes","yes","600bd7cfb6416f0113b04181","602110864497cf011d9c0822","0","f","NA","space","space","space","NA","f","1054","NA","5985","9929","10004","NA","1054","2","legacy","1024","2","48000","-16","task","5214420","even","NA","33597","41587","35601","71984","4395","24333","14328","72488","NA","71982","72488","71888","41587","73543","31071","71388","4388","44937","Lexical Decision Task","18","18748","19","yes","1024"
"3.705778213","0","6","stin","non-word","95","95","987.55","987.55","black","no","legacy","legacy","legacy","0","uniform","1","undefined","undefined","undefined","1","f","0","0","0","0","19","0","0","0","19","NA","15","19","15","0","15","3","19","0","19","Thu Feb 18 15:29:38 2021","The main experiment item","yes","Lexical_Decision_Task.osexp","C:/Users/matthew/OneDrive/Documents/Ames","no","Andale Mono","no","18","no","white","no","yes","576","legacy","15","15","3","C:/Users/matthew/OneDrive/Documents/Ames/subject-5214420.csv","legacy","Lentiform Loewenfeld","3.3.7","yes","yes","600bd7cfb6416f0113b04181","602110864497cf011d9c0822","0","f","NA","space","space","space","NA","f","1003","NA","5985","9929","10004","NA","1003","2","legacy","1024","2","48000","-16","task","5214420","even","NA","33597","41587","35601","74171","4395","24333","14328","74675","NA","74169","74675","74069","41587","75679","31071","73568","4388","44937","Lexical Decision Task","19","19751","20","yes","1024"
"3.363486562","6.93","9","lush","word","95.23809523809524","95.23809523809524","975.952380952381","975.952380952381","black","no","legacy","legacy","legacy","0","uniform","1","undefined","undefined","undefined","1","j","0","0","0","0","20","0","0","0","20","NA","16","20","16","0","16","3","20","0","20","Thu Feb 18 15:29:38 2021","The main experiment item","yes","Lexical_Decision_Task.osexp","C:/Users/matthew/OneDrive/Documents/Ames","no","Andale Mono","no","18","no","white","no","yes","576","legacy","16","16","3","C:/Users/matthew/OneDrive/Documents/Ames/subject-5214420.csv","legacy","Lentiform Loewenfeld","3.3.7","yes","yes","600bd7cfb6416f0113b04181","602110864497cf011d9c0822","0","j","NA","space","space","space","NA","j","744","NA","5985","9929","10004","NA","744","2","legacy","1024","2","48000","-16","task","5214420","even","NA","33597","41587","35601","76310","4395","24333","14328","76814","NA","76308","76814","76212","41587","77559","31071","75712","4388","44937","Lexical Decision Task","20","20495","21","yes","1024"
"2.6599162","0","2","saff","non-word","95.45454545454545","95.45454545454545","966.8636363636364","966.8636363636364","black","no","legacy","legacy","legacy","0","uniform","1","undefined","undefined","undefined","1","f","0","0","0","0","21","0","0","0","21","NA","17","21","17","0","17","3","21","0","21","Thu Feb 18 15:29:38 2021","The main experiment item","yes","Lexical_Decision_Task.osexp","C:/Users/matthew/OneDrive/Documents/Ames","no","Andale Mono","no","18","no","white","no","yes","576","legacy","17","17","3","C:/Users/matthew/OneDrive/Documents/Ames/subject-5214420.csv","legacy","Lentiform Loewenfeld","3.3.7","yes","yes","600bd7cfb6416f0113b04181","602110864497cf011d9c0822","0","f","NA","space","space","space","NA","f","776","NA","5985","9929","10004","NA","776","2","legacy","1024","2","48000","-16","task","5214420","even","NA","33597","41587","35601","78216","4395","24333","14328","78717","NA","78214","78717","78110","41587","79494","31071","77609","4388","44937","Lexical Decision Task","21","21271","22","yes","1024"
"2.899638141","0","3","hapt","non-word","95.65217391304348","95.65217391304348","963.3913043478261","963.3913043478261","black","no","legacy","legacy","legacy","0","uniform","1","undefined","undefined","undefined","1","f","0","0","0","0","22","0","0","0","22","NA","18","22","18","0","18","3","22","0","22","Thu Feb 18 15:29:38 2021","The main experiment item","yes","Lexical_Decision_Task.osexp","C:/Users/matthew/OneDrive/Documents/Ames","no","Andale Mono","no","18","no","white","no","yes","576","legacy","18","18","3","C:/Users/matthew/OneDrive/Documents/Ames/subject-5214420.csv","legacy","Lentiform Loewenfeld","3.3.7","yes","yes","600bd7cfb6416f0113b04181","602110864497cf011d9c0822","0","f","NA","space","space","space","NA","f","887","NA","5985","9929","10004","NA","887","2","legacy","1024","2","48000","-16","task","5214420","even","NA","33597","41587","35601","80170","4395","24333","14328","80674","NA","80167","80674","80065","41587","81562","31071","79564","4388","44937","Lexical Decision Task","22","22158","23","yes","1024"
"2.843025032","0","9","pusk","non-word","95.83333333333333","95.83333333333333","959.25","959.25","black","no","legacy","legacy","legacy","0","uniform","1","undefined","undefined","undefined","1","f","0","0","0","0","23","0","0","0","23","NA","19","23","19","0","19","3","23","0","23","Thu Feb 18 15:29:38 2021","The main experiment item","yes","Lexical_Decision_Task.osexp","C:/Users/matthew/OneDrive/Documents/Ames","no","Andale Mono","no","18","no","white","no","yes","576","legacy","19","19","3","C:/Users/matthew/OneDrive/Documents/Ames/subject-5214420.csv","legacy","Lentiform Loewenfeld","3.3.7","yes","yes","600bd7cfb6416f0113b04181","602110864497cf011d9c0822","0","f","NA","space","space","space","NA","f","864","NA","5985","9929","10004","NA","864","2","legacy","1024","2","48000","-16","task","5214420","even","NA","33597","41587","35601","82212","4395","24333","14328","82716","NA","82209","82716","82114","41587","83580","31071","81614","4388","44937","Lexical Decision Task","23","23022","24","yes","1024"
"2.892836167","10.01","5","soft","word","96","96","948.92","948.92","black","no","legacy","legacy","legacy","0","uniform","1","undefined","undefined","undefined","1","j","0","0","0","0","24","0","0","0","24","NA","20","24","20","0","20","3","24","0","24","Thu Feb 18 15:29:38 2021","The main experiment item","yes","Lexical_Decision_Task.osexp","C:/Users/matthew/OneDrive/Documents/Ames","no","Andale Mono","no","18","no","white","no","yes","576","legacy","20","20","3","C:/Users/matthew/OneDrive/Documents/Ames/subject-5214420.csv","legacy","Lentiform Loewenfeld","3.3.7","yes","yes","600bd7cfb6416f0113b04181","602110864497cf011d9c0822","0","j","NA","space","space","space","NA","j","701","NA","5985","9929","10004","NA","701","2","legacy","1024","2","48000","-16","task","5214420","even","NA","33597","41587","35601","84225","4395","24333","14328","84729","NA","84223","84730","84125","41587","85432","31071","83625","4388","44937","Lexical Decision Task","24","23723","25","yes","1024"
"3.133964479","0","8","graw","non-word","96.15384615384616","96.15384615384616","949.3461538461538","949.3461538461538","black","no","legacy","legacy","legacy","0","uniform","1","undefined","undefined","undefined","1","f","0","0","0","0","25","0","0","0","25","NA","21","25","21","0","21","3","25","0","25","Thu Feb 18 15:29:38 2021","The main experiment item","yes","Lexical_Decision_Task.osexp","C:/Users/matthew/OneDrive/Documents/Ames","no","Andale Mono","no","18","no","white","no","yes","576","legacy","21","21","3","C:/Users/matthew/OneDrive/Documents/Ames/subject-5214420.csv","legacy","Lentiform Loewenfeld","3.3.7","yes","yes","600bd7cfb6416f0113b04181","602110864497cf011d9c0822","0","f","NA","space","space","space","NA","f","960","NA","5985","9929","10004","NA","960","2","legacy","1024","2","48000","-16","task","5214420","even","NA","33597","41587","35601","86079","4395","24333","14328","86583","NA","86077","86583","85979","41587","87544","31071","85478","4388","44937","Lexical Decision Task","25","24683","26","yes","1024"
"2.893578687","8.69","3","surf","word","96.29629629629629","96.29629629629629","939.8148148148148","939.8148148148148","black","no","legacy","legacy","legacy","0","uniform","1","undefined","undefined","undefined","1","j","0","0","0","0","26","0","0","0","26","NA","22","26","22","0","22","3","26","0","26","Thu Feb 18 15:29:38 2021","The main experiment item","yes","Lexical_Decision_Task.osexp","C:/Users/matthew/OneDrive/Documents/Ames","no","Andale Mono","no","18","no","white","no","yes","576","legacy","22","22","3","C:/Users/matthew/OneDrive/Documents/Ames/subject-5214420.csv","legacy","Lentiform Loewenfeld","3.3.7","yes","yes","600bd7cfb6416f0113b04181","602110864497cf011d9c0822","0","j","NA","space","space","space","NA","j","692","NA","5985","9929","10004","NA","692","2","legacy","1024","2","48000","-16","task","5214420","even","NA","33597","41587","35601","88198","4395","24333","14328","88702","NA","88196","88702","88097","41587","89395","31071","87597","4388","44937","Lexical Decision Task","26","25375","27","yes","1024"
"3.16326079","0","5","parg","non-word","96.42857142857143","96.42857142857143","931.9285714285714","931.9285714285714","black","no","legacy","legacy","legacy","0","uniform","1","undefined","undefined","undefined","1","f","0","0","0","0","27","0","0","0","27","NA","23","27","23","0","23","3","27","0","27","Thu Feb 18 15:29:38 2021","The main experiment item","yes","Lexical_Decision_Task.osexp","C:/Users/matthew/OneDrive/Documents/Ames","no","Andale Mono","no","18","no","white","no","yes","576","legacy","23","23","3","C:/Users/matthew/OneDrive/Documents/Ames/subject-5214420.csv","legacy","Lentiform Loewenfeld","3.3.7","yes","yes","600bd7cfb6416f0113b04181","602110864497cf011d9c0822","0","f","NA","space","space","space","NA","f","719","NA","5985","9929","10004","NA","719","2","legacy","1024","2","48000","-16","task","5214420","even","NA","33597","41587","35601","90047","4395","24333","14328","90551","NA","90045","90551","89953","41587","91271","31071","89453","4388","44937","Lexical Decision Task","27","26094","28","yes","1024"
"2.880623071","0","9","curp","non-word","96.55172413793103","96.55172413793103","933.6896551724138","933.6896551724138","black","no","legacy","legacy","legacy","0","uniform","1","undefined","undefined","undefined","1","f","0","0","0","0","28","0","0","0","28","NA","24","28","24","0","24","3","28","0","28","Thu Feb 18 15:29:38 2021","The main experiment item","yes","Lexical_Decision_Task.osexp","C:/Users/matthew/OneDrive/Documents/Ames","no","Andale Mono","no","18","no","white","no","yes","576","legacy","24","24","3","C:/Users/matthew/OneDrive/Documents/Ames/subject-5214420.csv","legacy","Lentiform Loewenfeld","3.3.7","yes","yes","600bd7cfb6416f0113b04181","602110864497cf011d9c0822","0","f","NA","space","space","space","NA","f","983","NA","5985","9929","10004","NA","983","2","legacy","1024","2","48000","-16","task","5214420","even","NA","33597","41587","35601","91903","4395","24333","14328","92407","NA","91900","92407","91810","41587","93391","31071","91310","4388","44937","Lexical Decision Task","28","27077","29","yes","1024"
"3.132473155","0","4","glim","non-word","96.66666666666667","96.66666666666667","940.2333333333333","940.2333333333333","black","no","legacy","legacy","legacy","0","uniform","1","undefined","undefined","undefined","1","f","0","0","0","0","29","0","0","0","29","NA","25","29","25","0","25","3","29","0","29","Thu Feb 18 15:29:38 2021","The main experiment item","yes","Lexical_Decision_Task.osexp","C:/Users/matthew/OneDrive/Documents/Ames","no","Andale Mono","no","18","no","white","no","yes","576","legacy","25","25","3","C:/Users/matthew/OneDrive/Documents/Ames/subject-5214420.csv","legacy","Lentiform Loewenfeld","3.3.7","yes","yes","600bd7cfb6416f0113b04181","602110864497cf011d9c0822","0","f","NA","space","space","space","NA","f","1130","NA","5985","9929","10004","NA","1130","2","legacy","1024","2","48000","-16","task","5214420","even","NA","33597","41587","35601","94046","4395","24333","14328","94550","NA","94044","94550","93949","41587","95681","31071","93449","4388","44937","Lexical Decision Task","29","28207","30","yes","1024"
"2.709837904","6.85","8","skim","word","96.7741935483871","96.7741935483871","947","947","black","no","legacy","legacy","legacy","0","uniform","1","undefined","undefined","undefined","1","j","0","0","0","0","30","0","0","0","30","NA","26","30","26","0","26","3","30","0","30","Thu Feb 18 15:29:38 2021","The main experiment item","yes","Lexical_Decision_Task.osexp","C:/Users/matthew/OneDrive/Documents/Ames","no","Andale Mono","no","18","no","white","no","yes","576","legacy","26","26","3","C:/Users/matthew/OneDrive/Documents/Ames/subject-5214420.csv","legacy","Lentiform Loewenfeld","3.3.7","yes","yes","600bd7cfb6416f0113b04181","602110864497cf011d9c0822","0","j","NA","space","space","space","NA","j","1150","NA","5985","9929","10004","NA","1150","2","legacy","1024","2","48000","-16","task","5214420","even","NA","33597","41587","35601","96322","4395","24333","14328","96827","NA","96320","96827","96226","41587","97978","31071","95726","4388","44937","Lexical Decision Task","30","29357","31","yes","1024"
"3.259832699","0","9","flar","non-word","96.875","96.875","941.65625","941.65625","black","no","legacy","legacy","legacy","0","uniform","1","undefined","undefined","undefined","1","f","0","0","0","0","31","0","0","0","31","NA","27","31","27","0","27","3","31","0","31","Thu Feb 18 15:29:38 2021","The main experiment item","yes","Lexical_Decision_Task.osexp","C:/Users/matthew/OneDrive/Documents/Ames","no","Andale Mono","no","18","no","white","no","yes","576","legacy","27","27","3","C:/Users/matthew/OneDrive/Documents/Ames/subject-5214420.csv","legacy","Lentiform Loewenfeld","3.3.7","yes","yes","600bd7cfb6416f0113b04181","602110864497cf011d9c0822","0","f","NA","space","space","space","NA","f","776","NA","5985","9929","10004","NA","776","2","legacy","1024","2","48000","-16","task","5214420","even","NA","33597","41587","35601","98622","4395","24333","14328","99126","NA","98620","99126","98524","41587","99902","31071","98024","4388","44937","Lexical Decision Task","31","30133","32","yes","1024"
"3.302475237","0","7","leel","non-word","96.96969696969697","96.96969696969697","943.2121212121212","943.2121212121212","black","no","legacy","legacy","legacy","0","uniform","1","undefined","undefined","undefined","1","f","0","0","0","0","32","0","0","0","32","NA","28","32","28","0","28","3","32","0","32","Thu Feb 18 15:29:38 2021","The main experiment item","yes","Lexical_Decision_Task.osexp","C:/Users/matthew/OneDrive/Documents/Ames","no","Andale Mono","no","18","no","white","no","yes","576","legacy","28","28","3","C:/Users/matthew/OneDrive/Documents/Ames/subject-5214420.csv","legacy","Lentiform Loewenfeld","3.3.7","yes","yes","600bd7cfb6416f0113b04181","602110864497cf011d9c0822","0","f","NA","space","space","space","NA","f","993","NA","5985","9929","10004","NA","993","2","legacy","1024","2","48000","-16","task","5214420","even","NA","33597","41587","35601","100556","4395","24333","14328","101060","NA","100554","101060","100460","41587","102054","31071","99959","4388","44937","Lexical Decision Task","32","31126","33","yes","1024"
"2.966923697","5.4","2","fume","word","94.11764705882354","94.11764705882354","943.6470588235294","943.6470588235294","black","no","legacy","legacy","legacy","0","uniform","0","undefined","undefined","undefined","0","j","0","0","0","0","33","0","0","0","33","NA","29","33","29","0","29","3","33","0","33","Thu Feb 18 15:29:38 2021","The main experiment item","yes","Lexical_Decision_Task.osexp","C:/Users/matthew/OneDrive/Documents/Ames","no","Andale Mono","no","18","no","white","no","yes","576","legacy","29","29","3","C:/Users/matthew/OneDrive/Documents/Ames/subject-5214420.csv","legacy","Lentiform Loewenfeld","3.3.7","yes","yes","600bd7cfb6416f0113b04181","602110864497cf011d9c0822","0","f","NA","space","space","space","NA","f","958","NA","5985","9929","10004","NA","958","2","legacy","1024","2","48000","-16","task","5214420","even","NA","33597","41587","35601","102706","4395","24333","14328","103210","NA","102704","103210","102612","41587","104169","31071","102112","4388","44937","Lexical Decision Task","32","32084","34","yes","1024"
"3.077974404","10.41","8","tool","word","94.28571428571429","94.28571428571429","938.3714285714286","938.3714285714286","black","no","legacy","legacy","legacy","0","uniform","1","undefined","undefined","undefined","1","j","0","0","0","0","34","0","0","0","34","NA","30","34","30","0","30","3","34","0","34","Thu Feb 18 15:29:38 2021","The main experiment item","yes","Lexical_Decision_Task.osexp","C:/Users/matthew/OneDrive/Documents/Ames","no","Andale Mono","no","18","no","white","no","yes","576","legacy","30","30","3","C:/Users/matthew/OneDrive/Documents/Ames/subject-5214420.csv","legacy","Lentiform Loewenfeld","3.3.7","yes","yes","600bd7cfb6416f0113b04181","602110864497cf011d9c0822","0","j","NA","space","space","space","NA","j","759","NA","5985","9929","10004","NA","759","2","legacy","1024","2","48000","-16","task","5214420","even","NA","33597","41587","35601","105790","4395","24333","14328","106294","NA","105788","106294","105691","41587","107054","31071","102112","4388","104191","Lexical Decision Task","33","32843","35","yes","1024"
"2.668385917","5.48","4","twig","word","94.44444444444444","94.44444444444444","933.5833333333334","933.5833333333334","black","no","legacy","legacy","legacy","0","uniform","1","undefined","undefined","undefined","1","j","0","0","0","0","35","0","0","0","35","NA","31","35","31","0","31","3","35","0","35","Thu Feb 18 15:29:38 2021","The main experiment item","yes","Lexical_Decision_Task.osexp","C:/Users/matthew/OneDrive/Documents/Ames","no","Andale Mono","no","18","no","white","no","yes","576","legacy","31","31","3","C:/Users/matthew/OneDrive/Documents/Ames/subject-5214420.csv","legacy","Lentiform Loewenfeld","3.3.7","yes","yes","600bd7cfb6416f0113b04181","602110864497cf011d9c0822","0","j","NA","space","space","space","NA","j","766","NA","5985","9929","10004","NA","766","2","legacy","1024","2","48000","-16","task","5214420","even","NA","33597","41587","35601","107721","4395","24333","14328","108225","NA","107719","108225","107615","41587","108992","31071","107115","4388","104191","Lexical Decision Task","34","33609","36","yes","1024"
"3.307211407","6.07","7","honk","word","94.5945945945946","94.5945945945946","929.4594594594595","929.4594594594595","black","no","legacy","legacy","legacy","0","uniform","1","undefined","undefined","undefined","1","j","0","0","0","0","36","0","0","0","36","NA","32","36","32","0","32","3","36","0","36","Thu Feb 18 15:29:38 2021","The main experiment item","yes","Lexical_Decision_Task.osexp","C:/Users/matthew/OneDrive/Documents/Ames","no","Andale Mono","no","18","no","white","no","yes","576","legacy","32","32","3","C:/Users/matthew/OneDrive/Documents/Ames/subject-5214420.csv","legacy","Lentiform Loewenfeld","3.3.7","yes","yes","600bd7cfb6416f0113b04181","602110864497cf011d9c0822","0","j","NA","space","space","space","NA","j","781","NA","5985","9929","10004","NA","781","2","legacy","1024","2","48000","-16","task","5214420","even","NA","33597","41587","35601","109654","4395","24333","14328","110158","NA","109652","110158","109541","41587","110940","31071","109041","4388","104191","Lexical Decision Task","35","34390","37","yes","1024"
"2.803231716","5.26","3","kiln","word","92.10526315789474","92.10526315789474","925.078947368421","925.078947368421","black","no","legacy","legacy","legacy","0","uniform","0","undefined","undefined","undefined","0","j","0","0","0","0","37","0","0","0","37","NA","33","37","33","0","33","3","37","0","37","Thu Feb 18 15:29:38 2021","The main experiment item","yes","Lexical_Decision_Task.osexp","C:/Users/matthew/OneDrive/Documents/Ames","no","Andale Mono","no","18","no","white","no","yes","576","legacy","33","33","3","C:/Users/matthew/OneDrive/Documents/Ames/subject-5214420.csv","legacy","Lentiform Loewenfeld","3.3.7","yes","yes","600bd7cfb6416f0113b04181","602110864497cf011d9c0822","0","f","NA","space","space","space","NA","f","763","NA","5985","9929","10004","NA","763","2","legacy","1024","2","48000","-16","task","5214420","even","NA","33597","41587","35601","111611","4395","24333","14328","112115","NA","111609","112115","111509","41587","112879","31071","111009","4388","104191","Lexical Decision Task","35","35153","38","yes","1024"
"2.845304797","0","6","buct","non-word","92.3076923076923","92.3076923076923","943.4102564102565","943.4102564102565","black","no","legacy","legacy","legacy","0","uniform","1","undefined","undefined","undefined","1","f","0","0","0","0","38","0","0","0","38","NA","34","38","34","0","34","3","38","0","38","Thu Feb 18 15:29:38 2021","The main experiment item","yes","Lexical_Decision_Task.osexp","C:/Users/matthew/OneDrive/Documents/Ames","no","Andale Mono","no","18","no","white","no","yes","576","legacy","34","34","3","C:/Users/matthew/OneDrive/Documents/Ames/subject-5214420.csv","legacy","Lentiform Loewenfeld","3.3.7","yes","yes","600bd7cfb6416f0113b04181","602110864497cf011d9c0822","0","f","NA","space","space","space","NA","f","1640","NA","5985","9929","10004","NA","1640","2","legacy","1024","2","48000","-16","task","5214420","even","NA","33597","41587","35601","114522","4395","24333","14328","115026","NA","114520","115026","114423","41587","116667","31071","111009","4388","112923","Lexical Decision Task","36","36793","39","yes","1024"
"3.22685757","9.99","7","roll","word","92.5","92.5","936.65","936.65","black","no","legacy","legacy","legacy","0","uniform","1","undefined","undefined","undefined","1","j","0","0","0","0","39","0","0","0","39","NA","35","39","35","0","35","3","39","0","39","Thu Feb 18 15:29:38 2021","The main experiment item","yes","Lexical_Decision_Task.osexp","C:/Users/matthew/OneDrive/Documents/Ames","no","Andale Mono","no","18","no","white","no","yes","576","legacy","35","35","3","C:/Users/matthew/OneDrive/Documents/Ames/subject-5214420.csv","legacy","Lentiform Loewenfeld","3.3.7","yes","yes","600bd7cfb6416f0113b04181","602110864497cf011d9c0822","0","j","NA","space","space","space","NA","j","673","NA","5985","9929","10004","NA","673","2","legacy","1024","2","48000","-16","task","5214420","even","NA","33597","41587","35601","117311","4395","24333","14328","117815","NA","117309","117815","117211","41587","118489","31071","116711","4388","112923","Lexical Decision Task","37","37466","40","yes","1024"
"2.920123326","7.43","4","duel","word","90.2439024390244","90.2439024390244","948.4634146341464","948.4634146341464","black","no","legacy","legacy","legacy","0","uniform","0","undefined","undefined","undefined","0","j","0","0","0","0","40","0","0","0","40","NA","36","40","36","0","36","3","40","0","40","Thu Feb 18 15:29:38 2021","The main experiment item","yes","Lexical_Decision_Task.osexp","C:/Users/matthew/OneDrive/Documents/Ames","no","Andale Mono","no","18","no","white","no","yes","576","legacy","36","36","3","C:/Users/matthew/OneDrive/Documents/Ames/subject-5214420.csv","legacy","Lentiform Loewenfeld","3.3.7","yes","yes","600bd7cfb6416f0113b04181","602110864497cf011d9c0822","0","f","NA","space","space","space","NA","f","1421","NA","5985","9929","10004","NA","1421","2","legacy","1024","2","48000","-16","task","5214420","even","NA","33597","41587","35601","119143","4395","24333","14328","119647","NA","119141","119647","119038","41587","121069","31071","118538","4388","112923","Lexical Decision Task","37","38887","41","yes","1024"
"3.276537627","9.15","5","trap","word","90.47619047619048","90.47619047619048","940.6428571428571","940.6428571428571","black","no","legacy","legacy","legacy","0","uniform","1","undefined","undefined","undefined","1","j","0","0","0","0","41","0","0","0","41","NA","37","41","37","0","37","3","41","0","41","Thu Feb 18 15:29:38 2021","The main experiment item","yes","Lexical_Decision_Task.osexp","C:/Users/matthew/OneDrive/Documents/Ames","no","Andale Mono","no","18","no","white","no","yes","576","legacy","37","37","3","C:/Users/matthew/OneDrive/Documents/Ames/subject-5214420.csv","legacy","Lentiform Loewenfeld","3.3.7","yes","yes","600bd7cfb6416f0113b04181","602110864497cf011d9c0822","0","j","NA","space","space","space","NA","j","620","NA","5985","9929","10004","NA","620","2","legacy","1024","2","48000","-16","task","5214420","even","NA","33597","41587","35601","122717","4395","24333","14328","123221","NA","122715","123221","122610","41587","123842","31071","118538","4388","121110","Lexical Decision Task","38","39507","42","yes","1024"
"3.102203805","7.21","3","drip","word","90.69767441860465","90.69767441860465","933.6046511627907","933.6046511627907","black","no","legacy","legacy","legacy","0","uniform","1","undefined","undefined","undefined","1","j","0","0","0","0","42","0","0","0","42","NA","38","42","38","0","38","3","42","0","42","Thu Feb 18 15:29:38 2021","The main experiment item","yes","Lexical_Decision_Task.osexp","C:/Users/matthew/OneDrive/Documents/Ames","no","Andale Mono","no","18","no","white","no","yes","576","legacy","38","38","3","C:/Users/matthew/OneDrive/Documents/Ames/subject-5214420.csv","legacy","Lentiform Loewenfeld","3.3.7","yes","yes","600bd7cfb6416f0113b04181","602110864497cf011d9c0822","0","j","NA","space","space","space","NA","j","638","NA","5985","9929","10004","NA","638","2","legacy","1024","2","48000","-16","task","5214420","even","NA","33597","41587","35601","124496","4395","24333","14328","124998","NA","124494","124998","124400","41587","125637","31071","123900","4388","121110","Lexical Decision Task","39","40145","43","yes","1024"
"3.261341392","5.08","8","reek","word","90.9090909090909","90.9090909090909","931.6136363636364","931.6136363636364","black","no","legacy","legacy","legacy","0","uniform","1","undefined","undefined","undefined","1","j","0","0","0","0","43","0","0","0","43","NA","39","43","39","0","39","3","43","0","43","Thu Feb 18 15:29:38 2021","The main experiment item","yes","Lexical_Decision_Task.osexp","C:/Users/matthew/OneDrive/Documents/Ames","no","Andale Mono","no","18","no","white","no","yes","576","legacy","39","39","3","C:/Users/matthew/OneDrive/Documents/Ames/subject-5214420.csv","legacy","Lentiform Loewenfeld","3.3.7","yes","yes","600bd7cfb6416f0113b04181","602110864497cf011d9c0822","0","j","NA","space","space","space","NA","j","846","NA","5985","9929","10004","NA","846","2","legacy","1024","2","48000","-16","task","5214420","even","NA","33597","41587","35601","126288","4395","24333","14328","126789","NA","126286","126789","126187","41587","127636","31071","125687","4388","121110","Lexical Decision Task","40","40991","44","yes","1024"
"3.208978517","10.33","4","fish","word","91.11111111111111","91.11111111111111","923.2888888888889","923.2888888888889","black","no","legacy","legacy","legacy","0","uniform","1","undefined","undefined","undefined","1","j","0","0","0","0","44","0","0","0","44","NA","40","44","40","0","40","3","44","0","44","Thu Feb 18 15:29:38 2021","The main experiment item","yes","Lexical_Decision_Task.osexp","C:/Users/matthew/OneDrive/Documents/Ames","no","Andale Mono","no","18","no","white","no","yes","576","legacy","40","40","3","C:/Users/matthew/OneDrive/Documents/Ames/subject-5214420.csv","legacy","Lentiform Loewenfeld","3.3.7","yes","yes","600bd7cfb6416f0113b04181","602110864497cf011d9c0822","0","j","NA","space","space","space","NA","j","557","NA","5985","9929","10004","NA","557","2","legacy","1024","2","48000","-16","task","5214420","even","NA","33597","41587","35601","128294","4395","24333","14328","128798","NA","128292","128798","128195","41587","129356","31071","127695","4388","121110","Lexical Decision Task","41","41548","45","yes","1024"
"2.706148589","0","4","hube","non-word","91.30434782608695","91.30434782608695","919.4565217391304","919.4565217391304","black","no","legacy","legacy","legacy","0","uniform","1","undefined","undefined","undefined","1","f","0","0","0","0","45","0","0","0","45","NA","41","45","41","0","41","3","45","0","45","Thu Feb 18 15:29:38 2021","The main experiment item","yes","Lexical_Decision_Task.osexp","C:/Users/matthew/OneDrive/Documents/Ames","no","Andale Mono","no","18","no","white","no","yes","576","legacy","41","41","3","C:/Users/matthew/OneDrive/Documents/Ames/subject-5214420.csv","legacy","Lentiform Loewenfeld","3.3.7","yes","yes","600bd7cfb6416f0113b04181","602110864497cf011d9c0822","0","f","NA","space","space","space","NA","f","747","NA","5985","9929","10004","NA","747","2","legacy","1024","2","48000","-16","task","5214420","even","NA","33597","41587","35601","129974","4395","24333","14328","130478","NA","129972","130478","129879","41587","131226","31071","129378","4388","121110","Lexical Decision Task","42","42295","46","yes","1024"
"2.616654026","9.37","5","gift","word","91.48936170212765","91.48936170212765","913.0851063829788","913.0851063829788","black","no","legacy","legacy","legacy","0","uniform","1","undefined","undefined","undefined","1","j","0","0","0","0","46","0","0","0","46","NA","42","46","42","0","42","3","46","0","46","Thu Feb 18 15:29:38 2021","The main experiment item","yes","Lexical_Decision_Task.osexp","C:/Users/matthew/OneDrive/Documents/Ames","no","Andale Mono","no","18","no","white","no","yes","576","legacy","42","42","3","C:/Users/matthew/OneDrive/Documents/Ames/subject-5214420.csv","legacy","Lentiform Loewenfeld","3.3.7","yes","yes","600bd7cfb6416f0113b04181","602110864497cf011d9c0822","0","j","NA","space","space","space","NA","j","620","NA","5985","9929","10004","NA","620","2","legacy","1024","2","48000","-16","task","5214420","even","NA","33597","41587","35601","131869","4395","24333","14328","132373","NA","131867","132373","131774","41587","132994","31071","131274","4388","121110","Lexical Decision Task","43","42915","47","yes","1024"
"3.248054965","7.86","5","glow","word","91.66666666666667","91.66666666666667","905.6041666666666","905.6041666666666","black","no","legacy","legacy","legacy","0","uniform","1","undefined","undefined","undefined","1","j","0","0","0","0","47","0","0","0","47","NA","43","47","43","0","43","3","47","0","47","Thu Feb 18 15:29:38 2021","The main experiment item","yes","Lexical_Decision_Task.osexp","C:/Users/matthew/OneDrive/Documents/Ames","no","Andale Mono","no","18","no","white","no","yes","576","legacy","43","43","3","C:/Users/matthew/OneDrive/Documents/Ames/subject-5214420.csv","legacy","Lentiform Loewenfeld","3.3.7","yes","yes","600bd7cfb6416f0113b04181","602110864497cf011d9c0822","0","j","NA","space","space","space","NA","j","554","NA","5985","9929","10004","NA","554","2","legacy","1024","2","48000","-16","task","5214420","even","NA","33597","41587","35601","133646","4395","24333","14328","134150","NA","133644","134150","133550","41587","134705","31071","133050","4388","121110","Lexical Decision Task","44","43469","48","yes","1024"
"3.010582609","0","2","drod","non-word","91.83673469387755","91.83673469387755","899.0408163265306","899.0408163265306","black","no","legacy","legacy","legacy","0","uniform","1","undefined","undefined","undefined","1","f","0","0","0","0","48","0","0","0","48","NA","44","48","44","0","44","3","48","0","48","Thu Feb 18 15:29:38 2021","The main experiment item","yes","Lexical_Decision_Task.osexp","C:/Users/matthew/OneDrive/Documents/Ames","no","Andale Mono","no","18","no","white","no","yes","576","legacy","44","44","3","C:/Users/matthew/OneDrive/Documents/Ames/subject-5214420.csv","legacy","Lentiform Loewenfeld","3.3.7","yes","yes","600bd7cfb6416f0113b04181","602110864497cf011d9c0822","0","f","NA","space","space","space","NA","f","584","NA","5985","9929","10004","NA","584","2","legacy","1024","2","48000","-16","task","5214420","even","NA","33597","41587","35601","135372","4395","24333","14328","135876","NA","135370","135876","135273","41587","136460","31071","134773","4388","121110","Lexical Decision Task","45","44053","49","yes","1024"
"2.696356389","0","1","pizz","non-word","92","92","897.78","897.78","black","no","legacy","legacy","legacy","0","uniform","1","undefined","undefined","undefined","1","f","0","0","0","0","49","0","0","0","49","NA","45","49","45","0","45","3","49","0","49","Thu Feb 18 15:29:38 2021","The main experiment item","yes","Lexical_Decision_Task.osexp","C:/Users/matthew/OneDrive/Documents/Ames","no","Andale Mono","no","18","no","white","no","yes","576","legacy","45","45","3","C:/Users/matthew/OneDrive/Documents/Ames/subject-5214420.csv","legacy","Lentiform Loewenfeld","3.3.7","yes","yes","600bd7cfb6416f0113b04181","602110864497cf011d9c0822","0","f","NA","space","space","space","NA","f","836","NA","5985","9929","10004","NA","836","2","legacy","1024","2","48000","-16","task","5214420","even","NA","33597","41587","35601","137093","4395","24333","14328","137597","NA","137091","137597","136997","41587","138434","31071","136497","4388","121110","Lexical Decision Task","46","44889","50","yes","1024"
"2.981215883","10.66","5","hair","word","92.15686274509804","92.15686274509804","891.3725490196078","891.3725490196078","black","no","legacy","legacy","legacy","0","uniform","1","undefined","undefined","undefined","1","j","0","0","0","0","50","0","0","0","50","NA","46","50","46","0","46","3","50","0","50","Thu Feb 18 15:29:38 2021","The main experiment item","yes","Lexical_Decision_Task.osexp","C:/Users/matthew/OneDrive/Documents/Ames","no","Andale Mono","no","18","no","white","no","yes","576","legacy","46","46","3","C:/Users/matthew/OneDrive/Documents/Ames/subject-5214420.csv","legacy","Lentiform Loewenfeld","3.3.7","yes","yes","600bd7cfb6416f0113b04181","602110864497cf011d9c0822","0","j","NA","space","space","space","NA","j","571","NA","5985","9929","10004","NA","571","2","legacy","1024","2","48000","-16","task","5214420","even","NA","33597","41587","35601","139102","4395","24333","14328","139606","NA","139099","139606","138986","41587","140178","31071","138486","4388","121110","Lexical Decision Task","47","45460","51","yes","1024"
"3.120135028","0","3","vals","non-word","92.3076923076923","92.3076923076923","888.1346153846154","888.1346153846154","black","no","legacy","legacy","legacy","0","uniform","1","undefined","undefined","undefined","1","f","0","0","0","0","51","0","0","0","51","NA","47","51","47","0","47","3","51","0","51","Thu Feb 18 15:29:38 2021","The main experiment item","yes","Lexical_Decision_Task.osexp","C:/Users/matthew/OneDrive/Documents/Ames","no","Andale Mono","no","18","no","white","no","yes","576","legacy","47","47","3","C:/Users/matthew/OneDrive/Documents/Ames/subject-5214420.csv","legacy","Lentiform Loewenfeld","3.3.7","yes","yes","600bd7cfb6416f0113b04181","602110864497cf011d9c0822","0","f","NA","space","space","space","NA","f","723","NA","5985","9929","10004","NA","723","2","legacy","1024","2","48000","-16","task","5214420","even","NA","33597","41587","35601","140829","4395","24333","14328","141332","NA","140827","141332","140729","41587","142056","31071","140229","4388","121110","Lexical Decision Task","48","46183","52","yes","1024"
"3.269668578","0","7","trag","non-word","90.56603773584905","90.56603773584905","881.5094339622641","881.5094339622641","black","no","legacy","legacy","legacy","0","uniform","0","undefined","undefined","undefined","0","f","0","0","0","0","52","0","0","0","52","NA","48","52","48","0","48","3","52","0","52","Thu Feb 18 15:29:38 2021","The main experiment item","yes","Lexical_Decision_Task.osexp","C:/Users/matthew/OneDrive/Documents/Ames","no","Andale Mono","no","18","no","white","no","yes","576","legacy","48","48","3","C:/Users/matthew/OneDrive/Documents/Ames/subject-5214420.csv","legacy","Lentiform Loewenfeld","3.3.7","yes","yes","600bd7cfb6416f0113b04181","602110864497cf011d9c0822","0","j","NA","space","space","space","NA","j","537","NA","5985","9929","10004","NA","537","2","legacy","1024","2","48000","-16","task","5214420","even","NA","33597","41587","35601","142709","4395","24333","14328","143213","NA","142707","143213","142617","41587","143751","31071","142117","4388","121110","Lexical Decision Task","48","46720","53","yes","1024"
"3.299579929","0","2","flis","non-word","88.88888888888889","88.88888888888889","878.3703703703703","878.3703703703703","black","no","legacy","legacy","legacy","0","uniform","0","undefined","undefined","undefined","0","f","0","0","0","0","53","0","0","0","53","NA","49","53","49","0","49","3","53","0","53","Thu Feb 18 15:29:38 2021","The main experiment item","yes","Lexical_Decision_Task.osexp","C:/Users/matthew/OneDrive/Documents/Ames","no","Andale Mono","no","18","no","white","no","yes","576","legacy","49","49","3","C:/Users/matthew/OneDrive/Documents/Ames/subject-5214420.csv","legacy","Lentiform Loewenfeld","3.3.7","yes","yes","600bd7cfb6416f0113b04181","602110864497cf011d9c0822","0","j","NA","space","space","space","NA","j","712","NA","5985","9929","10004","NA","712","2","legacy","1024","2","48000","-16","task","5214420","even","NA","33597","41587","35601","145399","4395","24333","14328","145903","NA","145397","145903","145300","41587","146616","31071","142117","4388","143800","Lexical Decision Task","48","47432","54","yes","1024"
"2.799799878","0","4","ciff","non-word","87.27272727272727","87.27272727272727","878.1090909090909","878.1090909090909","black","no","legacy","legacy","legacy","0","uniform","0","undefined","undefined","undefined","0","f","0","0","0","0","54","0","0","0","54","0","50","54","50","0","50","3","54","0","54","Thu Feb 18 15:29:38 2021","The main experiment item","yes","Lexical_Decision_Task.osexp","C:/Users/matthew/OneDrive/Documents/Ames","no","Andale Mono","no","18","no","white","no","yes","576","legacy","50","50","3","C:/Users/matthew/OneDrive/Documents/Ames/subject-5214420.csv","legacy","Lentiform Loewenfeld","3.3.7","yes","yes","600bd7cfb6416f0113b04181","602110864497cf011d9c0822","0","j","NA","space","space","space","space","j","864","NA","5985","9929","10004","9185","864","2","legacy","1024","2","48000","-16","task","5214420","even","NA","33597","41587","35601","157547","4395","24333","14328","158051","148271","157545","158051","148185","41587","158916","31071","142117","4388","146685","Lexical Decision Task","48","48296","55","yes","1024"
"3.208172527","10.27","7","deck","word","87.5","87.5","873.5","873.5","black","no","legacy","legacy","legacy","0","uniform","1","undefined","undefined","undefined","1","j","0","0","0","0","55","0","0","0","55","0","51","55","51","0","51","3","55","0","55","Thu Feb 18 15:29:38 2021","The main experiment item","yes","Lexical_Decision_Task.osexp","C:/Users/matthew/OneDrive/Documents/Ames","no","Andale Mono","no","18","no","white","no","yes","576","legacy","51","51","3","C:/Users/matthew/OneDrive/Documents/Ames/subject-5214420.csv","legacy","Lentiform Loewenfeld","3.3.7","yes","yes","600bd7cfb6416f0113b04181","602110864497cf011d9c0822","0","j","NA","space","space","space","space","j","620","NA","5985","9929","10004","9185","620","2","legacy","1024","2","48000","-16","task","5214420","even","NA","33597","41587","35601","160566","4395","24333","14328","161070","148271","160564","161070","160459","41587","161691","31071","142117","4388","158958","Lexical Decision Task","49","48916","56","yes","1024"
"2.793790385","5.67","9","swab","word","87.71929824561404","87.71929824561404","873.421052631579","873.421052631579","black","no","legacy","legacy","legacy","0","uniform","1","undefined","undefined","undefined","1","j","0","0","0","0","56","0","0","0","56","0","52","56","52","0","52","3","56","0","56","Thu Feb 18 15:29:38 2021","The main experiment item","yes","Lexical_Decision_Task.osexp","C:/Users/matthew/OneDrive/Documents/Ames","no","Andale Mono","no","18","no","white","no","yes","576","legacy","52","52","3","C:/Users/matthew/OneDrive/Documents/Ames/subject-5214420.csv","legacy","Lentiform Loewenfeld","3.3.7","yes","yes","600bd7cfb6416f0113b04181","602110864497cf011d9c0822","0","j","NA","space","space","space","space","j","869","NA","5985","9929","10004","9185","869","2","legacy","1024","2","48000","-16","task","5214420","even","NA","33597","41587","35601","162326","4395","24333","14328","162830","148271","162324","162830","162218","41587","163700","31071","161718","4388","158958","Lexical Decision Task","50","49785","57","yes","1024"
"2.809559715","8.44","4","volt","word","87.93103448275862","87.93103448275862","872.448275862069","872.448275862069","black","no","legacy","legacy","legacy","0","uniform","1","undefined","undefined","undefined","1","j","0","0","0","0","57","0","0","0","57","0","53","57","53","0","53","3","57","0","57","Thu Feb 18 15:29:38 2021","The main experiment item","yes","Lexical_Decision_Task.osexp","C:/Users/matthew/OneDrive/Documents/Ames","no","Andale Mono","no","18","no","white","no","yes","576","legacy","53","53","3","C:/Users/matthew/OneDrive/Documents/Ames/subject-5214420.csv","legacy","Lentiform Loewenfeld","3.3.7","yes","yes","600bd7cfb6416f0113b04181","602110864497cf011d9c0822","0","j","NA","space","space","space","space","j","817","NA","5985","9929","10004","9185","817","2","legacy","1024","2","48000","-16","task","5214420","even","NA","33597","41587","35601","166060","4395","24333","14328","166564","148271","166057","166564","165955","41587","167382","31071","165455","4388","158958","Lexical Decision Task","51","50602","58","yes","1024"
"3.159867847","5.98","5","brim","word","88.13559322033899","88.13559322033899","870.3728813559322","870.3728813559322","black","no","legacy","legacy","legacy","0","uniform","1","undefined","undefined","undefined","1","j","0","0","0","0","58","0","0","0","58","0","54","58","54","0","54","3","58","0","58","Thu Feb 18 15:29:38 2021","The main experiment item","yes","Lexical_Decision_Task.osexp","C:/Users/matthew/OneDrive/Documents/Ames","no","Andale Mono","no","18","no","white","no","yes","576","legacy","54","54","3","C:/Users/matthew/OneDrive/Documents/Ames/subject-5214420.csv","legacy","Lentiform Loewenfeld","3.3.7","yes","yes","600bd7cfb6416f0113b04181","602110864497cf011d9c0822","0","j","NA","space","space","space","space","j","750","NA","5985","9929","10004","9185","750","2","legacy","1024","2","48000","-16","task","5214420","even","NA","33597","41587","35601","168030","4395","24333","14328","168534","148271","168028","168534","167931","41587","169285","31071","167431","4388","158958","Lexical Decision Task","52","51352","59","yes","1024"
"2.873320602","0","4","lurg","non-word","88.33333333333333","88.33333333333333","867.2666666666667","867.2666666666667","black","no","legacy","legacy","legacy","0","uniform","1","undefined","undefined","undefined","1","f","0","0","0","0","59","0","0","0","59","0","55","59","55","0","55","3","59","0","59","Thu Feb 18 15:29:38 2021","The main experiment item","yes","Lexical_Decision_Task.osexp","C:/Users/matthew/OneDrive/Documents/Ames","no","Andale Mono","no","18","no","white","no","yes","576","legacy","55","55","3","C:/Users/matthew/OneDrive/Documents/Ames/subject-5214420.csv","legacy","Lentiform Loewenfeld","3.3.7","yes","yes","600bd7cfb6416f0113b04181","602110864497cf011d9c0822","0","f","NA","space","space","space","space","f","684","NA","5985","9929","10004","9185","684","2","legacy","1024","2","48000","-16","task","5214420","even","NA","33597","41587","35601","169938","4395","24333","14328","170442","148271","169937","170442","169843","41587","171127","31071","169343","4388","158958","Lexical Decision Task","53","52036","60","yes","1024"
"2.895974732","6.65","5","sift","word","88.52459016393442","88.52459016393442","884.7704918032787","884.7704918032787","black","no","legacy","legacy","legacy","0","uniform","1","undefined","undefined","undefined","1","j","0","0","0","0","60","0","0","0","60","0","56","60","56","0","56","3","60","0","60","Thu Feb 18 15:29:38 2021","The main experiment item","yes","Lexical_Decision_Task.osexp","C:/Users/matthew/OneDrive/Documents/Ames","no","Andale Mono","no","18","no","white","no","yes","576","legacy","56","56","3","C:/Users/matthew/OneDrive/Documents/Ames/subject-5214420.csv","legacy","Lentiform Loewenfeld","3.3.7","yes","yes","600bd7cfb6416f0113b04181","602110864497cf011d9c0822","0","j","NA","space","space","space","space","j","1935","NA","5985","9929","10004","9185","1935","2","legacy","1024","2","48000","-16","task","5214420","even","NA","33597","41587","35601","171760","4395","24333","14328","172263","148271","171758","172263","171662","41587","174199","31071","171162","4388","158958","Lexical Decision Task","54","53971","61","yes","1024"
"3.316948329","0","1","besc","non-word","88.70967741935483","88.70967741935483","881.5","881.5","black","no","legacy","legacy","legacy","0","uniform","1","undefined","undefined","undefined","1","f","0","0","0","0","61","0","0","0","61","0","57","61","57","0","57","3","61","0","61","Thu Feb 18 15:29:38 2021","The main experiment item","yes","Lexical_Decision_Task.osexp","C:/Users/matthew/OneDrive/Documents/Ames","no","Andale Mono","no","18","no","white","no","yes","576","legacy","57","57","3","C:/Users/matthew/OneDrive/Documents/Ames/subject-5214420.csv","legacy","Lentiform Loewenfeld","3.3.7","yes","yes","600bd7cfb6416f0113b04181","602110864497cf011d9c0822","0","f","NA","space","space","space","space","f","682","NA","5985","9929","10004","9185","682","2","legacy","1024","2","48000","-16","task","5214420","even","NA","33597","41587","35601","174848","4395","24333","14328","175352","148271","174846","175352","174746","41587","176035","31071","174246","4388","158958","Lexical Decision Task","55","54653","62","yes","1024"
"3.131833513","7.66","4","limb","word","88.88888888888889","88.88888888888889","876.6349206349206","876.6349206349206","black","no","legacy","legacy","legacy","0","uniform","1","undefined","undefined","undefined","1","j","0","0","0","0","62","0","0","0","62","0","58","62","58","0","58","3","62","0","62","Thu Feb 18 15:29:38 2021","The main experiment item","yes","Lexical_Decision_Task.osexp","C:/Users/matthew/OneDrive/Documents/Ames","no","Andale Mono","no","18","no","white","no","yes","576","legacy","58","58","3","C:/Users/matthew/OneDrive/Documents/Ames/subject-5214420.csv","legacy","Lentiform Loewenfeld","3.3.7","yes","yes","600bd7cfb6416f0113b04181","602110864497cf011d9c0822","0","j","NA","space","space","space","space","j","575","NA","5985","9929","10004","9185","575","2","legacy","1024","2","48000","-16","task","5214420","even","NA","33597","41587","35601","176659","4395","24333","14328","177163","148271","176657","177163","176563","41587","177740","31071","176063","4388","158958","Lexical Decision Task","56","55228","63","yes","1024"
"3.137775856","7.39","5","comb","word","89.0625","89.0625","871.21875","871.21875","black","no","legacy","legacy","legacy","0","uniform","1","undefined","undefined","undefined","1","j","0","0","0","0","63","0","0","0","63","0","59","63","59","0","59","3","63","0","63","Thu Feb 18 15:29:38 2021","The main experiment item","yes","Lexical_Decision_Task.osexp","C:/Users/matthew/OneDrive/Documents/Ames","no","Andale Mono","no","18","no","white","no","yes","576","legacy","59","59","3","C:/Users/matthew/OneDrive/Documents/Ames/subject-5214420.csv","legacy","Lentiform Loewenfeld","3.3.7","yes","yes","600bd7cfb6416f0113b04181","602110864497cf011d9c0822","0","j","NA","space","space","space","space","j","530","NA","5985","9929","10004","9185","530","2","legacy","1024","2","48000","-16","task","5214420","even","NA","33597","41587","35601","178420","4395","24333","14328","178924","148271","178418","178924","178319","41587","179455","31071","177819","4388","158958","Lexical Decision Task","57","55758","64","yes","1024"
"3.067070856","9.39","3","loud","word","89.23076923076923","89.23076923076923","872.0153846153846","872.0153846153846","black","no","legacy","legacy","legacy","0","uniform","1","undefined","undefined","undefined","1","j","0","0","0","0","64","0","0","0","64","0","60","64","60","0","60","3","64","0","64","Thu Feb 18 15:29:38 2021","The main experiment item","yes","Lexical_Decision_Task.osexp","C:/Users/matthew/OneDrive/Documents/Ames","no","Andale Mono","no","18","no","white","no","yes","576","legacy","60","60","3","C:/Users/matthew/OneDrive/Documents/Ames/subject-5214420.csv","legacy","Lentiform Loewenfeld","3.3.7","yes","yes","600bd7cfb6416f0113b04181","602110864497cf011d9c0822","0","j","NA","space","space","space","space","j","923","NA","5985","9929","10004","9185","923","2","legacy","1024","2","48000","-16","task","5214420","even","NA","33597","41587","35601","180117","4395","24333","14328","180621","148271","180115","180621","180001","41587","181546","31071","179501","4388","158958","Lexical Decision Task","58","56681","65","yes","1024"
"3.068433376","8.09","2","bulb","word","89.39393939393939","89.39393939393939","867.8030303030303","867.8030303030303","black","no","legacy","legacy","legacy","0","uniform","1","undefined","undefined","undefined","1","j","0","0","0","0","65","0","0","0","65","0","61","65","61","0","61","3","65","0","65","Thu Feb 18 15:29:38 2021","The main experiment item","yes","Lexical_Decision_Task.osexp","C:/Users/matthew/OneDrive/Documents/Ames","no","Andale Mono","no","18","no","white","no","yes","576","legacy","61","61","3","C:/Users/matthew/OneDrive/Documents/Ames/subject-5214420.csv","legacy","Lentiform Loewenfeld","3.3.7","yes","yes","600bd7cfb6416f0113b04181","602110864497cf011d9c0822","0","j","NA","space","space","space","space","j","594","NA","5985","9929","10004","9185","594","2","legacy","1024","2","48000","-16","task","5214420","even","NA","33597","41587","35601","182183","4395","24333","14328","182687","148271","182180","182687","182088","41587","183284","31071","181588","4388","158958","Lexical Decision Task","59","57275","66","yes","1024"
"2.64476673","0","5","moft","non-word","89.55223880597015","89.55223880597015","867.5223880597015","867.5223880597015","black","no","legacy","legacy","legacy","0","uniform","1","undefined","undefined","undefined","1","f","0","0","0","0","66","0","0","0","66","0","62","66","62","0","62","3","66","0","66","Thu Feb 18 15:29:38 2021","The main experiment item","yes","Lexical_Decision_Task.osexp","C:/Users/matthew/OneDrive/Documents/Ames","no","Andale Mono","no","18","no","white","no","yes","576","legacy","62","62","3","C:/Users/matthew/OneDrive/Documents/Ames/subject-5214420.csv","legacy","Lentiform Loewenfeld","3.3.7","yes","yes","600bd7cfb6416f0113b04181","602110864497cf011d9c0822","0","f","NA","space","space","space","space","f","849","NA","5985","9929","10004","9185","849","2","legacy","1024","2","48000","-16","task","5214420","even","NA","33597","41587","35601","183942","4395","24333","14328","184446","148271","183940","184446","183839","41587","185297","31071","183339","4388","158958","Lexical Decision Task","60","58124","67","yes","1024"
"2.983324025","9.56","2","debt","word","89.70588235294117","89.70588235294117","864.4705882352941","864.4705882352941","black","no","legacy","legacy","legacy","0","uniform","1","undefined","undefined","undefined","1","j","0","0","0","0","67","0","0","0","67","0","63","67","63","0","63","3","67","0","67","Thu Feb 18 15:29:38 2021","The main experiment item","yes","Lexical_Decision_Task.osexp","C:/Users/matthew/OneDrive/Documents/Ames","no","Andale Mono","no","18","no","white","no","yes","576","legacy","63","63","3","C:/Users/matthew/OneDrive/Documents/Ames/subject-5214420.csv","legacy","Lentiform Loewenfeld","3.3.7","yes","yes","600bd7cfb6416f0113b04181","602110864497cf011d9c0822","0","j","NA","space","space","space","space","j","660","NA","5985","9929","10004","9185","660","2","legacy","1024","2","48000","-16","task","5214420","even","NA","33597","41587","35601","185966","4395","24333","14328","186470","148271","185964","186470","185862","41587","187131","31071","185362","4388","158958","Lexical Decision Task","61","58784","68","yes","1024"
"2.953276337","6.32","4","thaw","word","88.40579710144928","88.40579710144928","861.463768115942","861.463768115942","black","no","legacy","legacy","legacy","0","uniform","0","undefined","undefined","undefined","0","j","0","0","0","0","68","0","0","0","68","0","64","68","64","0","64","3","68","0","68","Thu Feb 18 15:29:38 2021","The main experiment item","yes","Lexical_Decision_Task.osexp","C:/Users/matthew/OneDrive/Documents/Ames","no","Andale Mono","no","18","no","white","no","yes","576","legacy","64","64","3","C:/Users/matthew/OneDrive/Documents/Ames/subject-5214420.csv","legacy","Lentiform Loewenfeld","3.3.7","yes","yes","600bd7cfb6416f0113b04181","602110864497cf011d9c0822","0","f","NA","space","space","space","space","f","657","NA","5985","9929","10004","9185","657","2","legacy","1024","2","48000","-16","task","5214420","even","NA","33597","41587","35601","187781","4395","24333","14328","188285","148271","187779","188285","187678","41587","188943","31071","187178","4388","158958","Lexical Decision Task","61","59441","69","yes","1024"
"3.303771854","0","9","dath","non-word","88.57142857142857","88.57142857142857","862.5714285714286","862.5714285714286","black","no","legacy","legacy","legacy","0","uniform","1","undefined","undefined","undefined","1","f","0","0","0","0","69","0","0","0","69","0","65","69","65","0","65","3","69","0","69","Thu Feb 18 15:29:38 2021","The main experiment item","yes","Lexical_Decision_Task.osexp","C:/Users/matthew/OneDrive/Documents/Ames","no","Andale Mono","no","18","no","white","no","yes","576","legacy","65","65","3","C:/Users/matthew/OneDrive/Documents/Ames/subject-5214420.csv","legacy","Lentiform Loewenfeld","3.3.7","yes","yes","600bd7cfb6416f0113b04181","602110864497cf011d9c0822","0","f","NA","space","space","space","space","f","939","NA","5985","9929","10004","9185","939","2","legacy","1024","2","48000","-16","task","5214420","even","NA","33597","41587","35601","190593","4395","24333","14328","191097","148271","190591","191097","190488","41587","192037","31071","187178","4388","188988","Lexical Decision Task","62","60380","70","yes","1024"
"2.897810299","0","5","glur","non-word","87.32394366197182","87.32394366197182","860.9577464788732","860.9577464788732","black","no","legacy","legacy","legacy","0","uniform","0","undefined","undefined","undefined","0","f","0","0","0","0","70","0","0","0","70","0","66","70","66","0","66","3","70","0","70","Thu Feb 18 15:29:38 2021","The main experiment item","yes","Lexical_Decision_Task.osexp","C:/Users/matthew/OneDrive/Documents/Ames","no","Andale Mono","no","18","no","white","no","yes","576","legacy","66","66","3","C:/Users/matthew/OneDrive/Documents/Ames/subject-5214420.csv","legacy","Lentiform Loewenfeld","3.3.7","yes","yes","600bd7cfb6416f0113b04181","602110864497cf011d9c0822","0","j","NA","space","space","space","space","j","748","NA","5985","9929","10004","9185","748","2","legacy","1024","2","48000","-16","task","5214420","even","NA","33597","41587","35601","192715","4395","24333","14328","193220","148271","192713","193220","192597","41587","193970","31071","192097","4388","188988","Lexical Decision Task","62","61128","71","yes","1024"
"3.263399331","0","8","cour","non-word","87.5","87.5","861.875","861.875","black","no","legacy","legacy","legacy","0","uniform","1","undefined","undefined","undefined","1","f","0","0","0","0","71","0","0","0","71","0","67","71","67","0","67","3","71","0","71","Thu Feb 18 15:29:38 2021","The main experiment item","yes","Lexical_Decision_Task.osexp","C:/Users/matthew/OneDrive/Documents/Ames","no","Andale Mono","no","18","no","white","no","yes","576","legacy","67","67","3","C:/Users/matthew/OneDrive/Documents/Ames/subject-5214420.csv","legacy","Lentiform Loewenfeld","3.3.7","yes","yes","600bd7cfb6416f0113b04181","602110864497cf011d9c0822","0","f","NA","space","space","space","space","f","927","NA","5985","9929","10004","9185","927","2","legacy","1024","2","48000","-16","task","5214420","even","NA","33597","41587","35601","195728","4395","24333","14328","196232","148271","195725","196232","195623","41587","197161","31071","192097","4388","194123","Lexical Decision Task","63","62055","72","yes","1024"
"3.119255889","6.63","2","itch","word","87.67123287671232","87.67123287671232","860.7260273972603","860.7260273972603","black","no","legacy","legacy","legacy","0","uniform","1","undefined","undefined","undefined","1","j","0","0","0","0","72","0","0","0","72","0","68","72","68","0","68","3","72","0","72","Thu Feb 18 15:29:38 2021","The main experiment item","yes","Lexical_Decision_Task.osexp","C:/Users/matthew/OneDrive/Documents/Ames","no","Andale Mono","no","18","no","white","no","yes","576","legacy","68","68","3","C:/Users/matthew/OneDrive/Documents/Ames/subject-5214420.csv","legacy","Lentiform Loewenfeld","3.3.7","yes","yes","600bd7cfb6416f0113b04181","602110864497cf011d9c0822","0","j","NA","space","space","space","space","j","778","NA","5985","9929","10004","9185","778","2","legacy","1024","2","48000","-16","task","5214420","even","NA","33597","41587","35601","197822","4395","24333","14328","198326","148271","197820","198326","197707","41587","199105","31071","197207","4388","194123","Lexical Decision Task","64","62833","73","yes","1024"
"2.937852093","0","7","bamp","non-word","87.83783783783784","87.83783783783784","861.6351351351351","861.6351351351351","black","no","legacy","legacy","legacy","0","uniform","1","undefined","undefined","undefined","1","f","0","0","0","0","73","0","0","0","73","0","69","73","69","0","69","3","73","0","73","Thu Feb 18 15:29:38 2021","The main experiment item","yes","Lexical_Decision_Task.osexp","C:/Users/matthew/OneDrive/Documents/Ames","no","Andale Mono","no","18","no","white","no","yes","576","legacy","69","69","3","C:/Users/matthew/OneDrive/Documents/Ames/subject-5214420.csv","legacy","Lentiform Loewenfeld","3.3.7","yes","yes","600bd7cfb6416f0113b04181","602110864497cf011d9c0822","0","f","NA","space","space","space","space","f","928","NA","5985","9929","10004","9185","928","2","legacy","1024","2","48000","-16","task","5214420","even","NA","33597","41587","35601","199752","4395","24333","14328","200257","148271","199750","200257","199649","41587","201186","31071","199148","4388","194123","Lexical Decision Task","65","63761","74","yes","1024"
"2.75025376","10.2","6","jump","word","88","88","857.48","857.48","black","no","legacy","legacy","legacy","0","uniform","1","undefined","undefined","undefined","1","j","0","0","0","0","74","0","0","0","74","0","70","74","70","0","70","3","74","0","74","Thu Feb 18 15:29:38 2021","The main experiment item","yes","Lexical_Decision_Task.osexp","C:/Users/matthew/OneDrive/Documents/Ames","no","Andale Mono","no","18","no","white","no","yes","576","legacy","70","70","3","C:/Users/matthew/OneDrive/Documents/Ames/subject-5214420.csv","legacy","Lentiform Loewenfeld","3.3.7","yes","yes","600bd7cfb6416f0113b04181","602110864497cf011d9c0822","0","j","NA","space","space","space","space","j","550","NA","5985","9929","10004","9185","550","2","legacy","1024","2","48000","-16","task","5214420","even","NA","33597","41587","35601","201818","4395","24333","14328","202322","148271","201816","202322","201713","41587","202873","31071","201213","4388","194123","Lexical Decision Task","66","64311","75","yes","1024"
"3.15462682","0","6","noal","non-word","86.84210526315789","86.84210526315789","856.2368421052631","856.2368421052631","black","no","legacy","legacy","legacy","0","uniform","0","undefined","undefined","undefined","0","f","0","0","0","0","75","0","0","0","75","0","71","75","71","0","71","3","75","0","75","Thu Feb 18 15:29:38 2021","The main experiment item","yes","Lexical_Decision_Task.osexp","C:/Users/matthew/OneDrive/Documents/Ames","no","Andale Mono","no","18","no","white","no","yes","576","legacy","71","71","3","C:/Users/matthew/OneDrive/Documents/Ames/subject-5214420.csv","legacy","Lentiform Loewenfeld","3.3.7","yes","yes","600bd7cfb6416f0113b04181","602110864497cf011d9c0822","0","j","NA","space","space","space","space","j","763","NA","5985","9929","10004","9185","763","2","legacy","1024","2","48000","-16","task","5214420","even","NA","33597","41587","35601","203504","4395","24333","14328","204008","148271","203502","204008","203407","41587","204772","31071","202907","4388","194123","Lexical Decision Task","66","65074","76","yes","1024"
"3.153104174","10.89","6","door","word","87.01298701298701","87.01298701298701","855.7922077922078","855.7922077922078","black","no","legacy","legacy","legacy","0","uniform","1","undefined","undefined","undefined","1","j","0","0","0","0","76","0","0","0","76","0","72","76","72","0","72","3","76","0","76","Thu Feb 18 15:29:38 2021","The main experiment item","yes","Lexical_Decision_Task.osexp","C:/Users/matthew/OneDrive/Documents/Ames","no","Andale Mono","no","18","no","white","no","yes","576","legacy","72","72","3","C:/Users/matthew/OneDrive/Documents/Ames/subject-5214420.csv","legacy","Lentiform Loewenfeld","3.3.7","yes","yes","600bd7cfb6416f0113b04181","602110864497cf011d9c0822","0","j","NA","space","space","space","space","j","822","NA","5985","9929","10004","9185","822","2","legacy","1024","2","48000","-16","task","5214420","even","NA","33597","41587","35601","206427","4395","24333","14328","206931","148271","206424","206931","206329","41587","207754","31071","202907","4388","204829","Lexical Decision Task","67","65896","77","yes","1024"
"3.121778632","0","9","sark","non-word","87.17948717948718","87.17948717948718","859","859","black","no","legacy","legacy","legacy","0","uniform","1","undefined","undefined","undefined","1","f","0","0","0","0","77","0","0","0","77","0","73","77","73","0","73","3","77","0","77","Thu Feb 18 15:29:38 2021","The main experiment item","yes","Lexical_Decision_Task.osexp","C:/Users/matthew/OneDrive/Documents/Ames","no","Andale Mono","no","18","no","white","no","yes","576","legacy","73","73","3","C:/Users/matthew/OneDrive/Documents/Ames/subject-5214420.csv","legacy","Lentiform Loewenfeld","3.3.7","yes","yes","600bd7cfb6416f0113b04181","602110864497cf011d9c0822","0","f","NA","space","space","space","space","f","1106","NA","5985","9929","10004","9185","1106","2","legacy","1024","2","48000","-16","task","5214420","even","NA","33597","41587","35601","208374","4395","24333","14328","208878","148271","208372","208878","208277","41587","209985","31071","207777","4388","204829","Lexical Decision Task","68","67002","78","yes","1024"
"3.374198258","0","8","vist","non-word","86.07594936708861","86.07594936708861","856.2025316455696","856.2025316455696","black","no","legacy","legacy","legacy","0","uniform","0","undefined","undefined","undefined","0","f","0","0","0","0","78","0","0","0","78","0","74","78","74","0","74","3","78","0","78","Thu Feb 18 15:29:38 2021","The main experiment item","yes","Lexical_Decision_Task.osexp","C:/Users/matthew/OneDrive/Documents/Ames","no","Andale Mono","no","18","no","white","no","yes","576","legacy","74","74","3","C:/Users/matthew/OneDrive/Documents/Ames/subject-5214420.csv","legacy","Lentiform Loewenfeld","3.3.7","yes","yes","600bd7cfb6416f0113b04181","602110864497cf011d9c0822","0","j","NA","space","space","space","space","j","638","NA","5985","9929","10004","9185","638","2","legacy","1024","2","48000","-16","task","5214420","even","NA","33597","41587","35601","210616","4395","24333","14328","211120","148271","210614","211120","210518","41587","211759","31071","210018","4388","204829","Lexical Decision Task","68","67640","79","yes","1024"
"3.274157849","0","8","leet","non-word","85","85","855.9125","855.9125","black","no","legacy","legacy","legacy","0","uniform","0","undefined","undefined","undefined","0","f","0","0","0","0","79","0","0","0","79","0","75","79","75","0","75","3","79","0","79","Thu Feb 18 15:29:38 2021","The main experiment item","yes","Lexical_Decision_Task.osexp","C:/Users/matthew/OneDrive/Documents/Ames","no","Andale Mono","no","18","no","white","no","yes","576","legacy","75","75","3","C:/Users/matthew/OneDrive/Documents/Ames/subject-5214420.csv","legacy","Lentiform Loewenfeld","3.3.7","yes","yes","600bd7cfb6416f0113b04181","602110864497cf011d9c0822","0","j","NA","space","space","space","space","j","833","NA","5985","9929","10004","9185","833","2","legacy","1024","2","48000","-16","task","5214420","even","NA","33597","41587","35601","213412","4395","24333","14328","213916","148271","213410","213916","213311","41587","214750","31071","210018","4388","211811","Lexical Decision Task","68","68473","80","yes","1024"
"2.8162413","0","5","nusk","non-word","85.18518518518519","85.18518518518519","857.7530864197531","857.7530864197531","black","no","legacy","legacy","legacy","0","uniform","1","undefined","undefined","undefined","1","f","0","0","0","0","80","0","0","0","80","0","76","80","76","0","76","3","80","0","80","Thu Feb 18 15:29:38 2021","The main experiment item","yes","Lexical_Decision_Task.osexp","C:/Users/matthew/OneDrive/Documents/Ames","no","Andale Mono","no","18","no","white","no","yes","576","legacy","76","76","3","C:/Users/matthew/OneDrive/Documents/Ames/subject-5214420.csv","legacy","Lentiform Loewenfeld","3.3.7","yes","yes","600bd7cfb6416f0113b04181","602110864497cf011d9c0822","0","f","NA","space","space","space","space","f","1005","NA","5985","9929","10004","9185","1005","2","legacy","1024","2","48000","-16","task","5214420","even","NA","33597","41587","35601","216395","4395","24333","14328","216899","148271","216393","216899","216289","41587","217905","31071","210018","4388","214789","Lexical Decision Task","69","69478","81","yes","1024"
"3.529815197","0","3","lerm","non-word","85.36585365853658","85.36585365853658","854.8536585365854","854.8536585365854","black","no","legacy","legacy","legacy","0","uniform","1","undefined","undefined","undefined","1","f","0","0","0","0","81","0","0","0","81","0","77","81","77","0","77","3","81","0","81","Thu Feb 18 15:29:38 2021","The main experiment item","yes","Lexical_Decision_Task.osexp","C:/Users/matthew/OneDrive/Documents/Ames","no","Andale Mono","no","18","no","white","no","yes","576","legacy","77","77","3","C:/Users/matthew/OneDrive/Documents/Ames/subject-5214420.csv","legacy","Lentiform Loewenfeld","3.3.7","yes","yes","600bd7cfb6416f0113b04181","602110864497cf011d9c0822","0","f","NA","space","space","space","space","f","620","NA","5985","9929","10004","9185","620","2","legacy","1024","2","48000","-16","task","5214420","even","NA","33597","41587","35601","218558","4395","24333","14328","219062","148271","218556","219062","218469","41587","219683","31071","217969","4388","214789","Lexical Decision Task","70","70098","82","yes","1024"
"3.372543801","9.24","8","coat","word","85.5421686746988","85.5421686746988","851.7710843373494","851.7710843373494","black","no","legacy","legacy","legacy","0","uniform","1","undefined","undefined","undefined","1","j","0","0","0","0","82","0","0","0","82","0","78","82","78","0","78","3","82","0","82","Thu Feb 18 15:29:38 2021","The main experiment item","yes","Lexical_Decision_Task.osexp","C:/Users/matthew/OneDrive/Documents/Ames","no","Andale Mono","no","18","no","white","no","yes","576","legacy","78","78","3","C:/Users/matthew/OneDrive/Documents/Ames/subject-5214420.csv","legacy","Lentiform Loewenfeld","3.3.7","yes","yes","600bd7cfb6416f0113b04181","602110864497cf011d9c0822","0","j","NA","space","space","space","space","j","599","NA","5985","9929","10004","9185","599","2","legacy","1024","2","48000","-16","task","5214420","even","NA","33597","41587","35601","220337","4395","24333","14328","220841","148271","220335","220841","220228","41587","221441","31071","219728","4388","214789","Lexical Decision Task","71","70697","83","yes","1024"
"2.839268497","0","8","maft","non-word","85.71428571428571","85.71428571428571","851.1785714285714","851.1785714285714","black","no","legacy","legacy","legacy","0","uniform","1","undefined","undefined","undefined","1","f","0","0","0","0","83","0","0","0","83","0","79","83","79","0","79","3","83","0","83","Thu Feb 18 15:29:38 2021","The main experiment item","yes","Lexical_Decision_Task.osexp","C:/Users/matthew/OneDrive/Documents/Ames","no","Andale Mono","no","18","no","white","no","yes","576","legacy","79","79","3","C:/Users/matthew/OneDrive/Documents/Ames/subject-5214420.csv","legacy","Lentiform Loewenfeld","3.3.7","yes","yes","600bd7cfb6416f0113b04181","602110864497cf011d9c0822","0","f","NA","space","space","space","space","f","802","NA","5985","9929","10004","9185","802","2","legacy","1024","2","48000","-16","task","5214420","even","NA","33597","41587","35601","222098","4395","24333","14328","222602","148271","222096","222602","221995","41587","223405","31071","221495","4388","214789","Lexical Decision Task","72","71499","84","yes","1024"
"3.440331212","7.35","6","stew","word","85.88235294117646","85.88235294117646","848.4941176470588","848.4941176470588","black","no","legacy","legacy","legacy","0","uniform","1","undefined","undefined","undefined","1","j","0","0","0","0","84","0","0","0","84","0","80","84","80","0","80","3","84","0","84","Thu Feb 18 15:29:38 2021","The main experiment item","yes","Lexical_Decision_Task.osexp","C:/Users/matthew/OneDrive/Documents/Ames","no","Andale Mono","no","18","no","white","no","yes","576","legacy","80","80","3","C:/Users/matthew/OneDrive/Documents/Ames/subject-5214420.csv","legacy","Lentiform Loewenfeld","3.3.7","yes","yes","600bd7cfb6416f0113b04181","602110864497cf011d9c0822","0","j","NA","space","space","space","space","j","623","NA","5985","9929","10004","9185","623","2","legacy","1024","2","48000","-16","task","5214420","even","NA","33597","41587","35601","224058","4395","24333","14328","224562","148271","224056","224562","223960","41587","225187","31071","223460","4388","214789","Lexical Decision Task","73","72122","85","yes","1024"
"2.744553742","0","2","nawk","non-word","86.04651162790698","86.04651162790698","849.9883720930233","849.9883720930233","black","no","legacy","legacy","legacy","0","uniform","1","undefined","undefined","undefined","1","f","0","0","0","0","85","0","0","0","85","0","81","85","81","0","81","3","85","0","85","Thu Feb 18 15:29:38 2021","The main experiment item","yes","Lexical_Decision_Task.osexp","C:/Users/matthew/OneDrive/Documents/Ames","no","Andale Mono","no","18","no","white","no","yes","576","legacy","81","81","3","C:/Users/matthew/OneDrive/Documents/Ames/subject-5214420.csv","legacy","Lentiform Loewenfeld","3.3.7","yes","yes","600bd7cfb6416f0113b04181","602110864497cf011d9c0822","0","f","NA","space","space","space","space","f","977","NA","5985","9929","10004","9185","977","2","legacy","1024","2","48000","-16","task","5214420","even","NA","33597","41587","35601","225848","4395","24333","14328","226352","148271","225846","226352","225746","41587","227331","31071","225245","4388","214789","Lexical Decision Task","74","73099","86","yes","1024"
"2.69019608","9.01","2","myth","word","86.20689655172414","86.20689655172414","850.8620689655172","850.8620689655172","black","no","legacy","legacy","legacy","0","uniform","1","undefined","undefined","undefined","1","j","0","0","0","0","86","0","0","0","86","0","82","86","82","0","82","3","86","0","86","Thu Feb 18 15:29:38 2021","The main experiment item","yes","Lexical_Decision_Task.osexp","C:/Users/matthew/OneDrive/Documents/Ames","no","Andale Mono","no","18","no","white","no","yes","576","legacy","82","82","3","C:/Users/matthew/OneDrive/Documents/Ames/subject-5214420.csv","legacy","Lentiform Loewenfeld","3.3.7","yes","yes","600bd7cfb6416f0113b04181","602110864497cf011d9c0822","0","j","NA","space","space","space","space","j","926","NA","5985","9929","10004","9185","926","2","legacy","1024","2","48000","-16","task","5214420","even","NA","33597","41587","35601","227967","4395","24333","14328","228471","148271","227965","228471","227870","41587","229398","31071","227369","4388","214789","Lexical Decision Task","75","74025","87","yes","1024"
"3.145920145","8.51","8","flew","word","86.36363636363636","86.36363636363636","848.4318181818181","848.4318181818181","black","no","legacy","legacy","legacy","0","uniform","1","undefined","undefined","undefined","1","j","0","0","0","0","87","0","0","0","87","0","83","87","83","0","83","3","87","0","87","Thu Feb 18 15:29:38 2021","The main experiment item","yes","Lexical_Decision_Task.osexp","C:/Users/matthew/OneDrive/Documents/Ames","no","Andale Mono","no","18","no","white","no","yes","576","legacy","83","83","3","C:/Users/matthew/OneDrive/Documents/Ames/subject-5214420.csv","legacy","Lentiform Loewenfeld","3.3.7","yes","yes","600bd7cfb6416f0113b04181","602110864497cf011d9c0822","0","j","NA","space","space","space","space","j","637","NA","5985","9929","10004","9185","637","2","legacy","1024","2","48000","-16","task","5214420","even","NA","33597","41587","35601","230052","4395","24333","14328","230556","148271","230050","230556","229951","41587","231195","31071","229450","4388","214789","Lexical Decision Task","76","74662","88","yes","1024"
"2.6599162","0","6","flug","non-word","85.3932584269663","85.3932584269663","844.8651685393259","844.8651685393259","black","no","legacy","legacy","legacy","0","uniform","0","undefined","undefined","undefined","0","f","0","0","0","0","88","0","0","0","88","0","84","88","84","0","84","3","88","0","88","Thu Feb 18 15:29:38 2021","The main experiment item","yes","Lexical_Decision_Task.osexp","C:/Users/matthew/OneDrive/Documents/Ames","no","Andale Mono","no","18","no","white","no","yes","576","legacy","84","84","3","C:/Users/matthew/OneDrive/Documents/Ames/subject-5214420.csv","legacy","Lentiform Loewenfeld","3.3.7","yes","yes","600bd7cfb6416f0113b04181","602110864497cf011d9c0822","0","j","NA","space","space","space","space","j","531","NA","5985","9929","10004","9185","531","2","legacy","1024","2","48000","-16","task","5214420","even","NA","33597","41587","35601","231837","4395","24333","14328","232342","148271","231835","232342","231741","41587","232874","31071","231241","4388","214789","Lexical Decision Task","76","75193","89","yes","1024"
"2.839898939","8.99","6","soap","word","85.55555555555556","85.55555555555556","842.3888888888889","842.3888888888889","black","no","legacy","legacy","legacy","0","uniform","1","undefined","undefined","undefined","1","j","0","0","0","0","89","0","0","0","89","0","85","89","85","0","85","3","89","0","89","Thu Feb 18 15:29:38 2021","The main experiment item","yes","Lexical_Decision_Task.osexp","C:/Users/matthew/OneDrive/Documents/Ames","no","Andale Mono","no","18","no","white","no","yes","576","legacy","85","85","3","C:/Users/matthew/OneDrive/Documents/Ames/subject-5214420.csv","legacy","Lentiform Loewenfeld","3.3.7","yes","yes","600bd7cfb6416f0113b04181","602110864497cf011d9c0822","0","j","NA","space","space","space","space","j","622","NA","5985","9929","10004","9185","622","2","legacy","1024","2","48000","-16","task","5214420","even","NA","33597","41587","35601","234498","4395","24333","14328","235002","148271","234496","235002","234399","41587","235626","31071","231241","4388","232898","Lexical Decision Task","77","75815","90","yes","1024"
"2.68604012","0","4","pumb","non-word","85.71428571428571","85.71428571428571","844.0879120879121","844.0879120879121","black","no","legacy","legacy","legacy","0","uniform","1","undefined","undefined","undefined","1","f","0","0","0","0","90","0","0","0","90","0","86","90","86","0","86","3","90","0","90","Thu Feb 18 15:29:38 2021","The main experiment item","yes","Lexical_Decision_Task.osexp","C:/Users/matthew/OneDrive/Documents/Ames","no","Andale Mono","no","18","no","white","no","yes","576","legacy","86","86","3","C:/Users/matthew/OneDrive/Documents/Ames/subject-5214420.csv","legacy","Lentiform Loewenfeld","3.3.7","yes","yes","600bd7cfb6416f0113b04181","602110864497cf011d9c0822","0","f","NA","space","space","space","space","f","997","NA","5985","9929","10004","9185","997","2","legacy","1024","2","48000","-16","task","5214420","even","NA","33597","41587","35601","236270","4395","24333","14328","236774","148271","236268","236774","236175","41587","237772","31071","235675","4388","232898","Lexical Decision Task","78","76812","91","yes","1024"
"3.090140555","5.81","8","pout","word","85.8695652173913","85.8695652173913","844.4021739130435","844.4021739130435","black","no","legacy","legacy","legacy","0","uniform","1","undefined","undefined","undefined","1","j","0","0","0","0","91","0","0","0","91","0","87","91","87","0","87","3","91","0","91","Thu Feb 18 15:29:38 2021","The main experiment item","yes","Lexical_Decision_Task.osexp","C:/Users/matthew/OneDrive/Documents/Ames","no","Andale Mono","no","18","no","white","no","yes","576","legacy","87","87","3","C:/Users/matthew/OneDrive/Documents/Ames/subject-5214420.csv","legacy","Lentiform Loewenfeld","3.3.7","yes","yes","600bd7cfb6416f0113b04181","602110864497cf011d9c0822","0","j","NA","space","space","space","space","j","873","NA","5985","9929","10004","9185","873","2","legacy","1024","2","48000","-16","task","5214420","even","NA","33597","41587","35601","238396","4395","24333","14328","238900","148271","238394","238900","238303","41587","239775","31071","237803","4388","232898","Lexical Decision Task","79","77685","92","yes","1024"
"2.812467698","0","7","hafe","non-word","86.02150537634408","86.02150537634408","842.9784946236559","842.9784946236559","black","no","legacy","legacy","legacy","0","uniform","1","undefined","undefined","undefined","1","f","0","0","0","0","92","0","0","0","92","0","88","92","88","0","88","3","92","0","92","Thu Feb 18 15:29:38 2021","The main experiment item","yes","Lexical_Decision_Task.osexp","C:/Users/matthew/OneDrive/Documents/Ames","no","Andale Mono","no","18","no","white","no","yes","576","legacy","88","88","3","C:/Users/matthew/OneDrive/Documents/Ames/subject-5214420.csv","legacy","Lentiform Loewenfeld","3.3.7","yes","yes","600bd7cfb6416f0113b04181","602110864497cf011d9c0822","0","f","NA","space","space","space","space","f","712","NA","5985","9929","10004","9185","712","2","legacy","1024","2","48000","-16","task","5214420","even","NA","33597","41587","35601","240412","4395","24333","14328","240916","148271","240410","240916","240317","41587","241630","31071","239817","4388","232898","Lexical Decision Task","80","78397","93","yes","1024"
"3.140404328","10.66","9","deep","word","86.17021276595744","86.17021276595744","840.1914893617021","840.1914893617021","black","no","legacy","legacy","legacy","0","uniform","1","undefined","undefined","undefined","1","j","0","0","0","0","93","0","0","0","93","0","89","93","89","0","89","3","93","0","93","Thu Feb 18 15:29:38 2021","The main experiment item","yes","Lexical_Decision_Task.osexp","C:/Users/matthew/OneDrive/Documents/Ames","no","Andale Mono","no","18","no","white","no","yes","576","legacy","89","89","3","C:/Users/matthew/OneDrive/Documents/Ames/subject-5214420.csv","legacy","Lentiform Loewenfeld","3.3.7","yes","yes","600bd7cfb6416f0113b04181","602110864497cf011d9c0822","0","j","NA","space","space","space","space","j","581","NA","5985","9929","10004","9185","581","2","legacy","1024","2","48000","-16","task","5214420","even","NA","33597","41587","35601","242276","4395","24333","14328","242780","148271","242274","242780","242179","41587","243362","31071","241679","4388","232898","Lexical Decision Task","81","78978","94","yes","1024"
"2.821076612","0","4","lult","non-word","86.3157894736842","86.3157894736842","838.4631578947368","838.4631578947368","black","no","legacy","legacy","legacy","0","uniform","1","undefined","undefined","undefined","1","f","0","0","0","0","94","0","0","0","94","0","90","94","90","0","90","3","94","0","94","Thu Feb 18 15:29:38 2021","The main experiment item","yes","Lexical_Decision_Task.osexp","C:/Users/matthew/OneDrive/Documents/Ames","no","Andale Mono","no","18","no","white","no","yes","576","legacy","90","90","3","C:/Users/matthew/OneDrive/Documents/Ames/subject-5214420.csv","legacy","Lentiform Loewenfeld","3.3.7","yes","yes","600bd7cfb6416f0113b04181","602110864497cf011d9c0822","0","f","NA","space","space","space","space","f","676","NA","5985","9929","10004","9185","676","2","legacy","1024","2","48000","-16","task","5214420","even","NA","33597","41587","35601","244007","4395","24333","14328","244511","148271","244005","244511","243897","41587","245188","31071","243397","4388","232898","Lexical Decision Task","82","79654","95","yes","1024"
"2.875447132","0","9","jelt","non-word","85.41666666666667","85.41666666666667","836.5416666666666","836.5416666666666","black","no","legacy","legacy","legacy","0","uniform","0","undefined","undefined","undefined","0","f","0","0","0","0","95","0","0","0","95","0","91","95","91","0","91","3","95","0","95","Thu Feb 18 15:29:38 2021","The main experiment item","yes","Lexical_Decision_Task.osexp","C:/Users/matthew/OneDrive/Documents/Ames","no","Andale Mono","no","18","no","white","no","yes","576","legacy","91","91","3","C:/Users/matthew/OneDrive/Documents/Ames/subject-5214420.csv","legacy","Lentiform Loewenfeld","3.3.7","yes","yes","600bd7cfb6416f0113b04181","602110864497cf011d9c0822","0","j","NA","space","space","space","space","j","654","NA","5985","9929","10004","9185","654","2","legacy","1024","2","48000","-16","task","5214420","even","NA","33597","41587","35601","245846","4395","24333","14328","246350","148271","245844","246350","245749","41587","247005","31071","245249","4388","232898","Lexical Decision Task","82","80308","96","yes","1024"
"2.986323777","10.85","8","ship","word","85.56701030927834","85.56701030927834","834.9381443298969","834.9381443298969","black","no","legacy","legacy","legacy","0","uniform","1","undefined","undefined","undefined","1","j","0","0","0","0","96","0","0","0","96","0","92","96","92","0","92","3","96","0","96","Thu Feb 18 15:29:38 2021","The main experiment item","yes","Lexical_Decision_Task.osexp","C:/Users/matthew/OneDrive/Documents/Ames","no","Andale Mono","no","18","no","white","no","yes","576","legacy","92","92","3","C:/Users/matthew/OneDrive/Documents/Ames/subject-5214420.csv","legacy","Lentiform Loewenfeld","3.3.7","yes","yes","600bd7cfb6416f0113b04181","602110864497cf011d9c0822","0","j","NA","space","space","space","space","j","681","NA","5985","9929","10004","9185","681","2","legacy","1024","2","48000","-16","task","5214420","even","NA","33597","41587","35601","248651","4395","24333","14328","249155","148271","248649","249155","248550","41587","249837","31071","245249","4388","247050","Lexical Decision Task","83","80989","97","yes","1024"
