"Log_BG","Log_Freq_HAL","Ortho_N","Stimulus","Type","acc","accuracy","average_response_time","avg_rt","background","bidi","canvas_backend","clock_backend","color_backend","compensation","coordinates","correct","correct_Experimental_intro","correct_Introduction","correct_Practice_intro","correct_experimenter_kb","correct_response","count_End_Of_Experiment","count_End_Of_Practice","count_Experimental_Loop","count_Experimental_intro","count_Fixation","count_Introduction","count_Practice_Loop","count_Practice_intro","count_Stimulus","count_block_break_feedback","count_experimental_sequence","count_experimenter_kb","count_increment_trial_count","count_init_trial_count","count_logger","count_practice_sequence","count_right","count_task","count_wrong","datetime","description","disable_garbage_collection","experiment_file","experiment_path","font_bold","font_family","font_italic","font_size","font_underline","foreground","form_clicks","fullscreen","height","keyboard_backend","live_row","live_row_Experimental_Loop","live_row_Practice_Loop","logfile","mouse_backend","opensesame_codename","opensesame_version","osf_always_upload_data","osf_always_upload_experiment","osf_datanode_id","osf_id","repeat_cycle","response","response_End_Of_Experiment","response_Experimental_intro","response_Introduction","response_Practice_intro","response_block_break_feedback","response_experimenter_kb","response_time","response_time_End_Of_Experiment","response_time_Experimental_intro","response_time_Introduction","response_time_Practice_intro","response_time_block_break_feedback","response_time_experimenter_kb","round_decimals","sampler_backend","sound_buf_size","sound_channels","sound_freq","sound_sample_size","start","subject_nr","subject_parity","time_End_Of_Experiment","time_End_Of_Practice","time_Experimental_Loop","time_Experimental_intro","time_Fixation","time_Introduction","time_Practice_Loop","time_Practice_intro","time_Stimulus","time_block_break_feedback","time_experimental_sequence","time_experimenter_kb","time_increment_trial_count","time_init_trial_count","time_logger","time_practice_sequence","time_right","time_task","time_wrong","title","total_correct","total_response_time","total_responses","uniform_coordinates","width"
"3.174641193","0","3","ramb","non-word","100","100","585.4","585.4","black","no","legacy","legacy","legacy","0","uniform","1","undefined","undefined","undefined","1","f","0","0","0","0","4","0","0","0","4","NA","0","4","0","0","0","3","4","0","4","Fri Feb 19 19:04:42 2021","The main experiment item","yes","Lexical_Decision_Task.osexp","/Users/jadephillips","no","Andale Mono","no","18","no","white","no","yes","576","legacy","0","0","3","/Users/jadephillips/subject-5216713.csv","legacy","Lentiform Loewenfeld","3.3.7","yes","yes","600bd7cfb6416f0113b04181","602110864497cf011d9c0822","0","f","NA","space","j","space","NA","f","665","NA","2411","15751","5965","NA","665","2","legacy","1024","2","48000","-16","task","5216713","odd","NA","34974","39389","36977","39412","6763","28489","22524","39914","NA","39410","39915","NA","39389","40580","33446","34450","6728","NA","Lexical Decision Task","5","2927","5","yes","1024"
"3.209246849","0","7","slem","non-word","100","100","565","565","black","no","legacy","legacy","legacy","0","uniform","1","undefined","undefined","undefined","1","f","0","0","0","0","5","0","0","0","5","NA","1","5","1","0","1","3","5","0","5","Fri Feb 19 19:04:42 2021","The main experiment item","yes","Lexical_Decision_Task.osexp","/Users/jadephillips","no","Andale Mono","no","18","no","white","no","yes","576","legacy","1","1","3","/Users/jadephillips/subject-5216713.csv","legacy","Lentiform Loewenfeld","3.3.7","yes","yes","600bd7cfb6416f0113b04181","602110864497cf011d9c0822","0","f","NA","space","j","space","NA","f","463","NA","2411","15751","5965","NA","463","2","legacy","1024","2","48000","-16","task","5216713","odd","NA","34974","39389","36977","41133","6763","28489","22524","41635","NA","41131","41635","41087","39389","42098","33446","40587","6728","NA","Lexical Decision Task","6","3390","6","yes","1024"
"2.966923697","5.4","2","fume","word","85.71428571428571","85.71428571428571","576.2857142857143","576.2857142857143","black","no","legacy","legacy","legacy","0","uniform","0","undefined","undefined","undefined","0","j","0","0","0","0","6","0","0","0","6","NA","2","6","2","0","2","3","6","0","6","Fri Feb 19 19:04:42 2021","The main experiment item","yes","Lexical_Decision_Task.osexp","/Users/jadephillips","no","Andale Mono","no","18","no","white","no","yes","576","legacy","2","2","3","/Users/jadephillips/subject-5216713.csv","legacy","Lentiform Loewenfeld","3.3.7","yes","yes","600bd7cfb6416f0113b04181","602110864497cf011d9c0822","0","f","NA","space","j","space","NA","f","644","NA","2411","15751","5965","NA","644","2","legacy","1024","2","48000","-16","task","5216713","odd","NA","34974","39389","36977","42644","6763","28489","22524","43147","NA","42642","43147","42603","39389","43792","33446","42102","6728","NA","Lexical Decision Task","6","4034","7","yes","1024"
"3.705778213","0","6","stin","non-word","87.5","87.5","597.125","597.125","black","no","legacy","legacy","legacy","0","uniform","1","undefined","undefined","undefined","1","f","0","0","0","0","7","0","0","0","7","NA","3","7","3","0","3","3","7","0","7","Fri Feb 19 19:04:42 2021","The main experiment item","yes","Lexical_Decision_Task.osexp","/Users/jadephillips","no","Andale Mono","no","18","no","white","no","yes","576","legacy","3","3","3","/Users/jadephillips/subject-5216713.csv","legacy","Lentiform Loewenfeld","3.3.7","yes","yes","600bd7cfb6416f0113b04181","602110864497cf011d9c0822","0","f","NA","space","j","space","NA","f","743","NA","2411","15751","5965","NA","743","2","legacy","1024","2","48000","-16","task","5216713","odd","NA","34974","39389","36977","45340","6763","28489","22524","45842","NA","45338","45842","45297","39389","46585","33446","42102","6728","43796","Lexical Decision Task","7","4777","8","yes","1024"
"3.134602053","0","8","jart","non-word","88.88888888888889","88.88888888888889","608.3333333333334","608.3333333333334","black","no","legacy","legacy","legacy","0","uniform","1","undefined","undefined","undefined","1","f","0","0","0","0","8","0","0","0","8","NA","4","8","4","0","4","3","8","0","8","Fri Feb 19 19:04:42 2021","The main experiment item","yes","Lexical_Decision_Task.osexp","/Users/jadephillips","no","Andale Mono","no","18","no","white","no","yes","576","legacy","4","4","3","/Users/jadephillips/subject-5216713.csv","legacy","Lentiform Loewenfeld","3.3.7","yes","yes","600bd7cfb6416f0113b04181","602110864497cf011d9c0822","0","f","NA","space","j","space","NA","f","698","NA","2411","15751","5965","NA","698","2","legacy","1024","2","48000","-16","task","5216713","odd","NA","34974","39389","36977","47131","6763","28489","22524","47633","NA","47129","47633","47089","39389","48332","33446","46589","6728","43796","Lexical Decision Task","8","5475","9","yes","1024"
"2.86332286","6.71","2","feud","word","90","90","612.7","612.7","black","no","legacy","legacy","legacy","0","uniform","1","undefined","undefined","undefined","1","j","0","0","0","0","9","0","0","0","9","NA","5","9","5","0","5","3","9","0","9","Fri Feb 19 19:04:42 2021","The main experiment item","yes","Lexical_Decision_Task.osexp","/Users/jadephillips","no","Andale Mono","no","18","no","white","no","yes","576","legacy","5","5","3","/Users/jadephillips/subject-5216713.csv","legacy","Lentiform Loewenfeld","3.3.7","yes","yes","600bd7cfb6416f0113b04181","602110864497cf011d9c0822","0","j","NA","space","j","space","NA","j","652","NA","2411","15751","5965","NA","652","2","legacy","1024","2","48000","-16","task","5216713","odd","NA","34974","39389","36977","48878","6763","28489","22524","49380","NA","48876","49380","48837","39389","50033","33446","48336","6728","43796","Lexical Decision Task","9","6127","10","yes","1024"
"3.374137706","10.21","4","tree","word","90.9090909090909","90.9090909090909","596.1818181818181","596.1818181818181","black","no","legacy","legacy","legacy","0","uniform","1","undefined","undefined","undefined","1","j","0","0","0","0","10","0","0","0","10","NA","6","10","6","0","6","3","10","0","10","Fri Feb 19 19:04:42 2021","The main experiment item","yes","Lexical_Decision_Task.osexp","/Users/jadephillips","no","Andale Mono","no","18","no","white","no","yes","576","legacy","6","6","3","/Users/jadephillips/subject-5216713.csv","legacy","Lentiform Loewenfeld","3.3.7","yes","yes","600bd7cfb6416f0113b04181","602110864497cf011d9c0822","0","j","NA","space","j","space","NA","j","431","NA","2411","15751","5965","NA","431","2","legacy","1024","2","48000","-16","task","5216713","odd","NA","34974","39389","36977","50579","6763","28489","22524","51081","NA","50577","51081","50538","39389","51513","33446","50037","6728","43796","Lexical Decision Task","10","6558","11","yes","1024"
"2.594027722","9.08","8","skip","word","91.66666666666667","91.66666666666667","592.5","592.5","black","no","legacy","legacy","legacy","0","uniform","1","undefined","undefined","undefined","1","j","0","0","0","0","11","0","0","0","11","NA","7","11","7","0","7","3","11","0","11","Fri Feb 19 19:04:42 2021","The main experiment item","yes","Lexical_Decision_Task.osexp","/Users/jadephillips","no","Andale Mono","no","18","no","white","no","yes","576","legacy","7","7","3","/Users/jadephillips/subject-5216713.csv","legacy","Lentiform Loewenfeld","3.3.7","yes","yes","600bd7cfb6416f0113b04181","602110864497cf011d9c0822","0","j","NA","space","j","space","NA","j","552","NA","2411","15751","5965","NA","552","2","legacy","1024","2","48000","-16","task","5216713","odd","NA","34974","39389","36977","52059","6763","28489","22524","52561","NA","52057","52561","52017","39389","53114","33446","51517","6728","43796","Lexical Decision Task","11","7110","12","yes","1024"
"3.368162872","0","4","ferk","non-word","92.3076923076923","92.3076923076923","591.4615384615385","591.4615384615385","black","no","legacy","legacy","legacy","0","uniform","1","undefined","undefined","undefined","1","f","0","0","0","0","12","0","0","0","12","NA","8","12","8","0","8","3","12","0","12","Fri Feb 19 19:04:42 2021","The main experiment item","yes","Lexical_Decision_Task.osexp","/Users/jadephillips","no","Andale Mono","no","18","no","white","no","yes","576","legacy","8","8","3","/Users/jadephillips/subject-5216713.csv","legacy","Lentiform Loewenfeld","3.3.7","yes","yes","600bd7cfb6416f0113b04181","602110864497cf011d9c0822","0","f","NA","space","j","space","NA","f","579","NA","2411","15751","5965","NA","579","2","legacy","1024","2","48000","-16","task","5216713","odd","NA","34974","39389","36977","53660","6763","28489","22524","54162","NA","53658","54162","53618","39389","54742","33446","53118","6728","43796","Lexical Decision Task","12","7689","13","yes","1024"
"2.813801082","5.47","7","nook","word","85.71428571428571","85.71428571428571","587.6428571428571","587.6428571428571","black","no","legacy","legacy","legacy","0","uniform","0","undefined","undefined","undefined","0","j","0","0","0","0","13","0","0","0","13","NA","9","13","9","0","9","3","13","0","13","Fri Feb 19 19:04:42 2021","The main experiment item","yes","Lexical_Decision_Task.osexp","/Users/jadephillips","no","Andale Mono","no","18","no","white","no","yes","576","legacy","9","9","3","/Users/jadephillips/subject-5216713.csv","legacy","Lentiform Loewenfeld","3.3.7","yes","yes","600bd7cfb6416f0113b04181","602110864497cf011d9c0822","0","f","NA","space","j","space","NA","f","538","NA","2411","15751","5965","NA","538","2","legacy","1024","2","48000","-16","task","5216713","odd","NA","34974","39389","36977","55288","6763","28489","22524","55790","NA","55286","55790","55247","39389","56329","33446","54747","6728","43796","Lexical Decision Task","12","8227","14","yes","1024"
"3.311895072","0","9","gung","non-word","86.66666666666667","86.66666666666667","600.2","600.2","black","no","legacy","legacy","legacy","0","uniform","1","undefined","undefined","undefined","1","f","0","0","0","0","14","0","0","0","14","NA","10","14","10","0","10","3","14","0","14","Fri Feb 19 19:04:42 2021","The main experiment item","yes","Lexical_Decision_Task.osexp","/Users/jadephillips","no","Andale Mono","no","18","no","white","no","yes","576","legacy","10","10","3","/Users/jadephillips/subject-5216713.csv","legacy","Lentiform Loewenfeld","3.3.7","yes","yes","600bd7cfb6416f0113b04181","602110864497cf011d9c0822","0","f","NA","space","j","space","NA","f","776","NA","2411","15751","5965","NA","776","2","legacy","1024","2","48000","-16","task","5216713","odd","NA","34974","39389","36977","57876","6763","28489","22524","58379","NA","57874","58379","57833","39389","59156","33446","54747","6728","56333","Lexical Decision Task","13","9003","15","yes","1024"
"2.907588697","8.91","9","mood","word","87.5","87.5","599.3125","599.3125","black","no","legacy","legacy","legacy","0","uniform","1","undefined","undefined","undefined","1","j","0","0","0","0","15","0","0","0","15","NA","11","15","11","0","11","3","15","0","15","Fri Feb 19 19:04:42 2021","The main experiment item","yes","Lexical_Decision_Task.osexp","/Users/jadephillips","no","Andale Mono","no","18","no","white","no","yes","576","legacy","11","11","3","/Users/jadephillips/subject-5216713.csv","legacy","Lentiform Loewenfeld","3.3.7","yes","yes","600bd7cfb6416f0113b04181","602110864497cf011d9c0822","0","j","NA","space","j","space","NA","j","586","NA","2411","15751","5965","NA","586","2","legacy","1024","2","48000","-16","task","5216713","odd","NA","34974","39389","36977","59701","6763","28489","22524","60203","NA","59699","60203","59660","39389","60790","33446","59160","6728","56333","Lexical Decision Task","14","9589","16","yes","1024"
"3.274157849","0","8","leet","non-word","88.23529411764706","88.23529411764706","598.1764705882352","598.1764705882352","black","no","legacy","legacy","legacy","0","uniform","1","undefined","undefined","undefined","1","f","0","0","0","0","16","0","0","0","16","NA","12","16","12","0","12","3","16","0","16","Fri Feb 19 19:04:42 2021","The main experiment item","yes","Lexical_Decision_Task.osexp","/Users/jadephillips","no","Andale Mono","no","18","no","white","no","yes","576","legacy","12","12","3","/Users/jadephillips/subject-5216713.csv","legacy","Lentiform Loewenfeld","3.3.7","yes","yes","600bd7cfb6416f0113b04181","602110864497cf011d9c0822","0","f","NA","space","j","space","NA","f","580","NA","2411","15751","5965","NA","580","2","legacy","1024","2","48000","-16","task","5216713","odd","NA","34974","39389","36977","61335","6763","28489","22524","61836","NA","61333","61837","61294","39389","62418","33446","60794","6728","56333","Lexical Decision Task","15","10169","17","yes","1024"
"3.165936429","0","7","leps","non-word","88.88888888888889","88.88888888888889","596.8888888888889","596.8888888888889","black","no","legacy","legacy","legacy","0","uniform","1","undefined","undefined","undefined","1","f","0","0","0","0","17","0","0","0","17","NA","13","17","13","0","13","3","17","0","17","Fri Feb 19 19:04:42 2021","The main experiment item","yes","Lexical_Decision_Task.osexp","/Users/jadephillips","no","Andale Mono","no","18","no","white","no","yes","576","legacy","13","13","3","/Users/jadephillips/subject-5216713.csv","legacy","Lentiform Loewenfeld","3.3.7","yes","yes","600bd7cfb6416f0113b04181","602110864497cf011d9c0822","0","f","NA","space","j","space","NA","f","575","NA","2411","15751","5965","NA","575","2","legacy","1024","2","48000","-16","task","5216713","odd","NA","34974","39389","36977","62962","6763","28489","22524","63464","NA","62960","63464","62921","39389","64040","33446","62421","6728","56333","Lexical Decision Task","16","10744","18","yes","1024"
"3.067193647","6.73","6","raft","word","84.21052631578948","84.21052631578948","587.7368421052631","587.7368421052631","black","no","legacy","legacy","legacy","0","uniform","0","undefined","undefined","undefined","0","j","0","0","0","0","18","0","0","0","18","NA","14","18","14","0","14","3","18","0","18","Fri Feb 19 19:04:42 2021","The main experiment item","yes","Lexical_Decision_Task.osexp","/Users/jadephillips","no","Andale Mono","no","18","no","white","no","yes","576","legacy","14","14","3","/Users/jadephillips/subject-5216713.csv","legacy","Lentiform Loewenfeld","3.3.7","yes","yes","600bd7cfb6416f0113b04181","602110864497cf011d9c0822","0","f","NA","space","j","space","NA","f","423","NA","2411","15751","5965","NA","423","2","legacy","1024","2","48000","-16","task","5216713","odd","NA","34974","39389","36977","64585","6763","28489","22524","65087","NA","64583","65087","64544","39389","65511","33446","64044","6728","56333","Lexical Decision Task","16","11167","19","yes","1024"
"3.156347201","0","8","lasp","non-word","85","85","588.25","588.25","black","no","legacy","legacy","legacy","0","uniform","1","undefined","undefined","undefined","1","f","0","0","0","0","19","0","0","0","19","NA","15","19","15","0","15","3","19","0","19","Fri Feb 19 19:04:42 2021","The main experiment item","yes","Lexical_Decision_Task.osexp","/Users/jadephillips","no","Andale Mono","no","18","no","white","no","yes","576","legacy","15","15","3","/Users/jadephillips/subject-5216713.csv","legacy","Lentiform Loewenfeld","3.3.7","yes","yes","600bd7cfb6416f0113b04181","602110864497cf011d9c0822","0","f","NA","space","j","space","NA","f","598","NA","2411","15751","5965","NA","598","2","legacy","1024","2","48000","-16","task","5216713","odd","NA","34974","39389","36977","67058","6763","28489","22524","67560","NA","67056","67560","67015","39389","68158","33446","64044","6728","65515","Lexical Decision Task","17","11765","20","yes","1024"
"2.898725182","0","7","turl","non-word","85.71428571428571","85.71428571428571","583.1904761904761","583.1904761904761","black","no","legacy","legacy","legacy","0","uniform","1","undefined","undefined","undefined","1","f","0","0","0","0","20","0","0","0","20","NA","16","20","16","0","16","3","20","0","20","Fri Feb 19 19:04:42 2021","The main experiment item","yes","Lexical_Decision_Task.osexp","/Users/jadephillips","no","Andale Mono","no","18","no","white","no","yes","576","legacy","16","16","3","/Users/jadephillips/subject-5216713.csv","legacy","Lentiform Loewenfeld","3.3.7","yes","yes","600bd7cfb6416f0113b04181","602110864497cf011d9c0822","0","f","NA","space","j","space","NA","f","482","NA","2411","15751","5965","NA","482","2","legacy","1024","2","48000","-16","task","5216713","odd","NA","34974","39389","36977","68704","6763","28489","22524","69206","NA","68702","69206","68663","39389","69688","33446","68162","6728","65515","Lexical Decision Task","18","12247","21","yes","1024"
"3.14849993","10.75","7","hour","word","86.36363636363636","86.36363636363636","580.4545454545455","580.4545454545455","black","no","legacy","legacy","legacy","0","uniform","1","undefined","undefined","undefined","1","j","0","0","0","0","21","0","0","0","21","NA","17","21","17","0","17","3","21","0","21","Fri Feb 19 19:04:42 2021","The main experiment item","yes","Lexical_Decision_Task.osexp","/Users/jadephillips","no","Andale Mono","no","18","no","white","no","yes","576","legacy","17","17","3","/Users/jadephillips/subject-5216713.csv","legacy","Lentiform Loewenfeld","3.3.7","yes","yes","600bd7cfb6416f0113b04181","602110864497cf011d9c0822","0","j","NA","space","j","space","NA","j","523","NA","2411","15751","5965","NA","523","2","legacy","1024","2","48000","-16","task","5216713","odd","NA","34974","39389","36977","70233","6763","28489","22524","70735","NA","70231","70735","70192","39389","71258","33446","69692","6728","65515","Lexical Decision Task","19","12770","22","yes","1024"
"3.028977705","0","7","frow","non-word","86.95652173913044","86.95652173913044","580.4782608695652","580.4782608695652","black","no","legacy","legacy","legacy","0","uniform","1","undefined","undefined","undefined","1","f","0","0","0","0","22","0","0","0","22","NA","18","22","18","0","18","3","22","0","22","Fri Feb 19 19:04:42 2021","The main experiment item","yes","Lexical_Decision_Task.osexp","/Users/jadephillips","no","Andale Mono","no","18","no","white","no","yes","576","legacy","18","18","3","/Users/jadephillips/subject-5216713.csv","legacy","Lentiform Loewenfeld","3.3.7","yes","yes","600bd7cfb6416f0113b04181","602110864497cf011d9c0822","0","f","NA","space","j","space","NA","f","581","NA","2411","15751","5965","NA","581","2","legacy","1024","2","48000","-16","task","5216713","odd","NA","34974","39389","36977","71804","6763","28489","22524","72306","NA","71802","72306","71763","39389","72887","33446","71263","6728","65515","Lexical Decision Task","20","13351","23","yes","1024"
"3.102203805","7.21","3","drip","word","87.5","87.5","580.0833333333334","580.0833333333334","black","no","legacy","legacy","legacy","0","uniform","1","undefined","undefined","undefined","1","j","0","0","0","0","23","0","0","0","23","NA","19","23","19","0","19","3","23","0","23","Fri Feb 19 19:04:42 2021","The main experiment item","yes","Lexical_Decision_Task.osexp","/Users/jadephillips","no","Andale Mono","no","18","no","white","no","yes","576","legacy","19","19","3","/Users/jadephillips/subject-5216713.csv","legacy","Lentiform Loewenfeld","3.3.7","yes","yes","600bd7cfb6416f0113b04181","602110864497cf011d9c0822","0","j","NA","space","j","space","NA","j","571","NA","2411","15751","5965","NA","571","2","legacy","1024","2","48000","-16","task","5216713","odd","NA","34974","39389","36977","73433","6763","28489","22524","73935","NA","73431","73935","73392","39389","74507","33446","72892","6728","65515","Lexical Decision Task","21","13922","24","yes","1024"
"2.82129731","6.72","5","plum","word","88","88","584.44","584.44","black","no","legacy","legacy","legacy","0","uniform","1","undefined","undefined","undefined","1","j","0","0","0","0","24","0","0","0","24","NA","20","24","20","0","20","3","24","0","24","Fri Feb 19 19:04:42 2021","The main experiment item","yes","Lexical_Decision_Task.osexp","/Users/jadephillips","no","Andale Mono","no","18","no","white","no","yes","576","legacy","20","20","3","/Users/jadephillips/subject-5216713.csv","legacy","Lentiform Loewenfeld","3.3.7","yes","yes","600bd7cfb6416f0113b04181","602110864497cf011d9c0822","0","j","NA","space","j","space","NA","j","689","NA","2411","15751","5965","NA","689","2","legacy","1024","2","48000","-16","task","5216713","odd","NA","34974","39389","36977","75053","6763","28489","22524","75555","NA","75051","75555","75011","39389","76245","33446","74511","6728","65515","Lexical Decision Task","22","14611","25","yes","1024"
"3.090140555","5.81","8","pout","word","88.46153846153847","88.46153846153847","587","587","black","no","legacy","legacy","legacy","0","uniform","1","undefined","undefined","undefined","1","j","0","0","0","0","25","0","0","0","25","NA","21","25","21","0","21","3","25","0","25","Fri Feb 19 19:04:42 2021","The main experiment item","yes","Lexical_Decision_Task.osexp","/Users/jadephillips","no","Andale Mono","no","18","no","white","no","yes","576","legacy","21","21","3","/Users/jadephillips/subject-5216713.csv","legacy","Lentiform Loewenfeld","3.3.7","yes","yes","600bd7cfb6416f0113b04181","602110864497cf011d9c0822","0","j","NA","space","j","space","NA","j","651","NA","2411","15751","5965","NA","651","2","legacy","1024","2","48000","-16","task","5216713","odd","NA","34974","39389","36977","76791","6763","28489","22524","77294","NA","76790","77294","76750","39389","77946","33446","76250","6728","65515","Lexical Decision Task","23","15262","26","yes","1024"
"3.440331212","7.35","6","stew","word","88.88888888888889","88.88888888888889","584.6666666666666","584.6666666666666","black","no","legacy","legacy","legacy","0","uniform","1","undefined","undefined","undefined","1","j","0","0","0","0","26","0","0","0","26","NA","22","26","22","0","22","3","26","0","26","Fri Feb 19 19:04:42 2021","The main experiment item","yes","Lexical_Decision_Task.osexp","/Users/jadephillips","no","Andale Mono","no","18","no","white","no","yes","576","legacy","22","22","3","/Users/jadephillips/subject-5216713.csv","legacy","Lentiform Loewenfeld","3.3.7","yes","yes","600bd7cfb6416f0113b04181","602110864497cf011d9c0822","0","j","NA","space","j","space","NA","j","524","NA","2411","15751","5965","NA","524","2","legacy","1024","2","48000","-16","task","5216713","odd","NA","34974","39389","36977","78495","6763","28489","22524","78997","NA","78493","78997","78453","39389","79522","33446","77953","6728","65515","Lexical Decision Task","24","15786","27","yes","1024"
"3.049218023","7.4","9","robe","word","89.28571428571429","89.28571428571429","577.75","577.75","black","no","legacy","legacy","legacy","0","uniform","1","undefined","undefined","undefined","1","j","0","0","0","0","27","0","0","0","27","NA","23","27","23","0","23","3","27","0","27","Fri Feb 19 19:04:42 2021","The main experiment item","yes","Lexical_Decision_Task.osexp","/Users/jadephillips","no","Andale Mono","no","18","no","white","no","yes","576","legacy","23","23","3","/Users/jadephillips/subject-5216713.csv","legacy","Lentiform Loewenfeld","3.3.7","yes","yes","600bd7cfb6416f0113b04181","602110864497cf011d9c0822","0","j","NA","space","j","space","NA","j","391","NA","2411","15751","5965","NA","391","2","legacy","1024","2","48000","-16","task","5216713","odd","NA","34974","39389","36977","80069","6763","28489","22524","80572","NA","80068","80572","80028","39389","80964","33446","79528","6728","65515","Lexical Decision Task","25","16177","28","yes","1024"
"3.039414119","0","9","meep","non-word","89.65517241379311","89.65517241379311","584.1379310344828","584.1379310344828","black","no","legacy","legacy","legacy","0","uniform","1","undefined","undefined","undefined","1","f","0","0","0","0","28","0","0","0","28","NA","24","28","24","0","24","3","28","0","28","Fri Feb 19 19:04:42 2021","The main experiment item","yes","Lexical_Decision_Task.osexp","/Users/jadephillips","no","Andale Mono","no","18","no","white","no","yes","576","legacy","24","24","3","/Users/jadephillips/subject-5216713.csv","legacy","Lentiform Loewenfeld","3.3.7","yes","yes","600bd7cfb6416f0113b04181","602110864497cf011d9c0822","0","f","NA","space","j","space","NA","f","763","NA","2411","15751","5965","NA","763","2","legacy","1024","2","48000","-16","task","5216713","odd","NA","34974","39389","36977","81509","6763","28489","22524","82011","NA","81506","82011","81467","39389","82775","33446","80967","6728","65515","Lexical Decision Task","26","16940","29","yes","1024"
"3.037294994","8.64","7","roof","word","90","90","582.3666666666667","582.3666666666667","black","no","legacy","legacy","legacy","0","uniform","1","undefined","undefined","undefined","1","j","0","0","0","0","29","0","0","0","29","NA","25","29","25","0","25","3","29","0","29","Fri Feb 19 19:04:42 2021","The main experiment item","yes","Lexical_Decision_Task.osexp","/Users/jadephillips","no","Andale Mono","no","18","no","white","no","yes","576","legacy","25","25","3","/Users/jadephillips/subject-5216713.csv","legacy","Lentiform Loewenfeld","3.3.7","yes","yes","600bd7cfb6416f0113b04181","602110864497cf011d9c0822","0","j","NA","space","j","space","NA","j","531","NA","2411","15751","5965","NA","531","2","legacy","1024","2","48000","-16","task","5216713","odd","NA","34974","39389","36977","83321","6763","28489","22524","83823","NA","83318","83823","83279","39389","84355","33446","82779","6728","65515","Lexical Decision Task","27","17471","30","yes","1024"
"2.842815106","7.86","8","lump","word","90.3225806451613","90.3225806451613","594.483870967742","594.483870967742","black","no","legacy","legacy","legacy","0","uniform","1","undefined","undefined","undefined","1","j","0","0","0","0","30","0","0","0","30","NA","26","30","26","0","26","3","30","0","30","Fri Feb 19 19:04:42 2021","The main experiment item","yes","Lexical_Decision_Task.osexp","/Users/jadephillips","no","Andale Mono","no","18","no","white","no","yes","576","legacy","26","26","3","/Users/jadephillips/subject-5216713.csv","legacy","Lentiform Loewenfeld","3.3.7","yes","yes","600bd7cfb6416f0113b04181","602110864497cf011d9c0822","0","j","NA","space","j","space","NA","j","958","NA","2411","15751","5965","NA","958","2","legacy","1024","2","48000","-16","task","5216713","odd","NA","34974","39389","36977","84899","6763","28489","22524","85401","NA","84897","85401","84858","39389","86360","33446","84357","6728","65515","Lexical Decision Task","28","18429","31","yes","1024"
"2.755364069","7.72","2","hoax","word","90.625","90.625","596.65625","596.65625","black","no","legacy","legacy","legacy","0","uniform","1","undefined","undefined","undefined","1","j","0","0","0","0","31","0","0","0","31","NA","27","31","27","0","27","3","31","0","31","Fri Feb 19 19:04:42 2021","The main experiment item","yes","Lexical_Decision_Task.osexp","/Users/jadephillips","no","Andale Mono","no","18","no","white","no","yes","576","legacy","27","27","3","/Users/jadephillips/subject-5216713.csv","legacy","Lentiform Loewenfeld","3.3.7","yes","yes","600bd7cfb6416f0113b04181","602110864497cf011d9c0822","0","j","NA","space","j","space","NA","j","664","NA","2411","15751","5965","NA","664","2","legacy","1024","2","48000","-16","task","5216713","odd","NA","34974","39389","36977","86905","6763","28489","22524","87407","NA","86903","87407","86864","39389","88072","33446","86364","6728","65515","Lexical Decision Task","29","19093","32","yes","1024"
"3.531734309","0","6","lerd","non-word","90.9090909090909","90.9090909090909","595.4848484848485","595.4848484848485","black","no","legacy","legacy","legacy","0","uniform","1","undefined","undefined","undefined","1","f","0","0","0","0","32","0","0","0","32","NA","28","32","28","0","28","3","32","0","32","Fri Feb 19 19:04:42 2021","The main experiment item","yes","Lexical_Decision_Task.osexp","/Users/jadephillips","no","Andale Mono","no","18","no","white","no","yes","576","legacy","28","28","3","/Users/jadephillips/subject-5216713.csv","legacy","Lentiform Loewenfeld","3.3.7","yes","yes","600bd7cfb6416f0113b04181","602110864497cf011d9c0822","0","f","NA","space","j","space","NA","f","558","NA","2411","15751","5965","NA","558","2","legacy","1024","2","48000","-16","task","5216713","odd","NA","34974","39389","36977","88617","6763","28489","22524","89119","NA","88615","89119","88576","39389","89678","33446","88076","6728","65515","Lexical Decision Task","30","19651","33","yes","1024"
"2.675164031","8.57","6","glue","word","91.17647058823529","91.17647058823529","592.6470588235294","592.6470588235294","black","no","legacy","legacy","legacy","0","uniform","1","undefined","undefined","undefined","1","j","0","0","0","0","33","0","0","0","33","NA","29","33","29","0","29","3","33","0","33","Fri Feb 19 19:04:42 2021","The main experiment item","yes","Lexical_Decision_Task.osexp","/Users/jadephillips","no","Andale Mono","no","18","no","white","no","yes","576","legacy","29","29","3","/Users/jadephillips/subject-5216713.csv","legacy","Lentiform Loewenfeld","3.3.7","yes","yes","600bd7cfb6416f0113b04181","602110864497cf011d9c0822","0","j","NA","space","j","space","NA","j","499","NA","2411","15751","5965","NA","499","2","legacy","1024","2","48000","-16","task","5216713","odd","NA","34974","39389","36977","90224","6763","28489","22524","90726","NA","90222","90726","90182","39389","91226","33446","89682","6728","65515","Lexical Decision Task","31","20150","34","yes","1024"
"2.971428938","9.86","7","spot","word","91.42857142857143","91.42857142857143","588.7428571428571","588.7428571428571","black","no","legacy","legacy","legacy","0","uniform","1","undefined","undefined","undefined","1","j","0","0","0","0","34","0","0","0","34","NA","30","34","30","0","30","3","34","0","34","Fri Feb 19 19:04:42 2021","The main experiment item","yes","Lexical_Decision_Task.osexp","/Users/jadephillips","no","Andale Mono","no","18","no","white","no","yes","576","legacy","30","30","3","/Users/jadephillips/subject-5216713.csv","legacy","Lentiform Loewenfeld","3.3.7","yes","yes","600bd7cfb6416f0113b04181","602110864497cf011d9c0822","0","j","NA","space","j","space","NA","j","456","NA","2411","15751","5965","NA","456","2","legacy","1024","2","48000","-16","task","5216713","odd","NA","34974","39389","36977","91769","6763","28489","22524","92271","NA","91767","92271","91728","39389","92728","33446","91228","6728","65515","Lexical Decision Task","32","20606","35","yes","1024"
"3.474361976","5.24","6","veer","word","88.88888888888889","88.88888888888889","586.5555555555555","586.5555555555555","black","no","legacy","legacy","legacy","0","uniform","0","undefined","undefined","undefined","0","j","0","0","0","0","35","0","0","0","35","NA","31","35","31","0","31","3","35","0","35","Fri Feb 19 19:04:42 2021","The main experiment item","yes","Lexical_Decision_Task.osexp","/Users/jadephillips","no","Andale Mono","no","18","no","white","no","yes","576","legacy","31","31","3","/Users/jadephillips/subject-5216713.csv","legacy","Lentiform Loewenfeld","3.3.7","yes","yes","600bd7cfb6416f0113b04181","602110864497cf011d9c0822","0","f","NA","space","j","space","NA","f","510","NA","2411","15751","5965","NA","510","2","legacy","1024","2","48000","-16","task","5216713","odd","NA","34974","39389","36977","93273","6763","28489","22524","93775","NA","93271","93775","93232","39389","94285","33446","92732","6728","65515","Lexical Decision Task","32","21116","36","yes","1024"
"3.495914186","0","4","peng","non-word","86.48648648648648","86.48648648648648","582.1081081081081","582.1081081081081","black","no","legacy","legacy","legacy","0","uniform","0","undefined","undefined","undefined","0","f","0","0","0","0","36","0","0","0","36","NA","32","36","32","0","32","3","36","0","36","Fri Feb 19 19:04:42 2021","The main experiment item","yes","Lexical_Decision_Task.osexp","/Users/jadephillips","no","Andale Mono","no","18","no","white","no","yes","576","legacy","32","32","3","/Users/jadephillips/subject-5216713.csv","legacy","Lentiform Loewenfeld","3.3.7","yes","yes","600bd7cfb6416f0113b04181","602110864497cf011d9c0822","0","j","NA","space","j","space","NA","j","422","NA","2411","15751","5965","NA","422","2","legacy","1024","2","48000","-16","task","5216713","odd","NA","34974","39389","36977","95833","6763","28489","22524","96335","NA","95830","96335","95790","39389","96757","33446","92732","6728","94290","Lexical Decision Task","32","21538","37","yes","1024"
"2.664011697","8.19","4","hawk","word","86.84210526315789","86.84210526315789","586.7368421052631","586.7368421052631","black","no","legacy","legacy","legacy","0","uniform","1","undefined","undefined","undefined","1","j","0","0","0","0","37","0","0","0","37","NA","33","37","33","0","33","3","37","0","37","Fri Feb 19 19:04:42 2021","The main experiment item","yes","Lexical_Decision_Task.osexp","/Users/jadephillips","no","Andale Mono","no","18","no","white","no","yes","576","legacy","33","33","3","/Users/jadephillips/subject-5216713.csv","legacy","Lentiform Loewenfeld","3.3.7","yes","yes","600bd7cfb6416f0113b04181","602110864497cf011d9c0822","0","j","NA","space","j","space","NA","j","758","NA","2411","15751","5965","NA","758","2","legacy","1024","2","48000","-16","task","5216713","odd","NA","34974","39389","36977","98306","6763","28489","22524","98808","NA","98304","98808","98262","39389","99566","33446","92732","6728","96762","Lexical Decision Task","33","22296","38","yes","1024"
"2.812467698","0","7","hafe","non-word","87.17948717948718","87.17948717948718","584.9487179487179","584.9487179487179","black","no","legacy","legacy","legacy","0","uniform","1","undefined","undefined","undefined","1","f","0","0","0","0","38","0","0","0","38","NA","34","38","34","0","34","3","38","0","38","Fri Feb 19 19:04:42 2021","The main experiment item","yes","Lexical_Decision_Task.osexp","/Users/jadephillips","no","Andale Mono","no","18","no","white","no","yes","576","legacy","34","34","3","/Users/jadephillips/subject-5216713.csv","legacy","Lentiform Loewenfeld","3.3.7","yes","yes","600bd7cfb6416f0113b04181","602110864497cf011d9c0822","0","f","NA","space","j","space","NA","f","517","NA","2411","15751","5965","NA","517","2","legacy","1024","2","48000","-16","task","5216713","odd","NA","34974","39389","36977","100111","6763","28489","22524","100613","NA","100109","100613","100070","39389","101130","33446","99570","6728","96762","Lexical Decision Task","34","22813","39","yes","1024"
"2.698100546","0","9","mulk","non-word","87.5","87.5","582.875","582.875","black","no","legacy","legacy","legacy","0","uniform","1","undefined","undefined","undefined","1","f","0","0","0","0","39","0","0","0","39","NA","35","39","35","0","35","3","39","0","39","Fri Feb 19 19:04:42 2021","The main experiment item","yes","Lexical_Decision_Task.osexp","/Users/jadephillips","no","Andale Mono","no","18","no","white","no","yes","576","legacy","35","35","3","/Users/jadephillips/subject-5216713.csv","legacy","Lentiform Loewenfeld","3.3.7","yes","yes","600bd7cfb6416f0113b04181","602110864497cf011d9c0822","0","f","NA","space","j","space","NA","f","502","NA","2411","15751","5965","NA","502","2","legacy","1024","2","48000","-16","task","5216713","odd","NA","34974","39389","36977","101676","6763","28489","22524","102179","NA","101675","102179","101635","39389","102682","33446","101135","6728","96762","Lexical Decision Task","35","23315","40","yes","1024"
"3.194328374","9.42","6","harm","word","87.8048780487805","87.8048780487805","577.8536585365854","577.8536585365854","black","no","legacy","legacy","legacy","0","uniform","1","undefined","undefined","undefined","1","j","0","0","0","0","40","0","0","0","40","NA","36","40","36","0","36","3","40","0","40","Fri Feb 19 19:04:42 2021","The main experiment item","yes","Lexical_Decision_Task.osexp","/Users/jadephillips","no","Andale Mono","no","18","no","white","no","yes","576","legacy","36","36","3","/Users/jadephillips/subject-5216713.csv","legacy","Lentiform Loewenfeld","3.3.7","yes","yes","600bd7cfb6416f0113b04181","602110864497cf011d9c0822","0","j","NA","space","j","space","NA","j","377","NA","2411","15751","5965","NA","377","2","legacy","1024","2","48000","-16","task","5216713","odd","NA","34974","39389","36977","103229","6763","28489","22524","103731","NA","103227","103731","103187","39389","104109","33446","102686","6728","96762","Lexical Decision Task","36","23692","41","yes","1024"
"2.839898939","8.99","6","soap","word","88.0952380952381","88.0952380952381","575.7619047619048","575.7619047619048","black","no","legacy","legacy","legacy","0","uniform","1","undefined","undefined","undefined","1","j","0","0","0","0","41","0","0","0","41","NA","37","41","37","0","37","3","41","0","41","Fri Feb 19 19:04:42 2021","The main experiment item","yes","Lexical_Decision_Task.osexp","/Users/jadephillips","no","Andale Mono","no","18","no","white","no","yes","576","legacy","37","37","3","/Users/jadephillips/subject-5216713.csv","legacy","Lentiform Loewenfeld","3.3.7","yes","yes","600bd7cfb6416f0113b04181","602110864497cf011d9c0822","0","j","NA","space","j","space","NA","j","490","NA","2411","15751","5965","NA","490","2","legacy","1024","2","48000","-16","task","5216713","odd","NA","34974","39389","36977","104654","6763","28489","22524","105157","NA","104653","105157","104613","39389","105648","33446","104113","6728","96762","Lexical Decision Task","37","24182","42","yes","1024"
"2.884795364","0","6","flob","non-word","88.37209302325581","88.37209302325581","578.1162790697674","578.1162790697674","black","no","legacy","legacy","legacy","0","uniform","1","undefined","undefined","undefined","1","f","0","0","0","0","42","0","0","0","42","NA","38","42","38","0","38","3","42","0","42","Fri Feb 19 19:04:42 2021","The main experiment item","yes","Lexical_Decision_Task.osexp","/Users/jadephillips","no","Andale Mono","no","18","no","white","no","yes","576","legacy","38","38","3","/Users/jadephillips/subject-5216713.csv","legacy","Lentiform Loewenfeld","3.3.7","yes","yes","600bd7cfb6416f0113b04181","602110864497cf011d9c0822","0","f","NA","space","j","space","NA","f","677","NA","2411","15751","5965","NA","677","2","legacy","1024","2","48000","-16","task","5216713","odd","NA","34974","39389","36977","106194","6763","28489","22524","106696","NA","106192","106696","106152","39389","107374","33446","105652","6728","96762","Lexical Decision Task","38","24859","43","yes","1024"
"3.248054965","7.86","5","glow","word","88.63636363636364","88.63636363636364","576.8863636363636","576.8863636363636","black","no","legacy","legacy","legacy","0","uniform","1","undefined","undefined","undefined","1","j","0","0","0","0","43","0","0","0","43","NA","39","43","39","0","39","3","43","0","43","Fri Feb 19 19:04:42 2021","The main experiment item","yes","Lexical_Decision_Task.osexp","/Users/jadephillips","no","Andale Mono","no","18","no","white","no","yes","576","legacy","39","39","3","/Users/jadephillips/subject-5216713.csv","legacy","Lentiform Loewenfeld","3.3.7","yes","yes","600bd7cfb6416f0113b04181","602110864497cf011d9c0822","0","j","NA","space","j","space","NA","j","524","NA","2411","15751","5965","NA","524","2","legacy","1024","2","48000","-16","task","5216713","odd","NA","34974","39389","36977","107919","6763","28489","22524","108421","NA","107917","108421","107877","39389","108946","33446","107377","6728","96762","Lexical Decision Task","39","25383","44","yes","1024"
"3.064581521","5.51","6","cask","word","86.66666666666667","86.66666666666667","575.4888888888889","575.4888888888889","black","no","legacy","legacy","legacy","0","uniform","0","undefined","undefined","undefined","0","j","0","0","0","0","44","0","0","0","44","NA","40","44","40","0","40","3","44","0","44","Fri Feb 19 19:04:42 2021","The main experiment item","yes","Lexical_Decision_Task.osexp","/Users/jadephillips","no","Andale Mono","no","18","no","white","no","yes","576","legacy","40","40","3","/Users/jadephillips/subject-5216713.csv","legacy","Lentiform Loewenfeld","3.3.7","yes","yes","600bd7cfb6416f0113b04181","602110864497cf011d9c0822","0","f","NA","space","j","space","NA","f","514","NA","2411","15751","5965","NA","514","2","legacy","1024","2","48000","-16","task","5216713","odd","NA","34974","39389","36977","109491","6763","28489","22524","109993","NA","109489","109993","109450","39389","110508","33446","108950","6728","96762","Lexical Decision Task","39","25897","45","yes","1024"
"2.706148589","0","4","hube","non-word","86.95652173913044","86.95652173913044","577.2173913043479","577.2173913043479","black","no","legacy","legacy","legacy","0","uniform","1","undefined","undefined","undefined","1","f","0","0","0","0","45","0","0","0","45","NA","41","45","41","0","41","3","45","0","45","Fri Feb 19 19:04:42 2021","The main experiment item","yes","Lexical_Decision_Task.osexp","/Users/jadephillips","no","Andale Mono","no","18","no","white","no","yes","576","legacy","41","41","3","/Users/jadephillips/subject-5216713.csv","legacy","Lentiform Loewenfeld","3.3.7","yes","yes","600bd7cfb6416f0113b04181","602110864497cf011d9c0822","0","f","NA","space","j","space","NA","f","655","NA","2411","15751","5965","NA","655","2","legacy","1024","2","48000","-16","task","5216713","odd","NA","34974","39389","36977","112056","6763","28489","22524","112558","NA","112054","112558","112012","39389","113214","33446","108950","6728","110512","Lexical Decision Task","40","26552","46","yes","1024"
"2.821076612","0","4","lult","non-word","87.23404255319149","87.23404255319149","575.5744680851063","575.5744680851063","black","no","legacy","legacy","legacy","0","uniform","1","undefined","undefined","undefined","1","f","0","0","0","0","46","0","0","0","46","NA","42","46","42","0","42","3","46","0","46","Fri Feb 19 19:04:42 2021","The main experiment item","yes","Lexical_Decision_Task.osexp","/Users/jadephillips","no","Andale Mono","no","18","no","white","no","yes","576","legacy","42","42","3","/Users/jadephillips/subject-5216713.csv","legacy","Lentiform Loewenfeld","3.3.7","yes","yes","600bd7cfb6416f0113b04181","602110864497cf011d9c0822","0","f","NA","space","j","space","NA","f","500","NA","2411","15751","5965","NA","500","2","legacy","1024","2","48000","-16","task","5216713","odd","NA","34974","39389","36977","113759","6763","28489","22524","114261","NA","113757","114261","113718","39389","114762","33446","113218","6728","110512","Lexical Decision Task","41","27052","47","yes","1024"
"3.347850856","10.51","2","rich","word","87.5","87.5","573.625","573.625","black","no","legacy","legacy","legacy","0","uniform","1","undefined","undefined","undefined","1","j","0","0","0","0","47","0","0","0","47","NA","43","47","43","0","43","3","47","0","47","Fri Feb 19 19:04:42 2021","The main experiment item","yes","Lexical_Decision_Task.osexp","/Users/jadephillips","no","Andale Mono","no","18","no","white","no","yes","576","legacy","43","43","3","/Users/jadephillips/subject-5216713.csv","legacy","Lentiform Loewenfeld","3.3.7","yes","yes","600bd7cfb6416f0113b04181","602110864497cf011d9c0822","0","j","NA","space","j","space","NA","j","482","NA","2411","15751","5965","NA","482","2","legacy","1024","2","48000","-16","task","5216713","odd","NA","34974","39389","36977","115308","6763","28489","22524","115810","NA","115306","115810","115266","39389","116293","33446","114766","6728","110512","Lexical Decision Task","42","27534","48","yes","1024"
"2.616654026","9.37","5","gift","word","87.75510204081633","87.75510204081633","570.7755102040817","570.7755102040817","black","no","legacy","legacy","legacy","0","uniform","1","undefined","undefined","undefined","1","j","0","0","0","0","48","0","0","0","48","NA","44","48","44","0","44","3","48","0","48","Fri Feb 19 19:04:42 2021","The main experiment item","yes","Lexical_Decision_Task.osexp","/Users/jadephillips","no","Andale Mono","no","18","no","white","no","yes","576","legacy","44","44","3","/Users/jadephillips/subject-5216713.csv","legacy","Lentiform Loewenfeld","3.3.7","yes","yes","600bd7cfb6416f0113b04181","602110864497cf011d9c0822","0","j","NA","space","j","space","NA","j","434","NA","2411","15751","5965","NA","434","2","legacy","1024","2","48000","-16","task","5216713","odd","NA","34974","39389","36977","116839","6763","28489","22524","117341","NA","116837","117341","116797","39389","117776","33446","116297","6728","110512","Lexical Decision Task","43","27968","49","yes","1024"
"3.372543801","9.24","8","coat","word","86","86","570.56","570.56","black","no","legacy","legacy","legacy","0","uniform","0","undefined","undefined","undefined","0","j","0","0","0","0","49","0","0","0","49","NA","45","49","45","0","45","3","49","0","49","Fri Feb 19 19:04:42 2021","The main experiment item","yes","Lexical_Decision_Task.osexp","/Users/jadephillips","no","Andale Mono","no","18","no","white","no","yes","576","legacy","45","45","3","/Users/jadephillips/subject-5216713.csv","legacy","Lentiform Loewenfeld","3.3.7","yes","yes","600bd7cfb6416f0113b04181","602110864497cf011d9c0822","0","f","NA","space","j","space","NA","f","560","NA","2411","15751","5965","NA","560","2","legacy","1024","2","48000","-16","task","5216713","odd","NA","34974","39389","36977","118321","6763","28489","22524","118823","NA","118319","118824","118280","39389","119385","33446","117780","6728","110512","Lexical Decision Task","43","28528","50","yes","1024"
"2.695770526","7.34","6","pawn","word","86.27450980392157","86.27450980392157","575.3333333333334","575.3333333333334","black","no","legacy","legacy","legacy","0","uniform","1","undefined","undefined","undefined","1","j","0","0","0","0","50","0","0","0","50","NA","46","50","46","0","46","3","50","0","50","Fri Feb 19 19:04:42 2021","The main experiment item","yes","Lexical_Decision_Task.osexp","/Users/jadephillips","no","Andale Mono","no","18","no","white","no","yes","576","legacy","46","46","3","/Users/jadephillips/subject-5216713.csv","legacy","Lentiform Loewenfeld","3.3.7","yes","yes","600bd7cfb6416f0113b04181","602110864497cf011d9c0822","0","j","NA","space","j","space","NA","j","814","NA","2411","15751","5965","NA","814","2","legacy","1024","2","48000","-16","task","5216713","odd","NA","34974","39389","36977","120932","6763","28489","22524","121434","NA","120930","121434","120889","39389","122249","33446","117780","6728","119389","Lexical Decision Task","44","29342","51","yes","1024"
"3.443783828","7.65","3","verb","word","86.53846153846153","86.53846153846153","579","579","black","no","legacy","legacy","legacy","0","uniform","1","undefined","undefined","undefined","1","j","0","0","0","0","51","0","0","0","51","NA","47","51","47","0","47","3","51","0","51","Fri Feb 19 19:04:42 2021","The main experiment item","yes","Lexical_Decision_Task.osexp","/Users/jadephillips","no","Andale Mono","no","18","no","white","no","yes","576","legacy","47","47","3","/Users/jadephillips/subject-5216713.csv","legacy","Lentiform Loewenfeld","3.3.7","yes","yes","600bd7cfb6416f0113b04181","602110864497cf011d9c0822","0","j","NA","space","j","space","NA","j","766","NA","2411","15751","5965","NA","766","2","legacy","1024","2","48000","-16","task","5216713","odd","NA","34974","39389","36977","122794","6763","28489","22524","123296","NA","122792","123296","122753","39389","124063","33446","122253","6728","119389","Lexical Decision Task","45","30108","52","yes","1024"
"3.077974404","10.41","8","tool","word","86.79245283018868","86.79245283018868","577.6415094339623","577.6415094339623","black","no","legacy","legacy","legacy","0","uniform","1","undefined","undefined","undefined","1","j","0","0","0","0","52","0","0","0","52","NA","48","52","48","0","48","3","52","0","52","Fri Feb 19 19:04:42 2021","The main experiment item","yes","Lexical_Decision_Task.osexp","/Users/jadephillips","no","Andale Mono","no","18","no","white","no","yes","576","legacy","48","48","3","/Users/jadephillips/subject-5216713.csv","legacy","Lentiform Loewenfeld","3.3.7","yes","yes","600bd7cfb6416f0113b04181","602110864497cf011d9c0822","0","j","NA","space","j","space","NA","j","507","NA","2411","15751","5965","NA","507","2","legacy","1024","2","48000","-16","task","5216713","odd","NA","34974","39389","36977","124608","6763","28489","22524","125110","NA","124606","125110","124567","39389","125617","33446","124067","6728","119389","Lexical Decision Task","46","30615","53","yes","1024"
"2.972357144","0","5","dasp","non-word","87.03703703703704","87.03703703703704","577.3888888888889","577.3888888888889","black","no","legacy","legacy","legacy","0","uniform","1","undefined","undefined","undefined","1","f","0","0","0","0","53","0","0","0","53","NA","49","53","49","0","49","3","53","0","53","Fri Feb 19 19:04:42 2021","The main experiment item","yes","Lexical_Decision_Task.osexp","/Users/jadephillips","no","Andale Mono","no","18","no","white","no","yes","576","legacy","49","49","3","/Users/jadephillips/subject-5216713.csv","legacy","Lentiform Loewenfeld","3.3.7","yes","yes","600bd7cfb6416f0113b04181","602110864497cf011d9c0822","0","f","NA","space","j","space","NA","f","564","NA","2411","15751","5965","NA","564","2","legacy","1024","2","48000","-16","task","5216713","odd","NA","34974","39389","36977","126163","6763","28489","22524","126665","NA","126161","126665","126121","39389","127229","33446","125621","6728","119389","Lexical Decision Task","47","31179","54","yes","1024"
"3.492014979","0","9","yine","non-word","87.27272727272727","87.27272727272727","577.0909090909091","577.0909090909091","black","no","legacy","legacy","legacy","0","uniform","1","undefined","undefined","undefined","1","f","0","0","0","0","54","0","0","0","54","0","50","54","50","0","50","3","54","0","54","Fri Feb 19 19:04:42 2021","The main experiment item","yes","Lexical_Decision_Task.osexp","/Users/jadephillips","no","Andale Mono","no","18","no","white","no","yes","576","legacy","50","50","3","/Users/jadephillips/subject-5216713.csv","legacy","Lentiform Loewenfeld","3.3.7","yes","yes","600bd7cfb6416f0113b04181","602110864497cf011d9c0822","0","f","NA","space","j","space","space","f","561","NA","2411","15751","5965","3627","561","2","legacy","1024","2","48000","-16","task","5216713","odd","NA","34974","39389","36977","131422","6763","28489","22524","131924","127755","131421","131925","127734","39389","132486","33446","127234","6728","119389","Lexical Decision Task","48","31740","55","yes","1024"
"3.100255637","0","6","brax","non-word","87.5","87.5","577.7678571428571","577.7678571428571","black","no","legacy","legacy","legacy","0","uniform","1","undefined","undefined","undefined","1","f","0","0","0","0","55","0","0","0","55","0","51","55","51","0","51","3","55","0","55","Fri Feb 19 19:04:42 2021","The main experiment item","yes","Lexical_Decision_Task.osexp","/Users/jadephillips","no","Andale Mono","no","18","no","white","no","yes","576","legacy","51","51","3","/Users/jadephillips/subject-5216713.csv","legacy","Lentiform Loewenfeld","3.3.7","yes","yes","600bd7cfb6416f0113b04181","602110864497cf011d9c0822","0","f","NA","space","j","space","space","f","615","NA","2411","15751","5965","3627","615","2","legacy","1024","2","48000","-16","task","5216713","odd","NA","34974","39389","36977","133031","6763","28489","22524","133533","127755","133029","133533","132990","39389","134149","33446","132490","6728","119389","Lexical Decision Task","49","32355","56","yes","1024"
"3.431095062","5.74","9","perk","word","87.71929824561404","87.71929824561404","577.561403508772","577.561403508772","black","no","legacy","legacy","legacy","0","uniform","1","undefined","undefined","undefined","1","j","0","0","0","0","56","0","0","0","56","0","52","56","52","0","52","3","56","0","56","Fri Feb 19 19:04:42 2021","The main experiment item","yes","Lexical_Decision_Task.osexp","/Users/jadephillips","no","Andale Mono","no","18","no","white","no","yes","576","legacy","52","52","3","/Users/jadephillips/subject-5216713.csv","legacy","Lentiform Loewenfeld","3.3.7","yes","yes","600bd7cfb6416f0113b04181","602110864497cf011d9c0822","0","j","NA","space","j","space","space","j","566","NA","2411","15751","5965","3627","566","2","legacy","1024","2","48000","-16","task","5216713","odd","NA","34974","39389","36977","134694","6763","28489","22524","135196","127755","134693","135196","134653","39389","135763","33446","134153","6728","119389","Lexical Decision Task","50","32921","57","yes","1024"
"3.088136089","8.32","9","worm","word","87.93103448275862","87.93103448275862","577.2931034482758","577.2931034482758","black","no","legacy","legacy","legacy","0","uniform","1","undefined","undefined","undefined","1","j","0","0","0","0","57","0","0","0","57","0","53","57","53","0","53","3","57","0","57","Fri Feb 19 19:04:42 2021","The main experiment item","yes","Lexical_Decision_Task.osexp","/Users/jadephillips","no","Andale Mono","no","18","no","white","no","yes","576","legacy","53","53","3","/Users/jadephillips/subject-5216713.csv","legacy","Lentiform Loewenfeld","3.3.7","yes","yes","600bd7cfb6416f0113b04181","602110864497cf011d9c0822","0","j","NA","space","j","space","space","j","562","NA","2411","15751","5965","3627","562","2","legacy","1024","2","48000","-16","task","5216713","odd","NA","34974","39389","36977","136309","6763","28489","22524","136811","127755","136307","136811","136268","39389","137374","33446","135768","6728","119389","Lexical Decision Task","51","33483","58","yes","1024"
"2.746890964","9.67","3","plug","word","88.13559322033899","88.13559322033899","575.7118644067797","575.7118644067797","black","no","legacy","legacy","legacy","0","uniform","1","undefined","undefined","undefined","1","j","0","0","0","0","58","0","0","0","58","0","54","58","54","0","54","3","58","0","58","Fri Feb 19 19:04:42 2021","The main experiment item","yes","Lexical_Decision_Task.osexp","/Users/jadephillips","no","Andale Mono","no","18","no","white","no","yes","576","legacy","54","54","3","/Users/jadephillips/subject-5216713.csv","legacy","Lentiform Loewenfeld","3.3.7","yes","yes","600bd7cfb6416f0113b04181","602110864497cf011d9c0822","0","j","NA","space","j","space","space","j","484","NA","2411","15751","5965","3627","484","2","legacy","1024","2","48000","-16","task","5216713","odd","NA","34974","39389","36977","137921","6763","28489","22524","138423","127755","137919","138423","137879","39389","138908","33446","137378","6728","119389","Lexical Decision Task","52","33967","59","yes","1024"
"2.67699827","0","6","hulf","non-word","88.33333333333333","88.33333333333333","574.3666666666667","574.3666666666667","black","no","legacy","legacy","legacy","0","uniform","1","undefined","undefined","undefined","1","f","0","0","0","0","59","0","0","0","59","0","55","59","55","0","55","3","59","0","59","Fri Feb 19 19:04:42 2021","The main experiment item","yes","Lexical_Decision_Task.osexp","/Users/jadephillips","no","Andale Mono","no","18","no","white","no","yes","576","legacy","55","55","3","/Users/jadephillips/subject-5216713.csv","legacy","Lentiform Loewenfeld","3.3.7","yes","yes","600bd7cfb6416f0113b04181","602110864497cf011d9c0822","0","f","NA","space","j","space","space","f","495","NA","2411","15751","5965","3627","495","2","legacy","1024","2","48000","-16","task","5216713","odd","NA","34974","39389","36977","139454","6763","28489","22524","139956","127755","139452","139956","139413","39389","140452","33446","138913","6728","119389","Lexical Decision Task","53","34462","60","yes","1024"
"2.873320602","0","4","lurg","non-word","88.52459016393442","88.52459016393442","575.4426229508197","575.4426229508197","black","no","legacy","legacy","legacy","0","uniform","1","undefined","undefined","undefined","1","f","0","0","0","0","60","0","0","0","60","0","56","60","56","0","56","3","60","0","60","Fri Feb 19 19:04:42 2021","The main experiment item","yes","Lexical_Decision_Task.osexp","/Users/jadephillips","no","Andale Mono","no","18","no","white","no","yes","576","legacy","56","56","3","/Users/jadephillips/subject-5216713.csv","legacy","Lentiform Loewenfeld","3.3.7","yes","yes","600bd7cfb6416f0113b04181","602110864497cf011d9c0822","0","f","NA","space","j","space","space","f","640","NA","2411","15751","5965","3627","640","2","legacy","1024","2","48000","-16","task","5216713","odd","NA","34974","39389","36977","140999","6763","28489","22524","141501","127755","140997","141501","140957","39389","142142","33446","140457","6728","119389","Lexical Decision Task","54","35102","61","yes","1024"
"2.664328519","0","4","plux","non-word","88.70967741935483","88.70967741935483","574.0322580645161","574.0322580645161","black","no","legacy","legacy","legacy","0","uniform","1","undefined","undefined","undefined","1","f","0","0","0","0","61","0","0","0","61","0","57","61","57","0","57","3","61","0","61","Fri Feb 19 19:04:42 2021","The main experiment item","yes","Lexical_Decision_Task.osexp","/Users/jadephillips","no","Andale Mono","no","18","no","white","no","yes","576","legacy","57","57","3","/Users/jadephillips/subject-5216713.csv","legacy","Lentiform Loewenfeld","3.3.7","yes","yes","600bd7cfb6416f0113b04181","602110864497cf011d9c0822","0","f","NA","space","j","space","space","f","488","NA","2411","15751","5965","3627","488","2","legacy","1024","2","48000","-16","task","5216713","odd","NA","34974","39389","36977","142688","6763","28489","22524","143190","127755","142686","143190","142647","39389","143679","33446","142147","6728","119389","Lexical Decision Task","55","35590","62","yes","1024"
"2.695481676","0","7","goke","non-word","88.88888888888889","88.88888888888889","571.8412698412699","571.8412698412699","black","no","legacy","legacy","legacy","0","uniform","1","undefined","undefined","undefined","1","f","0","0","0","0","62","0","0","0","62","0","58","62","58","0","58","3","62","0","62","Fri Feb 19 19:04:42 2021","The main experiment item","yes","Lexical_Decision_Task.osexp","/Users/jadephillips","no","Andale Mono","no","18","no","white","no","yes","576","legacy","58","58","3","/Users/jadephillips/subject-5216713.csv","legacy","Lentiform Loewenfeld","3.3.7","yes","yes","600bd7cfb6416f0113b04181","602110864497cf011d9c0822","0","f","NA","space","j","space","space","f","436","NA","2411","15751","5965","3627","436","2","legacy","1024","2","48000","-16","task","5216713","odd","NA","34974","39389","36977","144225","6763","28489","22524","144728","127755","144223","144728","144184","39389","145165","33446","143684","6728","119389","Lexical Decision Task","56","36026","63","yes","1024"
"3.2757719","0","5","slea","non-word","89.0625","89.0625","572.09375","572.09375","black","no","legacy","legacy","legacy","0","uniform","1","undefined","undefined","undefined","1","f","0","0","0","0","63","0","0","0","63","0","59","63","59","0","59","3","63","0","63","Fri Feb 19 19:04:42 2021","The main experiment item","yes","Lexical_Decision_Task.osexp","/Users/jadephillips","no","Andale Mono","no","18","no","white","no","yes","576","legacy","59","59","3","/Users/jadephillips/subject-5216713.csv","legacy","Lentiform Loewenfeld","3.3.7","yes","yes","600bd7cfb6416f0113b04181","602110864497cf011d9c0822","0","f","NA","space","j","space","space","f","588","NA","2411","15751","5965","3627","588","2","legacy","1024","2","48000","-16","task","5216713","odd","NA","34974","39389","36977","145711","6763","28489","22524","146213","127755","145709","146213","145670","39389","146802","33446","145169","6728","119389","Lexical Decision Task","57","36614","64","yes","1024"
"2.668385917","5.48","4","twig","word","89.23076923076923","89.23076923076923","571.6615384615385","571.6615384615385","black","no","legacy","legacy","legacy","0","uniform","1","undefined","undefined","undefined","1","j","0","0","0","0","64","0","0","0","64","0","60","64","60","0","60","3","64","0","64","Fri Feb 19 19:04:42 2021","The main experiment item","yes","Lexical_Decision_Task.osexp","/Users/jadephillips","no","Andale Mono","no","18","no","white","no","yes","576","legacy","60","60","3","/Users/jadephillips/subject-5216713.csv","legacy","Lentiform Loewenfeld","3.3.7","yes","yes","600bd7cfb6416f0113b04181","602110864497cf011d9c0822","0","j","NA","space","j","space","space","j","544","NA","2411","15751","5965","3627","544","2","legacy","1024","2","48000","-16","task","5216713","odd","NA","34974","39389","36977","147348","6763","28489","22524","147850","127755","147346","147850","147306","39389","148395","33446","146806","6728","119389","Lexical Decision Task","58","37158","65","yes","1024"
"2.693726949","5.08","3","swig","word","89.39393939393939","89.39393939393939","573.4242424242424","573.4242424242424","black","no","legacy","legacy","legacy","0","uniform","1","undefined","undefined","undefined","1","j","0","0","0","0","65","0","0","0","65","0","61","65","61","0","61","3","65","0","65","Fri Feb 19 19:04:42 2021","The main experiment item","yes","Lexical_Decision_Task.osexp","/Users/jadephillips","no","Andale Mono","no","18","no","white","no","yes","576","legacy","61","61","3","/Users/jadephillips/subject-5216713.csv","legacy","Lentiform Loewenfeld","3.3.7","yes","yes","600bd7cfb6416f0113b04181","602110864497cf011d9c0822","0","j","NA","space","j","space","space","j","688","NA","2411","15751","5965","3627","688","2","legacy","1024","2","48000","-16","task","5216713","odd","NA","34974","39389","36977","148940","6763","28489","22524","149443","127755","148939","149443","148899","39389","150132","33446","148399","6728","119389","Lexical Decision Task","59","37846","66","yes","1024"
"2.838639236","0","4","furg","non-word","88.05970149253731","88.05970149253731","574.4328358208955","574.4328358208955","black","no","legacy","legacy","legacy","0","uniform","0","undefined","undefined","undefined","0","f","0","0","0","0","66","0","0","0","66","0","62","66","62","0","62","3","66","0","66","Fri Feb 19 19:04:42 2021","The main experiment item","yes","Lexical_Decision_Task.osexp","/Users/jadephillips","no","Andale Mono","no","18","no","white","no","yes","576","legacy","62","62","3","/Users/jadephillips/subject-5216713.csv","legacy","Lentiform Loewenfeld","3.3.7","yes","yes","600bd7cfb6416f0113b04181","602110864497cf011d9c0822","0","j","NA","space","j","space","space","j","641","NA","2411","15751","5965","3627","641","2","legacy","1024","2","48000","-16","task","5216713","odd","NA","34974","39389","36977","150678","6763","28489","22524","151180","127755","150676","151180","150636","39389","151822","33446","150136","6728","119389","Lexical Decision Task","59","38487","67","yes","1024"
"3.208172527","10.27","7","deck","word","88.23529411764706","88.23529411764706","573.6470588235294","573.6470588235294","black","no","legacy","legacy","legacy","0","uniform","1","undefined","undefined","undefined","1","j","0","0","0","0","67","0","0","0","67","0","63","67","63","0","63","3","67","0","67","Fri Feb 19 19:04:42 2021","The main experiment item","yes","Lexical_Decision_Task.osexp","/Users/jadephillips","no","Andale Mono","no","18","no","white","no","yes","576","legacy","63","63","3","/Users/jadephillips/subject-5216713.csv","legacy","Lentiform Loewenfeld","3.3.7","yes","yes","600bd7cfb6416f0113b04181","602110864497cf011d9c0822","0","j","NA","space","j","space","space","j","521","NA","2411","15751","5965","3627","521","2","legacy","1024","2","48000","-16","task","5216713","odd","NA","34974","39389","36977","153369","6763","28489","22524","153872","127755","153367","153872","153326","39389","154394","33446","150136","6728","151826","Lexical Decision Task","60","39008","68","yes","1024"
"3.299579929","0","2","flis","non-word","88.40579710144928","88.40579710144928","573.0869565217391","573.0869565217391","black","no","legacy","legacy","legacy","0","uniform","1","undefined","undefined","undefined","1","f","0","0","0","0","68","0","0","0","68","0","64","68","64","0","64","3","68","0","68","Fri Feb 19 19:04:42 2021","The main experiment item","yes","Lexical_Decision_Task.osexp","/Users/jadephillips","no","Andale Mono","no","18","no","white","no","yes","576","legacy","64","64","3","/Users/jadephillips/subject-5216713.csv","legacy","Lentiform Loewenfeld","3.3.7","yes","yes","600bd7cfb6416f0113b04181","602110864497cf011d9c0822","0","f","NA","space","j","space","space","f","535","NA","2411","15751","5965","3627","535","2","legacy","1024","2","48000","-16","task","5216713","odd","NA","34974","39389","36977","154939","6763","28489","22524","155441","127755","154937","155441","154898","39389","155977","33446","154398","6728","151826","Lexical Decision Task","61","39543","69","yes","1024"
"2.809559715","8.44","4","volt","word","88.57142857142857","88.57142857142857","572.8714285714286","572.8714285714286","black","no","legacy","legacy","legacy","0","uniform","1","undefined","undefined","undefined","1","j","0","0","0","0","69","0","0","0","69","0","65","69","65","0","65","3","69","0","69","Fri Feb 19 19:04:42 2021","The main experiment item","yes","Lexical_Decision_Task.osexp","/Users/jadephillips","no","Andale Mono","no","18","no","white","no","yes","576","legacy","65","65","3","/Users/jadephillips/subject-5216713.csv","legacy","Lentiform Loewenfeld","3.3.7","yes","yes","600bd7cfb6416f0113b04181","602110864497cf011d9c0822","0","j","NA","space","j","space","space","j","558","NA","2411","15751","5965","3627","558","2","legacy","1024","2","48000","-16","task","5216713","odd","NA","34974","39389","36977","156523","6763","28489","22524","157025","127755","156521","157025","156481","39389","157584","33446","155981","6728","151826","Lexical Decision Task","62","40101","70","yes","1024"
"3.043885998","0","9","gome","non-word","88.73239436619718","88.73239436619718","575.1408450704225","575.1408450704225","black","no","legacy","legacy","legacy","0","uniform","1","undefined","undefined","undefined","1","f","0","0","0","0","70","0","0","0","70","0","66","70","66","0","66","3","70","0","70","Fri Feb 19 19:04:42 2021","The main experiment item","yes","Lexical_Decision_Task.osexp","/Users/jadephillips","no","Andale Mono","no","18","no","white","no","yes","576","legacy","66","66","3","/Users/jadephillips/subject-5216713.csv","legacy","Lentiform Loewenfeld","3.3.7","yes","yes","600bd7cfb6416f0113b04181","602110864497cf011d9c0822","0","f","NA","space","j","space","space","f","734","NA","2411","15751","5965","3627","734","2","legacy","1024","2","48000","-16","task","5216713","odd","NA","34974","39389","36977","158130","6763","28489","22524","158632","127755","158128","158632","158088","39389","159367","33446","157588","6728","151826","Lexical Decision Task","63","40835","71","yes","1024"
"3.274543461","7.46","7","scar","word","88.88888888888889","88.88888888888889","572.6666666666666","572.6666666666666","black","no","legacy","legacy","legacy","0","uniform","1","undefined","undefined","undefined","1","j","0","0","0","0","71","0","0","0","71","0","67","71","67","0","67","3","71","0","71","Fri Feb 19 19:04:42 2021","The main experiment item","yes","Lexical_Decision_Task.osexp","/Users/jadephillips","no","Andale Mono","no","18","no","white","no","yes","576","legacy","67","67","3","/Users/jadephillips/subject-5216713.csv","legacy","Lentiform Loewenfeld","3.3.7","yes","yes","600bd7cfb6416f0113b04181","602110864497cf011d9c0822","0","j","NA","space","j","space","space","j","397","NA","2411","15751","5965","3627","397","2","legacy","1024","2","48000","-16","task","5216713","odd","NA","34974","39389","36977","159912","6763","28489","22524","160415","127755","159911","160415","159871","39389","160813","33446","159370","6728","151826","Lexical Decision Task","64","41232","72","yes","1024"
"2.709837904","6.85","8","skim","word","89.04109589041096","89.04109589041096","570.054794520548","570.054794520548","black","no","legacy","legacy","legacy","0","uniform","1","undefined","undefined","undefined","1","j","0","0","0","0","72","0","0","0","72","0","68","72","68","0","68","3","72","0","72","Fri Feb 19 19:04:42 2021","The main experiment item","yes","Lexical_Decision_Task.osexp","/Users/jadephillips","no","Andale Mono","no","18","no","white","no","yes","576","legacy","68","68","3","/Users/jadephillips/subject-5216713.csv","legacy","Lentiform Loewenfeld","3.3.7","yes","yes","600bd7cfb6416f0113b04181","602110864497cf011d9c0822","0","j","NA","space","j","space","space","j","382","NA","2411","15751","5965","3627","382","2","legacy","1024","2","48000","-16","task","5216713","odd","NA","34974","39389","36977","161358","6763","28489","22524","161860","127755","161356","161860","161317","39389","162242","33446","160817","6728","151826","Lexical Decision Task","65","41614","73","yes","1024"
"2.880623071","0","9","curp","non-word","89.1891891891892","89.1891891891892","571.3378378378378","571.3378378378378","black","no","legacy","legacy","legacy","0","uniform","1","undefined","undefined","undefined","1","f","0","0","0","0","73","0","0","0","73","0","69","73","69","0","69","3","73","0","73","Fri Feb 19 19:04:42 2021","The main experiment item","yes","Lexical_Decision_Task.osexp","/Users/jadephillips","no","Andale Mono","no","18","no","white","no","yes","576","legacy","69","69","3","/Users/jadephillips/subject-5216713.csv","legacy","Lentiform Loewenfeld","3.3.7","yes","yes","600bd7cfb6416f0113b04181","602110864497cf011d9c0822","0","f","NA","space","j","space","space","f","665","NA","2411","15751","5965","3627","665","2","legacy","1024","2","48000","-16","task","5216713","odd","NA","34974","39389","36977","162788","6763","28489","22524","163290","127755","162786","163290","162747","39389","163956","33446","162247","6728","151826","Lexical Decision Task","66","42279","74","yes","1024"
"3.216517684","10.87","3","film","word","89.33333333333333","89.33333333333333","570.1733333333333","570.1733333333333","black","no","legacy","legacy","legacy","0","uniform","1","undefined","undefined","undefined","1","j","0","0","0","0","74","0","0","0","74","0","70","74","70","0","70","3","74","0","74","Fri Feb 19 19:04:42 2021","The main experiment item","yes","Lexical_Decision_Task.osexp","/Users/jadephillips","no","Andale Mono","no","18","no","white","no","yes","576","legacy","70","70","3","/Users/jadephillips/subject-5216713.csv","legacy","Lentiform Loewenfeld","3.3.7","yes","yes","600bd7cfb6416f0113b04181","602110864497cf011d9c0822","0","j","NA","space","j","space","space","j","484","NA","2411","15751","5965","3627","484","2","legacy","1024","2","48000","-16","task","5216713","odd","NA","34974","39389","36977","164502","6763","28489","22524","165004","127755","164500","165004","164461","39389","165489","33446","163961","6728","151826","Lexical Decision Task","67","42763","75","yes","1024"
"3.263399331","0","8","cour","non-word","89.47368421052632","89.47368421052632","570.0263157894736","570.0263157894736","black","no","legacy","legacy","legacy","0","uniform","1","undefined","undefined","undefined","1","f","0","0","0","0","75","0","0","0","75","0","71","75","71","0","71","3","75","0","75","Fri Feb 19 19:04:42 2021","The main experiment item","yes","Lexical_Decision_Task.osexp","/Users/jadephillips","no","Andale Mono","no","18","no","white","no","yes","576","legacy","71","71","3","/Users/jadephillips/subject-5216713.csv","legacy","Lentiform Loewenfeld","3.3.7","yes","yes","600bd7cfb6416f0113b04181","602110864497cf011d9c0822","0","f","NA","space","j","space","space","f","559","NA","2411","15751","5965","3627","559","2","legacy","1024","2","48000","-16","task","5216713","odd","NA","34974","39389","36977","166036","6763","28489","22524","166538","127755","166034","166538","165994","39389","167098","33446","165494","6728","151826","Lexical Decision Task","68","43322","76","yes","1024"
"3.225825991","0","7","talm","non-word","89.6103896103896","89.6103896103896","570.3116883116883","570.3116883116883","black","no","legacy","legacy","legacy","0","uniform","1","undefined","undefined","undefined","1","f","0","0","0","0","76","0","0","0","76","0","72","76","72","0","72","3","76","0","76","Fri Feb 19 19:04:42 2021","The main experiment item","yes","Lexical_Decision_Task.osexp","/Users/jadephillips","no","Andale Mono","no","18","no","white","no","yes","576","legacy","72","72","3","/Users/jadephillips/subject-5216713.csv","legacy","Lentiform Loewenfeld","3.3.7","yes","yes","600bd7cfb6416f0113b04181","602110864497cf011d9c0822","0","f","NA","space","j","space","space","f","592","NA","2411","15751","5965","3627","592","2","legacy","1024","2","48000","-16","task","5216713","odd","NA","34974","39389","36977","167644","6763","28489","22524","168146","127755","167642","168146","167603","39389","168739","33446","167102","6728","151826","Lexical Decision Task","69","43914","77","yes","1024"
"2.767650507","0","6","yolt","non-word","89.74358974358974","89.74358974358974","570.0897435897435","570.0897435897435","black","no","legacy","legacy","legacy","0","uniform","1","undefined","undefined","undefined","1","f","0","0","0","0","77","0","0","0","77","0","73","77","73","0","73","3","77","0","77","Fri Feb 19 19:04:42 2021","The main experiment item","yes","Lexical_Decision_Task.osexp","/Users/jadephillips","no","Andale Mono","no","18","no","white","no","yes","576","legacy","73","73","3","/Users/jadephillips/subject-5216713.csv","legacy","Lentiform Loewenfeld","3.3.7","yes","yes","600bd7cfb6416f0113b04181","602110864497cf011d9c0822","0","f","NA","space","j","space","space","f","553","NA","2411","15751","5965","3627","553","2","legacy","1024","2","48000","-16","task","5216713","odd","NA","34974","39389","36977","169286","6763","28489","22524","169788","127755","169284","169788","169244","39389","170342","33446","168744","6728","151826","Lexical Decision Task","70","44467","78","yes","1024"
"2.703007489","8.37","3","pulp","word","89.87341772151899","89.87341772151899","570.2278481012659","570.2278481012659","black","no","legacy","legacy","legacy","0","uniform","1","undefined","undefined","undefined","1","j","0","0","0","0","78","0","0","0","78","0","74","78","74","0","74","3","78","0","78","Fri Feb 19 19:04:42 2021","The main experiment item","yes","Lexical_Decision_Task.osexp","/Users/jadephillips","no","Andale Mono","no","18","no","white","no","yes","576","legacy","74","74","3","/Users/jadephillips/subject-5216713.csv","legacy","Lentiform Loewenfeld","3.3.7","yes","yes","600bd7cfb6416f0113b04181","602110864497cf011d9c0822","0","j","NA","space","j","space","space","j","581","NA","2411","15751","5965","3627","581","2","legacy","1024","2","48000","-16","task","5216713","odd","NA","34974","39389","36977","170888","6763","28489","22524","171390","127755","170886","171390","170846","39389","171972","33446","170346","6728","151826","Lexical Decision Task","71","45048","79","yes","1024"
"3.010582609","0","2","drod","non-word","90","90","569.9125","569.9125","black","no","legacy","legacy","legacy","0","uniform","1","undefined","undefined","undefined","1","f","0","0","0","0","79","0","0","0","79","0","75","79","75","0","75","3","79","0","79","Fri Feb 19 19:04:42 2021","The main experiment item","yes","Lexical_Decision_Task.osexp","/Users/jadephillips","no","Andale Mono","no","18","no","white","no","yes","576","legacy","75","75","3","/Users/jadephillips/subject-5216713.csv","legacy","Lentiform Loewenfeld","3.3.7","yes","yes","600bd7cfb6416f0113b04181","602110864497cf011d9c0822","0","f","NA","space","j","space","space","f","545","NA","2411","15751","5965","3627","545","2","legacy","1024","2","48000","-16","task","5216713","odd","NA","34974","39389","36977","172518","6763","28489","22524","173020","127755","172516","173020","172476","39389","173566","33446","171976","6728","151826","Lexical Decision Task","72","45593","80","yes","1024"
"2.953276337","6.32","4","thaw","word","90.12345679012346","90.12345679012346","570.1851851851852","570.1851851851852","black","no","legacy","legacy","legacy","0","uniform","1","undefined","undefined","undefined","1","j","0","0","0","0","80","0","0","0","80","0","76","80","76","0","76","3","80","0","80","Fri Feb 19 19:04:42 2021","The main experiment item","yes","Lexical_Decision_Task.osexp","/Users/jadephillips","no","Andale Mono","no","18","no","white","no","yes","576","legacy","76","76","3","/Users/jadephillips/subject-5216713.csv","legacy","Lentiform Loewenfeld","3.3.7","yes","yes","600bd7cfb6416f0113b04181","602110864497cf011d9c0822","0","j","NA","space","j","space","space","j","592","NA","2411","15751","5965","3627","592","2","legacy","1024","2","48000","-16","task","5216713","odd","NA","34974","39389","36977","174112","6763","28489","22524","174614","127755","174110","174614","174071","39389","175207","33446","173570","6728","151826","Lexical Decision Task","73","46185","81","yes","1024"
"2.983324025","9.56","2","debt","word","90.2439024390244","90.2439024390244","570.609756097561","570.609756097561","black","no","legacy","legacy","legacy","0","uniform","1","undefined","undefined","undefined","1","j","0","0","0","0","81","0","0","0","81","0","77","81","77","0","77","3","81","0","81","Fri Feb 19 19:04:42 2021","The main experiment item","yes","Lexical_Decision_Task.osexp","/Users/jadephillips","no","Andale Mono","no","18","no","white","no","yes","576","legacy","77","77","3","/Users/jadephillips/subject-5216713.csv","legacy","Lentiform Loewenfeld","3.3.7","yes","yes","600bd7cfb6416f0113b04181","602110864497cf011d9c0822","0","j","NA","space","j","space","space","j","605","NA","2411","15751","5965","3627","605","2","legacy","1024","2","48000","-16","task","5216713","odd","NA","34974","39389","36977","175752","6763","28489","22524","176254","127755","175750","176254","175711","39389","176860","33446","175211","6728","151826","Lexical Decision Task","74","46790","82","yes","1024"
"3.121778632","0","9","sark","non-word","90.36144578313252","90.36144578313252","569.8192771084338","569.8192771084338","black","no","legacy","legacy","legacy","0","uniform","1","undefined","undefined","undefined","1","f","0","0","0","0","82","0","0","0","82","0","78","82","78","0","78","3","82","0","82","Fri Feb 19 19:04:42 2021","The main experiment item","yes","Lexical_Decision_Task.osexp","/Users/jadephillips","no","Andale Mono","no","18","no","white","no","yes","576","legacy","78","78","3","/Users/jadephillips/subject-5216713.csv","legacy","Lentiform Loewenfeld","3.3.7","yes","yes","600bd7cfb6416f0113b04181","602110864497cf011d9c0822","0","f","NA","space","j","space","space","f","505","NA","2411","15751","5965","3627","505","2","legacy","1024","2","48000","-16","task","5216713","odd","NA","34974","39389","36977","177406","6763","28489","22524","177908","127755","177404","177908","177364","39389","178414","33446","176864","6728","151826","Lexical Decision Task","75","47295","83","yes","1024"
"3.15462682","0","6","noal","non-word","90.47619047619048","90.47619047619048","569.7261904761905","569.7261904761905","black","no","legacy","legacy","legacy","0","uniform","1","undefined","undefined","undefined","1","f","0","0","0","0","83","0","0","0","83","0","79","83","79","0","79","3","83","0","83","Fri Feb 19 19:04:42 2021","The main experiment item","yes","Lexical_Decision_Task.osexp","/Users/jadephillips","no","Andale Mono","no","18","no","white","no","yes","576","legacy","79","79","3","/Users/jadephillips/subject-5216713.csv","legacy","Lentiform Loewenfeld","3.3.7","yes","yes","600bd7cfb6416f0113b04181","602110864497cf011d9c0822","0","f","NA","space","j","space","space","f","562","NA","2411","15751","5965","3627","562","2","legacy","1024","2","48000","-16","task","5216713","odd","NA","34974","39389","36977","178959","6763","28489","22524","179461","127755","178957","179461","178918","39389","180024","33446","178418","6728","151826","Lexical Decision Task","76","47857","84","yes","1024"
"2.924968096","0","4","phim","non-word","90.58823529411765","90.58823529411765","569.1176470588235","569.1176470588235","black","no","legacy","legacy","legacy","0","uniform","1","undefined","undefined","undefined","1","f","0","0","0","0","84","0","0","0","84","0","80","84","80","0","80","3","84","0","84","Fri Feb 19 19:04:42 2021","The main experiment item","yes","Lexical_Decision_Task.osexp","/Users/jadephillips","no","Andale Mono","no","18","no","white","no","yes","576","legacy","80","80","3","/Users/jadephillips/subject-5216713.csv","legacy","Lentiform Loewenfeld","3.3.7","yes","yes","600bd7cfb6416f0113b04181","602110864497cf011d9c0822","0","f","NA","space","j","space","space","f","518","NA","2411","15751","5965","3627","518","2","legacy","1024","2","48000","-16","task","5216713","odd","NA","34974","39389","36977","180570","6763","28489","22524","181072","127755","180568","181072","180528","39389","181591","33446","180028","6728","151826","Lexical Decision Task","77","48375","85","yes","1024"
"3.397302518","7.01","2","knit","word","89.53488372093024","89.53488372093024","569.4418604651163","569.4418604651163","black","no","legacy","legacy","legacy","0","uniform","0","undefined","undefined","undefined","0","j","0","0","0","0","85","0","0","0","85","0","81","85","81","0","81","3","85","0","85","Fri Feb 19 19:04:42 2021","The main experiment item","yes","Lexical_Decision_Task.osexp","/Users/jadephillips","no","Andale Mono","no","18","no","white","no","yes","576","legacy","81","81","3","/Users/jadephillips/subject-5216713.csv","legacy","Lentiform Loewenfeld","3.3.7","yes","yes","600bd7cfb6416f0113b04181","602110864497cf011d9c0822","0","f","NA","space","j","space","space","f","597","NA","2411","15751","5965","3627","597","2","legacy","1024","2","48000","-16","task","5216713","odd","NA","34974","39389","36977","182137","6763","28489","22524","182640","127755","182135","182640","182095","39389","183238","33446","181595","6728","151826","Lexical Decision Task","77","48972","86","yes","1024"
"2.7084209","0","8","vump","non-word","89.65517241379311","89.65517241379311","569.5977011494252","569.5977011494252","black","no","legacy","legacy","legacy","0","uniform","1","undefined","undefined","undefined","1","f","0","0","0","0","86","0","0","0","86","0","82","86","82","0","82","3","86","0","86","Fri Feb 19 19:04:42 2021","The main experiment item","yes","Lexical_Decision_Task.osexp","/Users/jadephillips","no","Andale Mono","no","18","no","white","no","yes","576","legacy","82","82","3","/Users/jadephillips/subject-5216713.csv","legacy","Lentiform Loewenfeld","3.3.7","yes","yes","600bd7cfb6416f0113b04181","602110864497cf011d9c0822","0","f","NA","space","j","space","space","f","583","NA","2411","15751","5965","3627","583","2","legacy","1024","2","48000","-16","task","5216713","odd","NA","34974","39389","36977","184786","6763","28489","22524","185288","127755","184783","185288","184742","39389","185872","33446","181595","6728","183242","Lexical Decision Task","78","49555","87","yes","1024"
"3.031408464","0","7","drow","non-word","89.77272727272727","89.77272727272727","572.7272727272727","572.7272727272727","black","no","legacy","legacy","legacy","0","uniform","1","undefined","undefined","undefined","1","f","0","0","0","0","87","0","0","0","87","0","83","87","83","0","83","3","87","0","87","Fri Feb 19 19:04:42 2021","The main experiment item","yes","Lexical_Decision_Task.osexp","/Users/jadephillips","no","Andale Mono","no","18","no","white","no","yes","576","legacy","83","83","3","/Users/jadephillips/subject-5216713.csv","legacy","Lentiform Loewenfeld","3.3.7","yes","yes","600bd7cfb6416f0113b04181","602110864497cf011d9c0822","0","f","NA","space","j","space","space","f","845","NA","2411","15751","5965","3627","845","2","legacy","1024","2","48000","-16","task","5216713","odd","NA","34974","39389","36977","186417","6763","28489","22524","186919","127755","186415","186919","186376","39389","187765","33446","185876","6728","183242","Lexical Decision Task","79","50400","88","yes","1024"
"2.937852093","0","7","bamp","non-word","89.88764044943821","89.88764044943821","574.3258426966293","574.3258426966293","black","no","legacy","legacy","legacy","0","uniform","1","undefined","undefined","undefined","1","f","0","0","0","0","88","0","0","0","88","0","84","88","84","0","84","3","88","0","88","Fri Feb 19 19:04:42 2021","The main experiment item","yes","Lexical_Decision_Task.osexp","/Users/jadephillips","no","Andale Mono","no","18","no","white","no","yes","576","legacy","84","84","3","/Users/jadephillips/subject-5216713.csv","legacy","Lentiform Loewenfeld","3.3.7","yes","yes","600bd7cfb6416f0113b04181","602110864497cf011d9c0822","0","f","NA","space","j","space","space","f","715","NA","2411","15751","5965","3627","715","2","legacy","1024","2","48000","-16","task","5216713","odd","NA","34974","39389","36977","188310","6763","28489","22524","188812","127755","188308","188812","188269","39389","189528","33446","187769","6728","183242","Lexical Decision Task","80","51115","89","yes","1024"
"2.972819734","0","4","scew","non-word","88.88888888888889","88.88888888888889","575.9444444444445","575.9444444444445","black","no","legacy","legacy","legacy","0","uniform","0","undefined","undefined","undefined","0","f","0","0","0","0","89","0","0","0","89","0","85","89","85","0","85","3","89","0","89","Fri Feb 19 19:04:42 2021","The main experiment item","yes","Lexical_Decision_Task.osexp","/Users/jadephillips","no","Andale Mono","no","18","no","white","no","yes","576","legacy","85","85","3","/Users/jadephillips/subject-5216713.csv","legacy","Lentiform Loewenfeld","3.3.7","yes","yes","600bd7cfb6416f0113b04181","602110864497cf011d9c0822","0","j","NA","space","j","space","space","j","720","NA","2411","15751","5965","3627","720","2","legacy","1024","2","48000","-16","task","5216713","odd","NA","34974","39389","36977","190074","6763","28489","22524","190576","127755","190072","190576","190032","39389","191296","33446","189532","6728","183242","Lexical Decision Task","80","51835","90","yes","1024"
"3.302475237","0","7","leel","non-word","89.01098901098901","89.01098901098901","575.8351648351648","575.8351648351648","black","no","legacy","legacy","legacy","0","uniform","1","undefined","undefined","undefined","1","f","0","0","0","0","90","0","0","0","90","0","86","90","86","0","86","3","90","0","90","Fri Feb 19 19:04:42 2021","The main experiment item","yes","Lexical_Decision_Task.osexp","/Users/jadephillips","no","Andale Mono","no","18","no","white","no","yes","576","legacy","86","86","3","/Users/jadephillips/subject-5216713.csv","legacy","Lentiform Loewenfeld","3.3.7","yes","yes","600bd7cfb6416f0113b04181","602110864497cf011d9c0822","0","f","NA","space","j","space","space","f","566","NA","2411","15751","5965","3627","566","2","legacy","1024","2","48000","-16","task","5216713","odd","NA","34974","39389","36977","192844","6763","28489","22524","193346","127755","192842","193346","192800","39389","193914","33446","189532","6728","191300","Lexical Decision Task","81","52401","91","yes","1024"
"3.197740804","6.74","3","ache","word","89.1304347826087","89.1304347826087","576.0326086956521","576.0326086956521","black","no","legacy","legacy","legacy","0","uniform","1","undefined","undefined","undefined","1","j","0","0","0","0","91","0","0","0","91","0","87","91","87","0","87","3","91","0","91","Fri Feb 19 19:04:42 2021","The main experiment item","yes","Lexical_Decision_Task.osexp","/Users/jadephillips","no","Andale Mono","no","18","no","white","no","yes","576","legacy","87","87","3","/Users/jadephillips/subject-5216713.csv","legacy","Lentiform Loewenfeld","3.3.7","yes","yes","600bd7cfb6416f0113b04181","602110864497cf011d9c0822","0","j","NA","space","j","space","space","j","594","NA","2411","15751","5965","3627","594","2","legacy","1024","2","48000","-16","task","5216713","odd","NA","34974","39389","36977","194459","6763","28489","22524","194961","127755","194457","194961","194418","39389","195556","33446","193918","6728","191300","Lexical Decision Task","82","52995","92","yes","1024"
"2.6599162","0","6","flug","non-word","88.17204301075269","88.17204301075269","574.2043010752689","574.2043010752689","black","no","legacy","legacy","legacy","0","uniform","0","undefined","undefined","undefined","0","f","0","0","0","0","92","0","0","0","92","0","88","92","88","0","88","3","92","0","92","Fri Feb 19 19:04:42 2021","The main experiment item","yes","Lexical_Decision_Task.osexp","/Users/jadephillips","no","Andale Mono","no","18","no","white","no","yes","576","legacy","88","88","3","/Users/jadephillips/subject-5216713.csv","legacy","Lentiform Loewenfeld","3.3.7","yes","yes","600bd7cfb6416f0113b04181","602110864497cf011d9c0822","0","j","NA","space","j","space","space","j","406","NA","2411","15751","5965","3627","406","2","legacy","1024","2","48000","-16","task","5216713","odd","NA","34974","39389","36977","196101","6763","28489","22524","196602","127755","196099","196603","196060","39389","197010","33446","195560","6728","191300","Lexical Decision Task","82","53401","93","yes","1024"
"3.003891166","8.05","2","frog","word","88.29787234042553","88.29787234042553","573.0425531914893","573.0425531914893","black","no","legacy","legacy","legacy","0","uniform","1","undefined","undefined","undefined","1","j","0","0","0","0","93","0","0","0","93","0","89","93","89","0","89","3","93","0","93","Fri Feb 19 19:04:42 2021","The main experiment item","yes","Lexical_Decision_Task.osexp","/Users/jadephillips","no","Andale Mono","no","18","no","white","no","yes","576","legacy","89","89","3","/Users/jadephillips/subject-5216713.csv","legacy","Lentiform Loewenfeld","3.3.7","yes","yes","600bd7cfb6416f0113b04181","602110864497cf011d9c0822","0","j","NA","space","j","space","space","j","465","NA","2411","15751","5965","3627","465","2","legacy","1024","2","48000","-16","task","5216713","odd","NA","34974","39389","36977","198558","6763","28489","22524","199061","127755","198555","199061","198515","39389","199527","33446","195560","6728","197015","Lexical Decision Task","83","53866","94","yes","1024"
"2.728085817","10.02","9","bike","word","88.42105263157895","88.42105263157895","571.3157894736842","571.3157894736842","black","no","legacy","legacy","legacy","0","uniform","1","undefined","undefined","undefined","1","j","0","0","0","0","94","0","0","0","94","0","90","94","90","0","90","3","94","0","94","Fri Feb 19 19:04:42 2021","The main experiment item","yes","Lexical_Decision_Task.osexp","/Users/jadephillips","no","Andale Mono","no","18","no","white","no","yes","576","legacy","90","90","3","/Users/jadephillips/subject-5216713.csv","legacy","Lentiform Loewenfeld","3.3.7","yes","yes","600bd7cfb6416f0113b04181","602110864497cf011d9c0822","0","j","NA","space","j","space","space","j","409","NA","2411","15751","5965","3627","409","2","legacy","1024","2","48000","-16","task","5216713","odd","NA","34974","39389","36977","200073","6763","28489","22524","200575","127755","200071","200575","200032","39389","200985","33446","199531","6728","197015","Lexical Decision Task","84","54275","95","yes","1024"
"2.794720352","0","9","koot","non-word","88.54166666666667","88.54166666666667","570.96875","570.96875","black","no","legacy","legacy","legacy","0","uniform","1","undefined","undefined","undefined","1","f","0","0","0","0","95","0","0","0","95","0","91","95","91","0","91","3","95","0","95","Fri Feb 19 19:04:42 2021","The main experiment item","yes","Lexical_Decision_Task.osexp","/Users/jadephillips","no","Andale Mono","no","18","no","white","no","yes","576","legacy","91","91","3","/Users/jadephillips/subject-5216713.csv","legacy","Lentiform Loewenfeld","3.3.7","yes","yes","600bd7cfb6416f0113b04181","602110864497cf011d9c0822","0","f","NA","space","j","space","space","f","538","NA","2411","15751","5965","3627","538","2","legacy","1024","2","48000","-16","task","5216713","odd","NA","34974","39389","36977","201530","6763","28489","22524","202032","127755","201528","202032","201489","39389","202571","33446","200989","6728","197015","Lexical Decision Task","85","54813","96","yes","1024"
"3.22685757","9.99","7","roll","word","88.65979381443299","88.65979381443299","570.9072164948453","570.9072164948453","black","no","legacy","legacy","legacy","0","uniform","1","undefined","undefined","undefined","1","j","0","0","0","0","96","0","0","0","96","0","92","96","92","0","92","3","96","0","96","Fri Feb 19 19:04:42 2021","The main experiment item","yes","Lexical_Decision_Task.osexp","/Users/jadephillips","no","Andale Mono","no","18","no","white","no","yes","576","legacy","92","92","3","/Users/jadephillips/subject-5216713.csv","legacy","Lentiform Loewenfeld","3.3.7","yes","yes","600bd7cfb6416f0113b04181","602110864497cf011d9c0822","0","j","NA","space","j","space","space","j","565","NA","2411","15751","5965","3627","565","2","legacy","1024","2","48000","-16","task","5216713","odd","NA","34974","39389","36977","203116","6763","28489","22524","203618","127755","203114","203618","203075","39389","204184","33446","202575","6728","197015","Lexical Decision Task","86","55378","97","yes","1024"
"3.168890155","0","6","thet","non-word","88.77551020408163","88.77551020408163","571.8571428571429","571.8571428571429","black","no","legacy","legacy","legacy","0","uniform","1","undefined","undefined","undefined","1","f","0","0","0","0","97","0","0","0","97","0","93","97","93","0","93","3","97","0","97","Fri Feb 19 19:04:42 2021","The main experiment item","yes","Lexical_Decision_Task.osexp","/Users/jadephillips","no","Andale Mono","no","18","no","white","no","yes","576","legacy","93","93","3","/Users/jadephillips/subject-5216713.csv","legacy","Lentiform Loewenfeld","3.3.7","yes","yes","600bd7cfb6416f0113b04181","602110864497cf011d9c0822","0","f","NA","space","j","space","space","f","664","NA","2411","15751","5965","3627","664","2","legacy","1024","2","48000","-16","task","5216713","odd","NA","34974","39389","36977","204730","6763","28489","22524","205232","127755","204728","205232","204688","39389","205897","33446","204188","6728","197015","Lexical Decision Task","87","56042","98","yes","1024"
"2.64476673","0","5","moft","non-word","88.88888888888889","88.88888888888889","570.8181818181819","570.8181818181819","black","no","legacy","legacy","legacy","0","uniform","1","undefined","undefined","undefined","1","f","0","0","0","0","98","0","0","0","98","0","94","98","94","0","94","3","98","0","98","Fri Feb 19 19:04:42 2021","The main experiment item","yes","Lexical_Decision_Task.osexp","/Users/jadephillips","no","Andale Mono","no","18","no","white","no","yes","576","legacy","94","94","3","/Users/jadephillips/subject-5216713.csv","legacy","Lentiform Loewenfeld","3.3.7","yes","yes","600bd7cfb6416f0113b04181","602110864497cf011d9c0822","0","f","NA","space","j","space","space","f","469","NA","2411","15751","5965","3627","469","2","legacy","1024","2","48000","-16","task","5216713","odd","NA","34974","39389","36977","206443","6763","28489","22524","206945","127755","206441","206945","206401","39389","207415","33446","205901","6728","197015","Lexical Decision Task","88","56511","99","yes","1024"
"2.899638141","0","3","hapt","non-word","89","89","569.22","569.22","black","no","legacy","legacy","legacy","0","uniform","1","undefined","undefined","undefined","1","f","0","0","0","0","99","0","0","0","99","0","95","99","95","0","95","3","99","0","99","Fri Feb 19 19:04:42 2021","The main experiment item","yes","Lexical_Decision_Task.osexp","/Users/jadephillips","no","Andale Mono","no","18","no","white","no","yes","576","legacy","95","95","3","/Users/jadephillips/subject-5216713.csv","legacy","Lentiform Loewenfeld","3.3.7","yes","yes","600bd7cfb6416f0113b04181","602110864497cf011d9c0822","0","f","NA","space","j","space","space","f","411","NA","2411","15751","5965","3627","411","2","legacy","1024","2","48000","-16","task","5216713","odd","NA","34974","39389","36977","207961","6763","28489","22524","208463","127755","207959","208463","207920","39389","208875","33446","207419","6728","197015","Lexical Decision Task","89","56922","100","yes","1024"
"2.990042563","6.64","9","plow","word","88.11881188118812","88.11881188118812","568.8811881188119","568.8811881188119","black","no","legacy","legacy","legacy","0","uniform","0","undefined","undefined","undefined","0","j","0","0","0","0","100","0","0","0","100","0","96","100","96","0","96","3","100","0","100","Fri Feb 19 19:04:42 2021","The main experiment item","yes","Lexical_Decision_Task.osexp","/Users/jadephillips","no","Andale Mono","no","18","no","white","no","yes","576","legacy","96","96","3","/Users/jadephillips/subject-5216713.csv","legacy","Lentiform Loewenfeld","3.3.7","yes","yes","600bd7cfb6416f0113b04181","602110864497cf011d9c0822","0","f","NA","space","j","space","space","f","535","NA","2411","15751","5965","3627","535","2","legacy","1024","2","48000","-16","task","5216713","odd","NA","34974","39389","36977","209421","6763","28489","22524","209924","127755","209420","209924","209379","39389","210460","33446","208879","6728","197015","Lexical Decision Task","89","57457","101","yes","1024"
"3.067070856","9.39","3","loud","word","88.23529411764706","88.23529411764706","568.0392156862745","568.0392156862745","black","no","legacy","legacy","legacy","0","uniform","1","undefined","undefined","undefined","1","j","0","0","0","0","101","0","0","0","101","0","97","101","97","0","97","3","101","0","101","Fri Feb 19 19:04:42 2021","The main experiment item","yes","Lexical_Decision_Task.osexp","/Users/jadephillips","no","Andale Mono","no","18","no","white","no","yes","576","legacy","97","97","3","/Users/jadephillips/subject-5216713.csv","legacy","Lentiform Loewenfeld","3.3.7","yes","yes","600bd7cfb6416f0113b04181","602110864497cf011d9c0822","0","j","NA","space","j","space","space","j","483","NA","2411","15751","5965","3627","483","2","legacy","1024","2","48000","-16","task","5216713","odd","NA","34974","39389","36977","212008","6763","28489","22524","212510","127755","212006","212510","211964","39389","212994","33446","208879","6728","210464","Lexical Decision Task","90","57940","102","yes","1024"
