"Log_BG","Log_Freq_HAL","Ortho_N","Stimulus","Type","acc","accuracy","average_response_time","avg_rt","background","bidi","canvas_backend","clock_backend","color_backend","compensation","coordinates","correct","correct_Experimental_intro","correct_Introduction","correct_Practice_intro","correct_experimenter_kb","correct_response","count_End_Of_Experiment","count_End_Of_Practice","count_Experimental_Loop","count_Experimental_intro","count_Fixation","count_Introduction","count_Practice_Loop","count_Practice_intro","count_Stimulus","count_block_break_feedback","count_experimental_sequence","count_experimenter_kb","count_increment_trial_count","count_init_trial_count","count_logger","count_practice_sequence","count_right","count_task","count_wrong","datetime","description","disable_garbage_collection","experiment_file","experiment_path","font_bold","font_family","font_italic","font_size","font_underline","foreground","form_clicks","fullscreen","height","keyboard_backend","live_row","live_row_Experimental_Loop","live_row_Practice_Loop","logfile","mouse_backend","opensesame_codename","opensesame_version","osf_always_upload_data","osf_always_upload_experiment","osf_datanode_id","osf_id","repeat_cycle","response","response_End_Of_Experiment","response_Experimental_intro","response_Introduction","response_Practice_intro","response_block_break_feedback","response_experimenter_kb","response_time","response_time_End_Of_Experiment","response_time_Experimental_intro","response_time_Introduction","response_time_Practice_intro","response_time_block_break_feedback","response_time_experimenter_kb","round_decimals","sampler_backend","sound_buf_size","sound_channels","sound_freq","sound_sample_size","start","subject_nr","subject_parity","time_End_Of_Experiment","time_End_Of_Practice","time_Experimental_Loop","time_Experimental_intro","time_Fixation","time_Introduction","time_Practice_Loop","time_Practice_intro","time_Stimulus","time_block_break_feedback","time_experimental_sequence","time_experimenter_kb","time_increment_trial_count","time_init_trial_count","time_logger","time_practice_sequence","time_right","time_task","time_wrong","title","total_correct","total_response_time","total_responses","uniform_coordinates","width"
"2.986323777","10.85","8","ship","word","100","100","722.2","722.2","black","no","legacy","legacy","legacy","0","uniform","1","undefined","undefined","undefined","1","j","0","0","0","0","4","0","0","0","4","NA","0","4","0","0","0","3","4","0","4","Thu Feb 18 13:12:19 2021","The main experiment item","yes","Lexical_Decision_Task.osexp","C:/Users/Laura/Documents/Uni/Year 2/Cognition and Language","no","Andale Mono","no","18","no","white","no","yes","576","legacy","0","0","3","C:/Users/Laura/Documents/Uni/Year 2/Cognition and Language/Seminars/subject-5218496.csv","legacy","Lentiform Loewenfeld","3.3.7","yes","yes","600bd7cfb6416f0113b04181","602110864497cf011d9c0822","0","j","NA","space","j","j","NA","j","605","NA","3735","70641","6323","NA","605","2","legacy","1024","2","48000","-16","task","5218496","even","NA","92186","97928","94191","98054","7237","84208","77884","98560","NA","98050","98561","NA","97928","99167","90293","91611","7232","NA","Lexical Decision Task","5","3611","5","yes","1024"
"3.299579929","0","2","flis","non-word","100","100","714.3333333333334","714.3333333333334","black","no","legacy","legacy","legacy","0","uniform","1","undefined","undefined","undefined","1","f","0","0","0","0","5","0","0","0","5","NA","1","5","1","0","1","3","5","0","5","Thu Feb 18 13:12:19 2021","The main experiment item","yes","Lexical_Decision_Task.osexp","C:/Users/Laura/Documents/Uni/Year 2/Cognition and Language","no","Andale Mono","no","18","no","white","no","yes","576","legacy","1","1","3","C:/Users/Laura/Documents/Uni/Year 2/Cognition and Language/Seminars/subject-5218496.csv","legacy","Lentiform Loewenfeld","3.3.7","yes","yes","600bd7cfb6416f0113b04181","602110864497cf011d9c0822","0","f","NA","space","j","j","NA","f","675","NA","3735","70641","6323","NA","675","2","legacy","1024","2","48000","-16","task","5218496","even","NA","92186","97928","94191","99915","7237","84208","77884","100419","NA","99910","100420","99692","97928","101096","90293","99192","7232","NA","Lexical Decision Task","6","4286","6","yes","1024"
"3.039414119","0","9","meep","non-word","100","100","719.2857142857143","719.2857142857143","black","no","legacy","legacy","legacy","0","uniform","1","undefined","undefined","undefined","1","f","0","0","0","0","6","0","0","0","6","NA","2","6","2","0","2","3","6","0","6","Thu Feb 18 13:12:19 2021","The main experiment item","yes","Lexical_Decision_Task.osexp","C:/Users/Laura/Documents/Uni/Year 2/Cognition and Language","no","Andale Mono","no","18","no","white","no","yes","576","legacy","2","2","3","C:/Users/Laura/Documents/Uni/Year 2/Cognition and Language/Seminars/subject-5218496.csv","legacy","Lentiform Loewenfeld","3.3.7","yes","yes","600bd7cfb6416f0113b04181","602110864497cf011d9c0822","0","f","NA","space","j","j","NA","f","749","NA","3735","70641","6323","NA","749","2","legacy","1024","2","48000","-16","task","5218496","even","NA","92186","97928","94191","101807","7237","84208","77884","102313","NA","101803","102314","101607","97928","103064","90293","101106","7232","NA","Lexical Decision Task","7","5035","7","yes","1024"
"3.225825991","0","7","talm","non-word","100","100","714.25","714.25","black","no","legacy","legacy","legacy","0","uniform","1","undefined","undefined","undefined","1","f","0","0","0","0","7","0","0","0","7","NA","3","7","3","0","3","3","7","0","7","Thu Feb 18 13:12:19 2021","The main experiment item","yes","Lexical_Decision_Task.osexp","C:/Users/Laura/Documents/Uni/Year 2/Cognition and Language","no","Andale Mono","no","18","no","white","no","yes","576","legacy","3","3","3","C:/Users/Laura/Documents/Uni/Year 2/Cognition and Language/Seminars/subject-5218496.csv","legacy","Lentiform Loewenfeld","3.3.7","yes","yes","600bd7cfb6416f0113b04181","602110864497cf011d9c0822","0","f","NA","space","j","j","NA","f","679","NA","3735","70641","6323","NA","679","2","legacy","1024","2","48000","-16","task","5218496","even","NA","92186","97928","94191","103772","7237","84208","77884","104279","NA","103769","104280","103575","97928","104961","90293","103074","7232","NA","Lexical Decision Task","8","5714","8","yes","1024"
"2.8162413","0","5","nusk","non-word","100","100","721.5555555555555","721.5555555555555","black","no","legacy","legacy","legacy","0","uniform","1","undefined","undefined","undefined","1","f","0","0","0","0","8","0","0","0","8","NA","4","8","4","0","4","3","8","0","8","Thu Feb 18 13:12:19 2021","The main experiment item","yes","Lexical_Decision_Task.osexp","C:/Users/Laura/Documents/Uni/Year 2/Cognition and Language","no","Andale Mono","no","18","no","white","no","yes","576","legacy","4","4","3","C:/Users/Laura/Documents/Uni/Year 2/Cognition and Language/Seminars/subject-5218496.csv","legacy","Lentiform Loewenfeld","3.3.7","yes","yes","600bd7cfb6416f0113b04181","602110864497cf011d9c0822","0","f","NA","space","j","j","NA","f","780","NA","3735","70641","6323","NA","780","2","legacy","1024","2","48000","-16","task","5218496","even","NA","92186","97928","94191","105666","7237","84208","77884","106170","NA","105662","106171","105476","97928","106952","90293","104975","7232","NA","Lexical Decision Task","9","6494","9","yes","1024"
"3.302475237","0","7","leel","non-word","100","100","716.7","716.7","black","no","legacy","legacy","legacy","0","uniform","1","undefined","undefined","undefined","1","f","0","0","0","0","9","0","0","0","9","NA","5","9","5","0","5","3","9","0","9","Thu Feb 18 13:12:19 2021","The main experiment item","yes","Lexical_Decision_Task.osexp","C:/Users/Laura/Documents/Uni/Year 2/Cognition and Language","no","Andale Mono","no","18","no","white","no","yes","576","legacy","5","5","3","C:/Users/Laura/Documents/Uni/Year 2/Cognition and Language/Seminars/subject-5218496.csv","legacy","Lentiform Loewenfeld","3.3.7","yes","yes","600bd7cfb6416f0113b04181","602110864497cf011d9c0822","0","f","NA","space","j","j","NA","f","673","NA","3735","70641","6323","NA","673","2","legacy","1024","2","48000","-16","task","5218496","even","NA","92186","97928","94191","107647","7237","84208","77884","108157","NA","107643","108158","107462","97928","108832","90293","106962","7232","NA","Lexical Decision Task","10","7167","10","yes","1024"
"2.990042563","6.64","9","plow","word","100","100","706","706","black","no","legacy","legacy","legacy","0","uniform","1","undefined","undefined","undefined","1","j","0","0","0","0","10","0","0","0","10","NA","6","10","6","0","6","3","10","0","10","Thu Feb 18 13:12:19 2021","The main experiment item","yes","Lexical_Decision_Task.osexp","C:/Users/Laura/Documents/Uni/Year 2/Cognition and Language","no","Andale Mono","no","18","no","white","no","yes","576","legacy","6","6","3","C:/Users/Laura/Documents/Uni/Year 2/Cognition and Language/Seminars/subject-5218496.csv","legacy","Lentiform Loewenfeld","3.3.7","yes","yes","600bd7cfb6416f0113b04181","602110864497cf011d9c0822","0","j","NA","space","j","j","NA","j","599","NA","3735","70641","6323","NA","599","2","legacy","1024","2","48000","-16","task","5218496","even","NA","92186","97928","94191","109537","7237","84208","77884","110040","NA","109533","110040","109343","97928","110641","90293","108842","7232","NA","Lexical Decision Task","11","7766","11","yes","1024"
"3.22685757","9.99","7","roll","word","100","100","693.4166666666666","693.4166666666666","black","no","legacy","legacy","legacy","0","uniform","1","undefined","undefined","undefined","1","j","0","0","0","0","11","0","0","0","11","NA","7","11","7","0","7","3","11","0","11","Thu Feb 18 13:12:19 2021","The main experiment item","yes","Lexical_Decision_Task.osexp","C:/Users/Laura/Documents/Uni/Year 2/Cognition and Language","no","Andale Mono","no","18","no","white","no","yes","576","legacy","7","7","3","C:/Users/Laura/Documents/Uni/Year 2/Cognition and Language/Seminars/subject-5218496.csv","legacy","Lentiform Loewenfeld","3.3.7","yes","yes","600bd7cfb6416f0113b04181","602110864497cf011d9c0822","0","j","NA","space","j","j","NA","j","555","NA","3735","70641","6323","NA","555","2","legacy","1024","2","48000","-16","task","5218496","even","NA","92186","97928","94191","111346","7237","84208","77884","111851","NA","111342","111852","111151","97928","112409","90293","110651","7232","NA","Lexical Decision Task","12","8321","12","yes","1024"
"2.819763221","0","2","durp","non-word","100","100","689.3846153846154","689.3846153846154","black","no","legacy","legacy","legacy","0","uniform","1","undefined","undefined","undefined","1","f","0","0","0","0","12","0","0","0","12","NA","8","12","8","0","8","3","12","0","12","Thu Feb 18 13:12:19 2021","The main experiment item","yes","Lexical_Decision_Task.osexp","C:/Users/Laura/Documents/Uni/Year 2/Cognition and Language","no","Andale Mono","no","18","no","white","no","yes","576","legacy","8","8","3","C:/Users/Laura/Documents/Uni/Year 2/Cognition and Language/Seminars/subject-5218496.csv","legacy","Lentiform Loewenfeld","3.3.7","yes","yes","600bd7cfb6416f0113b04181","602110864497cf011d9c0822","0","f","NA","space","j","j","NA","f","641","NA","3735","70641","6323","NA","641","2","legacy","1024","2","48000","-16","task","5218496","even","NA","92186","97928","94191","113103","7237","84208","77884","113606","NA","113099","113606","112919","97928","114248","90293","112419","7232","NA","Lexical Decision Task","13","8962","13","yes","1024"
"3.037294994","8.64","7","roof","word","100","100","676.2142857142857","676.2142857142857","black","no","legacy","legacy","legacy","0","uniform","1","undefined","undefined","undefined","1","j","0","0","0","0","13","0","0","0","13","NA","9","13","9","0","9","3","13","0","13","Thu Feb 18 13:12:19 2021","The main experiment item","yes","Lexical_Decision_Task.osexp","C:/Users/Laura/Documents/Uni/Year 2/Cognition and Language","no","Andale Mono","no","18","no","white","no","yes","576","legacy","9","9","3","C:/Users/Laura/Documents/Uni/Year 2/Cognition and Language/Seminars/subject-5218496.csv","legacy","Lentiform Loewenfeld","3.3.7","yes","yes","600bd7cfb6416f0113b04181","602110864497cf011d9c0822","0","j","NA","space","j","j","NA","j","505","NA","3735","70641","6323","NA","505","2","legacy","1024","2","48000","-16","task","5218496","even","NA","92186","97928","94191","114950","7237","84208","77884","115454","NA","114946","115454","114758","97928","115960","90293","114258","7232","NA","Lexical Decision Task","14","9467","14","yes","1024"
"2.814027728","8.2","4","foam","word","100","100","670.4","670.4","black","no","legacy","legacy","legacy","0","uniform","1","undefined","undefined","undefined","1","j","0","0","0","0","14","0","0","0","14","NA","10","14","10","0","10","3","14","0","14","Thu Feb 18 13:12:19 2021","The main experiment item","yes","Lexical_Decision_Task.osexp","C:/Users/Laura/Documents/Uni/Year 2/Cognition and Language","no","Andale Mono","no","18","no","white","no","yes","576","legacy","10","10","3","C:/Users/Laura/Documents/Uni/Year 2/Cognition and Language/Seminars/subject-5218496.csv","legacy","Lentiform Loewenfeld","3.3.7","yes","yes","600bd7cfb6416f0113b04181","602110864497cf011d9c0822","0","j","NA","space","j","j","NA","j","589","NA","3735","70641","6323","NA","589","2","legacy","1024","2","48000","-16","task","5218496","even","NA","92186","97928","94191","116660","7237","84208","77884","117169","NA","116656","117170","116470","97928","117760","90293","115970","7232","NA","Lexical Decision Task","15","10056","15","yes","1024"
"2.839268497","0","8","maft","non-word","100","100","667.5","667.5","black","no","legacy","legacy","legacy","0","uniform","1","undefined","undefined","undefined","1","f","0","0","0","0","15","0","0","0","15","NA","11","15","11","0","11","3","15","0","15","Thu Feb 18 13:12:19 2021","The main experiment item","yes","Lexical_Decision_Task.osexp","C:/Users/Laura/Documents/Uni/Year 2/Cognition and Language","no","Andale Mono","no","18","no","white","no","yes","576","legacy","11","11","3","C:/Users/Laura/Documents/Uni/Year 2/Cognition and Language/Seminars/subject-5218496.csv","legacy","Lentiform Loewenfeld","3.3.7","yes","yes","600bd7cfb6416f0113b04181","602110864497cf011d9c0822","0","f","NA","space","j","j","NA","f","624","NA","3735","70641","6323","NA","624","2","legacy","1024","2","48000","-16","task","5218496","even","NA","92186","97928","94191","118454","7237","84208","77884","118959","NA","118449","118959","118271","97928","119584","90293","117771","7232","NA","Lexical Decision Task","16","10680","16","yes","1024"
"3.133964479","0","8","graw","non-word","100","100","662.7647058823529","662.7647058823529","black","no","legacy","legacy","legacy","0","uniform","1","undefined","undefined","undefined","1","f","0","0","0","0","16","0","0","0","16","NA","12","16","12","0","12","3","16","0","16","Thu Feb 18 13:12:19 2021","The main experiment item","yes","Lexical_Decision_Task.osexp","C:/Users/Laura/Documents/Uni/Year 2/Cognition and Language","no","Andale Mono","no","18","no","white","no","yes","576","legacy","12","12","3","C:/Users/Laura/Documents/Uni/Year 2/Cognition and Language/Seminars/subject-5218496.csv","legacy","Lentiform Loewenfeld","3.3.7","yes","yes","600bd7cfb6416f0113b04181","602110864497cf011d9c0822","0","f","NA","space","j","j","NA","f","587","NA","3735","70641","6323","NA","587","2","legacy","1024","2","48000","-16","task","5218496","even","NA","92186","97928","94191","120285","7237","84208","77884","120788","NA","120281","120788","120095","97928","121377","90293","119595","7232","NA","Lexical Decision Task","17","11267","17","yes","1024"
"3.088136089","8.32","9","worm","word","100","100","650.5","650.5","black","no","legacy","legacy","legacy","0","uniform","1","undefined","undefined","undefined","1","j","0","0","0","0","17","0","0","0","17","NA","13","17","13","0","13","3","17","0","17","Thu Feb 18 13:12:19 2021","The main experiment item","yes","Lexical_Decision_Task.osexp","C:/Users/Laura/Documents/Uni/Year 2/Cognition and Language","no","Andale Mono","no","18","no","white","no","yes","576","legacy","13","13","3","C:/Users/Laura/Documents/Uni/Year 2/Cognition and Language/Seminars/subject-5218496.csv","legacy","Lentiform Loewenfeld","3.3.7","yes","yes","600bd7cfb6416f0113b04181","602110864497cf011d9c0822","0","j","NA","space","j","j","NA","j","442","NA","3735","70641","6323","NA","442","2","legacy","1024","2","48000","-16","task","5218496","even","NA","92186","97928","94191","122085","7237","84208","77884","122588","NA","122081","122589","121888","97928","123033","90293","121388","7232","NA","Lexical Decision Task","18","11709","18","yes","1024"
"3.062080345","0","6","tomp","non-word","100","100","645.4736842105264","645.4736842105264","black","no","legacy","legacy","legacy","0","uniform","1","undefined","undefined","undefined","1","f","0","0","0","0","18","0","0","0","18","NA","14","18","14","0","14","3","18","0","18","Thu Feb 18 13:12:19 2021","The main experiment item","yes","Lexical_Decision_Task.osexp","C:/Users/Laura/Documents/Uni/Year 2/Cognition and Language","no","Andale Mono","no","18","no","white","no","yes","576","legacy","14","14","3","C:/Users/Laura/Documents/Uni/Year 2/Cognition and Language/Seminars/subject-5218496.csv","legacy","Lentiform Loewenfeld","3.3.7","yes","yes","600bd7cfb6416f0113b04181","602110864497cf011d9c0822","0","f","NA","space","j","j","NA","f","555","NA","3735","70641","6323","NA","555","2","legacy","1024","2","48000","-16","task","5218496","even","NA","92186","97928","94191","123741","7237","84208","77884","124244","NA","123736","124244","123544","97928","124801","90293","123043","7232","NA","Lexical Decision Task","19","12264","19","yes","1024"
"2.799799878","0","4","ciff","non-word","95","95","639.75","639.75","black","no","legacy","legacy","legacy","0","uniform","0","undefined","undefined","undefined","0","f","0","0","0","0","19","0","0","0","19","NA","15","19","15","0","15","3","19","0","19","Thu Feb 18 13:12:19 2021","The main experiment item","yes","Lexical_Decision_Task.osexp","C:/Users/Laura/Documents/Uni/Year 2/Cognition and Language","no","Andale Mono","no","18","no","white","no","yes","576","legacy","15","15","3","C:/Users/Laura/Documents/Uni/Year 2/Cognition and Language/Seminars/subject-5218496.csv","legacy","Lentiform Loewenfeld","3.3.7","yes","yes","600bd7cfb6416f0113b04181","602110864497cf011d9c0822","0","j","NA","space","j","j","NA","j","531","NA","3735","70641","6323","NA","531","2","legacy","1024","2","48000","-16","task","5218496","even","NA","92186","97928","94191","125523","7237","84208","77884","126027","NA","125520","126028","125311","97928","126561","90293","124811","7232","NA","Lexical Decision Task","19","12795","20","yes","1024"
"3.372543801","9.24","8","coat","word","95.23809523809524","95.23809523809524","646.7619047619048","646.7619047619048","black","no","legacy","legacy","legacy","0","uniform","1","undefined","undefined","undefined","1","j","0","0","0","0","20","0","0","0","20","NA","16","20","16","0","16","3","20","0","20","Thu Feb 18 13:12:19 2021","The main experiment item","yes","Lexical_Decision_Task.osexp","C:/Users/Laura/Documents/Uni/Year 2/Cognition and Language","no","Andale Mono","no","18","no","white","no","yes","576","legacy","16","16","3","C:/Users/Laura/Documents/Uni/Year 2/Cognition and Language/Seminars/subject-5218496.csv","legacy","Lentiform Loewenfeld","3.3.7","yes","yes","600bd7cfb6416f0113b04181","602110864497cf011d9c0822","0","j","NA","space","j","j","NA","j","787","NA","3735","70641","6323","NA","787","2","legacy","1024","2","48000","-16","task","5218496","even","NA","92186","97928","94191","128262","7237","84208","77884","128765","NA","128257","128765","128076","97928","129553","90293","124811","7232","126576","Lexical Decision Task","20","13582","21","yes","1024"
"2.594027722","9.08","8","skip","word","95.45454545454545","95.45454545454545","643.5909090909091","643.5909090909091","black","no","legacy","legacy","legacy","0","uniform","1","undefined","undefined","undefined","1","j","0","0","0","0","21","0","0","0","21","NA","17","21","17","0","17","3","21","0","21","Thu Feb 18 13:12:19 2021","The main experiment item","yes","Lexical_Decision_Task.osexp","C:/Users/Laura/Documents/Uni/Year 2/Cognition and Language","no","Andale Mono","no","18","no","white","no","yes","576","legacy","17","17","3","C:/Users/Laura/Documents/Uni/Year 2/Cognition and Language/Seminars/subject-5218496.csv","legacy","Lentiform Loewenfeld","3.3.7","yes","yes","600bd7cfb6416f0113b04181","602110864497cf011d9c0822","0","j","NA","space","j","j","NA","j","577","NA","3735","70641","6323","NA","577","2","legacy","1024","2","48000","-16","task","5218496","even","NA","92186","97928","94191","130261","7237","84208","77884","130766","NA","130258","130766","130063","97928","131345","90293","129563","7232","126576","Lexical Decision Task","21","14159","22","yes","1024"
"3.460446784","0","5","dess","non-word","95.65217391304348","95.65217391304348","649.5652173913044","649.5652173913044","black","no","legacy","legacy","legacy","0","uniform","1","undefined","undefined","undefined","1","f","0","0","0","0","22","0","0","0","22","NA","18","22","18","0","18","3","22","0","22","Thu Feb 18 13:12:19 2021","The main experiment item","yes","Lexical_Decision_Task.osexp","C:/Users/Laura/Documents/Uni/Year 2/Cognition and Language","no","Andale Mono","no","18","no","white","no","yes","576","legacy","18","18","3","C:/Users/Laura/Documents/Uni/Year 2/Cognition and Language/Seminars/subject-5218496.csv","legacy","Lentiform Loewenfeld","3.3.7","yes","yes","600bd7cfb6416f0113b04181","602110864497cf011d9c0822","0","f","NA","space","j","j","NA","f","781","NA","3735","70641","6323","NA","781","2","legacy","1024","2","48000","-16","task","5218496","even","NA","92186","97928","94191","132042","7237","84208","77884","132547","NA","132038","132547","131855","97928","133330","90293","131355","7232","126576","Lexical Decision Task","22","14940","23","yes","1024"
"2.86332286","6.71","2","feud","word","95.83333333333333","95.83333333333333","653.4583333333334","653.4583333333334","black","no","legacy","legacy","legacy","0","uniform","1","undefined","undefined","undefined","1","j","0","0","0","0","23","0","0","0","23","NA","19","23","19","0","19","3","23","0","23","Thu Feb 18 13:12:19 2021","The main experiment item","yes","Lexical_Decision_Task.osexp","C:/Users/Laura/Documents/Uni/Year 2/Cognition and Language","no","Andale Mono","no","18","no","white","no","yes","576","legacy","19","19","3","C:/Users/Laura/Documents/Uni/Year 2/Cognition and Language/Seminars/subject-5218496.csv","legacy","Lentiform Loewenfeld","3.3.7","yes","yes","600bd7cfb6416f0113b04181","602110864497cf011d9c0822","0","j","NA","space","j","j","NA","j","743","NA","3735","70641","6323","NA","743","2","legacy","1024","2","48000","-16","task","5218496","even","NA","92186","97928","94191","134048","7237","84208","77884","134552","NA","134044","134553","133840","97928","135298","90293","133340","7232","126576","Lexical Decision Task","23","15683","24","yes","1024"
"3.168890155","0","6","thet","non-word","96","96","655.32","655.32","black","no","legacy","legacy","legacy","0","uniform","1","undefined","undefined","undefined","1","f","0","0","0","0","24","0","0","0","24","NA","20","24","20","0","20","3","24","0","24","Thu Feb 18 13:12:19 2021","The main experiment item","yes","Lexical_Decision_Task.osexp","C:/Users/Laura/Documents/Uni/Year 2/Cognition and Language","no","Andale Mono","no","18","no","white","no","yes","576","legacy","20","20","3","C:/Users/Laura/Documents/Uni/Year 2/Cognition and Language/Seminars/subject-5218496.csv","legacy","Lentiform Loewenfeld","3.3.7","yes","yes","600bd7cfb6416f0113b04181","602110864497cf011d9c0822","0","f","NA","space","j","j","NA","f","700","NA","3735","70641","6323","NA","700","2","legacy","1024","2","48000","-16","task","5218496","even","NA","92186","97928","94191","136003","7237","84208","77884","136507","NA","136000","136508","135808","97928","137210","90293","135308","7232","126576","Lexical Decision Task","24","16383","25","yes","1024"
"2.782472624","10.55","2","huge","word","96.15384615384616","96.15384615384616","655","655","black","no","legacy","legacy","legacy","0","uniform","1","undefined","undefined","undefined","1","j","0","0","0","0","25","0","0","0","25","NA","21","25","21","0","21","3","25","0","25","Thu Feb 18 13:12:19 2021","The main experiment item","yes","Lexical_Decision_Task.osexp","C:/Users/Laura/Documents/Uni/Year 2/Cognition and Language","no","Andale Mono","no","18","no","white","no","yes","576","legacy","21","21","3","C:/Users/Laura/Documents/Uni/Year 2/Cognition and Language/Seminars/subject-5218496.csv","legacy","Lentiform Loewenfeld","3.3.7","yes","yes","600bd7cfb6416f0113b04181","602110864497cf011d9c0822","0","j","NA","space","j","j","NA","j","647","NA","3735","70641","6323","NA","647","2","legacy","1024","2","48000","-16","task","5218496","even","NA","92186","97928","94191","137914","7237","84208","77884","138417","NA","137909","138417","137720","97928","139066","90293","137220","7232","126576","Lexical Decision Task","25","17030","26","yes","1024"
"2.980911938","7.15","7","hoop","word","96.29629629629629","96.29629629629629","651.2222222222222","651.2222222222222","black","no","legacy","legacy","legacy","0","uniform","1","undefined","undefined","undefined","1","j","0","0","0","0","26","0","0","0","26","NA","22","26","22","0","22","3","26","0","26","Thu Feb 18 13:12:19 2021","The main experiment item","yes","Lexical_Decision_Task.osexp","C:/Users/Laura/Documents/Uni/Year 2/Cognition and Language","no","Andale Mono","no","18","no","white","no","yes","576","legacy","22","22","3","C:/Users/Laura/Documents/Uni/Year 2/Cognition and Language/Seminars/subject-5218496.csv","legacy","Lentiform Loewenfeld","3.3.7","yes","yes","600bd7cfb6416f0113b04181","602110864497cf011d9c0822","0","j","NA","space","j","j","NA","j","553","NA","3735","70641","6323","NA","553","2","legacy","1024","2","48000","-16","task","5218496","even","NA","92186","97928","94191","139768","7237","84208","77884","140271","NA","139764","140271","139576","97928","140826","90293","139076","7232","126576","Lexical Decision Task","26","17583","27","yes","1024"
"3.531734309","0","6","lerd","non-word","96.42857142857143","96.42857142857143","650.2142857142857","650.2142857142857","black","no","legacy","legacy","legacy","0","uniform","1","undefined","undefined","undefined","1","f","0","0","0","0","27","0","0","0","27","NA","23","27","23","0","23","3","27","0","27","Thu Feb 18 13:12:19 2021","The main experiment item","yes","Lexical_Decision_Task.osexp","C:/Users/Laura/Documents/Uni/Year 2/Cognition and Language","no","Andale Mono","no","18","no","white","no","yes","576","legacy","23","23","3","C:/Users/Laura/Documents/Uni/Year 2/Cognition and Language/Seminars/subject-5218496.csv","legacy","Lentiform Loewenfeld","3.3.7","yes","yes","600bd7cfb6416f0113b04181","602110864497cf011d9c0822","0","f","NA","space","j","j","NA","f","623","NA","3735","70641","6323","NA","623","2","legacy","1024","2","48000","-16","task","5218496","even","NA","92186","97928","94191","141534","7237","84208","77884","142039","NA","141530","142040","141337","97928","142666","90293","140837","7232","126576","Lexical Decision Task","27","18206","28","yes","1024"
"2.695770526","7.34","6","pawn","word","96.55172413793103","96.55172413793103","653.0344827586207","653.0344827586207","black","no","legacy","legacy","legacy","0","uniform","1","undefined","undefined","undefined","1","j","0","0","0","0","28","0","0","0","28","NA","24","28","24","0","24","3","28","0","28","Thu Feb 18 13:12:19 2021","The main experiment item","yes","Lexical_Decision_Task.osexp","C:/Users/Laura/Documents/Uni/Year 2/Cognition and Language","no","Andale Mono","no","18","no","white","no","yes","576","legacy","24","24","3","C:/Users/Laura/Documents/Uni/Year 2/Cognition and Language/Seminars/subject-5218496.csv","legacy","Lentiform Loewenfeld","3.3.7","yes","yes","600bd7cfb6416f0113b04181","602110864497cf011d9c0822","0","j","NA","space","j","j","NA","j","732","NA","3735","70641","6323","NA","732","2","legacy","1024","2","48000","-16","task","5218496","even","NA","92186","97928","94191","143372","7237","84208","77884","143876","NA","143368","143876","143176","97928","144610","90293","142676","7232","126576","Lexical Decision Task","28","18938","29","yes","1024"
"3.248054965","7.86","5","glow","word","96.66666666666667","96.66666666666667","650.2666666666667","650.2666666666667","black","no","legacy","legacy","legacy","0","uniform","1","undefined","undefined","undefined","1","j","0","0","0","0","29","0","0","0","29","NA","25","29","25","0","25","3","29","0","29","Thu Feb 18 13:12:19 2021","The main experiment item","yes","Lexical_Decision_Task.osexp","C:/Users/Laura/Documents/Uni/Year 2/Cognition and Language","no","Andale Mono","no","18","no","white","no","yes","576","legacy","25","25","3","C:/Users/Laura/Documents/Uni/Year 2/Cognition and Language/Seminars/subject-5218496.csv","legacy","Lentiform Loewenfeld","3.3.7","yes","yes","600bd7cfb6416f0113b04181","602110864497cf011d9c0822","0","j","NA","space","j","j","NA","j","570","NA","3735","70641","6323","NA","570","2","legacy","1024","2","48000","-16","task","5218496","even","NA","92186","97928","94191","145302","7237","84208","77884","145806","NA","145298","145806","145120","97928","146378","90293","144620","7232","126576","Lexical Decision Task","29","19508","30","yes","1024"
"2.907588697","8.91","9","mood","word","96.7741935483871","96.7741935483871","649.3225806451613","649.3225806451613","black","no","legacy","legacy","legacy","0","uniform","1","undefined","undefined","undefined","1","j","0","0","0","0","30","0","0","0","30","NA","26","30","26","0","26","3","30","0","30","Thu Feb 18 13:12:19 2021","The main experiment item","yes","Lexical_Decision_Task.osexp","C:/Users/Laura/Documents/Uni/Year 2/Cognition and Language","no","Andale Mono","no","18","no","white","no","yes","576","legacy","26","26","3","C:/Users/Laura/Documents/Uni/Year 2/Cognition and Language/Seminars/subject-5218496.csv","legacy","Lentiform Loewenfeld","3.3.7","yes","yes","600bd7cfb6416f0113b04181","602110864497cf011d9c0822","0","j","NA","space","j","j","NA","j","621","NA","3735","70641","6323","NA","621","2","legacy","1024","2","48000","-16","task","5218496","even","NA","92186","97928","94191","147083","7237","84208","77884","147587","NA","147079","147587","146888","97928","148210","90293","146388","7232","126576","Lexical Decision Task","30","20129","31","yes","1024"
"3.149629599","0","2","cleb","non-word","96.875","96.875","648.78125","648.78125","black","no","legacy","legacy","legacy","0","uniform","1","undefined","undefined","undefined","1","f","0","0","0","0","31","0","0","0","31","NA","27","31","27","0","27","3","31","0","31","Thu Feb 18 13:12:19 2021","The main experiment item","yes","Lexical_Decision_Task.osexp","C:/Users/Laura/Documents/Uni/Year 2/Cognition and Language","no","Andale Mono","no","18","no","white","no","yes","576","legacy","27","27","3","C:/Users/Laura/Documents/Uni/Year 2/Cognition and Language/Seminars/subject-5218496.csv","legacy","Lentiform Loewenfeld","3.3.7","yes","yes","600bd7cfb6416f0113b04181","602110864497cf011d9c0822","0","f","NA","space","j","j","NA","f","632","NA","3735","70641","6323","NA","632","2","legacy","1024","2","48000","-16","task","5218496","even","NA","92186","97928","94191","148919","7237","84208","77884","149424","NA","148915","149424","148720","97928","150058","90293","148220","7232","126576","Lexical Decision Task","31","20761","32","yes","1024"
"2.972819734","0","4","scew","non-word","96.96969696969697","96.96969696969697","650.9090909090909","650.9090909090909","black","no","legacy","legacy","legacy","0","uniform","1","undefined","undefined","undefined","1","f","0","0","0","0","32","0","0","0","32","NA","28","32","28","0","28","3","32","0","32","Thu Feb 18 13:12:19 2021","The main experiment item","yes","Lexical_Decision_Task.osexp","C:/Users/Laura/Documents/Uni/Year 2/Cognition and Language","no","Andale Mono","no","18","no","white","no","yes","576","legacy","28","28","3","C:/Users/Laura/Documents/Uni/Year 2/Cognition and Language/Seminars/subject-5218496.csv","legacy","Lentiform Loewenfeld","3.3.7","yes","yes","600bd7cfb6416f0113b04181","602110864497cf011d9c0822","0","f","NA","space","j","j","NA","f","719","NA","3735","70641","6323","NA","719","2","legacy","1024","2","48000","-16","task","5218496","even","NA","92186","97928","94191","150759","7237","84208","77884","151265","NA","150755","151265","150569","97928","151986","90293","150068","7232","126576","Lexical Decision Task","32","21480","33","yes","1024"
"2.996511672","0","7","hoil","non-word","97.05882352941177","97.05882352941177","652.8235294117648","652.8235294117648","black","no","legacy","legacy","legacy","0","uniform","1","undefined","undefined","undefined","1","f","0","0","0","0","33","0","0","0","33","NA","29","33","29","0","29","3","33","0","33","Thu Feb 18 13:12:19 2021","The main experiment item","yes","Lexical_Decision_Task.osexp","C:/Users/Laura/Documents/Uni/Year 2/Cognition and Language","no","Andale Mono","no","18","no","white","no","yes","576","legacy","29","29","3","C:/Users/Laura/Documents/Uni/Year 2/Cognition and Language/Seminars/subject-5218496.csv","legacy","Lentiform Loewenfeld","3.3.7","yes","yes","600bd7cfb6416f0113b04181","602110864497cf011d9c0822","0","f","NA","space","j","j","NA","f","716","NA","3735","70641","6323","NA","716","2","legacy","1024","2","48000","-16","task","5218496","even","NA","92186","97928","94191","152690","7237","84208","77884","153196","NA","152686","153196","152497","97928","153914","90293","151997","7232","126576","Lexical Decision Task","33","22196","34","yes","1024"
"2.693726949","5.08","3","swig","word","94.28571428571429","94.28571428571429","663.4","663.4","black","no","legacy","legacy","legacy","0","uniform","0","undefined","undefined","undefined","0","j","0","0","0","0","34","0","0","0","34","NA","30","34","30","0","30","3","34","0","34","Thu Feb 18 13:12:19 2021","The main experiment item","yes","Lexical_Decision_Task.osexp","C:/Users/Laura/Documents/Uni/Year 2/Cognition and Language","no","Andale Mono","no","18","no","white","no","yes","576","legacy","30","30","3","C:/Users/Laura/Documents/Uni/Year 2/Cognition and Language/Seminars/subject-5218496.csv","legacy","Lentiform Loewenfeld","3.3.7","yes","yes","600bd7cfb6416f0113b04181","602110864497cf011d9c0822","0","f","NA","space","j","j","NA","f","1023","NA","3735","70641","6323","NA","1023","2","legacy","1024","2","48000","-16","task","5218496","even","NA","92186","97928","94191","154617","7237","84208","77884","155121","NA","154613","155121","154426","97928","156147","90293","153926","7232","126576","Lexical Decision Task","33","23219","35","yes","1024"
"3.090140555","5.81","8","pout","word","94.44444444444444","94.44444444444444","666.9166666666666","666.9166666666666","black","no","legacy","legacy","legacy","0","uniform","1","undefined","undefined","undefined","1","j","0","0","0","0","35","0","0","0","35","NA","31","35","31","0","31","3","35","0","35","Thu Feb 18 13:12:19 2021","The main experiment item","yes","Lexical_Decision_Task.osexp","C:/Users/Laura/Documents/Uni/Year 2/Cognition and Language","no","Andale Mono","no","18","no","white","no","yes","576","legacy","31","31","3","C:/Users/Laura/Documents/Uni/Year 2/Cognition and Language/Seminars/subject-5218496.csv","legacy","Lentiform Loewenfeld","3.3.7","yes","yes","600bd7cfb6416f0113b04181","602110864497cf011d9c0822","0","j","NA","space","j","j","NA","j","790","NA","3735","70641","6323","NA","790","2","legacy","1024","2","48000","-16","task","5218496","even","NA","92186","97928","94191","157851","7237","84208","77884","158354","NA","157847","158354","157656","97928","159147","90293","153926","7232","156156","Lexical Decision Task","34","24009","36","yes","1024"
"2.893578687","8.69","3","surf","word","94.5945945945946","94.5945945945946","667.4864864864865","667.4864864864865","black","no","legacy","legacy","legacy","0","uniform","1","undefined","undefined","undefined","1","j","0","0","0","0","36","0","0","0","36","NA","32","36","32","0","32","3","36","0","36","Thu Feb 18 13:12:19 2021","The main experiment item","yes","Lexical_Decision_Task.osexp","C:/Users/Laura/Documents/Uni/Year 2/Cognition and Language","no","Andale Mono","no","18","no","white","no","yes","576","legacy","32","32","3","C:/Users/Laura/Documents/Uni/Year 2/Cognition and Language/Seminars/subject-5218496.csv","legacy","Lentiform Loewenfeld","3.3.7","yes","yes","600bd7cfb6416f0113b04181","602110864497cf011d9c0822","0","j","NA","space","j","j","NA","j","688","NA","3735","70641","6323","NA","688","2","legacy","1024","2","48000","-16","task","5218496","even","NA","92186","97928","94191","159848","7237","84208","77884","160352","NA","159843","160352","159657","97928","161042","90293","159157","7232","156156","Lexical Decision Task","35","24697","37","yes","1024"
"3.29439347","8.6","9","wand","word","94.73684210526316","94.73684210526316","666.6052631578947","666.6052631578947","black","no","legacy","legacy","legacy","0","uniform","1","undefined","undefined","undefined","1","j","0","0","0","0","37","0","0","0","37","NA","33","37","33","0","33","3","37","0","37","Thu Feb 18 13:12:19 2021","The main experiment item","yes","Lexical_Decision_Task.osexp","C:/Users/Laura/Documents/Uni/Year 2/Cognition and Language","no","Andale Mono","no","18","no","white","no","yes","576","legacy","33","33","3","C:/Users/Laura/Documents/Uni/Year 2/Cognition and Language/Seminars/subject-5218496.csv","legacy","Lentiform Loewenfeld","3.3.7","yes","yes","600bd7cfb6416f0113b04181","602110864497cf011d9c0822","0","j","NA","space","j","j","NA","j","634","NA","3735","70641","6323","NA","634","2","legacy","1024","2","48000","-16","task","5218496","even","NA","92186","97928","94191","161735","7237","84208","77884","162238","NA","161732","162238","161552","97928","162874","90293","161052","7232","156156","Lexical Decision Task","36","25331","38","yes","1024"
"3.209246849","0","7","slem","non-word","94.87179487179488","94.87179487179488","664.7692307692307","664.7692307692307","black","no","legacy","legacy","legacy","0","uniform","1","undefined","undefined","undefined","1","f","0","0","0","0","38","0","0","0","38","NA","34","38","34","0","34","3","38","0","38","Thu Feb 18 13:12:19 2021","The main experiment item","yes","Lexical_Decision_Task.osexp","C:/Users/Laura/Documents/Uni/Year 2/Cognition and Language","no","Andale Mono","no","18","no","white","no","yes","576","legacy","34","34","3","C:/Users/Laura/Documents/Uni/Year 2/Cognition and Language/Seminars/subject-5218496.csv","legacy","Lentiform Loewenfeld","3.3.7","yes","yes","600bd7cfb6416f0113b04181","602110864497cf011d9c0822","0","f","NA","space","j","j","NA","f","595","NA","3735","70641","6323","NA","595","2","legacy","1024","2","48000","-16","task","5218496","even","NA","92186","97928","94191","163572","7237","84208","77884","164076","NA","163568","164077","163385","97928","164675","90293","162885","7232","156156","Lexical Decision Task","37","25926","39","yes","1024"
"2.68604012","0","3","mulb","non-word","95","95","661.85","661.85","black","no","legacy","legacy","legacy","0","uniform","1","undefined","undefined","undefined","1","f","0","0","0","0","39","0","0","0","39","NA","35","39","35","0","35","3","39","0","39","Thu Feb 18 13:12:19 2021","The main experiment item","yes","Lexical_Decision_Task.osexp","C:/Users/Laura/Documents/Uni/Year 2/Cognition and Language","no","Andale Mono","no","18","no","white","no","yes","576","legacy","35","35","3","C:/Users/Laura/Documents/Uni/Year 2/Cognition and Language/Seminars/subject-5218496.csv","legacy","Lentiform Loewenfeld","3.3.7","yes","yes","600bd7cfb6416f0113b04181","602110864497cf011d9c0822","0","f","NA","space","j","j","NA","f","548","NA","3735","70641","6323","NA","548","2","legacy","1024","2","48000","-16","task","5218496","even","NA","92186","97928","94191","165389","7237","84208","77884","165893","NA","165385","165893","165185","97928","166443","90293","164685","7232","156156","Lexical Decision Task","38","26474","40","yes","1024"
"2.793790385","5.67","9","swab","word","95.1219512195122","95.1219512195122","667.0243902439024","667.0243902439024","black","no","legacy","legacy","legacy","0","uniform","1","undefined","undefined","undefined","1","j","0","0","0","0","40","0","0","0","40","NA","36","40","36","0","36","3","40","0","40","Thu Feb 18 13:12:19 2021","The main experiment item","yes","Lexical_Decision_Task.osexp","C:/Users/Laura/Documents/Uni/Year 2/Cognition and Language","no","Andale Mono","no","18","no","white","no","yes","576","legacy","36","36","3","C:/Users/Laura/Documents/Uni/Year 2/Cognition and Language/Seminars/subject-5218496.csv","legacy","Lentiform Loewenfeld","3.3.7","yes","yes","600bd7cfb6416f0113b04181","602110864497cf011d9c0822","0","j","NA","space","j","j","NA","j","874","NA","3735","70641","6323","NA","874","2","legacy","1024","2","48000","-16","task","5218496","even","NA","92186","97928","94191","167141","7237","84208","77884","167645","NA","167137","167646","166953","97928","168522","90293","166453","7232","156156","Lexical Decision Task","39","27348","41","yes","1024"
"3.282244367","0","6","fute","non-word","92.85714285714286","92.85714285714286","665.6666666666666","665.6666666666666","black","no","legacy","legacy","legacy","0","uniform","0","undefined","undefined","undefined","0","f","0","0","0","0","41","0","0","0","41","NA","37","41","37","0","37","3","41","0","41","Thu Feb 18 13:12:19 2021","The main experiment item","yes","Lexical_Decision_Task.osexp","C:/Users/Laura/Documents/Uni/Year 2/Cognition and Language","no","Andale Mono","no","18","no","white","no","yes","576","legacy","37","37","3","C:/Users/Laura/Documents/Uni/Year 2/Cognition and Language/Seminars/subject-5218496.csv","legacy","Lentiform Loewenfeld","3.3.7","yes","yes","600bd7cfb6416f0113b04181","602110864497cf011d9c0822","0","j","NA","space","j","j","NA","j","610","NA","3735","70641","6323","NA","610","2","legacy","1024","2","48000","-16","task","5218496","even","NA","92186","97928","94191","169228","7237","84208","77884","169734","NA","169224","169735","169033","97928","170348","90293","168533","7232","156156","Lexical Decision Task","39","27958","42","yes","1024"
"3.1430148","7.92","8","bald","word","93.02325581395348","93.02325581395348","668.0232558139535","668.0232558139535","black","no","legacy","legacy","legacy","0","uniform","1","undefined","undefined","undefined","1","j","0","0","0","0","42","0","0","0","42","NA","38","42","38","0","38","3","42","0","42","Thu Feb 18 13:12:19 2021","The main experiment item","yes","Lexical_Decision_Task.osexp","C:/Users/Laura/Documents/Uni/Year 2/Cognition and Language","no","Andale Mono","no","18","no","white","no","yes","576","legacy","38","38","3","C:/Users/Laura/Documents/Uni/Year 2/Cognition and Language/Seminars/subject-5218496.csv","legacy","Lentiform Loewenfeld","3.3.7","yes","yes","600bd7cfb6416f0113b04181","602110864497cf011d9c0822","0","j","NA","space","j","j","NA","j","767","NA","3735","70641","6323","NA","767","2","legacy","1024","2","48000","-16","task","5218496","even","NA","92186","97928","94191","172056","7237","84208","77884","172562","NA","172052","172562","171857","97928","173331","90293","168533","7232","170357","Lexical Decision Task","40","28725","43","yes","1024"
"3.197740804","6.74","3","ache","word","93.18181818181819","93.18181818181819","668.9090909090909","668.9090909090909","black","no","legacy","legacy","legacy","0","uniform","1","undefined","undefined","undefined","1","j","0","0","0","0","43","0","0","0","43","NA","39","43","39","0","39","3","43","0","43","Thu Feb 18 13:12:19 2021","The main experiment item","yes","Lexical_Decision_Task.osexp","C:/Users/Laura/Documents/Uni/Year 2/Cognition and Language","no","Andale Mono","no","18","no","white","no","yes","576","legacy","39","39","3","C:/Users/Laura/Documents/Uni/Year 2/Cognition and Language/Seminars/subject-5218496.csv","legacy","Lentiform Loewenfeld","3.3.7","yes","yes","600bd7cfb6416f0113b04181","602110864497cf011d9c0822","0","j","NA","space","j","j","NA","j","707","NA","3735","70641","6323","NA","707","2","legacy","1024","2","48000","-16","task","5218496","even","NA","92186","97928","94191","174029","7237","84208","77884","174534","NA","174025","174534","173843","97928","175243","90293","173343","7232","170357","Lexical Decision Task","41","29432","44","yes","1024"
"3.311895072","0","9","gung","non-word","93.33333333333333","93.33333333333333","667.7555555555556","667.7555555555556","black","no","legacy","legacy","legacy","0","uniform","1","undefined","undefined","undefined","1","f","0","0","0","0","44","0","0","0","44","NA","40","44","40","0","40","3","44","0","44","Thu Feb 18 13:12:19 2021","The main experiment item","yes","Lexical_Decision_Task.osexp","C:/Users/Laura/Documents/Uni/Year 2/Cognition and Language","no","Andale Mono","no","18","no","white","no","yes","576","legacy","40","40","3","C:/Users/Laura/Documents/Uni/Year 2/Cognition and Language/Seminars/subject-5218496.csv","legacy","Lentiform Loewenfeld","3.3.7","yes","yes","600bd7cfb6416f0113b04181","602110864497cf011d9c0822","0","f","NA","space","j","j","NA","f","617","NA","3735","70641","6323","NA","617","2","legacy","1024","2","48000","-16","task","5218496","even","NA","92186","97928","94191","175944","7237","84208","77884","176448","NA","175941","176448","175754","97928","177067","90293","175253","7232","170357","Lexical Decision Task","42","30049","45","yes","1024"
"3.20996159","0","4","clee","non-word","93.47826086956522","93.47826086956522","668.0652173913044","668.0652173913044","black","no","legacy","legacy","legacy","0","uniform","1","undefined","undefined","undefined","1","f","0","0","0","0","45","0","0","0","45","NA","41","45","41","0","41","3","45","0","45","Thu Feb 18 13:12:19 2021","The main experiment item","yes","Lexical_Decision_Task.osexp","C:/Users/Laura/Documents/Uni/Year 2/Cognition and Language","no","Andale Mono","no","18","no","white","no","yes","576","legacy","41","41","3","C:/Users/Laura/Documents/Uni/Year 2/Cognition and Language/Seminars/subject-5218496.csv","legacy","Lentiform Loewenfeld","3.3.7","yes","yes","600bd7cfb6416f0113b04181","602110864497cf011d9c0822","0","f","NA","space","j","j","NA","f","682","NA","3735","70641","6323","NA","682","2","legacy","1024","2","48000","-16","task","5218496","even","NA","92186","97928","94191","177765","7237","84208","77884","178271","NA","177761","178271","177578","97928","178955","90293","177078","7232","170357","Lexical Decision Task","43","30731","46","yes","1024"
"2.892836167","10.01","5","soft","word","93.61702127659575","93.61702127659575","666.3191489361702","666.3191489361702","black","no","legacy","legacy","legacy","0","uniform","1","undefined","undefined","undefined","1","j","0","0","0","0","46","0","0","0","46","NA","42","46","42","0","42","3","46","0","46","Thu Feb 18 13:12:19 2021","The main experiment item","yes","Lexical_Decision_Task.osexp","C:/Users/Laura/Documents/Uni/Year 2/Cognition and Language","no","Andale Mono","no","18","no","white","no","yes","576","legacy","42","42","3","C:/Users/Laura/Documents/Uni/Year 2/Cognition and Language/Seminars/subject-5218496.csv","legacy","Lentiform Loewenfeld","3.3.7","yes","yes","600bd7cfb6416f0113b04181","602110864497cf011d9c0822","0","j","NA","space","j","j","NA","j","586","NA","3735","70641","6323","NA","586","2","legacy","1024","2","48000","-16","task","5218496","even","NA","92186","97928","94191","179654","7237","84208","77884","180159","NA","179650","180159","179465","97928","180747","90293","178965","7232","170357","Lexical Decision Task","44","31317","47","yes","1024"
"3.134602053","0","8","jart","non-word","93.75","93.75","664.9583333333334","664.9583333333334","black","no","legacy","legacy","legacy","0","uniform","1","undefined","undefined","undefined","1","f","0","0","0","0","47","0","0","0","47","NA","43","47","43","0","43","3","47","0","47","Thu Feb 18 13:12:19 2021","The main experiment item","yes","Lexical_Decision_Task.osexp","C:/Users/Laura/Documents/Uni/Year 2/Cognition and Language","no","Andale Mono","no","18","no","white","no","yes","576","legacy","43","43","3","C:/Users/Laura/Documents/Uni/Year 2/Cognition and Language/Seminars/subject-5218496.csv","legacy","Lentiform Loewenfeld","3.3.7","yes","yes","600bd7cfb6416f0113b04181","602110864497cf011d9c0822","0","f","NA","space","j","j","NA","f","601","NA","3735","70641","6323","NA","601","2","legacy","1024","2","48000","-16","task","5218496","even","NA","92186","97928","94191","181447","7237","84208","77884","181951","NA","181443","181952","181257","97928","182555","90293","180757","7232","170357","Lexical Decision Task","45","31918","48","yes","1024"
"3.488597715","0","9","nain","non-word","93.87755102040816","93.87755102040816","663.3061224489796","663.3061224489796","black","no","legacy","legacy","legacy","0","uniform","1","undefined","undefined","undefined","1","f","0","0","0","0","48","0","0","0","48","NA","44","48","44","0","44","3","48","0","48","Thu Feb 18 13:12:19 2021","The main experiment item","yes","Lexical_Decision_Task.osexp","C:/Users/Laura/Documents/Uni/Year 2/Cognition and Language","no","Andale Mono","no","18","no","white","no","yes","576","legacy","44","44","3","C:/Users/Laura/Documents/Uni/Year 2/Cognition and Language/Seminars/subject-5218496.csv","legacy","Lentiform Loewenfeld","3.3.7","yes","yes","600bd7cfb6416f0113b04181","602110864497cf011d9c0822","0","f","NA","space","j","j","NA","f","584","NA","3735","70641","6323","NA","584","2","legacy","1024","2","48000","-16","task","5218496","even","NA","92186","97928","94191","183257","7237","84208","77884","183761","NA","183253","183762","183066","97928","184348","90293","182566","7232","170357","Lexical Decision Task","46","32502","49","yes","1024"
"2.873320602","0","4","lurg","non-word","94","94","661.7","661.7","black","no","legacy","legacy","legacy","0","uniform","1","undefined","undefined","undefined","1","f","0","0","0","0","49","0","0","0","49","NA","45","49","45","0","45","3","49","0","49","Thu Feb 18 13:12:19 2021","The main experiment item","yes","Lexical_Decision_Task.osexp","C:/Users/Laura/Documents/Uni/Year 2/Cognition and Language","no","Andale Mono","no","18","no","white","no","yes","576","legacy","45","45","3","C:/Users/Laura/Documents/Uni/Year 2/Cognition and Language/Seminars/subject-5218496.csv","legacy","Lentiform Loewenfeld","3.3.7","yes","yes","600bd7cfb6416f0113b04181","602110864497cf011d9c0822","0","f","NA","space","j","j","NA","f","583","NA","3735","70641","6323","NA","583","2","legacy","1024","2","48000","-16","task","5218496","even","NA","92186","97928","94191","185056","7237","84208","77884","185563","NA","185052","185563","184858","97928","186148","90293","184358","7232","170357","Lexical Decision Task","47","33085","50","yes","1024"
"3.257359335","8","6","brew","word","94.11764705882354","94.11764705882354","662.8627450980392","662.8627450980392","black","no","legacy","legacy","legacy","0","uniform","1","undefined","undefined","undefined","1","j","0","0","0","0","50","0","0","0","50","NA","46","50","46","0","46","3","50","0","50","Thu Feb 18 13:12:19 2021","The main experiment item","yes","Lexical_Decision_Task.osexp","C:/Users/Laura/Documents/Uni/Year 2/Cognition and Language","no","Andale Mono","no","18","no","white","no","yes","576","legacy","46","46","3","C:/Users/Laura/Documents/Uni/Year 2/Cognition and Language/Seminars/subject-5218496.csv","legacy","Lentiform Loewenfeld","3.3.7","yes","yes","600bd7cfb6416f0113b04181","602110864497cf011d9c0822","0","j","NA","space","j","j","NA","j","721","NA","3735","70641","6323","NA","721","2","legacy","1024","2","48000","-16","task","5218496","even","NA","92186","97928","94191","186850","7237","84208","77884","187353","NA","186846","187353","186658","97928","188076","90293","186158","7232","170357","Lexical Decision Task","48","33806","51","yes","1024"
"2.952953801","0","8","clax","non-word","94.23076923076923","94.23076923076923","662.1153846153846","662.1153846153846","black","no","legacy","legacy","legacy","0","uniform","1","undefined","undefined","undefined","1","f","0","0","0","0","51","0","0","0","51","NA","47","51","47","0","47","3","51","0","51","Thu Feb 18 13:12:19 2021","The main experiment item","yes","Lexical_Decision_Task.osexp","C:/Users/Laura/Documents/Uni/Year 2/Cognition and Language","no","Andale Mono","no","18","no","white","no","yes","576","legacy","47","47","3","C:/Users/Laura/Documents/Uni/Year 2/Cognition and Language/Seminars/subject-5218496.csv","legacy","Lentiform Loewenfeld","3.3.7","yes","yes","600bd7cfb6416f0113b04181","602110864497cf011d9c0822","0","f","NA","space","j","j","NA","f","624","NA","3735","70641","6323","NA","624","2","legacy","1024","2","48000","-16","task","5218496","even","NA","92186","97928","94191","188781","7237","84208","77884","189289","NA","188777","189290","188587","97928","189916","90293","188087","7232","170357","Lexical Decision Task","49","34430","52","yes","1024"
"3.174641193","0","3","ramb","non-word","94.33962264150944","94.33962264150944","663.4905660377359","663.4905660377359","black","no","legacy","legacy","legacy","0","uniform","1","undefined","undefined","undefined","1","f","0","0","0","0","52","0","0","0","52","NA","48","52","48","0","48","3","52","0","52","Thu Feb 18 13:12:19 2021","The main experiment item","yes","Lexical_Decision_Task.osexp","C:/Users/Laura/Documents/Uni/Year 2/Cognition and Language","no","Andale Mono","no","18","no","white","no","yes","576","legacy","48","48","3","C:/Users/Laura/Documents/Uni/Year 2/Cognition and Language/Seminars/subject-5218496.csv","legacy","Lentiform Loewenfeld","3.3.7","yes","yes","600bd7cfb6416f0113b04181","602110864497cf011d9c0822","0","f","NA","space","j","j","NA","f","735","NA","3735","70641","6323","NA","735","2","legacy","1024","2","48000","-16","task","5218496","even","NA","92186","97928","94191","190610","7237","84208","77884","191115","NA","190606","191115","190426","97928","191852","90293","189926","7232","170357","Lexical Decision Task","50","35165","53","yes","1024"
"2.920123326","7.43","4","duel","word","94.44444444444444","94.44444444444444","662.2962962962963","662.2962962962963","black","no","legacy","legacy","legacy","0","uniform","1","undefined","undefined","undefined","1","j","0","0","0","0","53","0","0","0","53","NA","49","53","49","0","49","3","53","0","53","Thu Feb 18 13:12:19 2021","The main experiment item","yes","Lexical_Decision_Task.osexp","C:/Users/Laura/Documents/Uni/Year 2/Cognition and Language","no","Andale Mono","no","18","no","white","no","yes","576","legacy","49","49","3","C:/Users/Laura/Documents/Uni/Year 2/Cognition and Language/Seminars/subject-5218496.csv","legacy","Lentiform Loewenfeld","3.3.7","yes","yes","600bd7cfb6416f0113b04181","602110864497cf011d9c0822","0","j","NA","space","j","j","NA","j","599","NA","3735","70641","6323","NA","599","2","legacy","1024","2","48000","-16","task","5218496","even","NA","92186","97928","94191","192554","7237","84208","77884","193058","NA","192550","193059","192362","97928","193660","90293","191862","7232","170357","Lexical Decision Task","51","35764","54","yes","1024"
"2.895974732","6.65","5","sift","word","94.54545454545455","94.54545454545455","675.6181818181818","675.6181818181818","black","no","legacy","legacy","legacy","0","uniform","1","undefined","undefined","undefined","1","j","0","0","0","0","54","0","0","0","54","0","50","54","50","0","50","3","54","0","54","Thu Feb 18 13:12:19 2021","The main experiment item","yes","Lexical_Decision_Task.osexp","C:/Users/Laura/Documents/Uni/Year 2/Cognition and Language","no","Andale Mono","no","18","no","white","no","yes","576","legacy","50","50","3","C:/Users/Laura/Documents/Uni/Year 2/Cognition and Language/Seminars/subject-5218496.csv","legacy","Lentiform Loewenfeld","3.3.7","yes","yes","600bd7cfb6416f0113b04181","602110864497cf011d9c0822","0","j","NA","space","j","j","space","j","1395","NA","3735","70641","6323","9457","1395","2","legacy","1024","2","48000","-16","task","5218496","even","NA","92186","97928","94191","203911","7237","84208","77884","204415","194265","203907","204415","194170","97928","205813","90293","193670","7232","170357","Lexical Decision Task","52","37159","55","yes","1024"
"2.6599162","0","2","saff","non-word","94.64285714285714","94.64285714285714","676.5892857142857","676.5892857142857","black","no","legacy","legacy","legacy","0","uniform","1","undefined","undefined","undefined","1","f","0","0","0","0","55","0","0","0","55","0","51","55","51","0","51","3","55","0","55","Thu Feb 18 13:12:19 2021","The main experiment item","yes","Lexical_Decision_Task.osexp","C:/Users/Laura/Documents/Uni/Year 2/Cognition and Language","no","Andale Mono","no","18","no","white","no","yes","576","legacy","51","51","3","C:/Users/Laura/Documents/Uni/Year 2/Cognition and Language/Seminars/subject-5218496.csv","legacy","Lentiform Loewenfeld","3.3.7","yes","yes","600bd7cfb6416f0113b04181","602110864497cf011d9c0822","0","f","NA","space","j","j","space","f","730","NA","3735","70641","6323","9457","730","2","legacy","1024","2","48000","-16","task","5218496","even","NA","92186","97928","94191","206511","7237","84208","77884","207015","194265","206507","207016","206323","97928","207750","90293","205823","7232","170357","Lexical Decision Task","53","37889","56","yes","1024"
"3.003891166","8.05","2","frog","word","94.73684210526316","94.73684210526316","676.4035087719299","676.4035087719299","black","no","legacy","legacy","legacy","0","uniform","1","undefined","undefined","undefined","1","j","0","0","0","0","56","0","0","0","56","0","52","56","52","0","52","3","56","0","56","Thu Feb 18 13:12:19 2021","The main experiment item","yes","Lexical_Decision_Task.osexp","C:/Users/Laura/Documents/Uni/Year 2/Cognition and Language","no","Andale Mono","no","18","no","white","no","yes","576","legacy","52","52","3","C:/Users/Laura/Documents/Uni/Year 2/Cognition and Language/Seminars/subject-5218496.csv","legacy","Lentiform Loewenfeld","3.3.7","yes","yes","600bd7cfb6416f0113b04181","602110864497cf011d9c0822","0","j","NA","space","j","j","space","j","666","NA","3735","70641","6323","9457","666","2","legacy","1024","2","48000","-16","task","5218496","even","NA","92186","97928","94191","208447","7237","84208","77884","208952","194265","208442","208952","208260","97928","209621","90293","207760","7232","170357","Lexical Decision Task","54","38555","57","yes","1024"
"3.274543461","7.46","7","scar","word","94.82758620689656","94.82758620689656","674.1379310344828","674.1379310344828","black","no","legacy","legacy","legacy","0","uniform","1","undefined","undefined","undefined","1","j","0","0","0","0","57","0","0","0","57","0","53","57","53","0","53","3","57","0","57","Thu Feb 18 13:12:19 2021","The main experiment item","yes","Lexical_Decision_Task.osexp","C:/Users/Laura/Documents/Uni/Year 2/Cognition and Language","no","Andale Mono","no","18","no","white","no","yes","576","legacy","53","53","3","C:/Users/Laura/Documents/Uni/Year 2/Cognition and Language/Seminars/subject-5218496.csv","legacy","Lentiform Loewenfeld","3.3.7","yes","yes","600bd7cfb6416f0113b04181","602110864497cf011d9c0822","0","j","NA","space","j","j","space","j","545","NA","3735","70641","6323","9457","545","2","legacy","1024","2","48000","-16","task","5218496","even","NA","92186","97928","94191","210319","7237","84208","77884","210824","194265","210315","210825","210131","97928","211373","90293","209631","7232","170357","Lexical Decision Task","55","39100","58","yes","1024"
"3.076883066","0","8","mout","non-word","94.91525423728814","94.91525423728814","676.4406779661017","676.4406779661017","black","no","legacy","legacy","legacy","0","uniform","1","undefined","undefined","undefined","1","f","0","0","0","0","58","0","0","0","58","0","54","58","54","0","54","3","58","0","58","Thu Feb 18 13:12:19 2021","The main experiment item","yes","Lexical_Decision_Task.osexp","C:/Users/Laura/Documents/Uni/Year 2/Cognition and Language","no","Andale Mono","no","18","no","white","no","yes","576","legacy","54","54","3","C:/Users/Laura/Documents/Uni/Year 2/Cognition and Language/Seminars/subject-5218496.csv","legacy","Lentiform Loewenfeld","3.3.7","yes","yes","600bd7cfb6416f0113b04181","602110864497cf011d9c0822","0","f","NA","space","j","j","space","f","810","NA","3735","70641","6323","9457","810","2","legacy","1024","2","48000","-16","task","5218496","even","NA","92186","97928","94191","212080","7237","84208","77884","212584","194265","212076","212584","211883","97928","213397","90293","211382","7232","170357","Lexical Decision Task","56","39910","59","yes","1024"
"3.194328374","9.42","6","harm","word","95","95","674.5333333333333","674.5333333333333","black","no","legacy","legacy","legacy","0","uniform","1","undefined","undefined","undefined","1","j","0","0","0","0","59","0","0","0","59","0","55","59","55","0","55","3","59","0","59","Thu Feb 18 13:12:19 2021","The main experiment item","yes","Lexical_Decision_Task.osexp","C:/Users/Laura/Documents/Uni/Year 2/Cognition and Language","no","Andale Mono","no","18","no","white","no","yes","576","legacy","55","55","3","C:/Users/Laura/Documents/Uni/Year 2/Cognition and Language/Seminars/subject-5218496.csv","legacy","Lentiform Loewenfeld","3.3.7","yes","yes","600bd7cfb6416f0113b04181","602110864497cf011d9c0822","0","j","NA","space","j","j","space","j","562","NA","3735","70641","6323","9457","562","2","legacy","1024","2","48000","-16","task","5218496","even","NA","92186","97928","94191","214113","7237","84208","77884","214616","194265","214109","214616","213907","97928","215181","90293","213407","7232","170357","Lexical Decision Task","57","40472","60","yes","1024"
"2.698387659","6.66","7","skid","word","95.08196721311475","95.08196721311475","676.2295081967213","676.2295081967213","black","no","legacy","legacy","legacy","0","uniform","1","undefined","undefined","undefined","1","j","0","0","0","0","60","0","0","0","60","0","56","60","56","0","56","3","60","0","60","Thu Feb 18 13:12:19 2021","The main experiment item","yes","Lexical_Decision_Task.osexp","C:/Users/Laura/Documents/Uni/Year 2/Cognition and Language","no","Andale Mono","no","18","no","white","no","yes","576","legacy","56","56","3","C:/Users/Laura/Documents/Uni/Year 2/Cognition and Language/Seminars/subject-5218496.csv","legacy","Lentiform Loewenfeld","3.3.7","yes","yes","600bd7cfb6416f0113b04181","602110864497cf011d9c0822","0","j","NA","space","j","j","space","j","778","NA","3735","70641","6323","9457","778","2","legacy","1024","2","48000","-16","task","5218496","even","NA","92186","97928","94191","215880","7237","84208","77884","216384","194265","215876","216384","215691","97928","217165","90293","215191","7232","170357","Lexical Decision Task","58","41250","61","yes","1024"
"3.374137706","10.21","4","tree","word","95.16129032258064","95.16129032258064","676.1290322580645","676.1290322580645","black","no","legacy","legacy","legacy","0","uniform","1","undefined","undefined","undefined","1","j","0","0","0","0","61","0","0","0","61","0","57","61","57","0","57","3","61","0","61","Thu Feb 18 13:12:19 2021","The main experiment item","yes","Lexical_Decision_Task.osexp","C:/Users/Laura/Documents/Uni/Year 2/Cognition and Language","no","Andale Mono","no","18","no","white","no","yes","576","legacy","57","57","3","C:/Users/Laura/Documents/Uni/Year 2/Cognition and Language/Seminars/subject-5218496.csv","legacy","Lentiform Loewenfeld","3.3.7","yes","yes","600bd7cfb6416f0113b04181","602110864497cf011d9c0822","0","j","NA","space","j","j","space","j","670","NA","3735","70641","6323","9457","670","2","legacy","1024","2","48000","-16","task","5218496","even","NA","92186","97928","94191","217866","7237","84208","77884","218372","194265","217863","218372","217675","97928","219045","90293","217175","7232","170357","Lexical Decision Task","59","41920","62","yes","1024"
"2.668385917","5.48","4","twig","word","95.23809523809524","95.23809523809524","675.1111111111111","675.1111111111111","black","no","legacy","legacy","legacy","0","uniform","1","undefined","undefined","undefined","1","j","0","0","0","0","62","0","0","0","62","0","58","62","58","0","58","3","62","0","62","Thu Feb 18 13:12:19 2021","The main experiment item","yes","Lexical_Decision_Task.osexp","C:/Users/Laura/Documents/Uni/Year 2/Cognition and Language","no","Andale Mono","no","18","no","white","no","yes","576","legacy","58","58","3","C:/Users/Laura/Documents/Uni/Year 2/Cognition and Language/Seminars/subject-5218496.csv","legacy","Lentiform Loewenfeld","3.3.7","yes","yes","600bd7cfb6416f0113b04181","602110864497cf011d9c0822","0","j","NA","space","j","j","space","j","612","NA","3735","70641","6323","9457","612","2","legacy","1024","2","48000","-16","task","5218496","even","NA","92186","97928","94191","219739","7237","84208","77884","220245","194265","219735","220246","219555","97928","220861","90293","219055","7232","170357","Lexical Decision Task","60","42532","63","yes","1024"
"3.263399331","0","8","cour","non-word","95.3125","95.3125","673.6875","673.6875","black","no","legacy","legacy","legacy","0","uniform","1","undefined","undefined","undefined","1","f","0","0","0","0","63","0","0","0","63","0","59","63","59","0","59","3","63","0","63","Thu Feb 18 13:12:19 2021","The main experiment item","yes","Lexical_Decision_Task.osexp","C:/Users/Laura/Documents/Uni/Year 2/Cognition and Language","no","Andale Mono","no","18","no","white","no","yes","576","legacy","59","59","3","C:/Users/Laura/Documents/Uni/Year 2/Cognition and Language/Seminars/subject-5218496.csv","legacy","Lentiform Loewenfeld","3.3.7","yes","yes","600bd7cfb6416f0113b04181","602110864497cf011d9c0822","0","f","NA","space","j","j","space","f","584","NA","3735","70641","6323","9457","584","2","legacy","1024","2","48000","-16","task","5218496","even","NA","92186","97928","94191","221560","7237","84208","77884","222066","194265","221556","222066","221371","97928","222653","90293","220871","7232","170357","Lexical Decision Task","61","43116","64","yes","1024"
"3.397302518","7.01","2","knit","word","95.38461538461539","95.38461538461539","673.3384615384615","673.3384615384615","black","no","legacy","legacy","legacy","0","uniform","1","undefined","undefined","undefined","1","j","0","0","0","0","64","0","0","0","64","0","60","64","60","0","60","3","64","0","64","Thu Feb 18 13:12:19 2021","The main experiment item","yes","Lexical_Decision_Task.osexp","C:/Users/Laura/Documents/Uni/Year 2/Cognition and Language","no","Andale Mono","no","18","no","white","no","yes","576","legacy","60","60","3","C:/Users/Laura/Documents/Uni/Year 2/Cognition and Language/Seminars/subject-5218496.csv","legacy","Lentiform Loewenfeld","3.3.7","yes","yes","600bd7cfb6416f0113b04181","602110864497cf011d9c0822","0","j","NA","space","j","j","space","j","651","NA","3735","70641","6323","9457","651","2","legacy","1024","2","48000","-16","task","5218496","even","NA","92186","97928","94191","223358","7237","84208","77884","223863","194265","223354","223864","223164","97928","224517","90293","222664","7232","170357","Lexical Decision Task","62","43767","65","yes","1024"
"3.102203805","7.21","3","drip","word","95.45454545454545","95.45454545454545","671.1666666666666","671.1666666666666","black","no","legacy","legacy","legacy","0","uniform","1","undefined","undefined","undefined","1","j","0","0","0","0","65","0","0","0","65","0","61","65","61","0","61","3","65","0","65","Thu Feb 18 13:12:19 2021","The main experiment item","yes","Lexical_Decision_Task.osexp","C:/Users/Laura/Documents/Uni/Year 2/Cognition and Language","no","Andale Mono","no","18","no","white","no","yes","576","legacy","61","61","3","C:/Users/Laura/Documents/Uni/Year 2/Cognition and Language/Seminars/subject-5218496.csv","legacy","Lentiform Loewenfeld","3.3.7","yes","yes","600bd7cfb6416f0113b04181","602110864497cf011d9c0822","0","j","NA","space","j","j","space","j","530","NA","3735","70641","6323","9457","530","2","legacy","1024","2","48000","-16","task","5218496","even","NA","92186","97928","94191","225210","7237","84208","77884","225713","194265","225206","225713","225027","97928","226246","90293","224527","7232","170357","Lexical Decision Task","63","44297","66","yes","1024"
"3.303771854","0","9","dath","non-word","95.5223880597015","95.5223880597015","669.7611940298508","669.7611940298508","black","no","legacy","legacy","legacy","0","uniform","1","undefined","undefined","undefined","1","f","0","0","0","0","66","0","0","0","66","0","62","66","62","0","62","3","66","0","66","Thu Feb 18 13:12:19 2021","The main experiment item","yes","Lexical_Decision_Task.osexp","C:/Users/Laura/Documents/Uni/Year 2/Cognition and Language","no","Andale Mono","no","18","no","white","no","yes","576","legacy","62","62","3","C:/Users/Laura/Documents/Uni/Year 2/Cognition and Language/Seminars/subject-5218496.csv","legacy","Lentiform Loewenfeld","3.3.7","yes","yes","600bd7cfb6416f0113b04181","602110864497cf011d9c0822","0","f","NA","space","j","j","space","f","577","NA","3735","70641","6323","9457","577","2","legacy","1024","2","48000","-16","task","5218496","even","NA","92186","97928","94191","226947","7237","84208","77884","227450","194265","226943","227450","226755","97928","228030","90293","226255","7232","170357","Lexical Decision Task","64","44874","67","yes","1024"
"2.812467698","0","7","hafe","non-word","95.58823529411765","95.58823529411765","668.8823529411765","668.8823529411765","black","no","legacy","legacy","legacy","0","uniform","1","undefined","undefined","undefined","1","f","0","0","0","0","67","0","0","0","67","0","63","67","63","0","63","3","67","0","67","Thu Feb 18 13:12:19 2021","The main experiment item","yes","Lexical_Decision_Task.osexp","C:/Users/Laura/Documents/Uni/Year 2/Cognition and Language","no","Andale Mono","no","18","no","white","no","yes","576","legacy","63","63","3","C:/Users/Laura/Documents/Uni/Year 2/Cognition and Language/Seminars/subject-5218496.csv","legacy","Lentiform Loewenfeld","3.3.7","yes","yes","600bd7cfb6416f0113b04181","602110864497cf011d9c0822","0","f","NA","space","j","j","space","f","610","NA","3735","70641","6323","9457","610","2","legacy","1024","2","48000","-16","task","5218496","even","NA","92186","97928","94191","228727","7237","84208","77884","229233","194265","228724","229233","228541","97928","229846","90293","228040","7232","170357","Lexical Decision Task","65","45484","68","yes","1024"
"2.843025032","0","9","pusk","non-word","95.65217391304348","95.65217391304348","668.7246376811594","668.7246376811594","black","no","legacy","legacy","legacy","0","uniform","1","undefined","undefined","undefined","1","f","0","0","0","0","68","0","0","0","68","0","64","68","64","0","64","3","68","0","68","Thu Feb 18 13:12:19 2021","The main experiment item","yes","Lexical_Decision_Task.osexp","C:/Users/Laura/Documents/Uni/Year 2/Cognition and Language","no","Andale Mono","no","18","no","white","no","yes","576","legacy","64","64","3","C:/Users/Laura/Documents/Uni/Year 2/Cognition and Language/Seminars/subject-5218496.csv","legacy","Lentiform Loewenfeld","3.3.7","yes","yes","600bd7cfb6416f0113b04181","602110864497cf011d9c0822","0","f","NA","space","j","j","space","f","658","NA","3735","70641","6323","9457","658","2","legacy","1024","2","48000","-16","task","5218496","even","NA","92186","97928","94191","230545","7237","84208","77884","231048","194265","230541","231048","230356","97928","231709","90293","229855","7232","170357","Lexical Decision Task","66","46142","69","yes","1024"
"2.709837904","6.85","8","skim","word","95.71428571428571","95.71428571428571","667.6142857142858","667.6142857142858","black","no","legacy","legacy","legacy","0","uniform","1","undefined","undefined","undefined","1","j","0","0","0","0","69","0","0","0","69","0","65","69","65","0","65","3","69","0","69","Thu Feb 18 13:12:19 2021","The main experiment item","yes","Lexical_Decision_Task.osexp","C:/Users/Laura/Documents/Uni/Year 2/Cognition and Language","no","Andale Mono","no","18","no","white","no","yes","576","legacy","65","65","3","C:/Users/Laura/Documents/Uni/Year 2/Cognition and Language/Seminars/subject-5218496.csv","legacy","Lentiform Loewenfeld","3.3.7","yes","yes","600bd7cfb6416f0113b04181","602110864497cf011d9c0822","0","j","NA","space","j","j","space","j","591","NA","3735","70641","6323","9457","591","2","legacy","1024","2","48000","-16","task","5218496","even","NA","92186","97928","94191","232412","7237","84208","77884","232915","194265","232408","232915","232220","97928","233510","90293","231719","7232","170357","Lexical Decision Task","67","46733","70","yes","1024"
"2.924968096","0","4","phim","non-word","95.77464788732394","95.77464788732394","665.7887323943662","665.7887323943662","black","no","legacy","legacy","legacy","0","uniform","1","undefined","undefined","undefined","1","f","0","0","0","0","70","0","0","0","70","0","66","70","66","0","66","3","70","0","70","Thu Feb 18 13:12:19 2021","The main experiment item","yes","Lexical_Decision_Task.osexp","C:/Users/Laura/Documents/Uni/Year 2/Cognition and Language","no","Andale Mono","no","18","no","white","no","yes","576","legacy","66","66","3","C:/Users/Laura/Documents/Uni/Year 2/Cognition and Language/Seminars/subject-5218496.csv","legacy","Lentiform Loewenfeld","3.3.7","yes","yes","600bd7cfb6416f0113b04181","602110864497cf011d9c0822","0","f","NA","space","j","j","space","f","538","NA","3735","70641","6323","9457","538","2","legacy","1024","2","48000","-16","task","5218496","even","NA","92186","97928","94191","234217","7237","84208","77884","234721","194265","234213","234721","234020","97928","235262","90293","233520","7232","170357","Lexical Decision Task","68","47271","71","yes","1024"
"2.794720352","0","9","koot","non-word","95.83333333333333","95.83333333333333","664.9722222222222","664.9722222222222","black","no","legacy","legacy","legacy","0","uniform","1","undefined","undefined","undefined","1","f","0","0","0","0","71","0","0","0","71","0","67","71","67","0","67","3","71","0","71","Thu Feb 18 13:12:19 2021","The main experiment item","yes","Lexical_Decision_Task.osexp","C:/Users/Laura/Documents/Uni/Year 2/Cognition and Language","no","Andale Mono","no","18","no","white","no","yes","576","legacy","67","67","3","C:/Users/Laura/Documents/Uni/Year 2/Cognition and Language/Seminars/subject-5218496.csv","legacy","Lentiform Loewenfeld","3.3.7","yes","yes","600bd7cfb6416f0113b04181","602110864497cf011d9c0822","0","f","NA","space","j","j","space","f","607","NA","3735","70641","6323","9457","607","2","legacy","1024","2","48000","-16","task","5218496","even","NA","92186","97928","94191","235963","7237","84208","77884","236467","194265","235959","236468","235773","97928","237078","90293","235273","7232","170357","Lexical Decision Task","69","47878","72","yes","1024"
"2.979548375","8.71","4","soup","word","95.89041095890411","95.89041095890411","667.8082191780821","667.8082191780821","black","no","legacy","legacy","legacy","0","uniform","1","undefined","undefined","undefined","1","j","0","0","0","0","72","0","0","0","72","0","68","72","68","0","68","3","72","0","72","Thu Feb 18 13:12:19 2021","The main experiment item","yes","Lexical_Decision_Task.osexp","C:/Users/Laura/Documents/Uni/Year 2/Cognition and Language","no","Andale Mono","no","18","no","white","no","yes","576","legacy","68","68","3","C:/Users/Laura/Documents/Uni/Year 2/Cognition and Language/Seminars/subject-5218496.csv","legacy","Lentiform Loewenfeld","3.3.7","yes","yes","600bd7cfb6416f0113b04181","602110864497cf011d9c0822","0","j","NA","space","j","j","space","j","872","NA","3735","70641","6323","9457","872","2","legacy","1024","2","48000","-16","task","5218496","even","NA","92186","97928","94191","237780","7237","84208","77884","238283","194265","237776","238283","237588","97928","239158","90293","237088","7232","170357","Lexical Decision Task","70","48750","73","yes","1024"
"3.366547468","0","6","plat","non-word","95.94594594594595","95.94594594594595","668.6621621621622","668.6621621621622","black","no","legacy","legacy","legacy","0","uniform","1","undefined","undefined","undefined","1","f","0","0","0","0","73","0","0","0","73","0","69","73","69","0","69","3","73","0","73","Thu Feb 18 13:12:19 2021","The main experiment item","yes","Lexical_Decision_Task.osexp","C:/Users/Laura/Documents/Uni/Year 2/Cognition and Language","no","Andale Mono","no","18","no","white","no","yes","576","legacy","69","69","3","C:/Users/Laura/Documents/Uni/Year 2/Cognition and Language/Seminars/subject-5218496.csv","legacy","Lentiform Loewenfeld","3.3.7","yes","yes","600bd7cfb6416f0113b04181","602110864497cf011d9c0822","0","f","NA","space","j","j","space","f","731","NA","3735","70641","6323","9457","731","2","legacy","1024","2","48000","-16","task","5218496","even","NA","92186","97928","94191","239863","7237","84208","77884","240368","194265","239858","240368","239670","97928","241103","90293","239169","7232","170357","Lexical Decision Task","71","49481","74","yes","1024"
"3.081107167","0","6","chot","non-word","96","96","667.0266666666666","667.0266666666666","black","no","legacy","legacy","legacy","0","uniform","1","undefined","undefined","undefined","1","f","0","0","0","0","74","0","0","0","74","0","70","74","70","0","70","3","74","0","74","Thu Feb 18 13:12:19 2021","The main experiment item","yes","Lexical_Decision_Task.osexp","C:/Users/Laura/Documents/Uni/Year 2/Cognition and Language","no","Andale Mono","no","18","no","white","no","yes","576","legacy","70","70","3","C:/Users/Laura/Documents/Uni/Year 2/Cognition and Language/Seminars/subject-5218496.csv","legacy","Lentiform Loewenfeld","3.3.7","yes","yes","600bd7cfb6416f0113b04181","602110864497cf011d9c0822","0","f","NA","space","j","j","space","f","546","NA","3735","70641","6323","9457","546","2","legacy","1024","2","48000","-16","task","5218496","even","NA","92186","97928","94191","241807","7237","84208","77884","242312","194265","241803","242313","241613","97928","242862","90293","241113","7232","170357","Lexical Decision Task","72","50027","75","yes","1024"
"2.899638141","0","3","hapt","non-word","96.05263157894737","96.05263157894737","665.9473684210526","665.9473684210526","black","no","legacy","legacy","legacy","0","uniform","1","undefined","undefined","undefined","1","f","0","0","0","0","75","0","0","0","75","0","71","75","71","0","71","3","75","0","75","Thu Feb 18 13:12:19 2021","The main experiment item","yes","Lexical_Decision_Task.osexp","C:/Users/Laura/Documents/Uni/Year 2/Cognition and Language","no","Andale Mono","no","18","no","white","no","yes","576","legacy","71","71","3","C:/Users/Laura/Documents/Uni/Year 2/Cognition and Language/Seminars/subject-5218496.csv","legacy","Lentiform Loewenfeld","3.3.7","yes","yes","600bd7cfb6416f0113b04181","602110864497cf011d9c0822","0","f","NA","space","j","j","space","f","585","NA","3735","70641","6323","9457","585","2","legacy","1024","2","48000","-16","task","5218496","even","NA","92186","97928","94191","243553","7237","84208","77884","244058","194265","243548","244058","243373","97928","244646","90293","242872","7232","170357","Lexical Decision Task","73","50612","76","yes","1024"
"2.755364069","7.72","2","hoax","word","96.1038961038961","96.1038961038961","665.2597402597403","665.2597402597403","black","no","legacy","legacy","legacy","0","uniform","1","undefined","undefined","undefined","1","j","0","0","0","0","76","0","0","0","76","0","72","76","72","0","72","3","76","0","76","Thu Feb 18 13:12:19 2021","The main experiment item","yes","Lexical_Decision_Task.osexp","C:/Users/Laura/Documents/Uni/Year 2/Cognition and Language","no","Andale Mono","no","18","no","white","no","yes","576","legacy","72","72","3","C:/Users/Laura/Documents/Uni/Year 2/Cognition and Language/Seminars/subject-5218496.csv","legacy","Lentiform Loewenfeld","3.3.7","yes","yes","600bd7cfb6416f0113b04181","602110864497cf011d9c0822","0","j","NA","space","j","j","space","j","613","NA","3735","70641","6323","9457","613","2","legacy","1024","2","48000","-16","task","5218496","even","NA","92186","97928","94191","245349","7237","84208","77884","245854","194265","245345","245854","245157","97928","246470","90293","244657","7232","170357","Lexical Decision Task","74","51225","77","yes","1024"
"3.529815197","0","3","lerm","non-word","96.15384615384616","96.15384615384616","663.8333333333334","663.8333333333334","black","no","legacy","legacy","legacy","0","uniform","1","undefined","undefined","undefined","1","f","0","0","0","0","77","0","0","0","77","0","73","77","73","0","73","3","77","0","77","Thu Feb 18 13:12:19 2021","The main experiment item","yes","Lexical_Decision_Task.osexp","C:/Users/Laura/Documents/Uni/Year 2/Cognition and Language","no","Andale Mono","no","18","no","white","no","yes","576","legacy","73","73","3","C:/Users/Laura/Documents/Uni/Year 2/Cognition and Language/Seminars/subject-5218496.csv","legacy","Lentiform Loewenfeld","3.3.7","yes","yes","600bd7cfb6416f0113b04181","602110864497cf011d9c0822","0","f","NA","space","j","j","space","f","554","NA","3735","70641","6323","9457","554","2","legacy","1024","2","48000","-16","task","5218496","even","NA","92186","97928","94191","247166","7237","84208","77884","247672","194265","247163","247673","246980","97928","248231","90293","246480","7232","170357","Lexical Decision Task","75","51779","78","yes","1024"
"3.218535505","7.85","7","goat","word","96.20253164556962","96.20253164556962","662.7848101265823","662.7848101265823","black","no","legacy","legacy","legacy","0","uniform","1","undefined","undefined","undefined","1","j","0","0","0","0","78","0","0","0","78","0","74","78","74","0","74","3","78","0","78","Thu Feb 18 13:12:19 2021","The main experiment item","yes","Lexical_Decision_Task.osexp","C:/Users/Laura/Documents/Uni/Year 2/Cognition and Language","no","Andale Mono","no","18","no","white","no","yes","576","legacy","74","74","3","C:/Users/Laura/Documents/Uni/Year 2/Cognition and Language/Seminars/subject-5218496.csv","legacy","Lentiform Loewenfeld","3.3.7","yes","yes","600bd7cfb6416f0113b04181","602110864497cf011d9c0822","0","j","NA","space","j","j","space","j","581","NA","3735","70641","6323","9457","581","2","legacy","1024","2","48000","-16","task","5218496","even","NA","92186","97928","94191","248934","7237","84208","77884","249438","194265","248929","249439","248741","97928","250023","90293","248241","7232","170357","Lexical Decision Task","76","52360","79","yes","1024"
"2.9737419","7.69","7","claw","word","96.25","96.25","663.0625","663.0625","black","no","legacy","legacy","legacy","0","uniform","1","undefined","undefined","undefined","1","j","0","0","0","0","79","0","0","0","79","0","75","79","75","0","75","3","79","0","79","Thu Feb 18 13:12:19 2021","The main experiment item","yes","Lexical_Decision_Task.osexp","C:/Users/Laura/Documents/Uni/Year 2/Cognition and Language","no","Andale Mono","no","18","no","white","no","yes","576","legacy","75","75","3","C:/Users/Laura/Documents/Uni/Year 2/Cognition and Language/Seminars/subject-5218496.csv","legacy","Lentiform Loewenfeld","3.3.7","yes","yes","600bd7cfb6416f0113b04181","602110864497cf011d9c0822","0","j","NA","space","j","j","space","j","685","NA","3735","70641","6323","9457","685","2","legacy","1024","2","48000","-16","task","5218496","even","NA","92186","97928","94191","250719","7237","84208","77884","251222","194265","250715","251222","250533","97928","251911","90293","250033","7232","170357","Lexical Decision Task","77","53045","80","yes","1024"
"3.031408464","0","7","drow","non-word","96.29629629629629","96.29629629629629","662.395061728395","662.395061728395","black","no","legacy","legacy","legacy","0","uniform","1","undefined","undefined","undefined","1","f","0","0","0","0","80","0","0","0","80","0","76","80","76","0","76","3","80","0","80","Thu Feb 18 13:12:19 2021","The main experiment item","yes","Lexical_Decision_Task.osexp","C:/Users/Laura/Documents/Uni/Year 2/Cognition and Language","no","Andale Mono","no","18","no","white","no","yes","576","legacy","76","76","3","C:/Users/Laura/Documents/Uni/Year 2/Cognition and Language/Seminars/subject-5218496.csv","legacy","Lentiform Loewenfeld","3.3.7","yes","yes","600bd7cfb6416f0113b04181","602110864497cf011d9c0822","0","f","NA","space","j","j","space","f","609","NA","3735","70641","6323","9457","609","2","legacy","1024","2","48000","-16","task","5218496","even","NA","92186","97928","94191","252607","7237","84208","77884","253114","194265","252603","253114","252421","97928","253727","90293","251921","7232","170357","Lexical Decision Task","78","53654","81","yes","1024"
"2.778633532","0","3","jurp","non-word","96.34146341463415","96.34146341463415","661.7073170731708","661.7073170731708","black","no","legacy","legacy","legacy","0","uniform","1","undefined","undefined","undefined","1","f","0","0","0","0","81","0","0","0","81","0","77","81","77","0","77","3","81","0","81","Thu Feb 18 13:12:19 2021","The main experiment item","yes","Lexical_Decision_Task.osexp","C:/Users/Laura/Documents/Uni/Year 2/Cognition and Language","no","Andale Mono","no","18","no","white","no","yes","576","legacy","77","77","3","C:/Users/Laura/Documents/Uni/Year 2/Cognition and Language/Seminars/subject-5218496.csv","legacy","Lentiform Loewenfeld","3.3.7","yes","yes","600bd7cfb6416f0113b04181","602110864497cf011d9c0822","0","f","NA","space","j","j","space","f","606","NA","3735","70641","6323","9457","606","2","legacy","1024","2","48000","-16","task","5218496","even","NA","92186","97928","94191","254428","7237","84208","77884","254933","194265","254424","254933","254237","97928","255543","90293","253737","7232","170357","Lexical Decision Task","79","54260","82","yes","1024"
"3.120135028","0","3","vals","non-word","96.3855421686747","96.3855421686747","660.4819277108434","660.4819277108434","black","no","legacy","legacy","legacy","0","uniform","1","undefined","undefined","undefined","1","f","0","0","0","0","82","0","0","0","82","0","78","82","78","0","78","3","82","0","82","Thu Feb 18 13:12:19 2021","The main experiment item","yes","Lexical_Decision_Task.osexp","C:/Users/Laura/Documents/Uni/Year 2/Cognition and Language","no","Andale Mono","no","18","no","white","no","yes","576","legacy","78","78","3","C:/Users/Laura/Documents/Uni/Year 2/Cognition and Language/Seminars/subject-5218496.csv","legacy","Lentiform Loewenfeld","3.3.7","yes","yes","600bd7cfb6416f0113b04181","602110864497cf011d9c0822","0","f","NA","space","j","j","space","f","560","NA","3735","70641","6323","9457","560","2","legacy","1024","2","48000","-16","task","5218496","even","NA","92186","97928","94191","256244","7237","84208","77884","256748","194265","256240","256748","256053","97928","257312","90293","255553","7232","170357","Lexical Decision Task","80","54820","83","yes","1024"
"2.664011697","8.19","4","hawk","word","96.42857142857143","96.42857142857143","659.5119047619048","659.5119047619048","black","no","legacy","legacy","legacy","0","uniform","1","undefined","undefined","undefined","1","j","0","0","0","0","83","0","0","0","83","0","79","83","79","0","79","3","83","0","83","Thu Feb 18 13:12:19 2021","The main experiment item","yes","Lexical_Decision_Task.osexp","C:/Users/Laura/Documents/Uni/Year 2/Cognition and Language","no","Andale Mono","no","18","no","white","no","yes","576","legacy","79","79","3","C:/Users/Laura/Documents/Uni/Year 2/Cognition and Language/Seminars/subject-5218496.csv","legacy","Lentiform Loewenfeld","3.3.7","yes","yes","600bd7cfb6416f0113b04181","602110864497cf011d9c0822","0","j","NA","space","j","j","space","j","579","NA","3735","70641","6323","9457","579","2","legacy","1024","2","48000","-16","task","5218496","even","NA","92186","97928","94191","258007","7237","84208","77884","258512","194265","258003","258513","257821","97928","259096","90293","257321","7232","170357","Lexical Decision Task","81","55399","84","yes","1024"
"2.953276337","6.32","4","thaw","word","96.47058823529412","96.47058823529412","660.2235294117647","660.2235294117647","black","no","legacy","legacy","legacy","0","uniform","1","undefined","undefined","undefined","1","j","0","0","0","0","84","0","0","0","84","0","80","84","80","0","80","3","84","0","84","Thu Feb 18 13:12:19 2021","The main experiment item","yes","Lexical_Decision_Task.osexp","C:/Users/Laura/Documents/Uni/Year 2/Cognition and Language","no","Andale Mono","no","18","no","white","no","yes","576","legacy","80","80","3","C:/Users/Laura/Documents/Uni/Year 2/Cognition and Language/Seminars/subject-5218496.csv","legacy","Lentiform Loewenfeld","3.3.7","yes","yes","600bd7cfb6416f0113b04181","602110864497cf011d9c0822","0","j","NA","space","j","j","space","j","720","NA","3735","70641","6323","9457","720","2","legacy","1024","2","48000","-16","task","5218496","even","NA","92186","97928","94191","259802","7237","84208","77884","260307","194265","259798","260308","259606","97928","261032","90293","259106","7232","170357","Lexical Decision Task","82","56119","85","yes","1024"
"2.705007959","6.01","4","wept","word","96.51162790697674","96.51162790697674","659.8837209302326","659.8837209302326","black","no","legacy","legacy","legacy","0","uniform","1","undefined","undefined","undefined","1","j","0","0","0","0","85","0","0","0","85","0","81","85","81","0","81","3","85","0","85","Thu Feb 18 13:12:19 2021","The main experiment item","yes","Lexical_Decision_Task.osexp","C:/Users/Laura/Documents/Uni/Year 2/Cognition and Language","no","Andale Mono","no","18","no","white","no","yes","576","legacy","81","81","3","C:/Users/Laura/Documents/Uni/Year 2/Cognition and Language/Seminars/subject-5218496.csv","legacy","Lentiform Loewenfeld","3.3.7","yes","yes","600bd7cfb6416f0113b04181","602110864497cf011d9c0822","0","j","NA","space","j","j","space","j","631","NA","3735","70641","6323","9457","631","2","legacy","1024","2","48000","-16","task","5218496","even","NA","92186","97928","94191","261740","7237","84208","77884","262245","194265","261736","262245","261542","97928","262879","90293","261042","7232","170357","Lexical Decision Task","83","56750","86","yes","1024"
"3.068433376","8.09","2","bulb","word","96.55172413793103","96.55172413793103","659.551724137931","659.551724137931","black","no","legacy","legacy","legacy","0","uniform","1","undefined","undefined","undefined","1","j","0","0","0","0","86","0","0","0","86","0","82","86","82","0","82","3","86","0","86","Thu Feb 18 13:12:19 2021","The main experiment item","yes","Lexical_Decision_Task.osexp","C:/Users/Laura/Documents/Uni/Year 2/Cognition and Language","no","Andale Mono","no","18","no","white","no","yes","576","legacy","82","82","3","C:/Users/Laura/Documents/Uni/Year 2/Cognition and Language/Seminars/subject-5218496.csv","legacy","Lentiform Loewenfeld","3.3.7","yes","yes","600bd7cfb6416f0113b04181","602110864497cf011d9c0822","0","j","NA","space","j","j","space","j","631","NA","3735","70641","6323","9457","631","2","legacy","1024","2","48000","-16","task","5218496","even","NA","92186","97928","94191","263580","7237","84208","77884","264085","194265","263576","264085","263390","97928","264719","90293","262890","7232","170357","Lexical Decision Task","84","57381","87","yes","1024"
"3.159867847","5.98","5","brim","word","96.5909090909091","96.5909090909091","660.3977272727273","660.3977272727273","black","no","legacy","legacy","legacy","0","uniform","1","undefined","undefined","undefined","1","j","0","0","0","0","87","0","0","0","87","0","83","87","83","0","83","3","87","0","87","Thu Feb 18 13:12:19 2021","The main experiment item","yes","Lexical_Decision_Task.osexp","C:/Users/Laura/Documents/Uni/Year 2/Cognition and Language","no","Andale Mono","no","18","no","white","no","yes","576","legacy","83","83","3","C:/Users/Laura/Documents/Uni/Year 2/Cognition and Language/Seminars/subject-5218496.csv","legacy","Lentiform Loewenfeld","3.3.7","yes","yes","600bd7cfb6416f0113b04181","602110864497cf011d9c0822","0","j","NA","space","j","j","space","j","734","NA","3735","70641","6323","9457","734","2","legacy","1024","2","48000","-16","task","5218496","even","NA","92186","97928","94191","265420","7237","84208","77884","265925","194265","265416","265926","265230","97928","266664","90293","264730","7232","170357","Lexical Decision Task","85","58115","88","yes","1024"
"2.714888338","0","3","brug","non-word","96.62921348314607","96.62921348314607","660.6067415730337","660.6067415730337","black","no","legacy","legacy","legacy","0","uniform","1","undefined","undefined","undefined","1","f","0","0","0","0","88","0","0","0","88","0","84","88","84","0","84","3","88","0","88","Thu Feb 18 13:12:19 2021","The main experiment item","yes","Lexical_Decision_Task.osexp","C:/Users/Laura/Documents/Uni/Year 2/Cognition and Language","no","Andale Mono","no","18","no","white","no","yes","576","legacy","84","84","3","C:/Users/Laura/Documents/Uni/Year 2/Cognition and Language/Seminars/subject-5218496.csv","legacy","Lentiform Loewenfeld","3.3.7","yes","yes","600bd7cfb6416f0113b04181","602110864497cf011d9c0822","0","f","NA","space","j","j","space","f","679","NA","3735","70641","6323","9457","679","2","legacy","1024","2","48000","-16","task","5218496","even","NA","92186","97928","94191","267365","7237","84208","77884","267869","194265","267361","267869","267174","97928","268552","90293","266674","7232","170357","Lexical Decision Task","86","58794","89","yes","1024"
"3.382617311","0","4","pret","non-word","96.66666666666667","96.66666666666667","662.5","662.5","black","no","legacy","legacy","legacy","0","uniform","1","undefined","undefined","undefined","1","f","0","0","0","0","89","0","0","0","89","0","85","89","85","0","85","3","89","0","89","Thu Feb 18 13:12:19 2021","The main experiment item","yes","Lexical_Decision_Task.osexp","C:/Users/Laura/Documents/Uni/Year 2/Cognition and Language","no","Andale Mono","no","18","no","white","no","yes","576","legacy","85","85","3","C:/Users/Laura/Documents/Uni/Year 2/Cognition and Language/Seminars/subject-5218496.csv","legacy","Lentiform Loewenfeld","3.3.7","yes","yes","600bd7cfb6416f0113b04181","602110864497cf011d9c0822","0","f","NA","space","j","j","space","f","831","NA","3735","70641","6323","9457","831","2","legacy","1024","2","48000","-16","task","5218496","even","NA","92186","97928","94191","269260","7237","84208","77884","269765","194265","269256","269765","269063","97928","270600","90293","268563","7232","170357","Lexical Decision Task","87","59625","90","yes","1024"
"3.230789326","5.38","5","prim","word","96.7032967032967","96.7032967032967","662.945054945055","662.945054945055","black","no","legacy","legacy","legacy","0","uniform","1","undefined","undefined","undefined","1","j","0","0","0","0","90","0","0","0","90","0","86","90","86","0","86","3","90","0","90","Thu Feb 18 13:12:19 2021","The main experiment item","yes","Lexical_Decision_Task.osexp","C:/Users/Laura/Documents/Uni/Year 2/Cognition and Language","no","Andale Mono","no","18","no","white","no","yes","576","legacy","86","86","3","C:/Users/Laura/Documents/Uni/Year 2/Cognition and Language/Seminars/subject-5218496.csv","legacy","Lentiform Loewenfeld","3.3.7","yes","yes","600bd7cfb6416f0113b04181","602110864497cf011d9c0822","0","j","NA","space","j","j","space","j","703","NA","3735","70641","6323","9457","703","2","legacy","1024","2","48000","-16","task","5218496","even","NA","92186","97928","94191","271300","7237","84208","77884","271804","194265","271295","271805","271111","97928","272512","90293","270611","7232","170357","Lexical Decision Task","88","60328","91","yes","1024"
"2.767650507","0","6","yolt","non-word","96.73913043478261","96.73913043478261","666.0760869565217","666.0760869565217","black","no","legacy","legacy","legacy","0","uniform","1","undefined","undefined","undefined","1","f","0","0","0","0","91","0","0","0","91","0","87","91","87","0","87","3","91","0","91","Thu Feb 18 13:12:19 2021","The main experiment item","yes","Lexical_Decision_Task.osexp","C:/Users/Laura/Documents/Uni/Year 2/Cognition and Language","no","Andale Mono","no","18","no","white","no","yes","576","legacy","87","87","3","C:/Users/Laura/Documents/Uni/Year 2/Cognition and Language/Seminars/subject-5218496.csv","legacy","Lentiform Loewenfeld","3.3.7","yes","yes","600bd7cfb6416f0113b04181","602110864497cf011d9c0822","0","f","NA","space","j","j","space","f","951","NA","3735","70641","6323","9457","951","2","legacy","1024","2","48000","-16","task","5218496","even","NA","92186","97928","94191","273212","7237","84208","77884","273717","194265","273208","273717","273021","97928","274671","90293","272521","7232","170357","Lexical Decision Task","89","61279","92","yes","1024"
"3.481012421","8.34","5","teen","word","96.7741935483871","96.7741935483871","669.3118279569892","669.3118279569892","black","no","legacy","legacy","legacy","0","uniform","1","undefined","undefined","undefined","1","j","0","0","0","0","92","0","0","0","92","0","88","92","88","0","88","3","92","0","92","Thu Feb 18 13:12:19 2021","The main experiment item","yes","Lexical_Decision_Task.osexp","C:/Users/Laura/Documents/Uni/Year 2/Cognition and Language","no","Andale Mono","no","18","no","white","no","yes","576","legacy","88","88","3","C:/Users/Laura/Documents/Uni/Year 2/Cognition and Language/Seminars/subject-5218496.csv","legacy","Lentiform Loewenfeld","3.3.7","yes","yes","600bd7cfb6416f0113b04181","602110864497cf011d9c0822","0","j","NA","space","j","j","space","j","967","NA","3735","70641","6323","9457","967","2","legacy","1024","2","48000","-16","task","5218496","even","NA","92186","97928","94191","275373","7237","84208","77884","275877","194265","275369","275877","275182","97928","276848","90293","274682","7232","170357","Lexical Decision Task","90","62246","93","yes","1024"
"3.252447662","9.67","9","boat","word","96.80851063829788","96.80851063829788","667.9042553191489","667.9042553191489","black","no","legacy","legacy","legacy","0","uniform","1","undefined","undefined","undefined","1","j","0","0","0","0","93","0","0","0","93","0","89","93","89","0","89","3","93","0","93","Thu Feb 18 13:12:19 2021","The main experiment item","yes","Lexical_Decision_Task.osexp","C:/Users/Laura/Documents/Uni/Year 2/Cognition and Language","no","Andale Mono","no","18","no","white","no","yes","576","legacy","89","89","3","C:/Users/Laura/Documents/Uni/Year 2/Cognition and Language/Seminars/subject-5218496.csv","legacy","Lentiform Loewenfeld","3.3.7","yes","yes","600bd7cfb6416f0113b04181","602110864497cf011d9c0822","0","j","NA","space","j","j","space","j","537","NA","3735","70641","6323","9457","537","2","legacy","1024","2","48000","-16","task","5218496","even","NA","92186","97928","94191","277546","7237","84208","77884","278050","194265","277542","278051","277359","97928","278592","90293","276858","7232","170357","Lexical Decision Task","91","62783","94","yes","1024"
