"Log_BG","Log_Freq_HAL","Ortho_N","Stimulus","Type","acc","accuracy","average_response_time","avg_rt","background","bidi","canvas_backend","clock_backend","color_backend","compensation","coordinates","correct","correct_Experimental_intro","correct_Introduction","correct_Practice_intro","correct_experimenter_kb","correct_response","count_End_Of_Experiment","count_End_Of_Practice","count_Experimental_Loop","count_Experimental_intro","count_Fixation","count_Introduction","count_Practice_Loop","count_Practice_intro","count_Stimulus","count_block_break_feedback","count_experimental_sequence","count_experimenter_kb","count_increment_trial_count","count_init_trial_count","count_logger","count_practice_sequence","count_right","count_task","count_wrong","datetime","description","disable_garbage_collection","experiment_file","experiment_path","font_bold","font_family","font_italic","font_size","font_underline","foreground","form_clicks","fullscreen","height","keyboard_backend","live_row","live_row_Experimental_Loop","live_row_Practice_Loop","logfile","mouse_backend","opensesame_codename","opensesame_version","osf_always_upload_data","osf_always_upload_experiment","osf_datanode_id","osf_id","repeat_cycle","response","response_End_Of_Experiment","response_Experimental_intro","response_Introduction","response_Practice_intro","response_block_break_feedback","response_experimenter_kb","response_time","response_time_End_Of_Experiment","response_time_Experimental_intro","response_time_Introduction","response_time_Practice_intro","response_time_block_break_feedback","response_time_experimenter_kb","round_decimals","sampler_backend","sound_buf_size","sound_channels","sound_freq","sound_sample_size","start","subject_nr","subject_parity","time_End_Of_Experiment","time_End_Of_Practice","time_Experimental_Loop","time_Experimental_intro","time_Fixation","time_Introduction","time_Practice_Loop","time_Practice_intro","time_Stimulus","time_block_break_feedback","time_experimental_sequence","time_experimenter_kb","time_increment_trial_count","time_init_trial_count","time_logger","time_practice_sequence","time_right","time_task","time_wrong","title","total_correct","total_response_time","total_responses","uniform_coordinates","width"
"2.594027722","9.08","8","skip","word","100","100","696.4","696.4","black","no","legacy","legacy","legacy","0","uniform","1","undefined","undefined","undefined","1","j","0","0","0","0","4","0","0","0","4","NA","0","4","0","0","0","3","4","0","4","Tue Feb 16 14:35:14 2021","The main experiment item","yes","Lexical_Decision_Task.osexp","D:/1- Uni stuff/CAL Seminars","no","Andale Mono","no","18","no","white","no","yes","576","legacy","0","0","3","D:/1- Uni stuff/CAL Seminars/subject-5226149.csv","legacy","Lentiform Loewenfeld","3.3.7","yes","yes","600bd7cfb6416f0113b04181","602110864497cf011d9c0822","0","j","NA","j","j","j","NA","j","779","NA","2747","7747","7624","NA","779","2","legacy","1024","2","48000","-16","task","5226149","odd","NA","31918","36671","33923","36726","9341","24717","17092","37228","NA","36723","37228","NA","36671","38007","30188","31381","9333","NA","Lexical Decision Task","5","3482","5","yes","1024"
"3.168400243","9.12","6","horn","word","100","100","666.8333333333334","666.8333333333334","black","no","legacy","legacy","legacy","0","uniform","1","undefined","undefined","undefined","1","j","0","0","0","0","5","0","0","0","5","NA","1","5","1","0","1","3","5","0","5","Tue Feb 16 14:35:14 2021","The main experiment item","yes","Lexical_Decision_Task.osexp","D:/1- Uni stuff/CAL Seminars","no","Andale Mono","no","18","no","white","no","yes","576","legacy","1","1","3","D:/1- Uni stuff/CAL Seminars/subject-5226149.csv","legacy","Lentiform Loewenfeld","3.3.7","yes","yes","600bd7cfb6416f0113b04181","602110864497cf011d9c0822","0","j","NA","j","j","j","NA","j","519","NA","2747","7747","7624","NA","519","2","legacy","1024","2","48000","-16","task","5226149","odd","NA","31918","36671","33923","38684","9341","24717","17092","39187","NA","38681","39187","38568","36671","39706","30188","38068","9333","NA","Lexical Decision Task","6","4001","6","yes","1024"
"3.15462682","0","6","noal","non-word","85.71428571428571","85.71428571428571","644.7142857142857","644.7142857142857","black","no","legacy","legacy","legacy","0","uniform","0","undefined","undefined","undefined","0","f","0","0","0","0","6","0","0","0","6","NA","2","6","2","0","2","3","6","0","6","Tue Feb 16 14:35:14 2021","The main experiment item","yes","Lexical_Decision_Task.osexp","D:/1- Uni stuff/CAL Seminars","no","Andale Mono","no","18","no","white","no","yes","576","legacy","2","2","3","D:/1- Uni stuff/CAL Seminars/subject-5226149.csv","legacy","Lentiform Loewenfeld","3.3.7","yes","yes","600bd7cfb6416f0113b04181","602110864497cf011d9c0822","0","j","NA","j","j","j","NA","j","512","NA","2747","7747","7624","NA","512","2","legacy","1024","2","48000","-16","task","5226149","odd","NA","31918","36671","33923","40325","9341","24717","17092","40830","NA","40323","40830","40243","36671","41342","30188","39743","9333","NA","Lexical Decision Task","6","4513","7","yes","1024"
"2.892836167","10.01","5","soft","word","87.5","87.5","639.75","639.75","black","no","legacy","legacy","legacy","0","uniform","1","undefined","undefined","undefined","1","j","0","0","0","0","7","0","0","0","7","NA","3","7","3","0","3","3","7","0","7","Tue Feb 16 14:35:14 2021","The main experiment item","yes","Lexical_Decision_Task.osexp","D:/1- Uni stuff/CAL Seminars","no","Andale Mono","no","18","no","white","no","yes","576","legacy","3","3","3","D:/1- Uni stuff/CAL Seminars/subject-5226149.csv","legacy","Lentiform Loewenfeld","3.3.7","yes","yes","600bd7cfb6416f0113b04181","602110864497cf011d9c0822","0","j","NA","j","j","j","NA","j","605","NA","2747","7747","7624","NA","605","2","legacy","1024","2","48000","-16","task","5226149","odd","NA","31918","36671","33923","42969","9341","24717","17092","43471","NA","42966","43471","42861","36671","44077","30188","39743","9333","41361","Lexical Decision Task","7","5118","8","yes","1024"
"3.105055783","0","2","norp","non-word","88.88888888888889","88.88888888888889","628.5555555555555","628.5555555555555","black","no","legacy","legacy","legacy","0","uniform","1","undefined","undefined","undefined","1","f","0","0","0","0","8","0","0","0","8","NA","4","8","4","0","4","3","8","0","8","Tue Feb 16 14:35:14 2021","The main experiment item","yes","Lexical_Decision_Task.osexp","D:/1- Uni stuff/CAL Seminars","no","Andale Mono","no","18","no","white","no","yes","576","legacy","4","4","3","D:/1- Uni stuff/CAL Seminars/subject-5226149.csv","legacy","Lentiform Loewenfeld","3.3.7","yes","yes","600bd7cfb6416f0113b04181","602110864497cf011d9c0822","0","f","NA","j","j","j","NA","f","539","NA","2747","7747","7624","NA","539","2","legacy","1024","2","48000","-16","task","5226149","odd","NA","31918","36671","33923","44683","9341","24717","17092","45185","NA","44681","45185","44594","36671","45725","30188","44094","9333","41361","Lexical Decision Task","8","5657","9","yes","1024"
"2.953276337","6.32","4","thaw","word","90","90","631.1","631.1","black","no","legacy","legacy","legacy","0","uniform","1","undefined","undefined","undefined","1","j","0","0","0","0","9","0","0","0","9","NA","5","9","5","0","5","3","9","0","9","Tue Feb 16 14:35:14 2021","The main experiment item","yes","Lexical_Decision_Task.osexp","D:/1- Uni stuff/CAL Seminars","no","Andale Mono","no","18","no","white","no","yes","576","legacy","5","5","3","D:/1- Uni stuff/CAL Seminars/subject-5226149.csv","legacy","Lentiform Loewenfeld","3.3.7","yes","yes","600bd7cfb6416f0113b04181","602110864497cf011d9c0822","0","j","NA","j","j","j","NA","j","654","NA","2747","7747","7624","NA","654","2","legacy","1024","2","48000","-16","task","5226149","odd","NA","31918","36671","33923","46337","9341","24717","17092","46842","NA","46334","46842","46245","36671","47497","30188","45745","9333","41361","Lexical Decision Task","9","6311","10","yes","1024"
"3.039414119","0","9","meep","non-word","81.81818181818181","81.81818181818181","629.7272727272727","629.7272727272727","black","no","legacy","legacy","legacy","0","uniform","0","undefined","undefined","undefined","0","f","0","0","0","0","10","0","0","0","10","NA","6","10","6","0","6","3","10","0","10","Tue Feb 16 14:35:14 2021","The main experiment item","yes","Lexical_Decision_Task.osexp","D:/1- Uni stuff/CAL Seminars","no","Andale Mono","no","18","no","white","no","yes","576","legacy","6","6","3","D:/1- Uni stuff/CAL Seminars/subject-5226149.csv","legacy","Lentiform Loewenfeld","3.3.7","yes","yes","600bd7cfb6416f0113b04181","602110864497cf011d9c0822","0","j","NA","j","j","j","NA","j","616","NA","2747","7747","7624","NA","616","2","legacy","1024","2","48000","-16","task","5226149","odd","NA","31918","36671","33923","48124","9341","24717","17092","48626","NA","48121","48627","48020","36671","49244","30188","47520","9333","41361","Lexical Decision Task","9","6927","11","yes","1024"
"2.675164031","8.57","6","glue","word","83.33333333333333","83.33333333333333","648.4166666666666","648.4166666666666","black","no","legacy","legacy","legacy","0","uniform","1","undefined","undefined","undefined","1","j","0","0","0","0","11","0","0","0","11","NA","7","11","7","0","7","3","11","0","11","Tue Feb 16 14:35:14 2021","The main experiment item","yes","Lexical_Decision_Task.osexp","D:/1- Uni stuff/CAL Seminars","no","Andale Mono","no","18","no","white","no","yes","576","legacy","7","7","3","D:/1- Uni stuff/CAL Seminars/subject-5226149.csv","legacy","Lentiform Loewenfeld","3.3.7","yes","yes","600bd7cfb6416f0113b04181","602110864497cf011d9c0822","0","j","NA","j","j","j","NA","j","854","NA","2747","7747","7624","NA","854","2","legacy","1024","2","48000","-16","task","5226149","odd","NA","31918","36671","33923","50849","9341","24717","17092","51351","NA","50847","51351","50769","36671","52206","30188","47520","9333","49269","Lexical Decision Task","10","7781","12","yes","1024"
"2.858136002","0","4","phip","non-word","76.92307692307692","76.92307692307692","634.4615384615385","634.4615384615385","black","no","legacy","legacy","legacy","0","uniform","0","undefined","undefined","undefined","0","f","0","0","0","0","12","0","0","0","12","NA","8","12","8","0","8","3","12","0","12","Tue Feb 16 14:35:14 2021","The main experiment item","yes","Lexical_Decision_Task.osexp","D:/1- Uni stuff/CAL Seminars","no","Andale Mono","no","18","no","white","no","yes","576","legacy","8","8","3","D:/1- Uni stuff/CAL Seminars/subject-5226149.csv","legacy","Lentiform Loewenfeld","3.3.7","yes","yes","600bd7cfb6416f0113b04181","602110864497cf011d9c0822","0","j","NA","j","j","j","NA","j","467","NA","2747","7747","7624","NA","467","2","legacy","1024","2","48000","-16","task","5226149","odd","NA","31918","36671","33923","52845","9341","24717","17092","53347","NA","52842","53348","52751","36671","53816","30188","52251","9333","49269","Lexical Decision Task","10","8248","13","yes","1024"
"2.6599162","0","2","saff","non-word","78.57142857142857","78.57142857142857","687.1428571428571","687.1428571428571","black","no","legacy","legacy","legacy","0","uniform","1","undefined","undefined","undefined","1","f","0","0","0","0","13","0","0","0","13","NA","9","13","9","0","9","3","13","0","13","Tue Feb 16 14:35:14 2021","The main experiment item","yes","Lexical_Decision_Task.osexp","D:/1- Uni stuff/CAL Seminars","no","Andale Mono","no","18","no","white","no","yes","576","legacy","9","9","3","D:/1- Uni stuff/CAL Seminars/subject-5226149.csv","legacy","Lentiform Loewenfeld","3.3.7","yes","yes","600bd7cfb6416f0113b04181","602110864497cf011d9c0822","0","f","NA","j","j","j","NA","f","1372","NA","2747","7747","7624","NA","1372","2","legacy","1024","2","48000","-16","task","5226149","odd","NA","31918","36671","33923","55438","9341","24717","17092","55940","NA","55436","55940","55336","36671","57312","30188","52251","9333","53836","Lexical Decision Task","11","9620","14","yes","1024"
"3.168890155","0","6","thet","non-word","80","80","680.5333333333333","680.5333333333333","black","no","legacy","legacy","legacy","0","uniform","1","undefined","undefined","undefined","1","f","0","0","0","0","14","0","0","0","14","NA","10","14","10","0","10","3","14","0","14","Tue Feb 16 14:35:14 2021","The main experiment item","yes","Lexical_Decision_Task.osexp","D:/1- Uni stuff/CAL Seminars","no","Andale Mono","no","18","no","white","no","yes","576","legacy","10","10","3","D:/1- Uni stuff/CAL Seminars/subject-5226149.csv","legacy","Lentiform Loewenfeld","3.3.7","yes","yes","600bd7cfb6416f0113b04181","602110864497cf011d9c0822","0","f","NA","j","j","j","NA","f","588","NA","2747","7747","7624","NA","588","2","legacy","1024","2","48000","-16","task","5226149","odd","NA","31918","36671","33923","57942","9341","24717","17092","58448","NA","57939","58448","57851","36671","59037","30188","57351","9333","53836","Lexical Decision Task","12","10208","15","yes","1024"
"2.668385917","5.48","4","twig","word","75","75","670.1875","670.1875","black","no","legacy","legacy","legacy","0","uniform","0","undefined","undefined","undefined","0","j","0","0","0","0","15","0","0","0","15","NA","11","15","11","0","11","3","15","0","15","Tue Feb 16 14:35:14 2021","The main experiment item","yes","Lexical_Decision_Task.osexp","D:/1- Uni stuff/CAL Seminars","no","Andale Mono","no","18","no","white","no","yes","576","legacy","11","11","3","D:/1- Uni stuff/CAL Seminars/subject-5226149.csv","legacy","Lentiform Loewenfeld","3.3.7","yes","yes","600bd7cfb6416f0113b04181","602110864497cf011d9c0822","0","f","NA","j","j","j","NA","f","515","NA","2747","7747","7624","NA","515","2","legacy","1024","2","48000","-16","task","5226149","odd","NA","31918","36671","33923","59645","9341","24717","17092","60148","NA","59643","60148","59553","36671","60664","30188","59053","9333","53836","Lexical Decision Task","12","10723","16","yes","1024"
"2.972819734","0","4","scew","non-word","76.47058823529412","76.47058823529412","689.7058823529412","689.7058823529412","black","no","legacy","legacy","legacy","0","uniform","1","undefined","undefined","undefined","1","f","0","0","0","0","16","0","0","0","16","NA","12","16","12","0","12","3","16","0","16","Tue Feb 16 14:35:14 2021","The main experiment item","yes","Lexical_Decision_Task.osexp","D:/1- Uni stuff/CAL Seminars","no","Andale Mono","no","18","no","white","no","yes","576","legacy","12","12","3","D:/1- Uni stuff/CAL Seminars/subject-5226149.csv","legacy","Lentiform Loewenfeld","3.3.7","yes","yes","600bd7cfb6416f0113b04181","602110864497cf011d9c0822","0","f","NA","j","j","j","NA","f","1002","NA","2747","7747","7624","NA","1002","2","legacy","1024","2","48000","-16","task","5226149","odd","NA","31918","36671","33923","62291","9341","24717","17092","62794","NA","62289","62794","62195","36671","63797","30188","59053","9333","60695","Lexical Decision Task","13","11725","17","yes","1024"
"3.216517684","10.87","3","film","word","77.77777777777777","77.77777777777777","683.1666666666666","683.1666666666666","black","no","legacy","legacy","legacy","0","uniform","1","undefined","undefined","undefined","1","j","0","0","0","0","17","0","0","0","17","NA","13","17","13","0","13","3","17","0","17","Tue Feb 16 14:35:14 2021","The main experiment item","yes","Lexical_Decision_Task.osexp","D:/1- Uni stuff/CAL Seminars","no","Andale Mono","no","18","no","white","no","yes","576","legacy","13","13","3","D:/1- Uni stuff/CAL Seminars/subject-5226149.csv","legacy","Lentiform Loewenfeld","3.3.7","yes","yes","600bd7cfb6416f0113b04181","602110864497cf011d9c0822","0","j","NA","j","j","j","NA","j","572","NA","2747","7747","7624","NA","572","2","legacy","1024","2","48000","-16","task","5226149","odd","NA","31918","36671","33923","64400","9341","24717","17092","64905","NA","64398","64905","64320","36671","65477","30188","63820","9333","60695","Lexical Decision Task","14","12297","18","yes","1024"
"3.302475237","0","7","leel","non-word","78.94736842105263","78.94736842105263","684.8421052631579","684.8421052631579","black","no","legacy","legacy","legacy","0","uniform","1","undefined","undefined","undefined","1","f","0","0","0","0","18","0","0","0","18","NA","14","18","14","0","14","3","18","0","18","Tue Feb 16 14:35:14 2021","The main experiment item","yes","Lexical_Decision_Task.osexp","D:/1- Uni stuff/CAL Seminars","no","Andale Mono","no","18","no","white","no","yes","576","legacy","14","14","3","D:/1- Uni stuff/CAL Seminars/subject-5226149.csv","legacy","Lentiform Loewenfeld","3.3.7","yes","yes","600bd7cfb6416f0113b04181","602110864497cf011d9c0822","0","f","NA","j","j","j","NA","f","715","NA","2747","7747","7624","NA","715","2","legacy","1024","2","48000","-16","task","5226149","odd","NA","31918","36671","33923","66083","9341","24717","17092","66589","NA","66081","66589","66001","36671","67305","30188","65501","9333","60695","Lexical Decision Task","15","13012","19","yes","1024"
"3.531734309","0","6","lerd","non-word","80","80","677","677","black","no","legacy","legacy","legacy","0","uniform","1","undefined","undefined","undefined","1","f","0","0","0","0","19","0","0","0","19","NA","15","19","15","0","15","3","19","0","19","Tue Feb 16 14:35:14 2021","The main experiment item","yes","Lexical_Decision_Task.osexp","D:/1- Uni stuff/CAL Seminars","no","Andale Mono","no","18","no","white","no","yes","576","legacy","15","15","3","D:/1- Uni stuff/CAL Seminars/subject-5226149.csv","legacy","Lentiform Loewenfeld","3.3.7","yes","yes","600bd7cfb6416f0113b04181","602110864497cf011d9c0822","0","f","NA","j","j","j","NA","f","528","NA","2747","7747","7624","NA","528","2","legacy","1024","2","48000","-16","task","5226149","odd","NA","31918","36671","33923","67934","9341","24717","17092","68439","NA","67932","68440","67840","36671","68969","30188","67340","9333","60695","Lexical Decision Task","16","13540","20","yes","1024"
"3.010582609","0","2","drod","non-word","80.95238095238095","80.95238095238095","680.1904761904761","680.1904761904761","black","no","legacy","legacy","legacy","0","uniform","1","undefined","undefined","undefined","1","f","0","0","0","0","20","0","0","0","20","NA","16","20","16","0","16","3","20","0","20","Tue Feb 16 14:35:14 2021","The main experiment item","yes","Lexical_Decision_Task.osexp","D:/1- Uni stuff/CAL Seminars","no","Andale Mono","no","18","no","white","no","yes","576","legacy","16","16","3","D:/1- Uni stuff/CAL Seminars/subject-5226149.csv","legacy","Lentiform Loewenfeld","3.3.7","yes","yes","600bd7cfb6416f0113b04181","602110864497cf011d9c0822","0","f","NA","j","j","j","NA","f","744","NA","2747","7747","7624","NA","744","2","legacy","1024","2","48000","-16","task","5226149","odd","NA","31918","36671","33923","69585","9341","24717","17092","70090","NA","69583","70090","69493","36671","70834","30188","68992","9333","60695","Lexical Decision Task","17","14284","21","yes","1024"
"2.68604012","0","3","mulb","non-word","77.27272727272727","77.27272727272727","676.1818181818181","676.1818181818181","black","no","legacy","legacy","legacy","0","uniform","0","undefined","undefined","undefined","0","f","0","0","0","0","21","0","0","0","21","NA","17","21","17","0","17","3","21","0","21","Tue Feb 16 14:35:14 2021","The main experiment item","yes","Lexical_Decision_Task.osexp","D:/1- Uni stuff/CAL Seminars","no","Andale Mono","no","18","no","white","no","yes","576","legacy","17","17","3","D:/1- Uni stuff/CAL Seminars/subject-5226149.csv","legacy","Lentiform Loewenfeld","3.3.7","yes","yes","600bd7cfb6416f0113b04181","602110864497cf011d9c0822","0","j","NA","j","j","j","NA","j","592","NA","2747","7747","7624","NA","592","2","legacy","1024","2","48000","-16","task","5226149","odd","NA","31918","36671","33923","71489","9341","24717","17092","71994","NA","71487","71994","71376","36671","72586","30188","70876","9333","60695","Lexical Decision Task","17","14876","22","yes","1024"
"2.983324025","9.56","2","debt","word","78.26086956521739","78.26086956521739","678","678","black","no","legacy","legacy","legacy","0","uniform","1","undefined","undefined","undefined","1","j","0","0","0","0","22","0","0","0","22","NA","18","22","18","0","18","3","22","0","22","Tue Feb 16 14:35:14 2021","The main experiment item","yes","Lexical_Decision_Task.osexp","D:/1- Uni stuff/CAL Seminars","no","Andale Mono","no","18","no","white","no","yes","576","legacy","18","18","3","D:/1- Uni stuff/CAL Seminars/subject-5226149.csv","legacy","Lentiform Loewenfeld","3.3.7","yes","yes","600bd7cfb6416f0113b04181","602110864497cf011d9c0822","0","j","NA","j","j","j","NA","j","718","NA","2747","7747","7624","NA","718","2","legacy","1024","2","48000","-16","task","5226149","odd","NA","31918","36671","33923","74188","9341","24717","17092","74693","NA","74186","74693","74107","36671","75412","30188","70876","9333","72607","Lexical Decision Task","18","15594","23","yes","1024"
"3.209246849","0","7","slem","non-word","79.16666666666667","79.16666666666667","668.25","668.25","black","no","legacy","legacy","legacy","0","uniform","1","undefined","undefined","undefined","1","f","0","0","0","0","23","0","0","0","23","NA","19","23","19","0","19","3","23","0","23","Tue Feb 16 14:35:14 2021","The main experiment item","yes","Lexical_Decision_Task.osexp","D:/1- Uni stuff/CAL Seminars","no","Andale Mono","no","18","no","white","no","yes","576","legacy","19","19","3","D:/1- Uni stuff/CAL Seminars/subject-5226149.csv","legacy","Lentiform Loewenfeld","3.3.7","yes","yes","600bd7cfb6416f0113b04181","602110864497cf011d9c0822","0","f","NA","j","j","j","NA","f","444","NA","2747","7747","7624","NA","444","2","legacy","1024","2","48000","-16","task","5226149","odd","NA","31918","36671","33923","76028","9341","24717","17092","76533","NA","76025","76533","75949","36671","76978","30188","75449","9333","72607","Lexical Decision Task","19","16038","24","yes","1024"
"3.14849993","10.75","7","hour","word","80","80","663.6","663.6","black","no","legacy","legacy","legacy","0","uniform","1","undefined","undefined","undefined","1","j","0","0","0","0","24","0","0","0","24","NA","20","24","20","0","20","3","24","0","24","Tue Feb 16 14:35:14 2021","The main experiment item","yes","Lexical_Decision_Task.osexp","D:/1- Uni stuff/CAL Seminars","no","Andale Mono","no","18","no","white","no","yes","576","legacy","20","20","3","D:/1- Uni stuff/CAL Seminars/subject-5226149.csv","legacy","Lentiform Loewenfeld","3.3.7","yes","yes","600bd7cfb6416f0113b04181","602110864497cf011d9c0822","0","j","NA","j","j","j","NA","j","552","NA","2747","7747","7624","NA","552","2","legacy","1024","2","48000","-16","task","5226149","odd","NA","31918","36671","33923","77588","9341","24717","17092","78093","NA","77586","78093","77510","36671","78646","30188","77010","9333","72607","Lexical Decision Task","20","16590","25","yes","1024"
"3.488597715","0","9","nain","non-word","80.76923076923077","80.76923076923077","670.1923076923077","670.1923076923077","black","no","legacy","legacy","legacy","0","uniform","1","undefined","undefined","undefined","1","f","0","0","0","0","25","0","0","0","25","NA","21","25","21","0","21","3","25","0","25","Tue Feb 16 14:35:14 2021","The main experiment item","yes","Lexical_Decision_Task.osexp","D:/1- Uni stuff/CAL Seminars","no","Andale Mono","no","18","no","white","no","yes","576","legacy","21","21","3","D:/1- Uni stuff/CAL Seminars/subject-5226149.csv","legacy","Lentiform Loewenfeld","3.3.7","yes","yes","600bd7cfb6416f0113b04181","602110864497cf011d9c0822","0","f","NA","j","j","j","NA","f","835","NA","2747","7747","7624","NA","835","2","legacy","1024","2","48000","-16","task","5226149","odd","NA","31918","36671","33923","79261","9341","24717","17092","79767","NA","79259","79767","79173","36671","80603","30188","78673","9333","72607","Lexical Decision Task","21","17425","26","yes","1024"
"3.372543801","9.24","8","coat","word","81.48148148148148","81.48148148148148","664.5185185185185","664.5185185185185","black","no","legacy","legacy","legacy","0","uniform","1","undefined","undefined","undefined","1","j","0","0","0","0","26","0","0","0","26","NA","22","26","22","0","22","3","26","0","26","Tue Feb 16 14:35:14 2021","The main experiment item","yes","Lexical_Decision_Task.osexp","D:/1- Uni stuff/CAL Seminars","no","Andale Mono","no","18","no","white","no","yes","576","legacy","22","22","3","D:/1- Uni stuff/CAL Seminars/subject-5226149.csv","legacy","Lentiform Loewenfeld","3.3.7","yes","yes","600bd7cfb6416f0113b04181","602110864497cf011d9c0822","0","j","NA","j","j","j","NA","j","517","NA","2747","7747","7624","NA","517","2","legacy","1024","2","48000","-16","task","5226149","odd","NA","31918","36671","33923","81210","9341","24717","17092","81712","NA","81207","81712","81126","36671","82231","30188","80626","9333","72607","Lexical Decision Task","22","17942","27","yes","1024"
"3.165936429","0","7","leps","non-word","82.14285714285714","82.14285714285714","661.7857142857143","661.7857142857143","black","no","legacy","legacy","legacy","0","uniform","1","undefined","undefined","undefined","1","f","0","0","0","0","27","0","0","0","27","NA","23","27","23","0","23","3","27","0","27","Tue Feb 16 14:35:14 2021","The main experiment item","yes","Lexical_Decision_Task.osexp","D:/1- Uni stuff/CAL Seminars","no","Andale Mono","no","18","no","white","no","yes","576","legacy","23","23","3","D:/1- Uni stuff/CAL Seminars/subject-5226149.csv","legacy","Lentiform Loewenfeld","3.3.7","yes","yes","600bd7cfb6416f0113b04181","602110864497cf011d9c0822","0","f","NA","j","j","j","NA","f","588","NA","2747","7747","7624","NA","588","2","legacy","1024","2","48000","-16","task","5226149","odd","NA","31918","36671","33923","83172","9341","24717","17092","83677","NA","83169","83677","83076","36671","84266","30188","82576","9333","72607","Lexical Decision Task","23","18530","28","yes","1024"
"3.474361976","5.24","6","veer","word","79.3103448275862","79.3103448275862","656.8275862068965","656.8275862068965","black","no","legacy","legacy","legacy","0","uniform","0","undefined","undefined","undefined","0","j","0","0","0","0","28","0","0","0","28","NA","24","28","24","0","24","3","28","0","28","Tue Feb 16 14:35:14 2021","The main experiment item","yes","Lexical_Decision_Task.osexp","D:/1- Uni stuff/CAL Seminars","no","Andale Mono","no","18","no","white","no","yes","576","legacy","24","24","3","D:/1- Uni stuff/CAL Seminars/subject-5226149.csv","legacy","Lentiform Loewenfeld","3.3.7","yes","yes","600bd7cfb6416f0113b04181","602110864497cf011d9c0822","0","f","NA","j","j","j","NA","f","518","NA","2747","7747","7624","NA","518","2","legacy","1024","2","48000","-16","task","5226149","odd","NA","31918","36671","33923","84892","9341","24717","17092","85397","NA","84889","85397","84807","36671","85916","30188","84307","9333","72607","Lexical Decision Task","23","19048","29","yes","1024"
"2.664011697","8.19","4","hawk","word","80","80","652.1666666666666","652.1666666666666","black","no","legacy","legacy","legacy","0","uniform","1","undefined","undefined","undefined","1","j","0","0","0","0","29","0","0","0","29","NA","25","29","25","0","25","3","29","0","29","Tue Feb 16 14:35:14 2021","The main experiment item","yes","Lexical_Decision_Task.osexp","D:/1- Uni stuff/CAL Seminars","no","Andale Mono","no","18","no","white","no","yes","576","legacy","25","25","3","D:/1- Uni stuff/CAL Seminars/subject-5226149.csv","legacy","Lentiform Loewenfeld","3.3.7","yes","yes","600bd7cfb6416f0113b04181","602110864497cf011d9c0822","0","j","NA","j","j","j","NA","j","517","NA","2747","7747","7624","NA","517","2","legacy","1024","2","48000","-16","task","5226149","odd","NA","31918","36671","33923","87537","9341","24717","17092","88042","NA","87534","88042","87456","36671","88560","30188","84307","9333","85956","Lexical Decision Task","24","19565","30","yes","1024"
"2.972357144","0","5","dasp","non-word","80.64516129032258","80.64516129032258","652.6451612903226","652.6451612903226","black","no","legacy","legacy","legacy","0","uniform","1","undefined","undefined","undefined","1","f","0","0","0","0","30","0","0","0","30","NA","26","30","26","0","26","3","30","0","30","Tue Feb 16 14:35:14 2021","The main experiment item","yes","Lexical_Decision_Task.osexp","D:/1- Uni stuff/CAL Seminars","no","Andale Mono","no","18","no","white","no","yes","576","legacy","26","26","3","D:/1- Uni stuff/CAL Seminars/subject-5226149.csv","legacy","Lentiform Loewenfeld","3.3.7","yes","yes","600bd7cfb6416f0113b04181","602110864497cf011d9c0822","0","f","NA","j","j","j","NA","f","667","NA","2747","7747","7624","NA","667","2","legacy","1024","2","48000","-16","task","5226149","odd","NA","31918","36671","33923","89159","9341","24717","17092","89664","NA","89157","89665","89081","36671","90333","30188","88581","9333","85956","Lexical Decision Task","25","20232","31","yes","1024"
"3.119255889","6.63","2","itch","word","81.25","81.25","649.96875","649.96875","black","no","legacy","legacy","legacy","0","uniform","1","undefined","undefined","undefined","1","j","0","0","0","0","31","0","0","0","31","NA","27","31","27","0","27","3","31","0","31","Tue Feb 16 14:35:14 2021","The main experiment item","yes","Lexical_Decision_Task.osexp","D:/1- Uni stuff/CAL Seminars","no","Andale Mono","no","18","no","white","no","yes","576","legacy","27","27","3","D:/1- Uni stuff/CAL Seminars/subject-5226149.csv","legacy","Lentiform Loewenfeld","3.3.7","yes","yes","600bd7cfb6416f0113b04181","602110864497cf011d9c0822","0","j","NA","j","j","j","NA","j","567","NA","2747","7747","7624","NA","567","2","legacy","1024","2","48000","-16","task","5226149","odd","NA","31918","36671","33923","90943","9341","24717","17092","91448","NA","90941","91448","90850","36671","92016","30188","90350","9333","85956","Lexical Decision Task","26","20799","32","yes","1024"
"3.368162872","0","4","ferk","non-word","81.81818181818181","81.81818181818181","645.2727272727273","645.2727272727273","black","no","legacy","legacy","legacy","0","uniform","1","undefined","undefined","undefined","1","f","0","0","0","0","32","0","0","0","32","NA","28","32","28","0","28","3","32","0","32","Tue Feb 16 14:35:14 2021","The main experiment item","yes","Lexical_Decision_Task.osexp","D:/1- Uni stuff/CAL Seminars","no","Andale Mono","no","18","no","white","no","yes","576","legacy","28","28","3","D:/1- Uni stuff/CAL Seminars/subject-5226149.csv","legacy","Lentiform Loewenfeld","3.3.7","yes","yes","600bd7cfb6416f0113b04181","602110864497cf011d9c0822","0","f","NA","j","j","j","NA","f","495","NA","2747","7747","7624","NA","495","2","legacy","1024","2","48000","-16","task","5226149","odd","NA","31918","36671","33923","92738","9341","24717","17092","93243","NA","92736","93243","92647","36671","93739","30188","92147","9333","85956","Lexical Decision Task","27","21294","33","yes","1024"
"2.755364069","7.72","2","hoax","word","82.3529411764706","82.3529411764706","641.7352941176471","641.7352941176471","black","no","legacy","legacy","legacy","0","uniform","1","undefined","undefined","undefined","1","j","0","0","0","0","33","0","0","0","33","NA","29","33","29","0","29","3","33","0","33","Tue Feb 16 14:35:14 2021","The main experiment item","yes","Lexical_Decision_Task.osexp","D:/1- Uni stuff/CAL Seminars","no","Andale Mono","no","18","no","white","no","yes","576","legacy","29","29","3","D:/1- Uni stuff/CAL Seminars/subject-5226149.csv","legacy","Lentiform Loewenfeld","3.3.7","yes","yes","600bd7cfb6416f0113b04181","602110864497cf011d9c0822","0","j","NA","j","j","j","NA","j","525","NA","2747","7747","7624","NA","525","2","legacy","1024","2","48000","-16","task","5226149","odd","NA","31918","36671","33923","94383","9341","24717","17092","94885","NA","94381","94885","94301","36671","95411","30188","93801","9333","85956","Lexical Decision Task","28","21819","34","yes","1024"
"3.028977705","0","7","frow","non-word","82.85714285714286","82.85714285714286","643.3428571428572","643.3428571428572","black","no","legacy","legacy","legacy","0","uniform","1","undefined","undefined","undefined","1","f","0","0","0","0","34","0","0","0","34","NA","30","34","30","0","30","3","34","0","34","Tue Feb 16 14:35:14 2021","The main experiment item","yes","Lexical_Decision_Task.osexp","D:/1- Uni stuff/CAL Seminars","no","Andale Mono","no","18","no","white","no","yes","576","legacy","30","30","3","D:/1- Uni stuff/CAL Seminars/subject-5226149.csv","legacy","Lentiform Loewenfeld","3.3.7","yes","yes","600bd7cfb6416f0113b04181","602110864497cf011d9c0822","0","f","NA","j","j","j","NA","f","698","NA","2747","7747","7624","NA","698","2","legacy","1024","2","48000","-16","task","5226149","odd","NA","31918","36671","33923","96016","9341","24717","17092","96521","NA","96014","96522","95932","36671","97221","30188","95432","9333","85956","Lexical Decision Task","29","22517","35","yes","1024"
"2.990042563","6.64","9","plow","word","80.55555555555556","80.55555555555556","638.1111111111111","638.1111111111111","black","no","legacy","legacy","legacy","0","uniform","0","undefined","undefined","undefined","0","j","0","0","0","0","35","0","0","0","35","NA","31","35","31","0","31","3","35","0","35","Tue Feb 16 14:35:14 2021","The main experiment item","yes","Lexical_Decision_Task.osexp","D:/1- Uni stuff/CAL Seminars","no","Andale Mono","no","18","no","white","no","yes","576","legacy","31","31","3","D:/1- Uni stuff/CAL Seminars/subject-5226149.csv","legacy","Lentiform Loewenfeld","3.3.7","yes","yes","600bd7cfb6416f0113b04181","602110864497cf011d9c0822","0","f","NA","j","j","j","NA","f","455","NA","2747","7747","7624","NA","455","2","legacy","1024","2","48000","-16","task","5226149","odd","NA","31918","36671","33923","97841","9341","24717","17092","98345","NA","97839","98345","97742","36671","98801","30188","97242","9333","85956","Lexical Decision Task","29","22972","36","yes","1024"
"2.69019608","9.01","2","myth","word","81.08108108108108","81.08108108108108","633.972972972973","633.972972972973","black","no","legacy","legacy","legacy","0","uniform","1","undefined","undefined","undefined","1","j","0","0","0","0","36","0","0","0","36","NA","32","36","32","0","32","3","36","0","36","Tue Feb 16 14:35:14 2021","The main experiment item","yes","Lexical_Decision_Task.osexp","D:/1- Uni stuff/CAL Seminars","no","Andale Mono","no","18","no","white","no","yes","576","legacy","32","32","3","D:/1- Uni stuff/CAL Seminars/subject-5226149.csv","legacy","Lentiform Loewenfeld","3.3.7","yes","yes","600bd7cfb6416f0113b04181","602110864497cf011d9c0822","0","j","NA","j","j","j","NA","j","485","NA","2747","7747","7624","NA","485","2","legacy","1024","2","48000","-16","task","5226149","odd","NA","31918","36671","33923","100443","9341","24717","17092","100946","NA","100441","100947","100343","36671","101433","30188","97242","9333","98843","Lexical Decision Task","30","23457","37","yes","1024"
"2.895974732","6.65","5","sift","word","78.94736842105263","78.94736842105263","640.921052631579","640.921052631579","black","no","legacy","legacy","legacy","0","uniform","0","undefined","undefined","undefined","0","j","0","0","0","0","37","0","0","0","37","NA","33","37","33","0","33","3","37","0","37","Tue Feb 16 14:35:14 2021","The main experiment item","yes","Lexical_Decision_Task.osexp","D:/1- Uni stuff/CAL Seminars","no","Andale Mono","no","18","no","white","no","yes","576","legacy","33","33","3","D:/1- Uni stuff/CAL Seminars/subject-5226149.csv","legacy","Lentiform Loewenfeld","3.3.7","yes","yes","600bd7cfb6416f0113b04181","602110864497cf011d9c0822","0","f","NA","j","j","j","NA","f","898","NA","2747","7747","7624","NA","898","2","legacy","1024","2","48000","-16","task","5226149","odd","NA","31918","36671","33923","102066","9341","24717","17092","102571","NA","102063","102571","101968","36671","103470","30188","101468","9333","98843","Lexical Decision Task","30","24355","38","yes","1024"
"3.149629599","0","2","cleb","non-word","79.48717948717949","79.48717948717949","643.1282051282051","643.1282051282051","black","no","legacy","legacy","legacy","0","uniform","1","undefined","undefined","undefined","1","f","0","0","0","0","38","0","0","0","38","NA","34","38","34","0","34","3","38","0","38","Tue Feb 16 14:35:14 2021","The main experiment item","yes","Lexical_Decision_Task.osexp","D:/1- Uni stuff/CAL Seminars","no","Andale Mono","no","18","no","white","no","yes","576","legacy","34","34","3","D:/1- Uni stuff/CAL Seminars/subject-5226149.csv","legacy","Lentiform Loewenfeld","3.3.7","yes","yes","600bd7cfb6416f0113b04181","602110864497cf011d9c0822","0","f","NA","j","j","j","NA","f","727","NA","2747","7747","7624","NA","727","2","legacy","1024","2","48000","-16","task","5226149","odd","NA","31918","36671","33923","105092","9341","24717","17092","105598","NA","105090","105599","104993","36671","106327","30188","101468","9333","103493","Lexical Decision Task","31","25082","39","yes","1024"
"2.782472624","10.55","2","huge","word","80","80","647.925","647.925","black","no","legacy","legacy","legacy","0","uniform","1","undefined","undefined","undefined","1","j","0","0","0","0","39","0","0","0","39","NA","35","39","35","0","35","3","39","0","39","Tue Feb 16 14:35:14 2021","The main experiment item","yes","Lexical_Decision_Task.osexp","D:/1- Uni stuff/CAL Seminars","no","Andale Mono","no","18","no","white","no","yes","576","legacy","35","35","3","D:/1- Uni stuff/CAL Seminars/subject-5226149.csv","legacy","Lentiform Loewenfeld","3.3.7","yes","yes","600bd7cfb6416f0113b04181","602110864497cf011d9c0822","0","j","NA","j","j","j","NA","j","835","NA","2747","7747","7624","NA","835","2","legacy","1024","2","48000","-16","task","5226149","odd","NA","31918","36671","33923","106961","9341","24717","17092","107466","NA","106958","107466","106868","36671","108302","30188","106368","9333","103493","Lexical Decision Task","32","25917","40","yes","1024"
"2.708989954","9.28","9","bowl","word","78.04878048780488","78.04878048780488","644.219512195122","644.219512195122","black","no","legacy","legacy","legacy","0","uniform","0","undefined","undefined","undefined","0","j","0","0","0","0","40","0","0","0","40","NA","36","40","36","0","36","3","40","0","40","Tue Feb 16 14:35:14 2021","The main experiment item","yes","Lexical_Decision_Task.osexp","D:/1- Uni stuff/CAL Seminars","no","Andale Mono","no","18","no","white","no","yes","576","legacy","36","36","3","D:/1- Uni stuff/CAL Seminars/subject-5226149.csv","legacy","Lentiform Loewenfeld","3.3.7","yes","yes","600bd7cfb6416f0113b04181","602110864497cf011d9c0822","0","f","NA","j","j","j","NA","f","496","NA","2747","7747","7624","NA","496","2","legacy","1024","2","48000","-16","task","5226149","odd","NA","31918","36671","33923","108954","9341","24717","17092","109456","NA","108951","109457","108864","36671","109954","30188","108364","9333","103493","Lexical Decision Task","32","26413","41","yes","1024"
"3.043885998","0","9","gome","non-word","78.57142857142857","78.57142857142857","646.8095238095239","646.8095238095239","black","no","legacy","legacy","legacy","0","uniform","1","undefined","undefined","undefined","1","f","0","0","0","0","41","0","0","0","41","NA","37","41","37","0","37","3","41","0","41","Tue Feb 16 14:35:14 2021","The main experiment item","yes","Lexical_Decision_Task.osexp","D:/1- Uni stuff/CAL Seminars","no","Andale Mono","no","18","no","white","no","yes","576","legacy","37","37","3","D:/1- Uni stuff/CAL Seminars/subject-5226149.csv","legacy","Lentiform Loewenfeld","3.3.7","yes","yes","600bd7cfb6416f0113b04181","602110864497cf011d9c0822","0","f","NA","j","j","j","NA","f","753","NA","2747","7747","7624","NA","753","2","legacy","1024","2","48000","-16","task","5226149","odd","NA","31918","36671","33923","111586","9341","24717","17092","112091","NA","111583","112091","111489","36671","112845","30188","108364","9333","109989","Lexical Decision Task","33","27166","42","yes","1024"
"2.714888338","0","3","brug","non-word","76.74418604651163","76.74418604651163","641.4418604651163","641.4418604651163","black","no","legacy","legacy","legacy","0","uniform","0","undefined","undefined","undefined","0","f","0","0","0","0","42","0","0","0","42","NA","38","42","38","0","38","3","42","0","42","Tue Feb 16 14:35:14 2021","The main experiment item","yes","Lexical_Decision_Task.osexp","D:/1- Uni stuff/CAL Seminars","no","Andale Mono","no","18","no","white","no","yes","576","legacy","38","38","3","D:/1- Uni stuff/CAL Seminars/subject-5226149.csv","legacy","Lentiform Loewenfeld","3.3.7","yes","yes","600bd7cfb6416f0113b04181","602110864497cf011d9c0822","0","j","NA","j","j","j","NA","j","416","NA","2747","7747","7624","NA","416","2","legacy","1024","2","48000","-16","task","5226149","odd","NA","31918","36671","33923","113455","9341","24717","17092","113957","NA","113453","113958","113372","36671","114375","30188","112872","9333","109989","Lexical Decision Task","33","27582","43","yes","1024"
"3.347850856","10.51","2","rich","word","77.27272727272727","77.27272727272727","640.4772727272727","640.4772727272727","black","no","legacy","legacy","legacy","0","uniform","1","undefined","undefined","undefined","1","j","0","0","0","0","43","0","0","0","43","NA","39","43","39","0","39","3","43","0","43","Tue Feb 16 14:35:14 2021","The main experiment item","yes","Lexical_Decision_Task.osexp","D:/1- Uni stuff/CAL Seminars","no","Andale Mono","no","18","no","white","no","yes","576","legacy","39","39","3","D:/1- Uni stuff/CAL Seminars/subject-5226149.csv","legacy","Lentiform Loewenfeld","3.3.7","yes","yes","600bd7cfb6416f0113b04181","602110864497cf011d9c0822","0","j","NA","j","j","j","NA","j","599","NA","2747","7747","7624","NA","599","2","legacy","1024","2","48000","-16","task","5226149","odd","NA","31918","36671","33923","116011","9341","24717","17092","116516","NA","116008","116516","115909","36671","117116","30188","112872","9333","114409","Lexical Decision Task","34","28181","44","yes","1024"
"2.812467698","0","7","hafe","non-word","77.77777777777777","77.77777777777777","643.4888888888889","643.4888888888889","black","no","legacy","legacy","legacy","0","uniform","1","undefined","undefined","undefined","1","f","0","0","0","0","44","0","0","0","44","NA","40","44","40","0","40","3","44","0","44","Tue Feb 16 14:35:14 2021","The main experiment item","yes","Lexical_Decision_Task.osexp","D:/1- Uni stuff/CAL Seminars","no","Andale Mono","no","18","no","white","no","yes","576","legacy","40","40","3","D:/1- Uni stuff/CAL Seminars/subject-5226149.csv","legacy","Lentiform Loewenfeld","3.3.7","yes","yes","600bd7cfb6416f0113b04181","602110864497cf011d9c0822","0","f","NA","j","j","j","NA","f","776","NA","2747","7747","7624","NA","776","2","legacy","1024","2","48000","-16","task","5226149","odd","NA","31918","36671","33923","117763","9341","24717","17092","118268","NA","117761","118268","117659","36671","119045","30188","117159","9333","114409","Lexical Decision Task","35","28957","45","yes","1024"
"3.121778632","0","9","sark","non-word","78.26086956521739","78.26086956521739","642.1739130434783","642.1739130434783","black","no","legacy","legacy","legacy","0","uniform","1","undefined","undefined","undefined","1","f","0","0","0","0","45","0","0","0","45","NA","41","45","41","0","41","3","45","0","45","Tue Feb 16 14:35:14 2021","The main experiment item","yes","Lexical_Decision_Task.osexp","D:/1- Uni stuff/CAL Seminars","no","Andale Mono","no","18","no","white","no","yes","576","legacy","41","41","3","D:/1- Uni stuff/CAL Seminars/subject-5226149.csv","legacy","Lentiform Loewenfeld","3.3.7","yes","yes","600bd7cfb6416f0113b04181","602110864497cf011d9c0822","0","f","NA","j","j","j","NA","f","583","NA","2747","7747","7624","NA","583","2","legacy","1024","2","48000","-16","task","5226149","odd","NA","31918","36671","33923","119681","9341","24717","17092","120186","NA","119677","120186","119581","36671","120770","30188","119080","9333","114409","Lexical Decision Task","36","29540","46","yes","1024"
"3.397302518","7.01","2","knit","word","76.59574468085107","76.59574468085107","638.4468085106383","638.4468085106383","black","no","legacy","legacy","legacy","0","uniform","0","undefined","undefined","undefined","0","j","0","0","0","0","46","0","0","0","46","NA","42","46","42","0","42","3","46","0","46","Tue Feb 16 14:35:14 2021","The main experiment item","yes","Lexical_Decision_Task.osexp","D:/1- Uni stuff/CAL Seminars","no","Andale Mono","no","18","no","white","no","yes","576","legacy","42","42","3","D:/1- Uni stuff/CAL Seminars/subject-5226149.csv","legacy","Lentiform Loewenfeld","3.3.7","yes","yes","600bd7cfb6416f0113b04181","602110864497cf011d9c0822","0","f","NA","j","j","j","NA","f","467","NA","2747","7747","7624","NA","467","2","legacy","1024","2","48000","-16","task","5226149","odd","NA","31918","36671","33923","121389","9341","24717","17092","121892","NA","121387","121892","121301","36671","122360","30188","120801","9333","114409","Lexical Decision Task","36","30007","47","yes","1024"
"3.382617311","0","4","pret","non-word","77.08333333333333","77.08333333333333","637.125","637.125","black","no","legacy","legacy","legacy","0","uniform","1","undefined","undefined","undefined","1","f","0","0","0","0","47","0","0","0","47","NA","43","47","43","0","43","3","47","0","47","Tue Feb 16 14:35:14 2021","The main experiment item","yes","Lexical_Decision_Task.osexp","D:/1- Uni stuff/CAL Seminars","no","Andale Mono","no","18","no","white","no","yes","576","legacy","43","43","3","D:/1- Uni stuff/CAL Seminars/subject-5226149.csv","legacy","Lentiform Loewenfeld","3.3.7","yes","yes","600bd7cfb6416f0113b04181","602110864497cf011d9c0822","0","f","NA","j","j","j","NA","f","575","NA","2747","7747","7624","NA","575","2","legacy","1024","2","48000","-16","task","5226149","odd","NA","31918","36671","33923","123991","9341","24717","17092","124493","NA","123989","124494","123890","36671","125070","30188","120801","9333","122389","Lexical Decision Task","37","30582","48","yes","1024"
"2.920123326","7.43","4","duel","word","77.55102040816327","77.55102040816327","634.0408163265306","634.0408163265306","black","no","legacy","legacy","legacy","0","uniform","1","undefined","undefined","undefined","1","j","0","0","0","0","48","0","0","0","48","NA","44","48","44","0","44","3","48","0","48","Tue Feb 16 14:35:14 2021","The main experiment item","yes","Lexical_Decision_Task.osexp","D:/1- Uni stuff/CAL Seminars","no","Andale Mono","no","18","no","white","no","yes","576","legacy","44","44","3","D:/1- Uni stuff/CAL Seminars/subject-5226149.csv","legacy","Lentiform Loewenfeld","3.3.7","yes","yes","600bd7cfb6416f0113b04181","602110864497cf011d9c0822","0","j","NA","j","j","j","NA","j","486","NA","2747","7747","7624","NA","486","2","legacy","1024","2","48000","-16","task","5226149","odd","NA","31918","36671","33923","125704","9341","24717","17092","126209","NA","125702","126209","125609","36671","126696","30188","125109","9333","122389","Lexical Decision Task","38","31068","49","yes","1024"
"2.803231716","5.26","3","kiln","word","76","76","632.66","632.66","black","no","legacy","legacy","legacy","0","uniform","0","undefined","undefined","undefined","0","j","0","0","0","0","49","0","0","0","49","NA","45","49","45","0","45","3","49","0","49","Tue Feb 16 14:35:14 2021","The main experiment item","yes","Lexical_Decision_Task.osexp","D:/1- Uni stuff/CAL Seminars","no","Andale Mono","no","18","no","white","no","yes","576","legacy","45","45","3","D:/1- Uni stuff/CAL Seminars/subject-5226149.csv","legacy","Lentiform Loewenfeld","3.3.7","yes","yes","600bd7cfb6416f0113b04181","602110864497cf011d9c0822","0","f","NA","j","j","j","NA","f","565","NA","2747","7747","7624","NA","565","2","legacy","1024","2","48000","-16","task","5226149","odd","NA","31918","36671","33923","127314","9341","24717","17092","127819","NA","127312","127819","127234","36671","128385","30188","126734","9333","122389","Lexical Decision Task","38","31633","50","yes","1024"
"2.703007489","8.37","3","pulp","word","76.47058823529412","76.47058823529412","639.8039215686274","639.8039215686274","black","no","legacy","legacy","legacy","0","uniform","1","undefined","undefined","undefined","1","j","0","0","0","0","50","0","0","0","50","NA","46","50","46","0","46","3","50","0","50","Tue Feb 16 14:35:14 2021","The main experiment item","yes","Lexical_Decision_Task.osexp","D:/1- Uni stuff/CAL Seminars","no","Andale Mono","no","18","no","white","no","yes","576","legacy","46","46","3","D:/1- Uni stuff/CAL Seminars/subject-5226149.csv","legacy","Lentiform Loewenfeld","3.3.7","yes","yes","600bd7cfb6416f0113b04181","602110864497cf011d9c0822","0","j","NA","j","j","j","NA","j","997","NA","2747","7747","7624","NA","997","2","legacy","1024","2","48000","-16","task","5226149","odd","NA","31918","36671","33923","129991","9341","24717","17092","130494","NA","129988","130494","129913","36671","131492","30188","126734","9333","128413","Lexical Decision Task","39","32630","51","yes","1024"
"3.705778213","0","6","stin","non-word","76.92307692307692","76.92307692307692","649.5","649.5","black","no","legacy","legacy","legacy","0","uniform","1","undefined","undefined","undefined","1","f","0","0","0","0","51","0","0","0","51","NA","47","51","47","0","47","3","51","0","51","Tue Feb 16 14:35:14 2021","The main experiment item","yes","Lexical_Decision_Task.osexp","D:/1- Uni stuff/CAL Seminars","no","Andale Mono","no","18","no","white","no","yes","576","legacy","47","47","3","D:/1- Uni stuff/CAL Seminars/subject-5226149.csv","legacy","Lentiform Loewenfeld","3.3.7","yes","yes","600bd7cfb6416f0113b04181","602110864497cf011d9c0822","0","f","NA","j","j","j","NA","f","1144","NA","2747","7747","7624","NA","1144","2","legacy","1024","2","48000","-16","task","5226149","odd","NA","31918","36671","33923","132130","9341","24717","17092","132633","NA","132128","132633","132034","36671","133778","30188","131534","9333","128413","Lexical Decision Task","40","33774","52","yes","1024"
"3.049218023","7.4","9","robe","word","77.35849056603773","77.35849056603773","650.3207547169811","650.3207547169811","black","no","legacy","legacy","legacy","0","uniform","1","undefined","undefined","undefined","1","j","0","0","0","0","52","0","0","0","52","NA","48","52","48","0","48","3","52","0","52","Tue Feb 16 14:35:14 2021","The main experiment item","yes","Lexical_Decision_Task.osexp","D:/1- Uni stuff/CAL Seminars","no","Andale Mono","no","18","no","white","no","yes","576","legacy","48","48","3","D:/1- Uni stuff/CAL Seminars/subject-5226149.csv","legacy","Lentiform Loewenfeld","3.3.7","yes","yes","600bd7cfb6416f0113b04181","602110864497cf011d9c0822","0","j","NA","j","j","j","NA","j","693","NA","2747","7747","7624","NA","693","2","legacy","1024","2","48000","-16","task","5226149","odd","NA","31918","36671","33923","134399","9341","24717","17092","134904","NA","134396","134904","134313","36671","135598","30188","133813","9333","128413","Lexical Decision Task","41","34467","53","yes","1024"
"2.86332286","6.71","2","feud","word","77.77777777777777","77.77777777777777","662.5","662.5","black","no","legacy","legacy","legacy","0","uniform","1","undefined","undefined","undefined","1","j","0","0","0","0","53","0","0","0","53","NA","49","53","49","0","49","3","53","0","53","Tue Feb 16 14:35:14 2021","The main experiment item","yes","Lexical_Decision_Task.osexp","D:/1- Uni stuff/CAL Seminars","no","Andale Mono","no","18","no","white","no","yes","576","legacy","49","49","3","D:/1- Uni stuff/CAL Seminars/subject-5226149.csv","legacy","Lentiform Loewenfeld","3.3.7","yes","yes","600bd7cfb6416f0113b04181","602110864497cf011d9c0822","0","j","NA","j","j","j","NA","j","1308","NA","2747","7747","7624","NA","1308","2","legacy","1024","2","48000","-16","task","5226149","odd","NA","31918","36671","33923","136215","9341","24717","17092","136720","NA","136213","136720","136126","36671","138029","30188","135626","9333","128413","Lexical Decision Task","42","35775","54","yes","1024"
"3.282244367","0","6","fute","non-word","78.18181818181819","78.18181818181819","682.1636363636363","682.1636363636363","black","no","legacy","legacy","legacy","0","uniform","1","undefined","undefined","undefined","1","f","0","0","0","0","54","0","0","0","54","0","50","54","50","0","50","3","54","0","54","Tue Feb 16 14:35:14 2021","The main experiment item","yes","Lexical_Decision_Task.osexp","D:/1- Uni stuff/CAL Seminars","no","Andale Mono","no","18","no","white","no","yes","576","legacy","50","50","3","D:/1- Uni stuff/CAL Seminars/subject-5226149.csv","legacy","Lentiform Loewenfeld","3.3.7","yes","yes","600bd7cfb6416f0113b04181","602110864497cf011d9c0822","0","f","NA","j","j","j","return","f","1744","NA","2747","7747","7624","24636","1744","2","legacy","1024","2","48000","-16","task","5226149","odd","NA","31918","36671","33923","163328","9341","24717","17092","163830","138604","163326","163830","138564","36671","165575","30188","138064","9333","128413","Lexical Decision Task","43","37519","55","yes","1024"
"3.064581521","5.51","6","cask","word","76.78571428571429","76.78571428571429","692.7857142857143","692.7857142857143","black","no","legacy","legacy","legacy","0","uniform","0","undefined","undefined","undefined","0","j","0","0","0","0","55","0","0","0","55","0","51","55","51","0","51","3","55","0","55","Tue Feb 16 14:35:14 2021","The main experiment item","yes","Lexical_Decision_Task.osexp","D:/1- Uni stuff/CAL Seminars","no","Andale Mono","no","18","no","white","no","yes","576","legacy","51","51","3","D:/1- Uni stuff/CAL Seminars/subject-5226149.csv","legacy","Lentiform Loewenfeld","3.3.7","yes","yes","600bd7cfb6416f0113b04181","602110864497cf011d9c0822","0","f","NA","j","j","j","return","f","1277","NA","2747","7747","7624","24636","1277","2","legacy","1024","2","48000","-16","task","5226149","odd","NA","31918","36671","33923","166222","9341","24717","17092","166727","138604","166219","166727","166109","36671","168005","30188","165609","9333","128413","Lexical Decision Task","43","38796","56","yes","1024"
"2.767650507","0","6","yolt","non-word","77.19298245614036","77.19298245614036","694.3508771929825","694.3508771929825","black","no","legacy","legacy","legacy","0","uniform","1","undefined","undefined","undefined","1","f","0","0","0","0","56","0","0","0","56","0","52","56","52","0","52","3","56","0","56","Tue Feb 16 14:35:14 2021","The main experiment item","yes","Lexical_Decision_Task.osexp","D:/1- Uni stuff/CAL Seminars","no","Andale Mono","no","18","no","white","no","yes","576","legacy","52","52","3","D:/1- Uni stuff/CAL Seminars/subject-5226149.csv","legacy","Lentiform Loewenfeld","3.3.7","yes","yes","600bd7cfb6416f0113b04181","602110864497cf011d9c0822","0","f","NA","j","j","j","return","f","782","NA","2747","7747","7624","24636","782","2","legacy","1024","2","48000","-16","task","5226149","odd","NA","31918","36671","33923","169620","9341","24717","17092","170122","138604","169617","170123","169538","36671","170907","30188","165609","9333","168038","Lexical Decision Task","44","39578","57","yes","1024"
"3.076883066","0","8","mout","non-word","75.86206896551724","75.86206896551724","689.8448275862069","689.8448275862069","black","no","legacy","legacy","legacy","0","uniform","0","undefined","undefined","undefined","0","f","0","0","0","0","57","0","0","0","57","0","53","57","53","0","53","3","57","0","57","Tue Feb 16 14:35:14 2021","The main experiment item","yes","Lexical_Decision_Task.osexp","D:/1- Uni stuff/CAL Seminars","no","Andale Mono","no","18","no","white","no","yes","576","legacy","53","53","3","D:/1- Uni stuff/CAL Seminars/subject-5226149.csv","legacy","Lentiform Loewenfeld","3.3.7","yes","yes","600bd7cfb6416f0113b04181","602110864497cf011d9c0822","0","j","NA","j","j","j","return","j","433","NA","2747","7747","7624","24636","433","2","legacy","1024","2","48000","-16","task","5226149","odd","NA","31918","36671","33923","171541","9341","24717","17092","172046","138604","171538","172047","171442","36671","172481","30188","170942","9333","168038","Lexical Decision Task","44","40011","58","yes","1024"
"2.8162413","0","5","nusk","non-word","76.27118644067797","76.27118644067797","695.542372881356","695.542372881356","black","no","legacy","legacy","legacy","0","uniform","1","undefined","undefined","undefined","1","f","0","0","0","0","58","0","0","0","58","0","54","58","54","0","54","3","58","0","58","Tue Feb 16 14:35:14 2021","The main experiment item","yes","Lexical_Decision_Task.osexp","D:/1- Uni stuff/CAL Seminars","no","Andale Mono","no","18","no","white","no","yes","576","legacy","54","54","3","D:/1- Uni stuff/CAL Seminars/subject-5226149.csv","legacy","Lentiform Loewenfeld","3.3.7","yes","yes","600bd7cfb6416f0113b04181","602110864497cf011d9c0822","0","f","NA","j","j","j","return","f","1026","NA","2747","7747","7624","24636","1026","2","legacy","1024","2","48000","-16","task","5226149","odd","NA","31918","36671","33923","174103","9341","24717","17092","174608","138604","174100","174608","174013","36671","175636","30188","170942","9333","172513","Lexical Decision Task","45","41037","59","yes","1024"
"3.374137706","10.21","4","tree","word","76.66666666666667","76.66666666666667","696.3833333333333","696.3833333333333","black","no","legacy","legacy","legacy","0","uniform","1","undefined","undefined","undefined","1","j","0","0","0","0","59","0","0","0","59","0","55","59","55","0","55","3","59","0","59","Tue Feb 16 14:35:14 2021","The main experiment item","yes","Lexical_Decision_Task.osexp","D:/1- Uni stuff/CAL Seminars","no","Andale Mono","no","18","no","white","no","yes","576","legacy","55","55","3","D:/1- Uni stuff/CAL Seminars/subject-5226149.csv","legacy","Lentiform Loewenfeld","3.3.7","yes","yes","600bd7cfb6416f0113b04181","602110864497cf011d9c0822","0","j","NA","j","j","j","return","j","746","NA","2747","7747","7624","24636","746","2","legacy","1024","2","48000","-16","task","5226149","odd","NA","31918","36671","33923","176278","9341","24717","17092","176780","138604","176275","176781","176175","36671","177528","30188","175675","9333","172513","Lexical Decision Task","46","41783","60","yes","1024"
"3.091901331","0","9","nipe","non-word","77.04918032786885","77.04918032786885","697.8032786885246","697.8032786885246","black","no","legacy","legacy","legacy","0","uniform","1","undefined","undefined","undefined","1","f","0","0","0","0","60","0","0","0","60","0","56","60","56","0","56","3","60","0","60","Tue Feb 16 14:35:14 2021","The main experiment item","yes","Lexical_Decision_Task.osexp","D:/1- Uni stuff/CAL Seminars","no","Andale Mono","no","18","no","white","no","yes","576","legacy","56","56","3","D:/1- Uni stuff/CAL Seminars/subject-5226149.csv","legacy","Lentiform Loewenfeld","3.3.7","yes","yes","600bd7cfb6416f0113b04181","602110864497cf011d9c0822","0","f","NA","j","j","j","return","f","783","NA","2747","7747","7624","24636","783","2","legacy","1024","2","48000","-16","task","5226149","odd","NA","31918","36671","33923","178139","9341","24717","17092","178644","138604","178137","178644","178055","36671","179428","30188","177555","9333","172513","Lexical Decision Task","47","42566","61","yes","1024"
"2.696356389","0","1","pizz","non-word","77.41935483870968","77.41935483870968","699.6612903225806","699.6612903225806","black","no","legacy","legacy","legacy","0","uniform","1","undefined","undefined","undefined","1","f","0","0","0","0","61","0","0","0","61","0","57","61","57","0","57","3","61","0","61","Tue Feb 16 14:35:14 2021","The main experiment item","yes","Lexical_Decision_Task.osexp","D:/1- Uni stuff/CAL Seminars","no","Andale Mono","no","18","no","white","no","yes","576","legacy","57","57","3","D:/1- Uni stuff/CAL Seminars/subject-5226149.csv","legacy","Lentiform Loewenfeld","3.3.7","yes","yes","600bd7cfb6416f0113b04181","602110864497cf011d9c0822","0","f","NA","j","j","j","return","f","813","NA","2747","7747","7624","24636","813","2","legacy","1024","2","48000","-16","task","5226149","odd","NA","31918","36671","33923","180065","9341","24717","17092","180570","138604","180062","180570","179963","36671","181384","30188","179463","9333","172513","Lexical Decision Task","48","43379","62","yes","1024"
"3.132473155","0","4","glim","non-word","76.19047619047619","76.19047619047619","699.7777777777778","699.7777777777778","black","no","legacy","legacy","legacy","0","uniform","0","undefined","undefined","undefined","0","f","0","0","0","0","62","0","0","0","62","0","58","62","58","0","58","3","62","0","62","Tue Feb 16 14:35:14 2021","The main experiment item","yes","Lexical_Decision_Task.osexp","D:/1- Uni stuff/CAL Seminars","no","Andale Mono","no","18","no","white","no","yes","576","legacy","58","58","3","D:/1- Uni stuff/CAL Seminars/subject-5226149.csv","legacy","Lentiform Loewenfeld","3.3.7","yes","yes","600bd7cfb6416f0113b04181","602110864497cf011d9c0822","0","j","NA","j","j","j","return","j","707","NA","2747","7747","7624","24636","707","2","legacy","1024","2","48000","-16","task","5226149","odd","NA","31918","36671","33923","182007","9341","24717","17092","182511","138604","182004","182511","181926","36671","183219","30188","181426","9333","172513","Lexical Decision Task","48","44086","63","yes","1024"
"3.303771854","0","9","dath","non-word","76.5625","76.5625","702.859375","702.859375","black","no","legacy","legacy","legacy","0","uniform","1","undefined","undefined","undefined","1","f","0","0","0","0","63","0","0","0","63","0","59","63","59","0","59","3","63","0","63","Tue Feb 16 14:35:14 2021","The main experiment item","yes","Lexical_Decision_Task.osexp","D:/1- Uni stuff/CAL Seminars","no","Andale Mono","no","18","no","white","no","yes","576","legacy","59","59","3","D:/1- Uni stuff/CAL Seminars/subject-5226149.csv","legacy","Lentiform Loewenfeld","3.3.7","yes","yes","600bd7cfb6416f0113b04181","602110864497cf011d9c0822","0","f","NA","j","j","j","return","f","897","NA","2747","7747","7624","24636","897","2","legacy","1024","2","48000","-16","task","5226149","odd","NA","31918","36671","33923","184845","9341","24717","17092","185347","138604","184842","185347","184747","36671","186246","30188","181426","9333","183247","Lexical Decision Task","49","44983","64","yes","1024"
"3.316948329","0","1","besc","non-word","76.92307692307692","76.92307692307692","702.8","702.8","black","no","legacy","legacy","legacy","0","uniform","1","undefined","undefined","undefined","1","f","0","0","0","0","64","0","0","0","64","0","60","64","60","0","60","3","64","0","64","Tue Feb 16 14:35:14 2021","The main experiment item","yes","Lexical_Decision_Task.osexp","D:/1- Uni stuff/CAL Seminars","no","Andale Mono","no","18","no","white","no","yes","576","legacy","60","60","3","D:/1- Uni stuff/CAL Seminars/subject-5226149.csv","legacy","Lentiform Loewenfeld","3.3.7","yes","yes","600bd7cfb6416f0113b04181","602110864497cf011d9c0822","0","f","NA","j","j","j","return","f","699","NA","2747","7747","7624","24636","699","2","legacy","1024","2","48000","-16","task","5226149","odd","NA","31918","36671","33923","186882","9341","24717","17092","187384","138604","186879","187384","186783","36671","188085","30188","186283","9333","183247","Lexical Decision Task","50","45682","65","yes","1024"
"2.893578687","8.69","3","surf","word","77.27272727272727","77.27272727272727","700.7727272727273","700.7727272727273","black","no","legacy","legacy","legacy","0","uniform","1","undefined","undefined","undefined","1","j","0","0","0","0","65","0","0","0","65","0","61","65","61","0","61","3","65","0","65","Tue Feb 16 14:35:14 2021","The main experiment item","yes","Lexical_Decision_Task.osexp","D:/1- Uni stuff/CAL Seminars","no","Andale Mono","no","18","no","white","no","yes","576","legacy","61","61","3","D:/1- Uni stuff/CAL Seminars/subject-5226149.csv","legacy","Lentiform Loewenfeld","3.3.7","yes","yes","600bd7cfb6416f0113b04181","602110864497cf011d9c0822","0","j","NA","j","j","j","return","j","569","NA","2747","7747","7624","24636","569","2","legacy","1024","2","48000","-16","task","5226149","odd","NA","31918","36671","33923","188710","9341","24717","17092","189213","138604","188707","189213","188613","36671","189784","30188","188113","9333","183247","Lexical Decision Task","51","46251","66","yes","1024"
"2.842815106","7.86","8","lump","word","77.61194029850746","77.61194029850746","702.3432835820895","702.3432835820895","black","no","legacy","legacy","legacy","0","uniform","1","undefined","undefined","undefined","1","j","0","0","0","0","66","0","0","0","66","0","62","66","62","0","62","3","66","0","66","Tue Feb 16 14:35:14 2021","The main experiment item","yes","Lexical_Decision_Task.osexp","D:/1- Uni stuff/CAL Seminars","no","Andale Mono","no","18","no","white","no","yes","576","legacy","62","62","3","D:/1- Uni stuff/CAL Seminars/subject-5226149.csv","legacy","Lentiform Loewenfeld","3.3.7","yes","yes","600bd7cfb6416f0113b04181","602110864497cf011d9c0822","0","j","NA","j","j","j","return","j","806","NA","2747","7747","7624","24636","806","2","legacy","1024","2","48000","-16","task","5226149","odd","NA","31918","36671","33923","190397","9341","24717","17092","190899","138604","190394","190899","190314","36671","191706","30188","189814","9333","183247","Lexical Decision Task","52","47057","67","yes","1024"
"3.145920145","8.51","8","flew","word","77.94117647058823","77.94117647058823","699.6176470588235","699.6176470588235","black","no","legacy","legacy","legacy","0","uniform","1","undefined","undefined","undefined","1","j","0","0","0","0","67","0","0","0","67","0","63","67","63","0","63","3","67","0","67","Tue Feb 16 14:35:14 2021","The main experiment item","yes","Lexical_Decision_Task.osexp","D:/1- Uni stuff/CAL Seminars","no","Andale Mono","no","18","no","white","no","yes","576","legacy","63","63","3","D:/1- Uni stuff/CAL Seminars/subject-5226149.csv","legacy","Lentiform Loewenfeld","3.3.7","yes","yes","600bd7cfb6416f0113b04181","602110864497cf011d9c0822","0","j","NA","j","j","j","return","j","517","NA","2747","7747","7624","24636","517","2","legacy","1024","2","48000","-16","task","5226149","odd","NA","31918","36671","33923","192336","9341","24717","17092","192841","138604","192334","192841","192250","36671","193359","30188","191750","9333","183247","Lexical Decision Task","53","47574","68","yes","1024"
"3.274543461","7.46","7","scar","word","78.26086956521739","78.26086956521739","698.9130434782609","698.9130434782609","black","no","legacy","legacy","legacy","0","uniform","1","undefined","undefined","undefined","1","j","0","0","0","0","68","0","0","0","68","0","64","68","64","0","64","3","68","0","68","Tue Feb 16 14:35:14 2021","The main experiment item","yes","Lexical_Decision_Task.osexp","D:/1- Uni stuff/CAL Seminars","no","Andale Mono","no","18","no","white","no","yes","576","legacy","64","64","3","D:/1- Uni stuff/CAL Seminars/subject-5226149.csv","legacy","Lentiform Loewenfeld","3.3.7","yes","yes","600bd7cfb6416f0113b04181","602110864497cf011d9c0822","0","j","NA","j","j","j","return","j","651","NA","2747","7747","7624","24636","651","2","legacy","1024","2","48000","-16","task","5226149","odd","NA","31918","36671","33923","193982","9341","24717","17092","194487","138604","193979","194487","193888","36671","195139","30188","193388","9333","183247","Lexical Decision Task","54","48225","69","yes","1024"
"2.68604012","0","4","pumb","non-word","77.14285714285714","77.14285714285714","697.5285714285715","697.5285714285715","black","no","legacy","legacy","legacy","0","uniform","0","undefined","undefined","undefined","0","f","0","0","0","0","69","0","0","0","69","0","65","69","65","0","65","3","69","0","69","Tue Feb 16 14:35:14 2021","The main experiment item","yes","Lexical_Decision_Task.osexp","D:/1- Uni stuff/CAL Seminars","no","Andale Mono","no","18","no","white","no","yes","576","legacy","65","65","3","D:/1- Uni stuff/CAL Seminars/subject-5226149.csv","legacy","Lentiform Loewenfeld","3.3.7","yes","yes","600bd7cfb6416f0113b04181","602110864497cf011d9c0822","0","j","NA","j","j","j","return","j","602","NA","2747","7747","7624","24636","602","2","legacy","1024","2","48000","-16","task","5226149","odd","NA","31918","36671","33923","195761","9341","24717","17092","196266","138604","195759","196267","195666","36671","196870","30188","195166","9333","183247","Lexical Decision Task","54","48827","70","yes","1024"
"3.131833513","7.66","4","limb","word","77.46478873239437","77.46478873239437","695.5633802816901","695.5633802816901","black","no","legacy","legacy","legacy","0","uniform","1","undefined","undefined","undefined","1","j","0","0","0","0","70","0","0","0","70","0","66","70","66","0","66","3","70","0","70","Tue Feb 16 14:35:14 2021","The main experiment item","yes","Lexical_Decision_Task.osexp","D:/1- Uni stuff/CAL Seminars","no","Andale Mono","no","18","no","white","no","yes","576","legacy","66","66","3","D:/1- Uni stuff/CAL Seminars/subject-5226149.csv","legacy","Lentiform Loewenfeld","3.3.7","yes","yes","600bd7cfb6416f0113b04181","602110864497cf011d9c0822","0","j","NA","j","j","j","return","j","558","NA","2747","7747","7624","24636","558","2","legacy","1024","2","48000","-16","task","5226149","odd","NA","31918","36671","33923","198514","9341","24717","17092","199017","138604","198512","199017","198405","36671","199576","30188","195166","9333","196905","Lexical Decision Task","55","49385","71","yes","1024"
"3.378276681","6.39","8","bran","word","76.38888888888889","76.38888888888889","697.5555555555555","697.5555555555555","black","no","legacy","legacy","legacy","0","uniform","0","undefined","undefined","undefined","0","j","0","0","0","0","71","0","0","0","71","0","67","71","67","0","67","3","71","0","71","Tue Feb 16 14:35:14 2021","The main experiment item","yes","Lexical_Decision_Task.osexp","D:/1- Uni stuff/CAL Seminars","no","Andale Mono","no","18","no","white","no","yes","576","legacy","67","67","3","D:/1- Uni stuff/CAL Seminars/subject-5226149.csv","legacy","Lentiform Loewenfeld","3.3.7","yes","yes","600bd7cfb6416f0113b04181","602110864497cf011d9c0822","0","f","NA","j","j","j","return","f","839","NA","2747","7747","7624","24636","839","2","legacy","1024","2","48000","-16","task","5226149","odd","NA","31918","36671","33923","200205","9341","24717","17092","200707","138604","200202","200707","200118","36671","201547","30188","199617","9333","196905","Lexical Decision Task","55","50224","72","yes","1024"
"2.971428938","9.86","7","spot","word","76.71232876712328","76.71232876712328","696.972602739726","696.972602739726","black","no","legacy","legacy","legacy","0","uniform","1","undefined","undefined","undefined","1","j","0","0","0","0","72","0","0","0","72","0","68","72","68","0","68","3","72","0","72","Tue Feb 16 14:35:14 2021","The main experiment item","yes","Lexical_Decision_Task.osexp","D:/1- Uni stuff/CAL Seminars","no","Andale Mono","no","18","no","white","no","yes","576","legacy","68","68","3","D:/1- Uni stuff/CAL Seminars/subject-5226149.csv","legacy","Lentiform Loewenfeld","3.3.7","yes","yes","600bd7cfb6416f0113b04181","602110864497cf011d9c0822","0","j","NA","j","j","j","return","j","655","NA","2747","7747","7624","24636","655","2","legacy","1024","2","48000","-16","task","5226149","odd","NA","31918","36671","33923","203172","9341","24717","17092","203674","138604","203169","203674","203080","36671","204330","30188","199617","9333","201580","Lexical Decision Task","56","50879","73","yes","1024"
"3.195807436","0","6","stup","non-word","77.02702702702703","77.02702702702703","699.3243243243244","699.3243243243244","black","no","legacy","legacy","legacy","0","uniform","1","undefined","undefined","undefined","1","f","0","0","0","0","73","0","0","0","73","0","69","73","69","0","69","3","73","0","73","Tue Feb 16 14:35:14 2021","The main experiment item","yes","Lexical_Decision_Task.osexp","D:/1- Uni stuff/CAL Seminars","no","Andale Mono","no","18","no","white","no","yes","576","legacy","69","69","3","D:/1- Uni stuff/CAL Seminars/subject-5226149.csv","legacy","Lentiform Loewenfeld","3.3.7","yes","yes","600bd7cfb6416f0113b04181","602110864497cf011d9c0822","0","f","NA","j","j","j","return","f","871","NA","2747","7747","7624","24636","871","2","legacy","1024","2","48000","-16","task","5226149","odd","NA","31918","36671","33923","204946","9341","24717","17092","205451","138604","204943","205451","204863","36671","206323","30188","204363","9333","201580","Lexical Decision Task","57","51750","74","yes","1024"
"2.966923697","5.4","2","fume","word","77.33333333333333","77.33333333333333","700.4","700.4","black","no","legacy","legacy","legacy","0","uniform","1","undefined","undefined","undefined","1","j","0","0","0","0","74","0","0","0","74","0","70","74","70","0","70","3","74","0","74","Tue Feb 16 14:35:14 2021","The main experiment item","yes","Lexical_Decision_Task.osexp","D:/1- Uni stuff/CAL Seminars","no","Andale Mono","no","18","no","white","no","yes","576","legacy","70","70","3","D:/1- Uni stuff/CAL Seminars/subject-5226149.csv","legacy","Lentiform Loewenfeld","3.3.7","yes","yes","600bd7cfb6416f0113b04181","602110864497cf011d9c0822","0","j","NA","j","j","j","return","j","780","NA","2747","7747","7624","24636","780","2","legacy","1024","2","48000","-16","task","5226149","odd","NA","31918","36671","33923","206934","9341","24717","17092","207439","138604","206932","207440","206850","36671","208221","30188","206350","9333","201580","Lexical Decision Task","58","52530","75","yes","1024"
"2.709837904","6.85","8","skim","word","77.63157894736842","77.63157894736842","698.6447368421053","698.6447368421053","black","no","legacy","legacy","legacy","0","uniform","1","undefined","undefined","undefined","1","j","0","0","0","0","75","0","0","0","75","0","71","75","71","0","71","3","75","0","75","Tue Feb 16 14:35:14 2021","The main experiment item","yes","Lexical_Decision_Task.osexp","D:/1- Uni stuff/CAL Seminars","no","Andale Mono","no","18","no","white","no","yes","576","legacy","71","71","3","D:/1- Uni stuff/CAL Seminars/subject-5226149.csv","legacy","Lentiform Loewenfeld","3.3.7","yes","yes","600bd7cfb6416f0113b04181","602110864497cf011d9c0822","0","j","NA","j","j","j","return","j","567","NA","2747","7747","7624","24636","567","2","legacy","1024","2","48000","-16","task","5226149","odd","NA","31918","36671","33923","208849","9341","24717","17092","209354","138604","208847","209354","208755","36671","209922","30188","208254","9333","201580","Lexical Decision Task","59","53097","76","yes","1024"
"3.197740804","6.74","3","ache","word","77.92207792207792","77.92207792207792","698.6753246753246","698.6753246753246","black","no","legacy","legacy","legacy","0","uniform","1","undefined","undefined","undefined","1","j","0","0","0","0","76","0","0","0","76","0","72","76","72","0","72","3","76","0","76","Tue Feb 16 14:35:14 2021","The main experiment item","yes","Lexical_Decision_Task.osexp","D:/1- Uni stuff/CAL Seminars","no","Andale Mono","no","18","no","white","no","yes","576","legacy","72","72","3","D:/1- Uni stuff/CAL Seminars/subject-5226149.csv","legacy","Lentiform Loewenfeld","3.3.7","yes","yes","600bd7cfb6416f0113b04181","602110864497cf011d9c0822","0","j","NA","j","j","j","return","j","701","NA","2747","7747","7624","24636","701","2","legacy","1024","2","48000","-16","task","5226149","odd","NA","31918","36671","33923","210552","9341","24717","17092","211054","138604","210549","211055","210454","36671","211758","30188","209954","9333","201580","Lexical Decision Task","60","53798","77","yes","1024"
"2.82129731","6.72","5","plum","word","76.92307692307692","76.92307692307692","700.1666666666666","700.1666666666666","black","no","legacy","legacy","legacy","0","uniform","0","undefined","undefined","undefined","0","j","0","0","0","0","77","0","0","0","77","0","73","77","73","0","73","3","77","0","77","Tue Feb 16 14:35:14 2021","The main experiment item","yes","Lexical_Decision_Task.osexp","D:/1- Uni stuff/CAL Seminars","no","Andale Mono","no","18","no","white","no","yes","576","legacy","73","73","3","D:/1- Uni stuff/CAL Seminars/subject-5226149.csv","legacy","Lentiform Loewenfeld","3.3.7","yes","yes","600bd7cfb6416f0113b04181","602110864497cf011d9c0822","0","f","NA","j","j","j","return","f","815","NA","2747","7747","7624","24636","815","2","legacy","1024","2","48000","-16","task","5226149","odd","NA","31918","36671","33923","212380","9341","24717","17092","212885","138604","212377","212885","212291","36671","213701","30188","211791","9333","201580","Lexical Decision Task","60","54613","78","yes","1024"
"2.695770526","7.34","6","pawn","word","77.21518987341773","77.21518987341773","699.253164556962","699.253164556962","black","no","legacy","legacy","legacy","0","uniform","1","undefined","undefined","undefined","1","j","0","0","0","0","78","0","0","0","78","0","74","78","74","0","74","3","78","0","78","Tue Feb 16 14:35:14 2021","The main experiment item","yes","Lexical_Decision_Task.osexp","D:/1- Uni stuff/CAL Seminars","no","Andale Mono","no","18","no","white","no","yes","576","legacy","74","74","3","D:/1- Uni stuff/CAL Seminars/subject-5226149.csv","legacy","Lentiform Loewenfeld","3.3.7","yes","yes","600bd7cfb6416f0113b04181","602110864497cf011d9c0822","0","j","NA","j","j","j","return","j","628","NA","2747","7747","7624","24636","628","2","legacy","1024","2","48000","-16","task","5226149","odd","NA","31918","36671","33923","215323","9341","24717","17092","215828","138604","215321","215828","215230","36671","216458","30188","211791","9333","213730","Lexical Decision Task","61","55241","79","yes","1024"
"2.778633532","0","3","jurp","non-word","77.5","77.5","698.625","698.625","black","no","legacy","legacy","legacy","0","uniform","1","undefined","undefined","undefined","1","f","0","0","0","0","79","0","0","0","79","0","75","79","75","0","75","3","79","0","79","Tue Feb 16 14:35:14 2021","The main experiment item","yes","Lexical_Decision_Task.osexp","D:/1- Uni stuff/CAL Seminars","no","Andale Mono","no","18","no","white","no","yes","576","legacy","75","75","3","D:/1- Uni stuff/CAL Seminars/subject-5226149.csv","legacy","Lentiform Loewenfeld","3.3.7","yes","yes","600bd7cfb6416f0113b04181","602110864497cf011d9c0822","0","f","NA","j","j","j","return","f","649","NA","2747","7747","7624","24636","649","2","legacy","1024","2","48000","-16","task","5226149","odd","NA","31918","36671","33923","217088","9341","24717","17092","217593","138604","217083","217593","216988","36671","218243","30188","216488","9333","213730","Lexical Decision Task","62","55890","80","yes","1024"
"2.771097306","0","9","jold","non-word","77.77777777777777","77.77777777777777","703.2592592592592","703.2592592592592","black","no","legacy","legacy","legacy","0","uniform","1","undefined","undefined","undefined","1","f","0","0","0","0","80","0","0","0","80","0","76","80","76","0","76","3","80","0","80","Tue Feb 16 14:35:14 2021","The main experiment item","yes","Lexical_Decision_Task.osexp","D:/1- Uni stuff/CAL Seminars","no","Andale Mono","no","18","no","white","no","yes","576","legacy","76","76","3","D:/1- Uni stuff/CAL Seminars/subject-5226149.csv","legacy","Lentiform Loewenfeld","3.3.7","yes","yes","600bd7cfb6416f0113b04181","602110864497cf011d9c0822","0","f","NA","j","j","j","return","f","1074","NA","2747","7747","7624","24636","1074","2","legacy","1024","2","48000","-16","task","5226149","odd","NA","31918","36671","33923","218861","9341","24717","17092","219366","138604","218859","219366","218772","36671","220442","30188","218272","9333","213730","Lexical Decision Task","63","56964","81","yes","1024"
"3.443783828","7.65","3","verb","word","78.04878048780488","78.04878048780488","702.219512195122","702.219512195122","black","no","legacy","legacy","legacy","0","uniform","1","undefined","undefined","undefined","1","j","0","0","0","0","81","0","0","0","81","0","77","81","77","0","77","3","81","0","81","Tue Feb 16 14:35:14 2021","The main experiment item","yes","Lexical_Decision_Task.osexp","D:/1- Uni stuff/CAL Seminars","no","Andale Mono","no","18","no","white","no","yes","576","legacy","77","77","3","D:/1- Uni stuff/CAL Seminars/subject-5226149.csv","legacy","Lentiform Loewenfeld","3.3.7","yes","yes","600bd7cfb6416f0113b04181","602110864497cf011d9c0822","0","j","NA","j","j","j","return","j","618","NA","2747","7747","7624","24636","618","2","legacy","1024","2","48000","-16","task","5226149","odd","NA","31918","36671","33923","221070","9341","24717","17092","221572","138604","221068","221572","220983","36671","222192","30188","220483","9333","213730","Lexical Decision Task","64","57582","82","yes","1024"
"2.924968096","0","4","phim","non-word","78.3132530120482","78.3132530120482","701.1927710843373","701.1927710843373","black","no","legacy","legacy","legacy","0","uniform","1","undefined","undefined","undefined","1","f","0","0","0","0","82","0","0","0","82","0","78","82","78","0","78","3","82","0","82","Tue Feb 16 14:35:14 2021","The main experiment item","yes","Lexical_Decision_Task.osexp","D:/1- Uni stuff/CAL Seminars","no","Andale Mono","no","18","no","white","no","yes","576","legacy","78","78","3","D:/1- Uni stuff/CAL Seminars/subject-5226149.csv","legacy","Lentiform Loewenfeld","3.3.7","yes","yes","600bd7cfb6416f0113b04181","602110864497cf011d9c0822","0","f","NA","j","j","j","return","f","617","NA","2747","7747","7624","24636","617","2","legacy","1024","2","48000","-16","task","5226149","odd","NA","31918","36671","33923","222813","9341","24717","17092","223315","138604","222811","223316","222733","36671","223935","30188","222233","9333","213730","Lexical Decision Task","65","58199","83","yes","1024"
"3.137775856","7.39","5","comb","word","78.57142857142857","78.57142857142857","700.202380952381","700.202380952381","black","no","legacy","legacy","legacy","0","uniform","1","undefined","undefined","undefined","1","j","0","0","0","0","83","0","0","0","83","0","79","83","79","0","79","3","83","0","83","Tue Feb 16 14:35:14 2021","The main experiment item","yes","Lexical_Decision_Task.osexp","D:/1- Uni stuff/CAL Seminars","no","Andale Mono","no","18","no","white","no","yes","576","legacy","79","79","3","D:/1- Uni stuff/CAL Seminars/subject-5226149.csv","legacy","Lentiform Loewenfeld","3.3.7","yes","yes","600bd7cfb6416f0113b04181","602110864497cf011d9c0822","0","j","NA","j","j","j","return","j","618","NA","2747","7747","7624","24636","618","2","legacy","1024","2","48000","-16","task","5226149","odd","NA","31918","36671","33923","224562","9341","24717","17092","225067","138604","224559","225067","224471","36671","225686","30188","223971","9333","213730","Lexical Decision Task","66","58817","84","yes","1024"
"3.276537627","9.15","5","trap","word","78.82352941176471","78.82352941176471","698.2","698.2","black","no","legacy","legacy","legacy","0","uniform","1","undefined","undefined","undefined","1","j","0","0","0","0","84","0","0","0","84","0","80","84","80","0","80","3","84","0","84","Tue Feb 16 14:35:14 2021","The main experiment item","yes","Lexical_Decision_Task.osexp","D:/1- Uni stuff/CAL Seminars","no","Andale Mono","no","18","no","white","no","yes","576","legacy","80","80","3","D:/1- Uni stuff/CAL Seminars/subject-5226149.csv","legacy","Lentiform Loewenfeld","3.3.7","yes","yes","600bd7cfb6416f0113b04181","602110864497cf011d9c0822","0","j","NA","j","j","j","return","j","530","NA","2747","7747","7624","24636","530","2","legacy","1024","2","48000","-16","task","5226149","odd","NA","31918","36671","33923","226297","9341","24717","17092","226799","138604","226295","226800","226217","36671","227332","30188","225717","9333","213730","Lexical Decision Task","67","59347","85","yes","1024"
"3.492014979","0","9","yine","non-word","79.06976744186046","79.06976744186046","699.8255813953489","699.8255813953489","black","no","legacy","legacy","legacy","0","uniform","1","undefined","undefined","undefined","1","f","0","0","0","0","85","0","0","0","85","0","81","85","81","0","81","3","85","0","85","Tue Feb 16 14:35:14 2021","The main experiment item","yes","Lexical_Decision_Task.osexp","D:/1- Uni stuff/CAL Seminars","no","Andale Mono","no","18","no","white","no","yes","576","legacy","81","81","3","D:/1- Uni stuff/CAL Seminars/subject-5226149.csv","legacy","Lentiform Loewenfeld","3.3.7","yes","yes","600bd7cfb6416f0113b04181","602110864497cf011d9c0822","0","f","NA","j","j","j","return","f","838","NA","2747","7747","7624","24636","838","2","legacy","1024","2","48000","-16","task","5226149","odd","NA","31918","36671","33923","227953","9341","24717","17092","228455","138604","227950","228455","227875","36671","229294","30188","227375","9333","213730","Lexical Decision Task","68","60185","86","yes","1024"
"2.664328519","0","4","plux","non-word","79.3103448275862","79.3103448275862","700.3793103448276","700.3793103448276","black","no","legacy","legacy","legacy","0","uniform","1","undefined","undefined","undefined","1","f","0","0","0","0","86","0","0","0","86","0","82","86","82","0","82","3","86","0","86","Tue Feb 16 14:35:14 2021","The main experiment item","yes","Lexical_Decision_Task.osexp","D:/1- Uni stuff/CAL Seminars","no","Andale Mono","no","18","no","white","no","yes","576","legacy","82","82","3","D:/1- Uni stuff/CAL Seminars/subject-5226149.csv","legacy","Lentiform Loewenfeld","3.3.7","yes","yes","600bd7cfb6416f0113b04181","602110864497cf011d9c0822","0","f","NA","j","j","j","return","f","748","NA","2747","7747","7624","24636","748","2","legacy","1024","2","48000","-16","task","5226149","odd","NA","31918","36671","33923","229906","9341","24717","17092","230411","138604","229904","230411","229821","36671","231161","30188","229321","9333","213730","Lexical Decision Task","69","60933","87","yes","1024"
"2.980911938","7.15","7","hoop","word","79.54545454545455","79.54545454545455","698.5568181818181","698.5568181818181","black","no","legacy","legacy","legacy","0","uniform","1","undefined","undefined","undefined","1","j","0","0","0","0","87","0","0","0","87","0","83","87","83","0","83","3","87","0","87","Tue Feb 16 14:35:14 2021","The main experiment item","yes","Lexical_Decision_Task.osexp","D:/1- Uni stuff/CAL Seminars","no","Andale Mono","no","18","no","white","no","yes","576","legacy","83","83","3","D:/1- Uni stuff/CAL Seminars/subject-5226149.csv","legacy","Lentiform Loewenfeld","3.3.7","yes","yes","600bd7cfb6416f0113b04181","602110864497cf011d9c0822","0","j","NA","j","j","j","return","j","540","NA","2747","7747","7624","24636","540","2","legacy","1024","2","48000","-16","task","5226149","odd","NA","31918","36671","33923","231777","9341","24717","17092","232279","138604","231775","232279","231692","36671","232820","30188","231192","9333","213730","Lexical Decision Task","70","61473","88","yes","1024"
"2.907588697","8.91","9","mood","word","79.7752808988764","79.7752808988764","698.0337078651686","698.0337078651686","black","no","legacy","legacy","legacy","0","uniform","1","undefined","undefined","undefined","1","j","0","0","0","0","88","0","0","0","88","0","84","88","84","0","84","3","88","0","88","Tue Feb 16 14:35:14 2021","The main experiment item","yes","Lexical_Decision_Task.osexp","D:/1- Uni stuff/CAL Seminars","no","Andale Mono","no","18","no","white","no","yes","576","legacy","84","84","3","D:/1- Uni stuff/CAL Seminars/subject-5226149.csv","legacy","Lentiform Loewenfeld","3.3.7","yes","yes","600bd7cfb6416f0113b04181","602110864497cf011d9c0822","0","j","NA","j","j","j","return","j","652","NA","2747","7747","7624","24636","652","2","legacy","1024","2","48000","-16","task","5226149","odd","NA","31918","36671","33923","233444","9341","24717","17092","233946","138604","233442","233946","233355","36671","234600","30188","232855","9333","213730","Lexical Decision Task","71","62125","89","yes","1024"
"3.134602053","0","8","jart","non-word","80","80","696.8333333333334","696.8333333333334","black","no","legacy","legacy","legacy","0","uniform","1","undefined","undefined","undefined","1","f","0","0","0","0","89","0","0","0","89","0","85","89","85","0","85","3","89","0","89","Tue Feb 16 14:35:14 2021","The main experiment item","yes","Lexical_Decision_Task.osexp","D:/1- Uni stuff/CAL Seminars","no","Andale Mono","no","18","no","white","no","yes","576","legacy","85","85","3","D:/1- Uni stuff/CAL Seminars/subject-5226149.csv","legacy","Lentiform Loewenfeld","3.3.7","yes","yes","600bd7cfb6416f0113b04181","602110864497cf011d9c0822","0","f","NA","j","j","j","return","f","590","NA","2747","7747","7624","24636","590","2","legacy","1024","2","48000","-16","task","5226149","odd","NA","31918","36671","33923","235233","9341","24717","17092","235738","138604","235231","235738","235130","36671","236329","30188","234630","9333","213730","Lexical Decision Task","72","62715","90","yes","1024"
"3.248054965","7.86","5","glow","word","80.21978021978022","80.21978021978022","696.065934065934","696.065934065934","black","no","legacy","legacy","legacy","0","uniform","1","undefined","undefined","undefined","1","j","0","0","0","0","90","0","0","0","90","0","86","90","86","0","86","3","90","0","90","Tue Feb 16 14:35:14 2021","The main experiment item","yes","Lexical_Decision_Task.osexp","D:/1- Uni stuff/CAL Seminars","no","Andale Mono","no","18","no","white","no","yes","576","legacy","86","86","3","D:/1- Uni stuff/CAL Seminars/subject-5226149.csv","legacy","Lentiform Loewenfeld","3.3.7","yes","yes","600bd7cfb6416f0113b04181","602110864497cf011d9c0822","0","j","NA","j","j","j","return","j","627","NA","2747","7747","7624","24636","627","2","legacy","1024","2","48000","-16","task","5226149","odd","NA","31918","36671","33923","236943","9341","24717","17092","237449","138604","236940","237449","236859","36671","238078","30188","236359","9333","213730","Lexical Decision Task","73","63342","91","yes","1024"
"2.981215883","10.66","5","hair","word","80.43478260869566","80.43478260869566","695.7065217391304","695.7065217391304","black","no","legacy","legacy","legacy","0","uniform","1","undefined","undefined","undefined","1","j","0","0","0","0","91","0","0","0","91","0","87","91","87","0","87","3","91","0","91","Tue Feb 16 14:35:14 2021","The main experiment item","yes","Lexical_Decision_Task.osexp","D:/1- Uni stuff/CAL Seminars","no","Andale Mono","no","18","no","white","no","yes","576","legacy","87","87","3","D:/1- Uni stuff/CAL Seminars/subject-5226149.csv","legacy","Lentiform Loewenfeld","3.3.7","yes","yes","600bd7cfb6416f0113b04181","602110864497cf011d9c0822","0","j","NA","j","j","j","return","j","663","NA","2747","7747","7624","24636","663","2","legacy","1024","2","48000","-16","task","5226149","odd","NA","31918","36671","33923","238711","9341","24717","17092","239213","138604","238709","239214","238613","36671","239879","30188","238113","9333","213730","Lexical Decision Task","74","64005","92","yes","1024"
"3.460446784","0","5","dess","non-word","79.56989247311827","79.56989247311827","696.0215053763441","696.0215053763441","black","no","legacy","legacy","legacy","0","uniform","0","undefined","undefined","undefined","0","f","0","0","0","0","92","0","0","0","92","0","88","92","88","0","88","3","92","0","92","Tue Feb 16 14:35:14 2021","The main experiment item","yes","Lexical_Decision_Task.osexp","D:/1- Uni stuff/CAL Seminars","no","Andale Mono","no","18","no","white","no","yes","576","legacy","88","88","3","D:/1- Uni stuff/CAL Seminars/subject-5226149.csv","legacy","Lentiform Loewenfeld","3.3.7","yes","yes","600bd7cfb6416f0113b04181","602110864497cf011d9c0822","0","j","NA","j","j","j","return","j","725","NA","2747","7747","7624","24636","725","2","legacy","1024","2","48000","-16","task","5226149","odd","NA","31918","36671","33923","240491","9341","24717","17092","240994","138604","240489","240994","240413","36671","241721","30188","239913","9333","213730","Lexical Decision Task","74","64730","93","yes","1024"
"2.67699827","0","6","hulf","non-word","79.7872340425532","79.7872340425532","699.2978723404256","699.2978723404256","black","no","legacy","legacy","legacy","0","uniform","1","undefined","undefined","undefined","1","f","0","0","0","0","93","0","0","0","93","0","89","93","89","0","89","3","93","0","93","Tue Feb 16 14:35:14 2021","The main experiment item","yes","Lexical_Decision_Task.osexp","D:/1- Uni stuff/CAL Seminars","no","Andale Mono","no","18","no","white","no","yes","576","legacy","89","89","3","D:/1- Uni stuff/CAL Seminars/subject-5226149.csv","legacy","Lentiform Loewenfeld","3.3.7","yes","yes","600bd7cfb6416f0113b04181","602110864497cf011d9c0822","0","f","NA","j","j","j","return","f","1004","NA","2747","7747","7624","24636","1004","2","legacy","1024","2","48000","-16","task","5226149","odd","NA","31918","36671","33923","243344","9341","24717","17092","243846","138604","243342","243847","243250","36671","244853","30188","239913","9333","241749","Lexical Decision Task","75","65734","94","yes","1024"
"2.746890964","9.67","3","plug","word","80","80","698.3052631578947","698.3052631578947","black","no","legacy","legacy","legacy","0","uniform","1","undefined","undefined","undefined","1","j","0","0","0","0","94","0","0","0","94","0","90","94","90","0","90","3","94","0","94","Tue Feb 16 14:35:14 2021","The main experiment item","yes","Lexical_Decision_Task.osexp","D:/1- Uni stuff/CAL Seminars","no","Andale Mono","no","18","no","white","no","yes","576","legacy","90","90","3","D:/1- Uni stuff/CAL Seminars/subject-5226149.csv","legacy","Lentiform Loewenfeld","3.3.7","yes","yes","600bd7cfb6416f0113b04181","602110864497cf011d9c0822","0","j","NA","j","j","j","return","j","605","NA","2747","7747","7624","24636","605","2","legacy","1024","2","48000","-16","task","5226149","odd","NA","31918","36671","33923","245469","9341","24717","17092","245974","138604","245467","245975","245388","36671","246582","30188","244888","9333","241749","Lexical Decision Task","76","66339","95","yes","1024"
"2.813801082","5.47","7","nook","word","80.20833333333333","80.20833333333333","699.4791666666666","699.4791666666666","black","no","legacy","legacy","legacy","0","uniform","1","undefined","undefined","undefined","1","j","0","0","0","0","95","0","0","0","95","0","91","95","91","0","91","3","95","0","95","Tue Feb 16 14:35:14 2021","The main experiment item","yes","Lexical_Decision_Task.osexp","D:/1- Uni stuff/CAL Seminars","no","Andale Mono","no","18","no","white","no","yes","576","legacy","91","91","3","D:/1- Uni stuff/CAL Seminars/subject-5226149.csv","legacy","Lentiform Loewenfeld","3.3.7","yes","yes","600bd7cfb6416f0113b04181","602110864497cf011d9c0822","0","j","NA","j","j","j","return","j","811","NA","2747","7747","7624","24636","811","2","legacy","1024","2","48000","-16","task","5226149","odd","NA","31918","36671","33923","247192","9341","24717","17092","247697","138604","247189","247697","247108","36671","248510","30188","246608","9333","241749","Lexical Decision Task","77","67150","96","yes","1024"
"2.7084209","0","8","vump","non-word","80.41237113402062","80.41237113402062","699.7113402061856","699.7113402061856","black","no","legacy","legacy","legacy","0","uniform","1","undefined","undefined","undefined","1","f","0","0","0","0","96","0","0","0","96","0","92","96","92","0","92","3","96","0","96","Tue Feb 16 14:35:14 2021","The main experiment item","yes","Lexical_Decision_Task.osexp","D:/1- Uni stuff/CAL Seminars","no","Andale Mono","no","18","no","white","no","yes","576","legacy","92","92","3","D:/1- Uni stuff/CAL Seminars/subject-5226149.csv","legacy","Lentiform Loewenfeld","3.3.7","yes","yes","600bd7cfb6416f0113b04181","602110864497cf011d9c0822","0","f","NA","j","j","j","return","f","722","NA","2747","7747","7624","24636","722","2","legacy","1024","2","48000","-16","task","5226149","odd","NA","31918","36671","33923","249136","9341","24717","17092","249641","138604","249134","249642","249046","36671","250367","30188","248546","9333","241749","Lexical Decision Task","78","67872","97","yes","1024"
"2.693726949","5.08","3","swig","word","80.61224489795919","80.61224489795919","702.6836734693877","702.6836734693877","black","no","legacy","legacy","legacy","0","uniform","1","undefined","undefined","undefined","1","j","0","0","0","0","97","0","0","0","97","0","93","97","93","0","93","3","97","0","97","Tue Feb 16 14:35:14 2021","The main experiment item","yes","Lexical_Decision_Task.osexp","D:/1- Uni stuff/CAL Seminars","no","Andale Mono","no","18","no","white","no","yes","576","legacy","93","93","3","D:/1- Uni stuff/CAL Seminars/subject-5226149.csv","legacy","Lentiform Loewenfeld","3.3.7","yes","yes","600bd7cfb6416f0113b04181","602110864497cf011d9c0822","0","j","NA","j","j","j","return","j","991","NA","2747","7747","7624","24636","991","2","legacy","1024","2","48000","-16","task","5226149","odd","NA","31918","36671","33923","250981","9341","24717","17092","251486","138604","250979","251487","250900","36671","252480","30188","250400","9333","241749","Lexical Decision Task","79","68863","98","yes","1024"
"3.269668578","0","7","trag","non-word","80.8080808080808","80.8080808080808","702.6969696969697","702.6969696969697","black","no","legacy","legacy","legacy","0","uniform","1","undefined","undefined","undefined","1","f","0","0","0","0","98","0","0","0","98","0","94","98","94","0","94","3","98","0","98","Tue Feb 16 14:35:14 2021","The main experiment item","yes","Lexical_Decision_Task.osexp","D:/1- Uni stuff/CAL Seminars","no","Andale Mono","no","18","no","white","no","yes","576","legacy","94","94","3","D:/1- Uni stuff/CAL Seminars/subject-5226149.csv","legacy","Lentiform Loewenfeld","3.3.7","yes","yes","600bd7cfb6416f0113b04181","602110864497cf011d9c0822","0","f","NA","j","j","j","return","f","704","NA","2747","7747","7624","24636","704","2","legacy","1024","2","48000","-16","task","5226149","odd","NA","31918","36671","33923","253104","9341","24717","17092","253606","138604","253101","253606","253016","36671","254312","30188","252516","9333","241749","Lexical Decision Task","80","69567","99","yes","1024"
"3.090140555","5.81","8","pout","word","81","81","703.92","703.92","black","no","legacy","legacy","legacy","0","uniform","1","undefined","undefined","undefined","1","j","0","0","0","0","99","0","0","0","99","0","95","99","95","0","95","3","99","0","99","Tue Feb 16 14:35:14 2021","The main experiment item","yes","Lexical_Decision_Task.osexp","D:/1- Uni stuff/CAL Seminars","no","Andale Mono","no","18","no","white","no","yes","576","legacy","95","95","3","D:/1- Uni stuff/CAL Seminars/subject-5226149.csv","legacy","Lentiform Loewenfeld","3.3.7","yes","yes","600bd7cfb6416f0113b04181","602110864497cf011d9c0822","0","j","NA","j","j","j","return","j","825","NA","2747","7747","7624","24636","825","2","legacy","1024","2","48000","-16","task","5226149","odd","NA","31918","36671","33923","254930","9341","24717","17092","255435","138604","254928","255436","254849","36671","256263","30188","254349","9333","241749","Lexical Decision Task","81","70392","100","yes","1024"
"2.64476673","0","5","moft","non-word","81.18811881188118","81.18811881188118","703.6435643564356","703.6435643564356","black","no","legacy","legacy","legacy","0","uniform","1","undefined","undefined","undefined","1","f","0","0","0","0","100","0","0","0","100","0","96","100","96","0","96","3","100","0","100","Tue Feb 16 14:35:14 2021","The main experiment item","yes","Lexical_Decision_Task.osexp","D:/1- Uni stuff/CAL Seminars","no","Andale Mono","no","18","no","white","no","yes","576","legacy","96","96","3","D:/1- Uni stuff/CAL Seminars/subject-5226149.csv","legacy","Lentiform Loewenfeld","3.3.7","yes","yes","600bd7cfb6416f0113b04181","602110864497cf011d9c0822","0","f","NA","j","j","j","return","f","676","NA","2747","7747","7624","24636","676","2","legacy","1024","2","48000","-16","task","5226149","odd","NA","31918","36671","33923","256877","9341","24717","17092","257382","138604","256875","257382","256796","36671","258059","30188","256296","9333","241749","Lexical Decision Task","82","71068","101","yes","1024"
