"Log_BG","Log_Freq_HAL","Ortho_N","Stimulus","Type","acc","accuracy","average_response_time","avg_rt","background","bidi","canvas_backend","clock_backend","color_backend","compensation","coordinates","correct","correct_Experimental_intro","correct_Introduction","correct_Practice_intro","correct_experimenter_kb","correct_response","count_End_Of_Experiment","count_End_Of_Practice","count_Experimental_Loop","count_Experimental_intro","count_Fixation","count_Introduction","count_Practice_Loop","count_Practice_intro","count_Stimulus","count_block_break_feedback","count_experimental_sequence","count_experimenter_kb","count_increment_trial_count","count_init_trial_count","count_logger","count_practice_sequence","count_right","count_task","count_wrong","datetime","description","disable_garbage_collection","experiment_file","experiment_path","font_bold","font_family","font_italic","font_size","font_underline","foreground","form_clicks","fullscreen","height","keyboard_backend","live_row","live_row_Experimental_Loop","live_row_Practice_Loop","logfile","mouse_backend","opensesame_codename","opensesame_version","osf_always_upload_data","osf_always_upload_experiment","osf_datanode_id","osf_id","repeat_cycle","response","response_End_Of_Experiment","response_Experimental_intro","response_Introduction","response_Practice_intro","response_block_break_feedback","response_experimenter_kb","response_time","response_time_End_Of_Experiment","response_time_Experimental_intro","response_time_Introduction","response_time_Practice_intro","response_time_block_break_feedback","response_time_experimenter_kb","round_decimals","sampler_backend","sound_buf_size","sound_channels","sound_freq","sound_sample_size","start","subject_nr","subject_parity","time_End_Of_Experiment","time_End_Of_Practice","time_Experimental_Loop","time_Experimental_intro","time_Fixation","time_Introduction","time_Practice_Loop","time_Practice_intro","time_Stimulus","time_block_break_feedback","time_experimental_sequence","time_experimenter_kb","time_increment_trial_count","time_init_trial_count","time_logger","time_practice_sequence","time_right","time_task","time_wrong","title","total_correct","total_response_time","total_responses","uniform_coordinates","width"
"3.29439347","8.6","9","wand","word","60","60","1223.4","1223.4","black","no","legacy","legacy","legacy","0","uniform","1","undefined","undefined","undefined","1","j","0","0","0","0","4","0","0","0","4","NA","0","4","0","0","0","3","4","0","4","Fri Feb 19 13:04:17 2021","The main experiment item","yes","Lexical_Decision_Task.osexp","/Users/tobydenholm","no","Andale Mono","no","18","no","white","no","yes","576","legacy","0","0","3","/Users/tobydenholm/subject-5200869.csv","legacy","Lentiform Loewenfeld","3.3.7","yes","yes","600bd7cfb6416f0113b04181","602110864497cf011d9c0822","0","j","NA","space","space","space","NA","j","1129","NA","4472","15883","6841","NA","1129","2","legacy","1024","2","48000","-16","task","5200869","odd","NA","37985","44461","39988","44481","4044","26779","19936","44984","NA","44478","44984","NA","44461","46114","36216","37462","3990","34671","Lexical Decision Task","3","6117","5","yes","1024"
"2.839268497","0","8","maft","non-word","66.66666666666667","66.66666666666667","1177.5","1177.5","black","no","legacy","legacy","legacy","0","uniform","1","undefined","undefined","undefined","1","f","0","0","0","0","5","0","0","0","5","NA","1","5","1","0","1","3","5","0","5","Fri Feb 19 13:04:17 2021","The main experiment item","yes","Lexical_Decision_Task.osexp","/Users/tobydenholm","no","Andale Mono","no","18","no","white","no","yes","576","legacy","1","1","3","/Users/tobydenholm/subject-5200869.csv","legacy","Lentiform Loewenfeld","3.3.7","yes","yes","600bd7cfb6416f0113b04181","602110864497cf011d9c0822","0","f","NA","space","space","space","NA","f","948","NA","4472","15883","6841","NA","948","2","legacy","1024","2","48000","-16","task","5200869","odd","NA","37985","44461","39988","46668","4044","26779","19936","47171","NA","46664","47171","46619","44461","48120","36216","46119","3990","34671","Lexical Decision Task","4","7065","6","yes","1024"
"3.066077331","0","7","vorn","non-word","71.42857142857143","71.42857142857143","1148.2857142857142","1148.2857142857142","black","no","legacy","legacy","legacy","0","uniform","1","undefined","undefined","undefined","1","f","0","0","0","0","6","0","0","0","6","NA","2","6","2","0","2","3","6","0","6","Fri Feb 19 13:04:17 2021","The main experiment item","yes","Lexical_Decision_Task.osexp","/Users/tobydenholm","no","Andale Mono","no","18","no","white","no","yes","576","legacy","2","2","3","/Users/tobydenholm/subject-5200869.csv","legacy","Lentiform Loewenfeld","3.3.7","yes","yes","600bd7cfb6416f0113b04181","602110864497cf011d9c0822","0","f","NA","space","space","space","NA","f","973","NA","4472","15883","6841","NA","973","2","legacy","1024","2","48000","-16","task","5200869","odd","NA","37985","44461","39988","48669","4044","26779","19936","49172","NA","48665","49172","48624","44461","50146","36216","48124","3990","34671","Lexical Decision Task","5","8038","7","yes","1024"
"2.838639236","0","4","furg","non-word","75","75","1102.125","1102.125","black","no","legacy","legacy","legacy","0","uniform","1","undefined","undefined","undefined","1","f","0","0","0","0","7","0","0","0","7","NA","3","7","3","0","3","3","7","0","7","Fri Feb 19 13:04:17 2021","The main experiment item","yes","Lexical_Decision_Task.osexp","/Users/tobydenholm","no","Andale Mono","no","18","no","white","no","yes","576","legacy","3","3","3","/Users/tobydenholm/subject-5200869.csv","legacy","Lentiform Loewenfeld","3.3.7","yes","yes","600bd7cfb6416f0113b04181","602110864497cf011d9c0822","0","f","NA","space","space","space","NA","f","779","NA","4472","15883","6841","NA","779","2","legacy","1024","2","48000","-16","task","5200869","odd","NA","37985","44461","39988","50694","4044","26779","19936","51197","NA","50691","51197","50649","44461","51976","36216","50149","3990","34671","Lexical Decision Task","6","8817","8","yes","1024"
"2.668385917","5.48","4","twig","word","77.77777777777777","77.77777777777777","1057.111111111111","1057.111111111111","black","no","legacy","legacy","legacy","0","uniform","1","undefined","undefined","undefined","1","j","0","0","0","0","8","0","0","0","8","NA","4","8","4","0","4","3","8","0","8","Fri Feb 19 13:04:17 2021","The main experiment item","yes","Lexical_Decision_Task.osexp","/Users/tobydenholm","no","Andale Mono","no","18","no","white","no","yes","576","legacy","4","4","3","/Users/tobydenholm/subject-5200869.csv","legacy","Lentiform Loewenfeld","3.3.7","yes","yes","600bd7cfb6416f0113b04181","602110864497cf011d9c0822","0","j","NA","space","space","space","NA","j","697","NA","4472","15883","6841","NA","697","2","legacy","1024","2","48000","-16","task","5200869","odd","NA","37985","44461","39988","52525","4044","26779","19936","53028","NA","52522","53028","52481","44461","53726","36216","51980","3990","34671","Lexical Decision Task","7","9514","9","yes","1024"
"3.15462682","0","6","noal","non-word","80","80","1053.6","1053.6","black","no","legacy","legacy","legacy","0","uniform","1","undefined","undefined","undefined","1","f","0","0","0","0","9","0","0","0","9","NA","5","9","5","0","5","3","9","0","9","Fri Feb 19 13:04:17 2021","The main experiment item","yes","Lexical_Decision_Task.osexp","/Users/tobydenholm","no","Andale Mono","no","18","no","white","no","yes","576","legacy","5","5","3","/Users/tobydenholm/subject-5200869.csv","legacy","Lentiform Loewenfeld","3.3.7","yes","yes","600bd7cfb6416f0113b04181","602110864497cf011d9c0822","0","f","NA","space","space","space","NA","f","1022","NA","4472","15883","6841","NA","1022","2","legacy","1024","2","48000","-16","task","5200869","odd","NA","37985","44461","39988","54273","4044","26779","19936","54776","NA","54270","54776","54229","44461","55798","36216","53729","3990","34671","Lexical Decision Task","8","10536","10","yes","1024"
"3.010582609","0","2","drod","non-word","72.72727272727273","72.72727272727273","1032.3636363636363","1032.3636363636363","black","no","legacy","legacy","legacy","0","uniform","0","undefined","undefined","undefined","0","f","0","0","0","0","10","0","0","0","10","NA","6","10","6","0","6","3","10","0","10","Fri Feb 19 13:04:17 2021","The main experiment item","yes","Lexical_Decision_Task.osexp","/Users/tobydenholm","no","Andale Mono","no","18","no","white","no","yes","576","legacy","6","6","3","/Users/tobydenholm/subject-5200869.csv","legacy","Lentiform Loewenfeld","3.3.7","yes","yes","600bd7cfb6416f0113b04181","602110864497cf011d9c0822","0","j","NA","space","space","space","NA","j","820","NA","4472","15883","6841","NA","820","2","legacy","1024","2","48000","-16","task","5200869","odd","NA","37985","44461","39988","56344","4044","26779","19936","56847","NA","56341","56847","56302","44461","57667","36216","55802","3990","34671","Lexical Decision Task","8","11356","11","yes","1024"
"3.431095062","5.74","9","perk","word","75","75","1007.4166666666666","1007.4166666666666","black","no","legacy","legacy","legacy","0","uniform","1","undefined","undefined","undefined","1","j","0","0","0","0","11","0","0","0","11","NA","7","11","7","0","7","3","11","0","11","Fri Feb 19 13:04:17 2021","The main experiment item","yes","Lexical_Decision_Task.osexp","/Users/tobydenholm","no","Andale Mono","no","18","no","white","no","yes","576","legacy","7","7","3","/Users/tobydenholm/subject-5200869.csv","legacy","Lentiform Loewenfeld","3.3.7","yes","yes","600bd7cfb6416f0113b04181","602110864497cf011d9c0822","0","j","NA","space","space","space","NA","j","733","NA","4472","15883","6841","NA","733","2","legacy","1024","2","48000","-16","task","5200869","odd","NA","37985","44461","39988","59214","4044","26779","19936","59717","NA","59211","59717","59171","44461","60450","36216","55802","3990","57670","Lexical Decision Task","9","12089","12","yes","1024"
"2.576725172","0","8","gowl","non-word","69.23076923076923","69.23076923076923","987.1538461538462","987.1538461538462","black","no","legacy","legacy","legacy","0","uniform","0","undefined","undefined","undefined","0","f","0","0","0","0","12","0","0","0","12","NA","8","12","8","0","8","3","12","0","12","Fri Feb 19 13:04:17 2021","The main experiment item","yes","Lexical_Decision_Task.osexp","/Users/tobydenholm","no","Andale Mono","no","18","no","white","no","yes","576","legacy","8","8","3","/Users/tobydenholm/subject-5200869.csv","legacy","Lentiform Loewenfeld","3.3.7","yes","yes","600bd7cfb6416f0113b04181","602110864497cf011d9c0822","0","j","NA","space","space","space","NA","j","744","NA","4472","15883","6841","NA","744","2","legacy","1024","2","48000","-16","task","5200869","odd","NA","37985","44461","39988","60998","4044","26779","19936","61501","NA","60995","61501","60954","44461","62245","36216","60454","3990","57670","Lexical Decision Task","9","12833","13","yes","1024"
"3.460446784","0","5","dess","non-word","71.42857142857143","71.42857142857143","1004.0714285714286","1004.0714285714286","black","no","legacy","legacy","legacy","0","uniform","1","undefined","undefined","undefined","1","f","0","0","0","0","13","0","0","0","13","NA","9","13","9","0","9","3","13","0","13","Fri Feb 19 13:04:17 2021","The main experiment item","yes","Lexical_Decision_Task.osexp","/Users/tobydenholm","no","Andale Mono","no","18","no","white","no","yes","576","legacy","9","9","3","/Users/tobydenholm/subject-5200869.csv","legacy","Lentiform Loewenfeld","3.3.7","yes","yes","600bd7cfb6416f0113b04181","602110864497cf011d9c0822","0","f","NA","space","space","space","NA","f","1224","NA","4472","15883","6841","NA","1224","2","legacy","1024","2","48000","-16","task","5200869","odd","NA","37985","44461","39988","63796","4044","26779","19936","64299","NA","63793","64299","63749","44461","65523","36216","60454","3990","62249","Lexical Decision Task","10","14057","14","yes","1024"
"2.693726949","5.08","3","swig","word","73.33333333333333","73.33333333333333","1000.4666666666667","1000.4666666666667","black","no","legacy","legacy","legacy","0","uniform","1","undefined","undefined","undefined","1","j","0","0","0","0","14","0","0","0","14","NA","10","14","10","0","10","3","14","0","14","Fri Feb 19 13:04:17 2021","The main experiment item","yes","Lexical_Decision_Task.osexp","/Users/tobydenholm","no","Andale Mono","no","18","no","white","no","yes","576","legacy","10","10","3","/Users/tobydenholm/subject-5200869.csv","legacy","Lentiform Loewenfeld","3.3.7","yes","yes","600bd7cfb6416f0113b04181","602110864497cf011d9c0822","0","j","NA","space","space","space","NA","j","950","NA","4472","15883","6841","NA","950","2","legacy","1024","2","48000","-16","task","5200869","odd","NA","37985","44461","39988","66071","4044","26779","19936","66574","NA","66067","66574","66027","44461","67525","36216","65527","3990","62249","Lexical Decision Task","11","15007","15","yes","1024"
"2.64476673","0","5","moft","non-word","75","75","979.5625","979.5625","black","no","legacy","legacy","legacy","0","uniform","1","undefined","undefined","undefined","1","f","0","0","0","0","15","0","0","0","15","NA","11","15","11","0","11","3","15","0","15","Fri Feb 19 13:04:17 2021","The main experiment item","yes","Lexical_Decision_Task.osexp","/Users/tobydenholm","no","Andale Mono","no","18","no","white","no","yes","576","legacy","11","11","3","/Users/tobydenholm/subject-5200869.csv","legacy","Lentiform Loewenfeld","3.3.7","yes","yes","600bd7cfb6416f0113b04181","602110864497cf011d9c0822","0","f","NA","space","space","space","NA","f","666","NA","4472","15883","6841","NA","666","2","legacy","1024","2","48000","-16","task","5200869","odd","NA","37985","44461","39988","68072","4044","26779","19936","68575","NA","68069","68575","68028","44461","69242","36216","67528","3990","62249","Lexical Decision Task","12","15673","16","yes","1024"
"3.299579929","0","2","flis","non-word","76.47058823529412","76.47058823529412","964.1764705882352","964.1764705882352","black","no","legacy","legacy","legacy","0","uniform","1","undefined","undefined","undefined","1","f","0","0","0","0","16","0","0","0","16","NA","12","16","12","0","12","3","16","0","16","Fri Feb 19 13:04:17 2021","The main experiment item","yes","Lexical_Decision_Task.osexp","/Users/tobydenholm","no","Andale Mono","no","18","no","white","no","yes","576","legacy","12","12","3","/Users/tobydenholm/subject-5200869.csv","legacy","Lentiform Loewenfeld","3.3.7","yes","yes","600bd7cfb6416f0113b04181","602110864497cf011d9c0822","0","f","NA","space","space","space","NA","f","718","NA","4472","15883","6841","NA","718","2","legacy","1024","2","48000","-16","task","5200869","odd","NA","37985","44461","39988","69790","4044","26779","19936","70294","NA","69787","70294","69746","44461","71013","36216","69246","3990","62249","Lexical Decision Task","13","16391","17","yes","1024"
"2.82129731","6.72","5","plum","word","77.77777777777777","77.77777777777777","949.6666666666666","949.6666666666666","black","no","legacy","legacy","legacy","0","uniform","1","undefined","undefined","undefined","1","j","0","0","0","0","17","0","0","0","17","NA","13","17","13","0","13","3","17","0","17","Fri Feb 19 13:04:17 2021","The main experiment item","yes","Lexical_Decision_Task.osexp","/Users/tobydenholm","no","Andale Mono","no","18","no","white","no","yes","576","legacy","13","13","3","/Users/tobydenholm/subject-5200869.csv","legacy","Lentiform Loewenfeld","3.3.7","yes","yes","600bd7cfb6416f0113b04181","602110864497cf011d9c0822","0","j","NA","space","space","space","NA","j","703","NA","4472","15883","6841","NA","703","2","legacy","1024","2","48000","-16","task","5200869","odd","NA","37985","44461","39988","71558","4044","26779","19936","72061","NA","71555","72061","71516","44461","72765","36216","71016","3990","62249","Lexical Decision Task","14","17094","18","yes","1024"
"2.803231716","5.26","3","kiln","word","78.94736842105263","78.94736842105263","941.9473684210526","941.9473684210526","black","no","legacy","legacy","legacy","0","uniform","1","undefined","undefined","undefined","1","j","0","0","0","0","18","0","0","0","18","NA","14","18","14","0","14","3","18","0","18","Fri Feb 19 13:04:17 2021","The main experiment item","yes","Lexical_Decision_Task.osexp","/Users/tobydenholm","no","Andale Mono","no","18","no","white","no","yes","576","legacy","14","14","3","/Users/tobydenholm/subject-5200869.csv","legacy","Lentiform Loewenfeld","3.3.7","yes","yes","600bd7cfb6416f0113b04181","602110864497cf011d9c0822","0","j","NA","space","space","space","NA","j","803","NA","4472","15883","6841","NA","803","2","legacy","1024","2","48000","-16","task","5200869","odd","NA","37985","44461","39988","73313","4044","26779","19936","73816","NA","73309","73816","73269","44461","74620","36216","72769","3990","62249","Lexical Decision Task","15","17897","19","yes","1024"
"2.719886232","7.98","2","quiz","word","80","80","929.85","929.85","black","no","legacy","legacy","legacy","0","uniform","1","undefined","undefined","undefined","1","j","0","0","0","0","19","0","0","0","19","NA","15","19","15","0","15","3","19","0","19","Fri Feb 19 13:04:17 2021","The main experiment item","yes","Lexical_Decision_Task.osexp","/Users/tobydenholm","no","Andale Mono","no","18","no","white","no","yes","576","legacy","15","15","3","/Users/tobydenholm/subject-5200869.csv","legacy","Lentiform Loewenfeld","3.3.7","yes","yes","600bd7cfb6416f0113b04181","602110864497cf011d9c0822","0","j","NA","space","space","space","NA","j","700","NA","4472","15883","6841","NA","700","2","legacy","1024","2","48000","-16","task","5200869","odd","NA","37985","44461","39988","75167","4044","26779","19936","75669","NA","75164","75670","75123","44461","76371","36216","74623","3990","62249","Lexical Decision Task","16","18597","20","yes","1024"
"3.252447662","9.67","9","boat","word","80.95238095238095","80.95238095238095","918.4761904761905","918.4761904761905","black","no","legacy","legacy","legacy","0","uniform","1","undefined","undefined","undefined","1","j","0","0","0","0","20","0","0","0","20","NA","16","20","16","0","16","3","20","0","20","Fri Feb 19 13:04:17 2021","The main experiment item","yes","Lexical_Decision_Task.osexp","/Users/tobydenholm","no","Andale Mono","no","18","no","white","no","yes","576","legacy","16","16","3","/Users/tobydenholm/subject-5200869.csv","legacy","Lentiform Loewenfeld","3.3.7","yes","yes","600bd7cfb6416f0113b04181","602110864497cf011d9c0822","0","j","NA","space","space","space","NA","j","691","NA","4472","15883","6841","NA","691","2","legacy","1024","2","48000","-16","task","5200869","odd","NA","37985","44461","39988","76918","4044","26779","19936","77421","NA","76915","77421","76874","44461","78112","36216","76374","3990","62249","Lexical Decision Task","17","19288","21","yes","1024"
"3.133964479","0","8","graw","non-word","77.27272727272727","77.27272727272727","915.4545454545455","915.4545454545455","black","no","legacy","legacy","legacy","0","uniform","0","undefined","undefined","undefined","0","f","0","0","0","0","21","0","0","0","21","NA","17","21","17","0","17","3","21","0","21","Fri Feb 19 13:04:17 2021","The main experiment item","yes","Lexical_Decision_Task.osexp","/Users/tobydenholm","no","Andale Mono","no","18","no","white","no","yes","576","legacy","17","17","3","/Users/tobydenholm/subject-5200869.csv","legacy","Lentiform Loewenfeld","3.3.7","yes","yes","600bd7cfb6416f0113b04181","602110864497cf011d9c0822","0","j","NA","space","space","space","NA","j","852","NA","4472","15883","6841","NA","852","2","legacy","1024","2","48000","-16","task","5200869","odd","NA","37985","44461","39988","78660","4044","26779","19936","79163","NA","78657","79163","78616","44461","80015","36216","78116","3990","62249","Lexical Decision Task","17","20140","22","yes","1024"
"2.979548375","8.71","4","soup","word","78.26086956521739","78.26086956521739","902.3913043478261","902.3913043478261","black","no","legacy","legacy","legacy","0","uniform","1","undefined","undefined","undefined","1","j","0","0","0","0","22","0","0","0","22","NA","18","22","18","0","18","3","22","0","22","Fri Feb 19 13:04:17 2021","The main experiment item","yes","Lexical_Decision_Task.osexp","/Users/tobydenholm","no","Andale Mono","no","18","no","white","no","yes","576","legacy","18","18","3","/Users/tobydenholm/subject-5200869.csv","legacy","Lentiform Loewenfeld","3.3.7","yes","yes","600bd7cfb6416f0113b04181","602110864497cf011d9c0822","0","j","NA","space","space","space","NA","j","615","NA","4472","15883","6841","NA","615","2","legacy","1024","2","48000","-16","task","5200869","odd","NA","37985","44461","39988","81566","4044","26779","19936","82069","NA","81563","82069","81519","44461","82685","36216","78116","3990","80019","Lexical Decision Task","18","20755","23","yes","1024"
"3.259832699","0","9","flar","non-word","79.16666666666667","79.16666666666667","889.875","889.875","black","no","legacy","legacy","legacy","0","uniform","1","undefined","undefined","undefined","1","f","0","0","0","0","23","0","0","0","23","NA","19","23","19","0","19","3","23","0","23","Fri Feb 19 13:04:17 2021","The main experiment item","yes","Lexical_Decision_Task.osexp","/Users/tobydenholm","no","Andale Mono","no","18","no","white","no","yes","576","legacy","19","19","3","/Users/tobydenholm/subject-5200869.csv","legacy","Lentiform Loewenfeld","3.3.7","yes","yes","600bd7cfb6416f0113b04181","602110864497cf011d9c0822","0","f","NA","space","space","space","NA","f","602","NA","4472","15883","6841","NA","602","2","legacy","1024","2","48000","-16","task","5200869","odd","NA","37985","44461","39988","83231","4044","26779","19936","83735","NA","83228","83735","83188","44461","84337","36216","82688","3990","80019","Lexical Decision Task","19","21357","24","yes","1024"
"3.257359335","8","6","brew","word","80","80","886","886","black","no","legacy","legacy","legacy","0","uniform","1","undefined","undefined","undefined","1","j","0","0","0","0","24","0","0","0","24","NA","20","24","20","0","20","3","24","0","24","Fri Feb 19 13:04:17 2021","The main experiment item","yes","Lexical_Decision_Task.osexp","/Users/tobydenholm","no","Andale Mono","no","18","no","white","no","yes","576","legacy","20","20","3","/Users/tobydenholm/subject-5200869.csv","legacy","Lentiform Loewenfeld","3.3.7","yes","yes","600bd7cfb6416f0113b04181","602110864497cf011d9c0822","0","j","NA","space","space","space","NA","j","793","NA","4472","15883","6841","NA","793","2","legacy","1024","2","48000","-16","task","5200869","odd","NA","37985","44461","39988","84883","4044","26779","19936","85386","NA","84880","85386","84841","44461","86179","36216","84341","3990","80019","Lexical Decision Task","20","22150","25","yes","1024"
"2.884795364","0","6","flob","non-word","76.92307692307692","76.92307692307692","880.6538461538462","880.6538461538462","black","no","legacy","legacy","legacy","0","uniform","0","undefined","undefined","undefined","0","f","0","0","0","0","25","0","0","0","25","NA","21","25","21","0","21","3","25","0","25","Fri Feb 19 13:04:17 2021","The main experiment item","yes","Lexical_Decision_Task.osexp","/Users/tobydenholm","no","Andale Mono","no","18","no","white","no","yes","576","legacy","21","21","3","/Users/tobydenholm/subject-5200869.csv","legacy","Lentiform Loewenfeld","3.3.7","yes","yes","600bd7cfb6416f0113b04181","602110864497cf011d9c0822","0","j","NA","space","space","space","NA","j","747","NA","4472","15883","6841","NA","747","2","legacy","1024","2","48000","-16","task","5200869","odd","NA","37985","44461","39988","86727","4044","26779","19936","87230","NA","86723","87230","86683","44461","87977","36216","86183","3990","80019","Lexical Decision Task","20","22897","26","yes","1024"
"3.274157849","0","8","leet","non-word","74.07407407407408","74.07407407407408","875.2962962962963","875.2962962962963","black","no","legacy","legacy","legacy","0","uniform","0","undefined","undefined","undefined","0","f","0","0","0","0","26","0","0","0","26","NA","22","26","22","0","22","3","26","0","26","Fri Feb 19 13:04:17 2021","The main experiment item","yes","Lexical_Decision_Task.osexp","/Users/tobydenholm","no","Andale Mono","no","18","no","white","no","yes","576","legacy","22","22","3","/Users/tobydenholm/subject-5200869.csv","legacy","Lentiform Loewenfeld","3.3.7","yes","yes","600bd7cfb6416f0113b04181","602110864497cf011d9c0822","0","j","NA","space","space","space","NA","j","736","NA","4472","15883","6841","NA","736","2","legacy","1024","2","48000","-16","task","5200869","odd","NA","37985","44461","39988","89525","4044","26779","19936","90028","NA","89522","90028","89481","44461","90764","36216","86183","3990","87981","Lexical Decision Task","20","23633","27","yes","1024"
"3.100255637","0","6","brax","non-word","75","75","876.7142857142857","876.7142857142857","black","no","legacy","legacy","legacy","0","uniform","1","undefined","undefined","undefined","1","f","0","0","0","0","27","0","0","0","27","NA","23","27","23","0","23","3","27","0","27","Fri Feb 19 13:04:17 2021","The main experiment item","yes","Lexical_Decision_Task.osexp","/Users/tobydenholm","no","Andale Mono","no","18","no","white","no","yes","576","legacy","23","23","3","/Users/tobydenholm/subject-5200869.csv","legacy","Lentiform Loewenfeld","3.3.7","yes","yes","600bd7cfb6416f0113b04181","602110864497cf011d9c0822","0","f","NA","space","space","space","NA","f","915","NA","4472","15883","6841","NA","915","2","legacy","1024","2","48000","-16","task","5200869","odd","NA","37985","44461","39988","92314","4044","26779","19936","92818","NA","92311","92818","92268","44461","93734","36216","86183","3990","90768","Lexical Decision Task","21","24548","28","yes","1024"
"3.119255889","6.63","2","itch","word","75.86206896551724","75.86206896551724","870.7586206896551","870.7586206896551","black","no","legacy","legacy","legacy","0","uniform","1","undefined","undefined","undefined","1","j","0","0","0","0","28","0","0","0","28","NA","24","28","24","0","24","3","28","0","28","Fri Feb 19 13:04:17 2021","The main experiment item","yes","Lexical_Decision_Task.osexp","/Users/tobydenholm","no","Andale Mono","no","18","no","white","no","yes","576","legacy","24","24","3","/Users/tobydenholm/subject-5200869.csv","legacy","Lentiform Loewenfeld","3.3.7","yes","yes","600bd7cfb6416f0113b04181","602110864497cf011d9c0822","0","j","NA","space","space","space","NA","j","704","NA","4472","15883","6841","NA","704","2","legacy","1024","2","48000","-16","task","5200869","odd","NA","37985","44461","39988","94282","4044","26779","19936","94785","NA","94279","94785","94238","44461","95490","36216","93738","3990","90768","Lexical Decision Task","22","25252","29","yes","1024"
"2.794720352","0","9","koot","non-word","73.33333333333333","73.33333333333333","873.1666666666666","873.1666666666666","black","no","legacy","legacy","legacy","0","uniform","0","undefined","undefined","undefined","0","f","0","0","0","0","29","0","0","0","29","NA","25","29","25","0","25","3","29","0","29","Fri Feb 19 13:04:17 2021","The main experiment item","yes","Lexical_Decision_Task.osexp","/Users/tobydenholm","no","Andale Mono","no","18","no","white","no","yes","576","legacy","25","25","3","/Users/tobydenholm/subject-5200869.csv","legacy","Lentiform Loewenfeld","3.3.7","yes","yes","600bd7cfb6416f0113b04181","602110864497cf011d9c0822","0","j","NA","space","space","space","NA","j","943","NA","4472","15883","6841","NA","943","2","legacy","1024","2","48000","-16","task","5200869","odd","NA","37985","44461","39988","96036","4044","26779","19936","96539","NA","96032","96539","95993","44461","97482","36216","95493","3990","90768","Lexical Decision Task","22","26195","30","yes","1024"
"3.282244367","0","6","fute","non-word","74.19354838709677","74.19354838709677","881.258064516129","881.258064516129","black","no","legacy","legacy","legacy","0","uniform","1","undefined","undefined","undefined","1","f","0","0","0","0","30","0","0","0","30","NA","26","30","26","0","26","3","30","0","30","Fri Feb 19 13:04:17 2021","The main experiment item","yes","Lexical_Decision_Task.osexp","/Users/tobydenholm","no","Andale Mono","no","18","no","white","no","yes","576","legacy","26","26","3","/Users/tobydenholm/subject-5200869.csv","legacy","Lentiform Loewenfeld","3.3.7","yes","yes","600bd7cfb6416f0113b04181","602110864497cf011d9c0822","0","f","NA","space","space","space","NA","f","1124","NA","4472","15883","6841","NA","1124","2","legacy","1024","2","48000","-16","task","5200869","odd","NA","37985","44461","39988","99033","4044","26779","19936","99536","NA","99029","99536","98986","44461","100661","36216","95493","3990","97486","Lexical Decision Task","23","27319","31","yes","1024"
"2.664011697","8.19","4","hawk","word","75","75","873.8125","873.8125","black","no","legacy","legacy","legacy","0","uniform","1","undefined","undefined","undefined","1","j","0","0","0","0","31","0","0","0","31","NA","27","31","27","0","27","3","31","0","31","Fri Feb 19 13:04:17 2021","The main experiment item","yes","Lexical_Decision_Task.osexp","/Users/tobydenholm","no","Andale Mono","no","18","no","white","no","yes","576","legacy","27","27","3","/Users/tobydenholm/subject-5200869.csv","legacy","Lentiform Loewenfeld","3.3.7","yes","yes","600bd7cfb6416f0113b04181","602110864497cf011d9c0822","0","j","NA","space","space","space","NA","j","643","NA","4472","15883","6841","NA","643","2","legacy","1024","2","48000","-16","task","5200869","odd","NA","37985","44461","39988","101208","4044","26779","19936","101711","NA","101205","101711","101164","44461","102355","36216","100664","3990","97486","Lexical Decision Task","24","27962","32","yes","1024"
"3.263399331","0","8","cour","non-word","75.75757575757575","75.75757575757575","871.4848484848485","871.4848484848485","black","no","legacy","legacy","legacy","0","uniform","1","undefined","undefined","undefined","1","f","0","0","0","0","32","0","0","0","32","NA","28","32","28","0","28","3","32","0","32","Fri Feb 19 13:04:17 2021","The main experiment item","yes","Lexical_Decision_Task.osexp","/Users/tobydenholm","no","Andale Mono","no","18","no","white","no","yes","576","legacy","28","28","3","/Users/tobydenholm/subject-5200869.csv","legacy","Lentiform Loewenfeld","3.3.7","yes","yes","600bd7cfb6416f0113b04181","602110864497cf011d9c0822","0","f","NA","space","space","space","NA","f","797","NA","4472","15883","6841","NA","797","2","legacy","1024","2","48000","-16","task","5200869","odd","NA","37985","44461","39988","102902","4044","26779","19936","103405","NA","102899","103405","102859","44461","104203","36216","102359","3990","97486","Lexical Decision Task","25","28759","33","yes","1024"
"2.819763221","0","2","durp","non-word","76.47058823529412","76.47058823529412","862.0588235294117","862.0588235294117","black","no","legacy","legacy","legacy","0","uniform","1","undefined","undefined","undefined","1","f","0","0","0","0","33","0","0","0","33","NA","29","33","29","0","29","3","33","0","33","Fri Feb 19 13:04:17 2021","The main experiment item","yes","Lexical_Decision_Task.osexp","/Users/tobydenholm","no","Andale Mono","no","18","no","white","no","yes","576","legacy","29","29","3","/Users/tobydenholm/subject-5200869.csv","legacy","Lentiform Loewenfeld","3.3.7","yes","yes","600bd7cfb6416f0113b04181","602110864497cf011d9c0822","0","f","NA","space","space","space","NA","f","551","NA","4472","15883","6841","NA","551","2","legacy","1024","2","48000","-16","task","5200869","odd","NA","37985","44461","39988","104750","4044","26779","19936","105253","NA","104747","105253","104706","44461","105805","36216","104206","3990","97486","Lexical Decision Task","26","29310","34","yes","1024"
"2.68604012","0","3","mulb","non-word","77.14285714285714","77.14285714285714","854.8","854.8","black","no","legacy","legacy","legacy","0","uniform","1","undefined","undefined","undefined","1","f","0","0","0","0","34","0","0","0","34","NA","30","34","30","0","30","3","34","0","34","Fri Feb 19 13:04:17 2021","The main experiment item","yes","Lexical_Decision_Task.osexp","/Users/tobydenholm","no","Andale Mono","no","18","no","white","no","yes","576","legacy","30","30","3","/Users/tobydenholm/subject-5200869.csv","legacy","Lentiform Loewenfeld","3.3.7","yes","yes","600bd7cfb6416f0113b04181","602110864497cf011d9c0822","0","f","NA","space","space","space","NA","f","608","NA","4472","15883","6841","NA","608","2","legacy","1024","2","48000","-16","task","5200869","odd","NA","37985","44461","39988","106352","4044","26779","19936","106855","NA","106349","106855","106308","44461","107464","36216","105808","3990","97486","Lexical Decision Task","27","29918","35","yes","1024"
"2.755364069","7.72","2","hoax","word","77.77777777777777","77.77777777777777","850.7222222222222","850.7222222222222","black","no","legacy","legacy","legacy","0","uniform","1","undefined","undefined","undefined","1","j","0","0","0","0","35","0","0","0","35","NA","31","35","31","0","31","3","35","0","35","Fri Feb 19 13:04:17 2021","The main experiment item","yes","Lexical_Decision_Task.osexp","/Users/tobydenholm","no","Andale Mono","no","18","no","white","no","yes","576","legacy","31","31","3","/Users/tobydenholm/subject-5200869.csv","legacy","Lentiform Loewenfeld","3.3.7","yes","yes","600bd7cfb6416f0113b04181","602110864497cf011d9c0822","0","j","NA","space","space","space","NA","j","708","NA","4472","15883","6841","NA","708","2","legacy","1024","2","48000","-16","task","5200869","odd","NA","37985","44461","39988","108010","4044","26779","19936","108513","NA","108006","108513","107968","44461","109222","36216","107468","3990","97486","Lexical Decision Task","28","30626","36","yes","1024"
"2.675164031","8.57","6","glue","word","78.37837837837837","78.37837837837837","846.4864864864865","846.4864864864865","black","no","legacy","legacy","legacy","0","uniform","1","undefined","undefined","undefined","1","j","0","0","0","0","36","0","0","0","36","NA","32","36","32","0","32","3","36","0","36","Fri Feb 19 13:04:17 2021","The main experiment item","yes","Lexical_Decision_Task.osexp","/Users/tobydenholm","no","Andale Mono","no","18","no","white","no","yes","576","legacy","32","32","3","/Users/tobydenholm/subject-5200869.csv","legacy","Lentiform Loewenfeld","3.3.7","yes","yes","600bd7cfb6416f0113b04181","602110864497cf011d9c0822","0","j","NA","space","space","space","NA","j","694","NA","4472","15883","6841","NA","694","2","legacy","1024","2","48000","-16","task","5200869","odd","NA","37985","44461","39988","109767","4044","26779","19936","110270","NA","109764","110270","109725","44461","110965","36216","109225","3990","97486","Lexical Decision Task","29","31320","37","yes","1024"
"2.744553742","0","2","nawk","non-word","78.94736842105263","78.94736842105263","844.2105263157895","844.2105263157895","black","no","legacy","legacy","legacy","0","uniform","1","undefined","undefined","undefined","1","f","0","0","0","0","37","0","0","0","37","NA","33","37","33","0","33","3","37","0","37","Fri Feb 19 13:04:17 2021","The main experiment item","yes","Lexical_Decision_Task.osexp","/Users/tobydenholm","no","Andale Mono","no","18","no","white","no","yes","576","legacy","33","33","3","/Users/tobydenholm/subject-5200869.csv","legacy","Lentiform Loewenfeld","3.3.7","yes","yes","600bd7cfb6416f0113b04181","602110864497cf011d9c0822","0","f","NA","space","space","space","NA","f","760","NA","4472","15883","6841","NA","760","2","legacy","1024","2","48000","-16","task","5200869","odd","NA","37985","44461","39988","111510","4044","26779","19936","112013","NA","111507","112013","111468","44461","112773","36216","110968","3990","97486","Lexical Decision Task","30","32080","38","yes","1024"
"3.495914186","0","4","peng","non-word","79.48717948717949","79.48717948717949","849.1025641025641","849.1025641025641","black","no","legacy","legacy","legacy","0","uniform","1","undefined","undefined","undefined","1","f","0","0","0","0","38","0","0","0","38","NA","34","38","34","0","34","3","38","0","38","Fri Feb 19 13:04:17 2021","The main experiment item","yes","Lexical_Decision_Task.osexp","/Users/tobydenholm","no","Andale Mono","no","18","no","white","no","yes","576","legacy","34","34","3","/Users/tobydenholm/subject-5200869.csv","legacy","Lentiform Loewenfeld","3.3.7","yes","yes","600bd7cfb6416f0113b04181","602110864497cf011d9c0822","0","f","NA","space","space","space","NA","f","1035","NA","4472","15883","6841","NA","1035","2","legacy","1024","2","48000","-16","task","5200869","odd","NA","37985","44461","39988","113321","4044","26779","19936","113824","NA","113318","113824","113277","44461","114860","36216","112777","3990","97486","Lexical Decision Task","31","33115","39","yes","1024"
"2.708989954","9.28","9","bowl","word","80","80","853.325","853.325","black","no","legacy","legacy","legacy","0","uniform","1","undefined","undefined","undefined","1","j","0","0","0","0","39","0","0","0","39","NA","35","39","35","0","35","3","39","0","39","Fri Feb 19 13:04:17 2021","The main experiment item","yes","Lexical_Decision_Task.osexp","/Users/tobydenholm","no","Andale Mono","no","18","no","white","no","yes","576","legacy","35","35","3","/Users/tobydenholm/subject-5200869.csv","legacy","Lentiform Loewenfeld","3.3.7","yes","yes","600bd7cfb6416f0113b04181","602110864497cf011d9c0822","0","j","NA","space","space","space","NA","j","1018","NA","4472","15883","6841","NA","1018","2","legacy","1024","2","48000","-16","task","5200869","odd","NA","37985","44461","39988","115407","4044","26779","19936","115910","NA","115403","115910","115364","44461","116928","36216","114864","3990","97486","Lexical Decision Task","32","34133","40","yes","1024"
"2.981215883","10.66","5","hair","word","80.48780487804878","80.48780487804878","850.0487804878048","850.0487804878048","black","no","legacy","legacy","legacy","0","uniform","1","undefined","undefined","undefined","1","j","0","0","0","0","40","0","0","0","40","NA","36","40","36","0","36","3","40","0","40","Fri Feb 19 13:04:17 2021","The main experiment item","yes","Lexical_Decision_Task.osexp","/Users/tobydenholm","no","Andale Mono","no","18","no","white","no","yes","576","legacy","36","36","3","/Users/tobydenholm/subject-5200869.csv","legacy","Lentiform Loewenfeld","3.3.7","yes","yes","600bd7cfb6416f0113b04181","602110864497cf011d9c0822","0","j","NA","space","space","space","NA","j","719","NA","4472","15883","6841","NA","719","2","legacy","1024","2","48000","-16","task","5200869","odd","NA","37985","44461","39988","117474","4044","26779","19936","117977","NA","117471","117977","117432","44461","118696","36216","116932","3990","97486","Lexical Decision Task","33","34852","41","yes","1024"
"3.105055783","0","2","norp","non-word","80.95238095238095","80.95238095238095","843.8571428571429","843.8571428571429","black","no","legacy","legacy","legacy","0","uniform","1","undefined","undefined","undefined","1","f","0","0","0","0","41","0","0","0","41","NA","37","41","37","0","37","3","41","0","41","Fri Feb 19 13:04:17 2021","The main experiment item","yes","Lexical_Decision_Task.osexp","/Users/tobydenholm","no","Andale Mono","no","18","no","white","no","yes","576","legacy","37","37","3","/Users/tobydenholm/subject-5200869.csv","legacy","Lentiform Loewenfeld","3.3.7","yes","yes","600bd7cfb6416f0113b04181","602110864497cf011d9c0822","0","f","NA","space","space","space","NA","f","590","NA","4472","15883","6841","NA","590","2","legacy","1024","2","48000","-16","task","5200869","odd","NA","37985","44461","39988","119244","4044","26779","19936","119747","NA","119241","119747","119200","44461","120338","36216","118700","3990","97486","Lexical Decision Task","34","35442","42","yes","1024"
"3.168400243","9.12","6","horn","word","81.3953488372093","81.3953488372093","845.1860465116279","845.1860465116279","black","no","legacy","legacy","legacy","0","uniform","1","undefined","undefined","undefined","1","j","0","0","0","0","42","0","0","0","42","NA","38","42","38","0","38","3","42","0","42","Fri Feb 19 13:04:17 2021","The main experiment item","yes","Lexical_Decision_Task.osexp","/Users/tobydenholm","no","Andale Mono","no","18","no","white","no","yes","576","legacy","38","38","3","/Users/tobydenholm/subject-5200869.csv","legacy","Lentiform Loewenfeld","3.3.7","yes","yes","600bd7cfb6416f0113b04181","602110864497cf011d9c0822","0","j","NA","space","space","space","NA","j","901","NA","4472","15883","6841","NA","901","2","legacy","1024","2","48000","-16","task","5200869","odd","NA","37985","44461","39988","120885","4044","26779","19936","121388","NA","120882","121388","120841","44461","122289","36216","120341","3990","97486","Lexical Decision Task","35","36343","43","yes","1024"
"2.980911938","7.15","7","hoop","word","81.81818181818181","81.81818181818181","840.6363636363636","840.6363636363636","black","no","legacy","legacy","legacy","0","uniform","1","undefined","undefined","undefined","1","j","0","0","0","0","43","0","0","0","43","NA","39","43","39","0","39","3","43","0","43","Fri Feb 19 13:04:17 2021","The main experiment item","yes","Lexical_Decision_Task.osexp","/Users/tobydenholm","no","Andale Mono","no","18","no","white","no","yes","576","legacy","39","39","3","/Users/tobydenholm/subject-5200869.csv","legacy","Lentiform Loewenfeld","3.3.7","yes","yes","600bd7cfb6416f0113b04181","602110864497cf011d9c0822","0","j","NA","space","space","space","NA","j","645","NA","4472","15883","6841","NA","645","2","legacy","1024","2","48000","-16","task","5200869","odd","NA","37985","44461","39988","122836","4044","26779","19936","123339","NA","122832","123339","122793","44461","123984","36216","122293","3990","97486","Lexical Decision Task","36","36988","44","yes","1024"
"3.043885998","0","9","gome","non-word","82.22222222222223","82.22222222222223","843.1333333333333","843.1333333333333","black","no","legacy","legacy","legacy","0","uniform","1","undefined","undefined","undefined","1","f","0","0","0","0","44","0","0","0","44","NA","40","44","40","0","40","3","44","0","44","Fri Feb 19 13:04:17 2021","The main experiment item","yes","Lexical_Decision_Task.osexp","/Users/tobydenholm","no","Andale Mono","no","18","no","white","no","yes","576","legacy","40","40","3","/Users/tobydenholm/subject-5200869.csv","legacy","Lentiform Loewenfeld","3.3.7","yes","yes","600bd7cfb6416f0113b04181","602110864497cf011d9c0822","0","f","NA","space","space","space","NA","f","953","NA","4472","15883","6841","NA","953","2","legacy","1024","2","48000","-16","task","5200869","odd","NA","37985","44461","39988","124531","4044","26779","19936","125034","NA","124527","125034","124488","44461","125988","36216","123988","3990","97486","Lexical Decision Task","37","37941","45","yes","1024"
"2.784379519","0","2","snaf","non-word","82.6086956521739","82.6086956521739","839.9782608695652","839.9782608695652","black","no","legacy","legacy","legacy","0","uniform","1","undefined","undefined","undefined","1","f","0","0","0","0","45","0","0","0","45","NA","41","45","41","0","41","3","45","0","45","Fri Feb 19 13:04:17 2021","The main experiment item","yes","Lexical_Decision_Task.osexp","/Users/tobydenholm","no","Andale Mono","no","18","no","white","no","yes","576","legacy","41","41","3","/Users/tobydenholm/subject-5200869.csv","legacy","Lentiform Loewenfeld","3.3.7","yes","yes","600bd7cfb6416f0113b04181","602110864497cf011d9c0822","0","f","NA","space","space","space","NA","f","698","NA","4472","15883","6841","NA","698","2","legacy","1024","2","48000","-16","task","5200869","odd","NA","37985","44461","39988","126534","4044","26779","19936","127037","NA","126531","127037","126492","44461","127736","36216","125992","3990","97486","Lexical Decision Task","38","38639","46","yes","1024"
"2.696356389","0","1","pizz","non-word","82.97872340425532","82.97872340425532","838.3829787234042","838.3829787234042","black","no","legacy","legacy","legacy","0","uniform","1","undefined","undefined","undefined","1","f","0","0","0","0","46","0","0","0","46","NA","42","46","42","0","42","3","46","0","46","Fri Feb 19 13:04:17 2021","The main experiment item","yes","Lexical_Decision_Task.osexp","/Users/tobydenholm","no","Andale Mono","no","18","no","white","no","yes","576","legacy","42","42","3","/Users/tobydenholm/subject-5200869.csv","legacy","Lentiform Loewenfeld","3.3.7","yes","yes","600bd7cfb6416f0113b04181","602110864497cf011d9c0822","0","f","NA","space","space","space","NA","f","765","NA","4472","15883","6841","NA","765","2","legacy","1024","2","48000","-16","task","5200869","odd","NA","37985","44461","39988","128284","4044","26779","19936","128787","NA","128281","128787","128239","44461","129553","36216","127739","3990","97486","Lexical Decision Task","39","39404","47","yes","1024"
"3.208172527","10.27","7","deck","word","83.33333333333333","83.33333333333333","835.375","835.375","black","no","legacy","legacy","legacy","0","uniform","1","undefined","undefined","undefined","1","j","0","0","0","0","47","0","0","0","47","NA","43","47","43","0","43","3","47","0","47","Fri Feb 19 13:04:17 2021","The main experiment item","yes","Lexical_Decision_Task.osexp","/Users/tobydenholm","no","Andale Mono","no","18","no","white","no","yes","576","legacy","43","43","3","/Users/tobydenholm/subject-5200869.csv","legacy","Lentiform Loewenfeld","3.3.7","yes","yes","600bd7cfb6416f0113b04181","602110864497cf011d9c0822","0","j","NA","space","space","space","NA","j","694","NA","4472","15883","6841","NA","694","2","legacy","1024","2","48000","-16","task","5200869","odd","NA","37985","44461","39988","130100","4044","26779","19936","130602","NA","130097","130603","130056","44461","131298","36216","129556","3990","97486","Lexical Decision Task","40","40098","48","yes","1024"
"3.088136089","8.32","9","worm","word","81.63265306122449","81.63265306122449","830.7142857142857","830.7142857142857","black","no","legacy","legacy","legacy","0","uniform","0","undefined","undefined","undefined","0","j","0","0","0","0","48","0","0","0","48","NA","44","48","44","0","44","3","48","0","48","Fri Feb 19 13:04:17 2021","The main experiment item","yes","Lexical_Decision_Task.osexp","/Users/tobydenholm","no","Andale Mono","no","18","no","white","no","yes","576","legacy","44","44","3","/Users/tobydenholm/subject-5200869.csv","legacy","Lentiform Loewenfeld","3.3.7","yes","yes","600bd7cfb6416f0113b04181","602110864497cf011d9c0822","0","f","NA","space","space","space","NA","f","607","NA","4472","15883","6841","NA","607","2","legacy","1024","2","48000","-16","task","5200869","odd","NA","37985","44461","39988","131843","4044","26779","19936","132346","NA","131839","132346","131801","44461","132954","36216","131301","3990","97486","Lexical Decision Task","40","40705","49","yes","1024"
"3.094121596","0","8","fode","non-word","82","82","829.92","829.92","black","no","legacy","legacy","legacy","0","uniform","1","undefined","undefined","undefined","1","f","0","0","0","0","49","0","0","0","49","NA","45","49","45","0","45","3","49","0","49","Fri Feb 19 13:04:17 2021","The main experiment item","yes","Lexical_Decision_Task.osexp","/Users/tobydenholm","no","Andale Mono","no","18","no","white","no","yes","576","legacy","45","45","3","/Users/tobydenholm/subject-5200869.csv","legacy","Lentiform Loewenfeld","3.3.7","yes","yes","600bd7cfb6416f0113b04181","602110864497cf011d9c0822","0","f","NA","space","space","space","NA","f","791","NA","4472","15883","6841","NA","791","2","legacy","1024","2","48000","-16","task","5200869","odd","NA","37985","44461","39988","134499","4044","26779","19936","135001","NA","134496","135002","134457","44461","135793","36216","131301","3990","132957","Lexical Decision Task","41","41496","50","yes","1024"
"3.031812271","6.52","3","gulp","word","82.3529411764706","82.3529411764706","828.7450980392157","828.7450980392157","black","no","legacy","legacy","legacy","0","uniform","1","undefined","undefined","undefined","1","j","0","0","0","0","50","0","0","0","50","NA","46","50","46","0","46","3","50","0","50","Fri Feb 19 13:04:17 2021","The main experiment item","yes","Lexical_Decision_Task.osexp","/Users/tobydenholm","no","Andale Mono","no","18","no","white","no","yes","576","legacy","46","46","3","/Users/tobydenholm/subject-5200869.csv","legacy","Lentiform Loewenfeld","3.3.7","yes","yes","600bd7cfb6416f0113b04181","602110864497cf011d9c0822","0","j","NA","space","space","space","NA","j","770","NA","4472","15883","6841","NA","770","2","legacy","1024","2","48000","-16","task","5200869","odd","NA","37985","44461","39988","136342","4044","26779","19936","136845","NA","136338","136845","136297","44461","137616","36216","135797","3990","132957","Lexical Decision Task","42","42266","51","yes","1024"
"2.897810299","0","5","glur","non-word","82.6923076923077","82.6923076923077","830.3461538461538","830.3461538461538","black","no","legacy","legacy","legacy","0","uniform","1","undefined","undefined","undefined","1","f","0","0","0","0","51","0","0","0","51","NA","47","51","47","0","47","3","51","0","51","Fri Feb 19 13:04:17 2021","The main experiment item","yes","Lexical_Decision_Task.osexp","/Users/tobydenholm","no","Andale Mono","no","18","no","white","no","yes","576","legacy","47","47","3","/Users/tobydenholm/subject-5200869.csv","legacy","Lentiform Loewenfeld","3.3.7","yes","yes","600bd7cfb6416f0113b04181","602110864497cf011d9c0822","0","f","NA","space","space","space","NA","f","912","NA","4472","15883","6841","NA","912","2","legacy","1024","2","48000","-16","task","5200869","odd","NA","37985","44461","39988","138161","4044","26779","19936","138664","NA","138158","138664","138119","44461","139577","36216","137619","3990","132957","Lexical Decision Task","43","43178","52","yes","1024"
"2.971428938","9.86","7","spot","word","83.01886792452831","83.01886792452831","832.2830188679245","832.2830188679245","black","no","legacy","legacy","legacy","0","uniform","1","undefined","undefined","undefined","1","j","0","0","0","0","52","0","0","0","52","NA","48","52","48","0","48","3","52","0","52","Fri Feb 19 13:04:17 2021","The main experiment item","yes","Lexical_Decision_Task.osexp","/Users/tobydenholm","no","Andale Mono","no","18","no","white","no","yes","576","legacy","48","48","3","/Users/tobydenholm/subject-5200869.csv","legacy","Lentiform Loewenfeld","3.3.7","yes","yes","600bd7cfb6416f0113b04181","602110864497cf011d9c0822","0","j","NA","space","space","space","NA","j","933","NA","4472","15883","6841","NA","933","2","legacy","1024","2","48000","-16","task","5200869","odd","NA","37985","44461","39988","140123","4044","26779","19936","140626","NA","140120","140626","140080","44461","141560","36216","139580","3990","132957","Lexical Decision Task","44","44111","53","yes","1024"
"2.990042563","6.64","9","plow","word","81.48148148148148","81.48148148148148","833.8888888888889","833.8888888888889","black","no","legacy","legacy","legacy","0","uniform","0","undefined","undefined","undefined","0","j","0","0","0","0","53","0","0","0","53","NA","49","53","49","0","49","3","53","0","53","Fri Feb 19 13:04:17 2021","The main experiment item","yes","Lexical_Decision_Task.osexp","/Users/tobydenholm","no","Andale Mono","no","18","no","white","no","yes","576","legacy","49","49","3","/Users/tobydenholm/subject-5200869.csv","legacy","Lentiform Loewenfeld","3.3.7","yes","yes","600bd7cfb6416f0113b04181","602110864497cf011d9c0822","0","f","NA","space","space","space","NA","f","919","NA","4472","15883","6841","NA","919","2","legacy","1024","2","48000","-16","task","5200869","odd","NA","37985","44461","39988","142105","4044","26779","19936","142608","NA","142102","142608","142063","44461","143528","36216","141563","3990","132957","Lexical Decision Task","44","45030","54","yes","1024"
"3.121778632","0","9","sark","non-word","81.81818181818181","81.81818181818181","836.7636363636364","836.7636363636364","black","no","legacy","legacy","legacy","0","uniform","1","undefined","undefined","undefined","1","f","0","0","0","0","54","0","0","0","54","0","50","54","50","0","50","3","54","0","54","Fri Feb 19 13:04:17 2021","The main experiment item","yes","Lexical_Decision_Task.osexp","/Users/tobydenholm","no","Andale Mono","no","18","no","white","no","yes","576","legacy","50","50","3","/Users/tobydenholm/subject-5200869.csv","legacy","Lentiform Loewenfeld","3.3.7","yes","yes","600bd7cfb6416f0113b04181","602110864497cf011d9c0822","0","f","NA","space","space","space","space","f","992","NA","4472","15883","6841","6015","992","2","legacy","1024","2","48000","-16","task","5200869","odd","NA","37985","44461","39988","151111","4044","26779","19936","151614","145056","151108","151614","145031","44461","152607","36216","141563","3990","143531","Lexical Decision Task","45","46022","55","yes","1024"
"3.374198258","0","8","vist","non-word","80.35714285714286","80.35714285714286","832.8928571428571","832.8928571428571","black","no","legacy","legacy","legacy","0","uniform","0","undefined","undefined","undefined","0","f","0","0","0","0","55","0","0","0","55","0","51","55","51","0","51","3","55","0","55","Fri Feb 19 13:04:17 2021","The main experiment item","yes","Lexical_Decision_Task.osexp","/Users/tobydenholm","no","Andale Mono","no","18","no","white","no","yes","576","legacy","51","51","3","/Users/tobydenholm/subject-5200869.csv","legacy","Lentiform Loewenfeld","3.3.7","yes","yes","600bd7cfb6416f0113b04181","602110864497cf011d9c0822","0","j","NA","space","space","space","space","j","620","NA","4472","15883","6841","6015","620","2","legacy","1024","2","48000","-16","task","5200869","odd","NA","37985","44461","39988","153152","4044","26779","19936","153655","145056","153149","153655","153110","44461","154276","36216","152610","3990","143531","Lexical Decision Task","45","46642","56","yes","1024"
"2.695770526","7.34","6","pawn","word","80.70175438596492","80.70175438596492","832.280701754386","832.280701754386","black","no","legacy","legacy","legacy","0","uniform","1","undefined","undefined","undefined","1","j","0","0","0","0","56","0","0","0","56","0","52","56","52","0","52","3","56","0","56","Fri Feb 19 13:04:17 2021","The main experiment item","yes","Lexical_Decision_Task.osexp","/Users/tobydenholm","no","Andale Mono","no","18","no","white","no","yes","576","legacy","52","52","3","/Users/tobydenholm/subject-5200869.csv","legacy","Lentiform Loewenfeld","3.3.7","yes","yes","600bd7cfb6416f0113b04181","602110864497cf011d9c0822","0","j","NA","space","space","space","space","j","798","NA","4472","15883","6841","6015","798","2","legacy","1024","2","48000","-16","task","5200869","odd","NA","37985","44461","39988","155826","4044","26779","19936","156329","145056","155823","156329","155779","44461","157128","36216","152610","3990","154279","Lexical Decision Task","46","47440","57","yes","1024"
"3.077974404","10.41","8","tool","word","81.03448275862068","81.03448275862068","830.1379310344828","830.1379310344828","black","no","legacy","legacy","legacy","0","uniform","1","undefined","undefined","undefined","1","j","0","0","0","0","57","0","0","0","57","0","53","57","53","0","53","3","57","0","57","Fri Feb 19 13:04:17 2021","The main experiment item","yes","Lexical_Decision_Task.osexp","/Users/tobydenholm","no","Andale Mono","no","18","no","white","no","yes","576","legacy","53","53","3","/Users/tobydenholm/subject-5200869.csv","legacy","Lentiform Loewenfeld","3.3.7","yes","yes","600bd7cfb6416f0113b04181","602110864497cf011d9c0822","0","j","NA","space","space","space","space","j","708","NA","4472","15883","6841","6015","708","2","legacy","1024","2","48000","-16","task","5200869","odd","NA","37985","44461","39988","157673","4044","26779","19936","158176","145056","157670","158176","157631","44461","158884","36216","157131","3990","154279","Lexical Decision Task","47","48148","58","yes","1024"
"3.372543801","9.24","8","coat","word","81.35593220338983","81.35593220338983","826.0847457627119","826.0847457627119","black","no","legacy","legacy","legacy","0","uniform","1","undefined","undefined","undefined","1","j","0","0","0","0","58","0","0","0","58","0","54","58","54","0","54","3","58","0","58","Fri Feb 19 13:04:17 2021","The main experiment item","yes","Lexical_Decision_Task.osexp","/Users/tobydenholm","no","Andale Mono","no","18","no","white","no","yes","576","legacy","54","54","3","/Users/tobydenholm/subject-5200869.csv","legacy","Lentiform Loewenfeld","3.3.7","yes","yes","600bd7cfb6416f0113b04181","602110864497cf011d9c0822","0","j","NA","space","space","space","space","j","591","NA","4472","15883","6841","6015","591","2","legacy","1024","2","48000","-16","task","5200869","odd","NA","37985","44461","39988","159433","4044","26779","19936","159936","145056","159429","159936","159388","44461","160528","36216","158888","3990","154279","Lexical Decision Task","48","48739","59","yes","1024"
"3.311895072","0","9","gung","non-word","81.66666666666667","81.66666666666667","826.5833333333334","826.5833333333334","black","no","legacy","legacy","legacy","0","uniform","1","undefined","undefined","undefined","1","f","0","0","0","0","59","0","0","0","59","0","55","59","55","0","55","3","59","0","59","Fri Feb 19 13:04:17 2021","The main experiment item","yes","Lexical_Decision_Task.osexp","/Users/tobydenholm","no","Andale Mono","no","18","no","white","no","yes","576","legacy","55","55","3","/Users/tobydenholm/subject-5200869.csv","legacy","Lentiform Loewenfeld","3.3.7","yes","yes","600bd7cfb6416f0113b04181","602110864497cf011d9c0822","0","f","NA","space","space","space","space","f","856","NA","4472","15883","6841","6015","856","2","legacy","1024","2","48000","-16","task","5200869","odd","NA","37985","44461","39988","161076","4044","26779","19936","161579","145056","161073","161579","161032","44461","162436","36216","160532","3990","154279","Lexical Decision Task","49","49595","60","yes","1024"
"3.132473155","0","4","glim","non-word","80.32786885245902","80.32786885245902","832.1311475409836","832.1311475409836","black","no","legacy","legacy","legacy","0","uniform","0","undefined","undefined","undefined","0","f","0","0","0","0","60","0","0","0","60","0","56","60","56","0","56","3","60","0","60","Fri Feb 19 13:04:17 2021","The main experiment item","yes","Lexical_Decision_Task.osexp","/Users/tobydenholm","no","Andale Mono","no","18","no","white","no","yes","576","legacy","56","56","3","/Users/tobydenholm/subject-5200869.csv","legacy","Lentiform Loewenfeld","3.3.7","yes","yes","600bd7cfb6416f0113b04181","602110864497cf011d9c0822","0","j","NA","space","space","space","space","j","1165","NA","4472","15883","6841","6015","1165","2","legacy","1024","2","48000","-16","task","5200869","odd","NA","37985","44461","39988","162982","4044","26779","19936","163485","145056","162979","163485","162939","44461","164650","36216","162439","3990","154279","Lexical Decision Task","49","50760","61","yes","1024"
"3.137775856","7.39","5","comb","word","80.64516129032258","80.64516129032258","832.3225806451613","832.3225806451613","black","no","legacy","legacy","legacy","0","uniform","1","undefined","undefined","undefined","1","j","0","0","0","0","61","0","0","0","61","0","57","61","57","0","57","3","61","0","61","Fri Feb 19 13:04:17 2021","The main experiment item","yes","Lexical_Decision_Task.osexp","/Users/tobydenholm","no","Andale Mono","no","18","no","white","no","yes","576","legacy","57","57","3","/Users/tobydenholm/subject-5200869.csv","legacy","Lentiform Loewenfeld","3.3.7","yes","yes","600bd7cfb6416f0113b04181","602110864497cf011d9c0822","0","j","NA","space","space","space","space","j","844","NA","4472","15883","6841","6015","844","2","legacy","1024","2","48000","-16","task","5200869","odd","NA","37985","44461","39988","166200","4044","26779","19936","166703","145056","166197","166703","166154","44461","167548","36216","162439","3990","164654","Lexical Decision Task","50","51604","62","yes","1024"
"3.174641193","0","3","ramb","non-word","80.95238095238095","80.95238095238095","830.7936507936508","830.7936507936508","black","no","legacy","legacy","legacy","0","uniform","1","undefined","undefined","undefined","1","f","0","0","0","0","62","0","0","0","62","0","58","62","58","0","58","3","62","0","62","Fri Feb 19 13:04:17 2021","The main experiment item","yes","Lexical_Decision_Task.osexp","/Users/tobydenholm","no","Andale Mono","no","18","no","white","no","yes","576","legacy","58","58","3","/Users/tobydenholm/subject-5200869.csv","legacy","Lentiform Loewenfeld","3.3.7","yes","yes","600bd7cfb6416f0113b04181","602110864497cf011d9c0822","0","f","NA","space","space","space","space","f","736","NA","4472","15883","6841","6015","736","2","legacy","1024","2","48000","-16","task","5200869","odd","NA","37985","44461","39988","168097","4044","26779","19936","168600","145056","168093","168600","168052","44461","169337","36216","167552","3990","164654","Lexical Decision Task","51","52340","63","yes","1024"
"3.194328374","9.42","6","harm","word","81.25","81.25","826.875","826.875","black","no","legacy","legacy","legacy","0","uniform","1","undefined","undefined","undefined","1","j","0","0","0","0","63","0","0","0","63","0","59","63","59","0","59","3","63","0","63","Fri Feb 19 13:04:17 2021","The main experiment item","yes","Lexical_Decision_Task.osexp","/Users/tobydenholm","no","Andale Mono","no","18","no","white","no","yes","576","legacy","59","59","3","/Users/tobydenholm/subject-5200869.csv","legacy","Lentiform Loewenfeld","3.3.7","yes","yes","600bd7cfb6416f0113b04181","602110864497cf011d9c0822","0","j","NA","space","space","space","space","j","580","NA","4472","15883","6841","6015","580","2","legacy","1024","2","48000","-16","task","5200869","odd","NA","37985","44461","39988","169883","4044","26779","19936","170386","145056","169879","170386","169841","44461","170967","36216","169341","3990","164654","Lexical Decision Task","52","52920","64","yes","1024"
"2.953276337","6.32","4","thaw","word","80","80","822.3538461538461","822.3538461538461","black","no","legacy","legacy","legacy","0","uniform","0","undefined","undefined","undefined","0","j","0","0","0","0","64","0","0","0","64","0","60","64","60","0","60","3","64","0","64","Fri Feb 19 13:04:17 2021","The main experiment item","yes","Lexical_Decision_Task.osexp","/Users/tobydenholm","no","Andale Mono","no","18","no","white","no","yes","576","legacy","60","60","3","/Users/tobydenholm/subject-5200869.csv","legacy","Lentiform Loewenfeld","3.3.7","yes","yes","600bd7cfb6416f0113b04181","602110864497cf011d9c0822","0","f","NA","space","space","space","space","f","533","NA","4472","15883","6841","6015","533","2","legacy","1024","2","48000","-16","task","5200869","odd","NA","37985","44461","39988","171514","4044","26779","19936","172017","145056","171511","172017","171470","44461","172551","36216","170970","3990","164654","Lexical Decision Task","52","53453","65","yes","1024"
"2.893578687","8.69","3","surf","word","80.3030303030303","80.3030303030303","818.4545454545455","818.4545454545455","black","no","legacy","legacy","legacy","0","uniform","1","undefined","undefined","undefined","1","j","0","0","0","0","65","0","0","0","65","0","61","65","61","0","61","3","65","0","65","Fri Feb 19 13:04:17 2021","The main experiment item","yes","Lexical_Decision_Task.osexp","/Users/tobydenholm","no","Andale Mono","no","18","no","white","no","yes","576","legacy","61","61","3","/Users/tobydenholm/subject-5200869.csv","legacy","Lentiform Loewenfeld","3.3.7","yes","yes","600bd7cfb6416f0113b04181","602110864497cf011d9c0822","0","j","NA","space","space","space","space","j","565","NA","4472","15883","6841","6015","565","2","legacy","1024","2","48000","-16","task","5200869","odd","NA","37985","44461","39988","174100","4044","26779","19936","174603","145056","174097","174603","174055","44461","175168","36216","170970","3990","172555","Lexical Decision Task","53","54018","66","yes","1024"
"3.274543461","7.46","7","scar","word","80.59701492537313","80.59701492537313","814.8955223880597","814.8955223880597","black","no","legacy","legacy","legacy","0","uniform","1","undefined","undefined","undefined","1","j","0","0","0","0","66","0","0","0","66","0","62","66","62","0","62","3","66","0","66","Fri Feb 19 13:04:17 2021","The main experiment item","yes","Lexical_Decision_Task.osexp","/Users/tobydenholm","no","Andale Mono","no","18","no","white","no","yes","576","legacy","62","62","3","/Users/tobydenholm/subject-5200869.csv","legacy","Lentiform Loewenfeld","3.3.7","yes","yes","600bd7cfb6416f0113b04181","602110864497cf011d9c0822","0","j","NA","space","space","space","space","j","580","NA","4472","15883","6841","6015","580","2","legacy","1024","2","48000","-16","task","5200869","odd","NA","37985","44461","39988","175717","4044","26779","19936","176220","145056","175713","176220","175672","44461","176800","36216","175172","3990","172555","Lexical Decision Task","54","54598","67","yes","1024"
"3.208978517","10.33","4","fish","word","80.88235294117646","80.88235294117646","810.8529411764706","810.8529411764706","black","no","legacy","legacy","legacy","0","uniform","1","undefined","undefined","undefined","1","j","0","0","0","0","67","0","0","0","67","0","63","67","63","0","63","3","67","0","67","Fri Feb 19 13:04:17 2021","The main experiment item","yes","Lexical_Decision_Task.osexp","/Users/tobydenholm","no","Andale Mono","no","18","no","white","no","yes","576","legacy","63","63","3","/Users/tobydenholm/subject-5200869.csv","legacy","Lentiform Loewenfeld","3.3.7","yes","yes","600bd7cfb6416f0113b04181","602110864497cf011d9c0822","0","j","NA","space","space","space","space","j","540","NA","4472","15883","6841","6015","540","2","legacy","1024","2","48000","-16","task","5200869","odd","NA","37985","44461","39988","177346","4044","26779","19936","177849","145056","177343","177849","177304","44461","178390","36216","176804","3990","172555","Lexical Decision Task","55","55138","68","yes","1024"
"3.302475237","0","7","leel","non-word","81.15942028985508","81.15942028985508","810.4492753623189","810.4492753623189","black","no","legacy","legacy","legacy","0","uniform","1","undefined","undefined","undefined","1","f","0","0","0","0","68","0","0","0","68","0","64","68","64","0","64","3","68","0","68","Fri Feb 19 13:04:17 2021","The main experiment item","yes","Lexical_Decision_Task.osexp","/Users/tobydenholm","no","Andale Mono","no","18","no","white","no","yes","576","legacy","64","64","3","/Users/tobydenholm/subject-5200869.csv","legacy","Lentiform Loewenfeld","3.3.7","yes","yes","600bd7cfb6416f0113b04181","602110864497cf011d9c0822","0","f","NA","space","space","space","space","f","783","NA","4472","15883","6841","6015","783","2","legacy","1024","2","48000","-16","task","5200869","odd","NA","37985","44461","39988","178937","4044","26779","19936","179440","145056","178934","179440","178893","44461","180223","36216","178393","3990","172555","Lexical Decision Task","56","55921","69","yes","1024"
"3.384413096","10.15","3","glad","word","81.42857142857143","81.42857142857143","808.4571428571429","808.4571428571429","black","no","legacy","legacy","legacy","0","uniform","1","undefined","undefined","undefined","1","j","0","0","0","0","69","0","0","0","69","0","65","69","65","0","65","3","69","0","69","Fri Feb 19 13:04:17 2021","The main experiment item","yes","Lexical_Decision_Task.osexp","/Users/tobydenholm","no","Andale Mono","no","18","no","white","no","yes","576","legacy","65","65","3","/Users/tobydenholm/subject-5200869.csv","legacy","Lentiform Loewenfeld","3.3.7","yes","yes","600bd7cfb6416f0113b04181","602110864497cf011d9c0822","0","j","NA","space","space","space","space","j","671","NA","4472","15883","6841","6015","671","2","legacy","1024","2","48000","-16","task","5200869","odd","NA","37985","44461","39988","180772","4044","26779","19936","181275","145056","180769","181275","180727","44461","181947","36216","180227","3990","172555","Lexical Decision Task","57","56592","70","yes","1024"
"2.6599162","0","6","flug","non-word","81.69014084507042","81.69014084507042","808.9154929577464","808.9154929577464","black","no","legacy","legacy","legacy","0","uniform","1","undefined","undefined","undefined","1","f","0","0","0","0","70","0","0","0","70","0","66","70","66","0","66","3","70","0","70","Fri Feb 19 13:04:17 2021","The main experiment item","yes","Lexical_Decision_Task.osexp","/Users/tobydenholm","no","Andale Mono","no","18","no","white","no","yes","576","legacy","66","66","3","/Users/tobydenholm/subject-5200869.csv","legacy","Lentiform Loewenfeld","3.3.7","yes","yes","600bd7cfb6416f0113b04181","602110864497cf011d9c0822","0","f","NA","space","space","space","space","f","841","NA","4472","15883","6841","6015","841","2","legacy","1024","2","48000","-16","task","5200869","odd","NA","37985","44461","39988","182494","4044","26779","19936","182998","145056","182491","182998","182450","44461","183841","36216","181950","3990","172555","Lexical Decision Task","58","57433","71","yes","1024"
"2.895974732","6.65","5","sift","word","80.55555555555556","80.55555555555556","816.3055555555555","816.3055555555555","black","no","legacy","legacy","legacy","0","uniform","0","undefined","undefined","undefined","0","j","0","0","0","0","71","0","0","0","71","0","67","71","67","0","67","3","71","0","71","Fri Feb 19 13:04:17 2021","The main experiment item","yes","Lexical_Decision_Task.osexp","/Users/tobydenholm","no","Andale Mono","no","18","no","white","no","yes","576","legacy","67","67","3","/Users/tobydenholm/subject-5200869.csv","legacy","Lentiform Loewenfeld","3.3.7","yes","yes","600bd7cfb6416f0113b04181","602110864497cf011d9c0822","0","f","NA","space","space","space","space","f","1341","NA","4472","15883","6841","6015","1341","2","legacy","1024","2","48000","-16","task","5200869","odd","NA","37985","44461","39988","184389","4044","26779","19936","184892","145056","184386","184892","184344","44461","186233","36216","183844","3990","172555","Lexical Decision Task","58","58774","72","yes","1024"
"3.481012421","8.34","5","teen","word","80.82191780821918","80.82191780821918","814.3150684931506","814.3150684931506","black","no","legacy","legacy","legacy","0","uniform","1","undefined","undefined","undefined","1","j","0","0","0","0","72","0","0","0","72","0","68","72","68","0","68","3","72","0","72","Fri Feb 19 13:04:17 2021","The main experiment item","yes","Lexical_Decision_Task.osexp","/Users/tobydenholm","no","Andale Mono","no","18","no","white","no","yes","576","legacy","68","68","3","/Users/tobydenholm/subject-5200869.csv","legacy","Lentiform Loewenfeld","3.3.7","yes","yes","600bd7cfb6416f0113b04181","602110864497cf011d9c0822","0","j","NA","space","space","space","space","j","671","NA","4472","15883","6841","6015","671","2","legacy","1024","2","48000","-16","task","5200869","odd","NA","37985","44461","39988","187784","4044","26779","19936","188287","145056","187780","188287","187737","44461","188959","36216","183844","3990","186237","Lexical Decision Task","59","59445","73","yes","1024"
"3.037294994","8.64","7","roof","word","81.08108108108108","81.08108108108108","811.0945945945946","811.0945945945946","black","no","legacy","legacy","legacy","0","uniform","1","undefined","undefined","undefined","1","j","0","0","0","0","73","0","0","0","73","0","69","73","69","0","69","3","73","0","73","Fri Feb 19 13:04:17 2021","The main experiment item","yes","Lexical_Decision_Task.osexp","/Users/tobydenholm","no","Andale Mono","no","18","no","white","no","yes","576","legacy","69","69","3","/Users/tobydenholm/subject-5200869.csv","legacy","Lentiform Loewenfeld","3.3.7","yes","yes","600bd7cfb6416f0113b04181","602110864497cf011d9c0822","0","j","NA","space","space","space","space","j","576","NA","4472","15883","6841","6015","576","2","legacy","1024","2","48000","-16","task","5200869","odd","NA","37985","44461","39988","189507","4044","26779","19936","190010","145056","189504","190010","189463","44461","190586","36216","188963","3990","186237","Lexical Decision Task","60","60021","74","yes","1024"
"2.799799878","0","4","ciff","non-word","80","80","814.72","814.72","black","no","legacy","legacy","legacy","0","uniform","0","undefined","undefined","undefined","0","f","0","0","0","0","74","0","0","0","74","0","70","74","70","0","70","3","74","0","74","Fri Feb 19 13:04:17 2021","The main experiment item","yes","Lexical_Decision_Task.osexp","/Users/tobydenholm","no","Andale Mono","no","18","no","white","no","yes","576","legacy","70","70","3","/Users/tobydenholm/subject-5200869.csv","legacy","Lentiform Loewenfeld","3.3.7","yes","yes","600bd7cfb6416f0113b04181","602110864497cf011d9c0822","0","j","NA","space","space","space","space","j","1083","NA","4472","15883","6841","6015","1083","2","legacy","1024","2","48000","-16","task","5200869","odd","NA","37985","44461","39988","191133","4044","26779","19936","191636","145056","191130","191636","191090","44461","192719","36216","190590","3990","186237","Lexical Decision Task","60","61104","75","yes","1024"
"3.397302518","7.01","2","knit","word","80.26315789473684","80.26315789473684","813.5657894736842","813.5657894736842","black","no","legacy","legacy","legacy","0","uniform","1","undefined","undefined","undefined","1","j","0","0","0","0","75","0","0","0","75","0","71","75","71","0","71","3","75","0","75","Fri Feb 19 13:04:17 2021","The main experiment item","yes","Lexical_Decision_Task.osexp","/Users/tobydenholm","no","Andale Mono","no","18","no","white","no","yes","576","legacy","71","71","3","/Users/tobydenholm/subject-5200869.csv","legacy","Lentiform Loewenfeld","3.3.7","yes","yes","600bd7cfb6416f0113b04181","602110864497cf011d9c0822","0","j","NA","space","space","space","space","j","727","NA","4472","15883","6841","6015","727","2","legacy","1024","2","48000","-16","task","5200869","odd","NA","37985","44461","39988","194270","4044","26779","19936","194774","145056","194267","194774","194223","44461","195501","36216","190590","3990","192723","Lexical Decision Task","61","61831","76","yes","1024"
"2.771097306","0","9","jold","non-word","80.51948051948052","80.51948051948052","812.2597402597403","812.2597402597403","black","no","legacy","legacy","legacy","0","uniform","1","undefined","undefined","undefined","1","f","0","0","0","0","76","0","0","0","76","0","72","76","72","0","72","3","76","0","76","Fri Feb 19 13:04:17 2021","The main experiment item","yes","Lexical_Decision_Task.osexp","/Users/tobydenholm","no","Andale Mono","no","18","no","white","no","yes","576","legacy","72","72","3","/Users/tobydenholm/subject-5200869.csv","legacy","Lentiform Loewenfeld","3.3.7","yes","yes","600bd7cfb6416f0113b04181","602110864497cf011d9c0822","0","f","NA","space","space","space","space","f","713","NA","4472","15883","6841","6015","713","2","legacy","1024","2","48000","-16","task","5200869","odd","NA","37985","44461","39988","196047","4044","26779","19936","196550","145056","196044","196550","196005","44461","197264","36216","195505","3990","192723","Lexical Decision Task","62","62544","77","yes","1024"
"2.898725182","0","7","turl","non-word","80.76923076923077","80.76923076923077","811.7051282051282","811.7051282051282","black","no","legacy","legacy","legacy","0","uniform","1","undefined","undefined","undefined","1","f","0","0","0","0","77","0","0","0","77","0","73","77","73","0","73","3","77","0","77","Fri Feb 19 13:04:17 2021","The main experiment item","yes","Lexical_Decision_Task.osexp","/Users/tobydenholm","no","Andale Mono","no","18","no","white","no","yes","576","legacy","73","73","3","/Users/tobydenholm/subject-5200869.csv","legacy","Lentiform Loewenfeld","3.3.7","yes","yes","600bd7cfb6416f0113b04181","602110864497cf011d9c0822","0","f","NA","space","space","space","space","f","769","NA","4472","15883","6841","6015","769","2","legacy","1024","2","48000","-16","task","5200869","odd","NA","37985","44461","39988","197813","4044","26779","19936","198316","145056","197809","198316","197768","44461","199086","36216","197268","3990","192723","Lexical Decision Task","63","63313","78","yes","1024"
"3.062080345","0","6","tomp","non-word","81.0126582278481","81.0126582278481","809.2151898734177","809.2151898734177","black","no","legacy","legacy","legacy","0","uniform","1","undefined","undefined","undefined","1","f","0","0","0","0","78","0","0","0","78","0","74","78","74","0","74","3","78","0","78","Fri Feb 19 13:04:17 2021","The main experiment item","yes","Lexical_Decision_Task.osexp","/Users/tobydenholm","no","Andale Mono","no","18","no","white","no","yes","576","legacy","74","74","3","/Users/tobydenholm/subject-5200869.csv","legacy","Lentiform Loewenfeld","3.3.7","yes","yes","600bd7cfb6416f0113b04181","602110864497cf011d9c0822","0","f","NA","space","space","space","space","f","615","NA","4472","15883","6841","6015","615","2","legacy","1024","2","48000","-16","task","5200869","odd","NA","37985","44461","39988","199633","4044","26779","19936","200136","145056","199630","200136","199589","44461","200752","36216","199089","3990","192723","Lexical Decision Task","64","63928","79","yes","1024"
"2.980306438","0","7","slun","non-word","81.25","81.25","808.3375","808.3375","black","no","legacy","legacy","legacy","0","uniform","1","undefined","undefined","undefined","1","f","0","0","0","0","79","0","0","0","79","0","75","79","75","0","75","3","79","0","79","Fri Feb 19 13:04:17 2021","The main experiment item","yes","Lexical_Decision_Task.osexp","/Users/tobydenholm","no","Andale Mono","no","18","no","white","no","yes","576","legacy","75","75","3","/Users/tobydenholm/subject-5200869.csv","legacy","Lentiform Loewenfeld","3.3.7","yes","yes","600bd7cfb6416f0113b04181","602110864497cf011d9c0822","0","f","NA","space","space","space","space","f","739","NA","4472","15883","6841","6015","739","2","legacy","1024","2","48000","-16","task","5200869","odd","NA","37985","44461","39988","201298","4044","26779","19936","201801","145056","201295","201801","201255","44461","202541","36216","200755","3990","192723","Lexical Decision Task","65","64667","80","yes","1024"
"2.809559715","8.44","4","volt","word","81.48148148148148","81.48148148148148","809.9876543209876","809.9876543209876","black","no","legacy","legacy","legacy","0","uniform","1","undefined","undefined","undefined","1","j","0","0","0","0","80","0","0","0","80","0","76","80","76","0","76","3","80","0","80","Fri Feb 19 13:04:17 2021","The main experiment item","yes","Lexical_Decision_Task.osexp","/Users/tobydenholm","no","Andale Mono","no","18","no","white","no","yes","576","legacy","76","76","3","/Users/tobydenholm/subject-5200869.csv","legacy","Lentiform Loewenfeld","3.3.7","yes","yes","600bd7cfb6416f0113b04181","602110864497cf011d9c0822","0","j","NA","space","space","space","space","j","942","NA","4472","15883","6841","6015","942","2","legacy","1024","2","48000","-16","task","5200869","odd","NA","37985","44461","39988","203089","4044","26779","19936","203592","145056","203086","203592","203045","44461","204535","36216","202545","3990","192723","Lexical Decision Task","66","65609","81","yes","1024"
"2.899092422","7.27","6","snag","word","80.48780487804878","80.48780487804878","810.780487804878","810.780487804878","black","no","legacy","legacy","legacy","0","uniform","0","undefined","undefined","undefined","0","j","0","0","0","0","81","0","0","0","81","0","77","81","77","0","77","3","81","0","81","Fri Feb 19 13:04:17 2021","The main experiment item","yes","Lexical_Decision_Task.osexp","/Users/tobydenholm","no","Andale Mono","no","18","no","white","no","yes","576","legacy","77","77","3","/Users/tobydenholm/subject-5200869.csv","legacy","Lentiform Loewenfeld","3.3.7","yes","yes","600bd7cfb6416f0113b04181","602110864497cf011d9c0822","0","f","NA","space","space","space","space","f","875","NA","4472","15883","6841","6015","875","2","legacy","1024","2","48000","-16","task","5200869","odd","NA","37985","44461","39988","205080","4044","26779","19936","205583","145056","205077","205583","205038","44461","206458","36216","204538","3990","192723","Lexical Decision Task","66","66484","82","yes","1024"
"2.767650507","0","6","yolt","non-word","79.51807228915662","79.51807228915662","812.0361445783133","812.0361445783133","black","no","legacy","legacy","legacy","0","uniform","0","undefined","undefined","undefined","0","f","0","0","0","0","82","0","0","0","82","0","78","82","78","0","78","3","82","0","82","Fri Feb 19 13:04:17 2021","The main experiment item","yes","Lexical_Decision_Task.osexp","/Users/tobydenholm","no","Andale Mono","no","18","no","white","no","yes","576","legacy","78","78","3","/Users/tobydenholm/subject-5200869.csv","legacy","Lentiform Loewenfeld","3.3.7","yes","yes","600bd7cfb6416f0113b04181","602110864497cf011d9c0822","0","j","NA","space","space","space","space","j","915","NA","4472","15883","6841","6015","915","2","legacy","1024","2","48000","-16","task","5200869","odd","NA","37985","44461","39988","208002","4044","26779","19936","208504","145056","207999","208504","207962","44461","209420","36216","204538","3990","206462","Lexical Decision Task","66","67399","83","yes","1024"
"3.261341392","5.08","8","reek","word","78.57142857142857","78.57142857142857","809.4880952380952","809.4880952380952","black","no","legacy","legacy","legacy","0","uniform","0","undefined","undefined","undefined","0","j","0","0","0","0","83","0","0","0","83","0","79","83","79","0","79","3","83","0","83","Fri Feb 19 13:04:17 2021","The main experiment item","yes","Lexical_Decision_Task.osexp","/Users/tobydenholm","no","Andale Mono","no","18","no","white","no","yes","576","legacy","79","79","3","/Users/tobydenholm/subject-5200869.csv","legacy","Lentiform Loewenfeld","3.3.7","yes","yes","600bd7cfb6416f0113b04181","602110864497cf011d9c0822","0","f","NA","space","space","space","space","f","598","NA","4472","15883","6841","6015","598","2","legacy","1024","2","48000","-16","task","5200869","odd","NA","37985","44461","39988","210971","4044","26779","19936","211474","145056","210968","211474","210923","44461","212073","36216","204538","3990","209423","Lexical Decision Task","66","67997","84","yes","1024"
"3.039414119","0","9","meep","non-word","78.82352941176471","78.82352941176471","808.0117647058823","808.0117647058823","black","no","legacy","legacy","legacy","0","uniform","1","undefined","undefined","undefined","1","f","0","0","0","0","84","0","0","0","84","0","80","84","80","0","80","3","84","0","84","Fri Feb 19 13:04:17 2021","The main experiment item","yes","Lexical_Decision_Task.osexp","/Users/tobydenholm","no","Andale Mono","no","18","no","white","no","yes","576","legacy","80","80","3","/Users/tobydenholm/subject-5200869.csv","legacy","Lentiform Loewenfeld","3.3.7","yes","yes","600bd7cfb6416f0113b04181","602110864497cf011d9c0822","0","f","NA","space","space","space","space","f","684","NA","4472","15883","6841","6015","684","2","legacy","1024","2","48000","-16","task","5200869","odd","NA","37985","44461","39988","213620","4044","26779","19936","214123","145056","213617","214123","213576","44461","214807","36216","204538","3990","212076","Lexical Decision Task","67","68681","85","yes","1024"
"2.868644438","10.52","4","town","word","79.06976744186046","79.06976744186046","805.1395348837209","805.1395348837209","black","no","legacy","legacy","legacy","0","uniform","1","undefined","undefined","undefined","1","j","0","0","0","0","85","0","0","0","85","0","81","85","81","0","81","3","85","0","85","Fri Feb 19 13:04:17 2021","The main experiment item","yes","Lexical_Decision_Task.osexp","/Users/tobydenholm","no","Andale Mono","no","18","no","white","no","yes","576","legacy","81","81","3","/Users/tobydenholm/subject-5200869.csv","legacy","Lentiform Loewenfeld","3.3.7","yes","yes","600bd7cfb6416f0113b04181","602110864497cf011d9c0822","0","j","NA","space","space","space","space","j","561","NA","4472","15883","6841","6015","561","2","legacy","1024","2","48000","-16","task","5200869","odd","NA","37985","44461","39988","215354","4044","26779","19936","215857","145056","215351","215857","215311","44461","216419","36216","214811","3990","212076","Lexical Decision Task","68","69242","86","yes","1024"
"3.120135028","0","3","vals","non-word","79.3103448275862","79.3103448275862","802.7701149425287","802.7701149425287","black","no","legacy","legacy","legacy","0","uniform","1","undefined","undefined","undefined","1","f","0","0","0","0","86","0","0","0","86","0","82","86","82","0","82","3","86","0","86","Fri Feb 19 13:04:17 2021","The main experiment item","yes","Lexical_Decision_Task.osexp","/Users/tobydenholm","no","Andale Mono","no","18","no","white","no","yes","576","legacy","82","82","3","/Users/tobydenholm/subject-5200869.csv","legacy","Lentiform Loewenfeld","3.3.7","yes","yes","600bd7cfb6416f0113b04181","602110864497cf011d9c0822","0","f","NA","space","space","space","space","f","599","NA","4472","15883","6841","6015","599","2","legacy","1024","2","48000","-16","task","5200869","odd","NA","37985","44461","39988","216966","4044","26779","19936","217468","145056","216963","217469","216922","44461","218069","36216","216422","3990","212076","Lexical Decision Task","69","69841","87","yes","1024"
"3.218535505","7.85","7","goat","word","79.54545454545455","79.54545454545455","800.9204545454545","800.9204545454545","black","no","legacy","legacy","legacy","0","uniform","1","undefined","undefined","undefined","1","j","0","0","0","0","87","0","0","0","87","0","83","87","83","0","83","3","87","0","87","Fri Feb 19 13:04:17 2021","The main experiment item","yes","Lexical_Decision_Task.osexp","/Users/tobydenholm","no","Andale Mono","no","18","no","white","no","yes","576","legacy","83","83","3","/Users/tobydenholm/subject-5200869.csv","legacy","Lentiform Loewenfeld","3.3.7","yes","yes","600bd7cfb6416f0113b04181","602110864497cf011d9c0822","0","j","NA","space","space","space","space","j","640","NA","4472","15883","6841","6015","640","2","legacy","1024","2","48000","-16","task","5200869","odd","NA","37985","44461","39988","218610","4044","26779","19936","219113","145056","218607","219113","218574","44461","219754","36216","218074","3990","212076","Lexical Decision Task","70","70481","88","yes","1024"
"3.16326079","0","5","parg","non-word","79.7752808988764","79.7752808988764","798.4044943820224","798.4044943820224","black","no","legacy","legacy","legacy","0","uniform","1","undefined","undefined","undefined","1","f","0","0","0","0","88","0","0","0","88","0","84","88","84","0","84","3","88","0","88","Fri Feb 19 13:04:17 2021","The main experiment item","yes","Lexical_Decision_Task.osexp","/Users/tobydenholm","no","Andale Mono","no","18","no","white","no","yes","576","legacy","84","84","3","/Users/tobydenholm/subject-5200869.csv","legacy","Lentiform Loewenfeld","3.3.7","yes","yes","600bd7cfb6416f0113b04181","602110864497cf011d9c0822","0","f","NA","space","space","space","space","f","577","NA","4472","15883","6841","6015","577","2","legacy","1024","2","48000","-16","task","5200869","odd","NA","37985","44461","39988","220300","4044","26779","19936","220803","145056","220297","220803","220257","44461","221381","36216","219757","3990","212076","Lexical Decision Task","71","71058","89","yes","1024"
"2.8162413","0","5","nusk","non-word","80","80","796.8","796.8","black","no","legacy","legacy","legacy","0","uniform","1","undefined","undefined","undefined","1","f","0","0","0","0","89","0","0","0","89","0","85","89","85","0","85","3","89","0","89","Fri Feb 19 13:04:17 2021","The main experiment item","yes","Lexical_Decision_Task.osexp","/Users/tobydenholm","no","Andale Mono","no","18","no","white","no","yes","576","legacy","85","85","3","/Users/tobydenholm/subject-5200869.csv","legacy","Lentiform Loewenfeld","3.3.7","yes","yes","600bd7cfb6416f0113b04181","602110864497cf011d9c0822","0","f","NA","space","space","space","space","f","654","NA","4472","15883","6841","6015","654","2","legacy","1024","2","48000","-16","task","5200869","odd","NA","37985","44461","39988","221927","4044","26779","19936","222430","145056","221923","222430","221884","44461","223084","36216","221384","3990","212076","Lexical Decision Task","72","71712","90","yes","1024"
"3.20871002","7.15","8","cram","word","80.21978021978022","80.21978021978022","795.6923076923077","795.6923076923077","black","no","legacy","legacy","legacy","0","uniform","1","undefined","undefined","undefined","1","j","0","0","0","0","90","0","0","0","90","0","86","90","86","0","86","3","90","0","90","Fri Feb 19 13:04:17 2021","The main experiment item","yes","Lexical_Decision_Task.osexp","/Users/tobydenholm","no","Andale Mono","no","18","no","white","no","yes","576","legacy","86","86","3","/Users/tobydenholm/subject-5200869.csv","legacy","Lentiform Loewenfeld","3.3.7","yes","yes","600bd7cfb6416f0113b04181","602110864497cf011d9c0822","0","j","NA","space","space","space","space","j","696","NA","4472","15883","6841","6015","696","2","legacy","1024","2","48000","-16","task","5200869","odd","NA","37985","44461","39988","223632","4044","26779","19936","224135","145056","223629","224135","223588","44461","224832","36216","223088","3990","212076","Lexical Decision Task","73","72408","91","yes","1024"
"3.068433376","8.09","2","bulb","word","80.43478260869566","80.43478260869566","794.1630434782609","794.1630434782609","black","no","legacy","legacy","legacy","0","uniform","1","undefined","undefined","undefined","1","j","0","0","0","0","91","0","0","0","91","0","87","91","87","0","87","3","91","0","91","Fri Feb 19 13:04:17 2021","The main experiment item","yes","Lexical_Decision_Task.osexp","/Users/tobydenholm","no","Andale Mono","no","18","no","white","no","yes","576","legacy","87","87","3","/Users/tobydenholm/subject-5200869.csv","legacy","Lentiform Loewenfeld","3.3.7","yes","yes","600bd7cfb6416f0113b04181","602110864497cf011d9c0822","0","j","NA","space","space","space","space","j","655","NA","4472","15883","6841","6015","655","2","legacy","1024","2","48000","-16","task","5200869","odd","NA","37985","44461","39988","225380","4044","26779","19936","225883","145056","225376","225883","225336","44461","226539","36216","224836","3990","212076","Lexical Decision Task","74","73063","92","yes","1024"
"2.746890964","9.67","3","plug","word","80.64516129032258","80.64516129032258","792.3010752688172","792.3010752688172","black","no","legacy","legacy","legacy","0","uniform","1","undefined","undefined","undefined","1","j","0","0","0","0","92","0","0","0","92","0","88","92","88","0","88","3","92","0","92","Fri Feb 19 13:04:17 2021","The main experiment item","yes","Lexical_Decision_Task.osexp","/Users/tobydenholm","no","Andale Mono","no","18","no","white","no","yes","576","legacy","88","88","3","/Users/tobydenholm/subject-5200869.csv","legacy","Lentiform Loewenfeld","3.3.7","yes","yes","600bd7cfb6416f0113b04181","602110864497cf011d9c0822","0","j","NA","space","space","space","space","j","621","NA","4472","15883","6841","6015","621","2","legacy","1024","2","48000","-16","task","5200869","odd","NA","37985","44461","39988","227084","4044","26779","19936","227587","145056","227081","227587","227042","44461","228209","36216","226542","3990","212076","Lexical Decision Task","75","73684","93","yes","1024"
"3.076883066","0","8","mout","non-word","79.7872340425532","79.7872340425532","789.7234042553191","789.7234042553191","black","no","legacy","legacy","legacy","0","uniform","0","undefined","undefined","undefined","0","f","0","0","0","0","93","0","0","0","93","0","89","93","89","0","89","3","93","0","93","Fri Feb 19 13:04:17 2021","The main experiment item","yes","Lexical_Decision_Task.osexp","/Users/tobydenholm","no","Andale Mono","no","18","no","white","no","yes","576","legacy","89","89","3","/Users/tobydenholm/subject-5200869.csv","legacy","Lentiform Loewenfeld","3.3.7","yes","yes","600bd7cfb6416f0113b04181","602110864497cf011d9c0822","0","j","NA","space","space","space","space","j","550","NA","4472","15883","6841","6015","550","2","legacy","1024","2","48000","-16","task","5200869","odd","NA","37985","44461","39988","228757","4044","26779","19936","229260","145056","228754","229260","228713","44461","229811","36216","228213","3990","212076","Lexical Decision Task","75","74234","94","yes","1024"
"2.821076612","0","4","lult","non-word","80","80","787.8842105263158","787.8842105263158","black","no","legacy","legacy","legacy","0","uniform","1","undefined","undefined","undefined","1","f","0","0","0","0","94","0","0","0","94","0","90","94","90","0","90","3","94","0","94","Fri Feb 19 13:04:17 2021","The main experiment item","yes","Lexical_Decision_Task.osexp","/Users/tobydenholm","no","Andale Mono","no","18","no","white","no","yes","576","legacy","90","90","3","/Users/tobydenholm/subject-5200869.csv","legacy","Lentiform Loewenfeld","3.3.7","yes","yes","600bd7cfb6416f0113b04181","602110864497cf011d9c0822","0","f","NA","space","space","space","space","f","615","NA","4472","15883","6841","6015","615","2","legacy","1024","2","48000","-16","task","5200869","odd","NA","37985","44461","39988","231361","4044","26779","19936","231864","145056","231358","231864","231315","44461","232480","36216","228213","3990","229815","Lexical Decision Task","76","74849","95","yes","1024"
"2.86332286","6.71","2","feud","word","80.20833333333333","80.20833333333333","786.6354166666666","786.6354166666666","black","no","legacy","legacy","legacy","0","uniform","1","undefined","undefined","undefined","1","j","0","0","0","0","95","0","0","0","95","0","91","95","91","0","91","3","95","0","95","Fri Feb 19 13:04:17 2021","The main experiment item","yes","Lexical_Decision_Task.osexp","/Users/tobydenholm","no","Andale Mono","no","18","no","white","no","yes","576","legacy","91","91","3","/Users/tobydenholm/subject-5200869.csv","legacy","Lentiform Loewenfeld","3.3.7","yes","yes","600bd7cfb6416f0113b04181","602110864497cf011d9c0822","0","j","NA","space","space","space","space","j","668","NA","4472","15883","6841","6015","668","2","legacy","1024","2","48000","-16","task","5200869","odd","NA","37985","44461","39988","233026","4044","26779","19936","233529","145056","233023","233529","232984","44461","234198","36216","232484","3990","229815","Lexical Decision Task","77","75517","96","yes","1024"
"2.937852093","0","7","bamp","non-word","80.41237113402062","80.41237113402062","786.1443298969073","786.1443298969073","black","no","legacy","legacy","legacy","0","uniform","1","undefined","undefined","undefined","1","f","0","0","0","0","96","0","0","0","96","0","92","96","92","0","92","3","96","0","96","Fri Feb 19 13:04:17 2021","The main experiment item","yes","Lexical_Decision_Task.osexp","/Users/tobydenholm","no","Andale Mono","no","18","no","white","no","yes","576","legacy","92","92","3","/Users/tobydenholm/subject-5200869.csv","legacy","Lentiform Loewenfeld","3.3.7","yes","yes","600bd7cfb6416f0113b04181","602110864497cf011d9c0822","0","f","NA","space","space","space","space","f","739","NA","4472","15883","6841","6015","739","2","legacy","1024","2","48000","-16","task","5200869","odd","NA","37985","44461","39988","234744","4044","26779","19936","235247","145056","234741","235247","234702","44461","235987","36216","234201","3990","229815","Lexical Decision Task","78","76256","97","yes","1024"
"2.594027722","9.08","8","skip","word","80.61224489795919","80.61224489795919","783.9897959183673","783.9897959183673","black","no","legacy","legacy","legacy","0","uniform","1","undefined","undefined","undefined","1","j","0","0","0","0","97","0","0","0","97","0","93","97","93","0","93","3","97","0","97","Fri Feb 19 13:04:17 2021","The main experiment item","yes","Lexical_Decision_Task.osexp","/Users/tobydenholm","no","Andale Mono","no","18","no","white","no","yes","576","legacy","93","93","3","/Users/tobydenholm/subject-5200869.csv","legacy","Lentiform Loewenfeld","3.3.7","yes","yes","600bd7cfb6416f0113b04181","602110864497cf011d9c0822","0","j","NA","space","space","space","space","j","575","NA","4472","15883","6841","6015","575","2","legacy","1024","2","48000","-16","task","5200869","odd","NA","37985","44461","39988","236532","4044","26779","19936","237035","145056","236529","237035","236490","44461","237611","36216","235990","3990","229815","Lexical Decision Task","79","76831","98","yes","1024"
"2.80048796","0","8","pife","non-word","80.8080808080808","80.8080808080808","782.5858585858585","782.5858585858585","black","no","legacy","legacy","legacy","0","uniform","1","undefined","undefined","undefined","1","f","0","0","0","0","98","0","0","0","98","0","94","98","94","0","94","3","98","0","98","Fri Feb 19 13:04:17 2021","The main experiment item","yes","Lexical_Decision_Task.osexp","/Users/tobydenholm","no","Andale Mono","no","18","no","white","no","yes","576","legacy","94","94","3","/Users/tobydenholm/subject-5200869.csv","legacy","Lentiform Loewenfeld","3.3.7","yes","yes","600bd7cfb6416f0113b04181","602110864497cf011d9c0822","0","f","NA","space","space","space","space","f","645","NA","4472","15883","6841","6015","645","2","legacy","1024","2","48000","-16","task","5200869","odd","NA","37985","44461","39988","238157","4044","26779","19936","238660","145056","238153","238660","238114","44461","239306","36216","237614","3990","229815","Lexical Decision Task","80","77476","99","yes","1024"
"3.153104174","10.89","6","door","word","81","81","785.73","785.73","black","no","legacy","legacy","legacy","0","uniform","1","undefined","undefined","undefined","1","j","0","0","0","0","99","0","0","0","99","0","95","99","95","0","95","3","99","0","99","Fri Feb 19 13:04:17 2021","The main experiment item","yes","Lexical_Decision_Task.osexp","/Users/tobydenholm","no","Andale Mono","no","18","no","white","no","yes","576","legacy","95","95","3","/Users/tobydenholm/subject-5200869.csv","legacy","Lentiform Loewenfeld","3.3.7","yes","yes","600bd7cfb6416f0113b04181","602110864497cf011d9c0822","0","j","NA","space","space","space","space","j","1097","NA","4472","15883","6841","6015","1097","2","legacy","1024","2","48000","-16","task","5200869","odd","NA","37985","44461","39988","239851","4044","26779","19936","240354","145056","239848","240354","239809","44461","241452","36216","239309","3990","229815","Lexical Decision Task","81","78573","100","yes","1024"
"3.081107167","0","6","chot","non-word","81.18811881188118","81.18811881188118","785.0891089108911","785.0891089108911","black","no","legacy","legacy","legacy","0","uniform","1","undefined","undefined","undefined","1","f","0","0","0","0","100","0","0","0","100","0","96","100","96","0","96","3","100","0","100","Fri Feb 19 13:04:17 2021","The main experiment item","yes","Lexical_Decision_Task.osexp","/Users/tobydenholm","no","Andale Mono","no","18","no","white","no","yes","576","legacy","96","96","3","/Users/tobydenholm/subject-5200869.csv","legacy","Lentiform Loewenfeld","3.3.7","yes","yes","600bd7cfb6416f0113b04181","602110864497cf011d9c0822","0","f","NA","space","space","space","space","f","721","NA","4472","15883","6841","6015","721","2","legacy","1024","2","48000","-16","task","5200869","odd","NA","37985","44461","39988","241999","4044","26779","19936","242502","145056","241996","242502","241955","44461","243224","36216","241455","3990","229815","Lexical Decision Task","82","79294","101","yes","1024"
"3.22685757","9.99","7","roll","word","81.37254901960785","81.37254901960785","784.7450980392157","784.7450980392157","black","no","legacy","legacy","legacy","0","uniform","1","undefined","undefined","undefined","1","j","0","0","0","0","101","0","0","0","101","0","97","101","97","0","97","3","101","0","101","Fri Feb 19 13:04:17 2021","The main experiment item","yes","Lexical_Decision_Task.osexp","/Users/tobydenholm","no","Andale Mono","no","18","no","white","no","yes","576","legacy","97","97","3","/Users/tobydenholm/subject-5200869.csv","legacy","Lentiform Loewenfeld","3.3.7","yes","yes","600bd7cfb6416f0113b04181","602110864497cf011d9c0822","0","j","NA","space","space","space","space","j","750","NA","4472","15883","6841","6015","750","2","legacy","1024","2","48000","-16","task","5200869","odd","NA","37985","44461","39988","243771","4044","26779","19936","244274","145056","243768","244274","243728","44461","245025","36216","243228","3990","229815","Lexical Decision Task","83","80044","102","yes","1024"
