"Log_BG","Log_Freq_HAL","Ortho_N","Stimulus","Type","acc","accuracy","average_response_time","avg_rt","background","bidi","canvas_backend","clock_backend","color_backend","compensation","coordinates","correct","correct_Experimental_intro","correct_Introduction","correct_Practice_intro","correct_experimenter_kb","correct_response","count_End_Of_Experiment","count_End_Of_Practice","count_Experimental_Loop","count_Experimental_intro","count_Fixation","count_Introduction","count_Practice_Loop","count_Practice_intro","count_Stimulus","count_block_break_feedback","count_experimental_sequence","count_experimenter_kb","count_increment_trial_count","count_init_trial_count","count_logger","count_practice_sequence","count_right","count_task","count_wrong","datetime","description","disable_garbage_collection","experiment_file","experiment_path","font_bold","font_family","font_italic","font_size","font_underline","foreground","form_clicks","fullscreen","height","keyboard_backend","live_row","live_row_Experimental_Loop","live_row_Practice_Loop","logfile","mouse_backend","opensesame_codename","opensesame_version","osf_always_upload_data","osf_always_upload_experiment","osf_datanode_id","osf_id","repeat_cycle","response","response_End_Of_Experiment","response_Experimental_intro","response_Introduction","response_Practice_intro","response_block_break_feedback","response_experimenter_kb","response_time","response_time_End_Of_Experiment","response_time_Experimental_intro","response_time_Introduction","response_time_Practice_intro","response_time_block_break_feedback","response_time_experimenter_kb","round_decimals","sampler_backend","sound_buf_size","sound_channels","sound_freq","sound_sample_size","start","subject_nr","subject_parity","time_End_Of_Experiment","time_End_Of_Practice","time_Experimental_Loop","time_Experimental_intro","time_Fixation","time_Introduction","time_Practice_Loop","time_Practice_intro","time_Stimulus","time_block_break_feedback","time_experimental_sequence","time_experimenter_kb","time_increment_trial_count","time_init_trial_count","time_logger","time_practice_sequence","time_right","time_task","time_wrong","title","total_correct","total_response_time","total_responses","uniform_coordinates","width"
"2.696644658","5.78","2","yolk","word","100","100","809.2","809.2","black","no","legacy","legacy","legacy","0","uniform","1","undefined","undefined","undefined","1","j","0","0","0","0","4","0","0","0","4","NA","0","4","0","0","0","3","4","0","4","Thu Feb 18 13:47:41 2021","The main experiment item","yes","Lexical_Decision_Task.osexp","C:/Users/princ","no","Andale Mono","no","18","no","white","no","yes","576","legacy","0","0","3","C:/Users/princ/subject-5219114.csv","legacy","Lentiform Loewenfeld","3.3.7","yes","yes","600bd7cfb6416f0113b04181","602110864497cf011d9c0822","0","j","NA","space","space","space","NA","j","1238","NA","93","5967","4350","NA","1238","2","legacy","1024","2","48000","-16","task","5219114","even","NA","23580","25677","25583","25737","5925","16247","11896","26240","NA","25735","26242","NA","25677","27481","21978","23053","5912","NA","Lexical Decision Task","5","4046","5","yes","1024"
"2.986323777","10.85","8","ship","word","100","100","750.8333333333334","750.8333333333334","black","no","legacy","legacy","legacy","0","uniform","1","undefined","undefined","undefined","1","j","0","0","0","0","5","0","0","0","5","NA","1","5","1","0","1","3","5","0","5","Thu Feb 18 13:47:41 2021","The main experiment item","yes","Lexical_Decision_Task.osexp","C:/Users/princ","no","Andale Mono","no","18","no","white","no","yes","576","legacy","1","1","3","C:/Users/princ/subject-5219114.csv","legacy","Lentiform Loewenfeld","3.3.7","yes","yes","600bd7cfb6416f0113b04181","602110864497cf011d9c0822","0","j","NA","space","space","space","NA","j","459","NA","93","5967","4350","NA","459","2","legacy","1024","2","48000","-16","task","5219114","even","NA","23580","25677","25583","28177","5925","16247","11896","28680","NA","28176","28680","28022","25677","29140","21978","27522","5912","NA","Lexical Decision Task","6","4505","6","yes","1024"
"3.276537627","9.15","5","trap","word","100","100","707","707","black","no","legacy","legacy","legacy","0","uniform","1","undefined","undefined","undefined","1","j","0","0","0","0","6","0","0","0","6","NA","2","6","2","0","2","3","6","0","6","Thu Feb 18 13:47:41 2021","The main experiment item","yes","Lexical_Decision_Task.osexp","C:/Users/princ","no","Andale Mono","no","18","no","white","no","yes","576","legacy","2","2","3","C:/Users/princ/subject-5219114.csv","legacy","Lentiform Loewenfeld","3.3.7","yes","yes","600bd7cfb6416f0113b04181","602110864497cf011d9c0822","0","j","NA","space","space","space","NA","j","444","NA","93","5967","4350","NA","444","2","legacy","1024","2","48000","-16","task","5219114","even","NA","23580","25677","25583","29768","5925","16247","11896","30271","NA","29765","30272","29676","25677","30717","21978","29176","5912","NA","Lexical Decision Task","7","4949","7","yes","1024"
"2.813801082","5.47","7","nook","word","100","100","707.25","707.25","black","no","legacy","legacy","legacy","0","uniform","1","undefined","undefined","undefined","1","j","0","0","0","0","7","0","0","0","7","NA","3","7","3","0","3","3","7","0","7","Thu Feb 18 13:47:41 2021","The main experiment item","yes","Lexical_Decision_Task.osexp","C:/Users/princ","no","Andale Mono","no","18","no","white","no","yes","576","legacy","3","3","3","C:/Users/princ/subject-5219114.csv","legacy","Lentiform Loewenfeld","3.3.7","yes","yes","600bd7cfb6416f0113b04181","602110864497cf011d9c0822","0","j","NA","space","space","space","NA","j","709","NA","93","5967","4350","NA","709","2","legacy","1024","2","48000","-16","task","5219114","even","NA","23580","25677","25583","31346","5925","16247","11896","31850","NA","31344","31850","31250","25677","32560","21978","30750","5912","NA","Lexical Decision Task","8","5658","8","yes","1024"
"3.120025233","0","2","nyst","non-word","100","100","702.3333333333334","702.3333333333334","black","no","legacy","legacy","legacy","0","uniform","1","undefined","undefined","undefined","1","f","0","0","0","0","8","0","0","0","8","NA","4","8","4","0","4","3","8","0","8","Thu Feb 18 13:47:41 2021","The main experiment item","yes","Lexical_Decision_Task.osexp","C:/Users/princ","no","Andale Mono","no","18","no","white","no","yes","576","legacy","4","4","3","C:/Users/princ/subject-5219114.csv","legacy","Lentiform Loewenfeld","3.3.7","yes","yes","600bd7cfb6416f0113b04181","602110864497cf011d9c0822","0","f","NA","space","space","space","NA","f","663","NA","93","5967","4350","NA","663","2","legacy","1024","2","48000","-16","task","5219114","even","NA","23580","25677","25583","33151","5925","16247","11896","33655","NA","33150","33655","33067","25677","34319","21978","32567","5912","NA","Lexical Decision Task","9","6321","9","yes","1024"
"3.076883066","0","8","mout","non-word","100","100","757.7","757.7","black","no","legacy","legacy","legacy","0","uniform","1","undefined","undefined","undefined","1","f","0","0","0","0","9","0","0","0","9","NA","5","9","5","0","5","3","9","0","9","Thu Feb 18 13:47:41 2021","The main experiment item","yes","Lexical_Decision_Task.osexp","C:/Users/princ","no","Andale Mono","no","18","no","white","no","yes","576","legacy","5","5","3","C:/Users/princ/subject-5219114.csv","legacy","Lentiform Loewenfeld","3.3.7","yes","yes","600bd7cfb6416f0113b04181","602110864497cf011d9c0822","0","f","NA","space","space","space","NA","f","1256","NA","93","5967","4350","NA","1256","2","legacy","1024","2","48000","-16","task","5219114","even","NA","23580","25677","25583","34943","5925","16247","11896","35446","NA","34939","35446","34852","25677","36703","21978","34352","5912","NA","Lexical Decision Task","10","7577","10","yes","1024"
"3.168890155","0","6","thet","non-word","100","100","767.5454545454545","767.5454545454545","black","no","legacy","legacy","legacy","0","uniform","1","undefined","undefined","undefined","1","f","0","0","0","0","10","0","0","0","10","NA","6","10","6","0","6","3","10","0","10","Thu Feb 18 13:47:41 2021","The main experiment item","yes","Lexical_Decision_Task.osexp","C:/Users/princ","no","Andale Mono","no","18","no","white","no","yes","576","legacy","6","6","3","C:/Users/princ/subject-5219114.csv","legacy","Lentiform Loewenfeld","3.3.7","yes","yes","600bd7cfb6416f0113b04181","602110864497cf011d9c0822","0","f","NA","space","space","space","NA","f","866","NA","93","5967","4350","NA","866","2","legacy","1024","2","48000","-16","task","5219114","even","NA","23580","25677","25583","37300","5925","16247","11896","37804","NA","37297","37804","37212","25677","38670","21978","36710","5912","NA","Lexical Decision Task","11","8443","11","yes","1024"
"3.067193647","6.73","6","raft","word","100","100","763.9166666666666","763.9166666666666","black","no","legacy","legacy","legacy","0","uniform","1","undefined","undefined","undefined","1","j","0","0","0","0","11","0","0","0","11","NA","7","11","7","0","7","3","11","0","11","Thu Feb 18 13:47:41 2021","The main experiment item","yes","Lexical_Decision_Task.osexp","C:/Users/princ","no","Andale Mono","no","18","no","white","no","yes","576","legacy","7","7","3","C:/Users/princ/subject-5219114.csv","legacy","Lentiform Loewenfeld","3.3.7","yes","yes","600bd7cfb6416f0113b04181","602110864497cf011d9c0822","0","j","NA","space","space","space","NA","j","724","NA","93","5967","4350","NA","724","2","legacy","1024","2","48000","-16","task","5219114","even","NA","23580","25677","25583","39293","5925","16247","11896","39797","NA","39290","39797","39206","25677","40523","21978","38706","5912","NA","Lexical Decision Task","12","9167","12","yes","1024"
"3.140404328","10.66","9","deep","word","100","100","772.0769230769231","772.0769230769231","black","no","legacy","legacy","legacy","0","uniform","1","undefined","undefined","undefined","1","j","0","0","0","0","12","0","0","0","12","NA","8","12","8","0","8","3","12","0","12","Thu Feb 18 13:47:41 2021","The main experiment item","yes","Lexical_Decision_Task.osexp","C:/Users/princ","no","Andale Mono","no","18","no","white","no","yes","576","legacy","8","8","3","C:/Users/princ/subject-5219114.csv","legacy","Lentiform Loewenfeld","3.3.7","yes","yes","600bd7cfb6416f0113b04181","602110864497cf011d9c0822","0","j","NA","space","space","space","NA","j","870","NA","93","5967","4350","NA","870","2","legacy","1024","2","48000","-16","task","5219114","even","NA","23580","25677","25583","41148","5925","16247","11896","41652","NA","41146","41652","41056","25677","42522","21978","40556","5912","NA","Lexical Decision Task","13","10037","13","yes","1024"
"3.366547468","0","6","plat","non-word","100","100","816.5","816.5","black","no","legacy","legacy","legacy","0","uniform","1","undefined","undefined","undefined","1","f","0","0","0","0","13","0","0","0","13","NA","9","13","9","0","9","3","13","0","13","Thu Feb 18 13:47:41 2021","The main experiment item","yes","Lexical_Decision_Task.osexp","C:/Users/princ","no","Andale Mono","no","18","no","white","no","yes","576","legacy","9","9","3","C:/Users/princ/subject-5219114.csv","legacy","Lentiform Loewenfeld","3.3.7","yes","yes","600bd7cfb6416f0113b04181","602110864497cf011d9c0822","0","f","NA","space","space","space","NA","f","1394","NA","93","5967","4350","NA","1394","2","legacy","1024","2","48000","-16","task","5219114","even","NA","23580","25677","25583","43113","5925","16247","11896","43616","NA","43111","43617","43032","25677","45012","21978","42532","5912","NA","Lexical Decision Task","14","11431","14","yes","1024"
"2.719886232","7.98","2","quiz","word","100","100","802","802","black","no","legacy","legacy","legacy","0","uniform","1","undefined","undefined","undefined","1","j","0","0","0","0","14","0","0","0","14","NA","10","14","10","0","10","3","14","0","14","Thu Feb 18 13:47:41 2021","The main experiment item","yes","Lexical_Decision_Task.osexp","C:/Users/princ","no","Andale Mono","no","18","no","white","no","yes","576","legacy","10","10","3","C:/Users/princ/subject-5219114.csv","legacy","Lentiform Loewenfeld","3.3.7","yes","yes","600bd7cfb6416f0113b04181","602110864497cf011d9c0822","0","j","NA","space","space","space","NA","j","599","NA","93","5967","4350","NA","599","2","legacy","1024","2","48000","-16","task","5219114","even","NA","23580","25677","25583","45628","5925","16247","11896","46131","NA","45626","46131","45545","25677","46731","21978","45045","5912","NA","Lexical Decision Task","15","12030","15","yes","1024"
"2.706148589","0","4","hube","non-word","100","100","799.9375","799.9375","black","no","legacy","legacy","legacy","0","uniform","1","undefined","undefined","undefined","1","f","0","0","0","0","15","0","0","0","15","NA","11","15","11","0","11","3","15","0","15","Thu Feb 18 13:47:41 2021","The main experiment item","yes","Lexical_Decision_Task.osexp","C:/Users/princ","no","Andale Mono","no","18","no","white","no","yes","576","legacy","11","11","3","C:/Users/princ/subject-5219114.csv","legacy","Lentiform Loewenfeld","3.3.7","yes","yes","600bd7cfb6416f0113b04181","602110864497cf011d9c0822","0","f","NA","space","space","space","NA","f","769","NA","93","5967","4350","NA","769","2","legacy","1024","2","48000","-16","task","5219114","even","NA","23580","25677","25583","47364","5925","16247","11896","47868","NA","47362","47868","47265","25677","48638","21978","46765","5912","NA","Lexical Decision Task","16","12799","16","yes","1024"
"3.29439347","8.6","9","wand","word","100","100","790.0588235294117","790.0588235294117","black","no","legacy","legacy","legacy","0","uniform","1","undefined","undefined","undefined","1","j","0","0","0","0","16","0","0","0","16","NA","12","16","12","0","12","3","16","0","16","Thu Feb 18 13:47:41 2021","The main experiment item","yes","Lexical_Decision_Task.osexp","C:/Users/princ","no","Andale Mono","no","18","no","white","no","yes","576","legacy","12","12","3","C:/Users/princ/subject-5219114.csv","legacy","Lentiform Loewenfeld","3.3.7","yes","yes","600bd7cfb6416f0113b04181","602110864497cf011d9c0822","0","j","NA","space","space","space","NA","j","632","NA","93","5967","4350","NA","632","2","legacy","1024","2","48000","-16","task","5219114","even","NA","23580","25677","25583","49242","5925","16247","11896","49744","NA","49239","49745","49150","25677","50378","21978","48650","5912","NA","Lexical Decision Task","17","13431","17","yes","1024"
"3.248054965","7.86","5","glow","word","100","100","773.5555555555555","773.5555555555555","black","no","legacy","legacy","legacy","0","uniform","1","undefined","undefined","undefined","1","j","0","0","0","0","17","0","0","0","17","NA","13","17","13","0","13","3","17","0","17","Thu Feb 18 13:47:41 2021","The main experiment item","yes","Lexical_Decision_Task.osexp","C:/Users/princ","no","Andale Mono","no","18","no","white","no","yes","576","legacy","13","13","3","C:/Users/princ/subject-5219114.csv","legacy","Lentiform Loewenfeld","3.3.7","yes","yes","600bd7cfb6416f0113b04181","602110864497cf011d9c0822","0","j","NA","space","space","space","NA","j","493","NA","93","5967","4350","NA","493","2","legacy","1024","2","48000","-16","task","5219114","even","NA","23580","25677","25583","50999","5925","16247","11896","51503","NA","50996","51503","50913","25677","51998","21978","50413","5912","NA","Lexical Decision Task","18","13924","18","yes","1024"
"2.880623071","0","9","curp","non-word","100","100","769.3157894736842","769.3157894736842","black","no","legacy","legacy","legacy","0","uniform","1","undefined","undefined","undefined","1","f","0","0","0","0","18","0","0","0","18","NA","14","18","14","0","14","3","18","0","18","Thu Feb 18 13:47:41 2021","The main experiment item","yes","Lexical_Decision_Task.osexp","C:/Users/princ","no","Andale Mono","no","18","no","white","no","yes","576","legacy","14","14","3","C:/Users/princ/subject-5219114.csv","legacy","Lentiform Loewenfeld","3.3.7","yes","yes","600bd7cfb6416f0113b04181","602110864497cf011d9c0822","0","f","NA","space","space","space","NA","f","693","NA","93","5967","4350","NA","693","2","legacy","1024","2","48000","-16","task","5219114","even","NA","23580","25677","25583","52615","5925","16247","11896","53120","NA","52612","53120","52532","25677","53814","21978","52032","5912","NA","Lexical Decision Task","19","14617","19","yes","1024"
"3.132473155","0","4","glim","non-word","100","100","763.1","763.1","black","no","legacy","legacy","legacy","0","uniform","1","undefined","undefined","undefined","1","f","0","0","0","0","19","0","0","0","19","NA","15","19","15","0","15","3","19","0","19","Thu Feb 18 13:47:41 2021","The main experiment item","yes","Lexical_Decision_Task.osexp","C:/Users/princ","no","Andale Mono","no","18","no","white","no","yes","576","legacy","15","15","3","C:/Users/princ/subject-5219114.csv","legacy","Lentiform Loewenfeld","3.3.7","yes","yes","600bd7cfb6416f0113b04181","602110864497cf011d9c0822","0","f","NA","space","space","space","NA","f","645","NA","93","5967","4350","NA","645","2","legacy","1024","2","48000","-16","task","5219114","even","NA","23580","25677","25583","54436","5925","16247","11896","54940","NA","54433","54940","54347","25677","55586","21978","53847","5912","NA","Lexical Decision Task","20","15262","20","yes","1024"
"2.924968096","0","4","phim","non-word","100","100","754.5238095238095","754.5238095238095","black","no","legacy","legacy","legacy","0","uniform","1","undefined","undefined","undefined","1","f","0","0","0","0","20","0","0","0","20","NA","16","20","16","0","16","3","20","0","20","Thu Feb 18 13:47:41 2021","The main experiment item","yes","Lexical_Decision_Task.osexp","C:/Users/princ","no","Andale Mono","no","18","no","white","no","yes","576","legacy","16","16","3","C:/Users/princ/subject-5219114.csv","legacy","Lentiform Loewenfeld","3.3.7","yes","yes","600bd7cfb6416f0113b04181","602110864497cf011d9c0822","0","f","NA","space","space","space","NA","f","583","NA","93","5967","4350","NA","583","2","legacy","1024","2","48000","-16","task","5219114","even","NA","23580","25677","25583","56210","5925","16247","11896","56714","NA","56208","56714","56121","25677","57298","21978","55621","5912","NA","Lexical Decision Task","21","15845","21","yes","1024"
"2.899638141","0","3","hapt","non-word","100","100","749.9545454545455","749.9545454545455","black","no","legacy","legacy","legacy","0","uniform","1","undefined","undefined","undefined","1","f","0","0","0","0","21","0","0","0","21","NA","17","21","17","0","17","3","21","0","21","Thu Feb 18 13:47:41 2021","The main experiment item","yes","Lexical_Decision_Task.osexp","C:/Users/princ","no","Andale Mono","no","18","no","white","no","yes","576","legacy","17","17","3","C:/Users/princ/subject-5219114.csv","legacy","Lentiform Loewenfeld","3.3.7","yes","yes","600bd7cfb6416f0113b04181","602110864497cf011d9c0822","0","f","NA","space","space","space","NA","f","654","NA","93","5967","4350","NA","654","2","legacy","1024","2","48000","-16","task","5219114","even","NA","23580","25677","25583","57925","5925","16247","11896","58429","NA","57922","58429","57834","25677","59084","21978","57333","5912","NA","Lexical Decision Task","22","16499","22","yes","1024"
"3.090140555","5.81","8","pout","word","100","100","749.9565217391304","749.9565217391304","black","no","legacy","legacy","legacy","0","uniform","1","undefined","undefined","undefined","1","j","0","0","0","0","22","0","0","0","22","NA","18","22","18","0","18","3","22","0","22","Thu Feb 18 13:47:41 2021","The main experiment item","yes","Lexical_Decision_Task.osexp","C:/Users/princ","no","Andale Mono","no","18","no","white","no","yes","576","legacy","18","18","3","C:/Users/princ/subject-5219114.csv","legacy","Lentiform Loewenfeld","3.3.7","yes","yes","600bd7cfb6416f0113b04181","602110864497cf011d9c0822","0","j","NA","space","space","space","NA","j","750","NA","93","5967","4350","NA","750","2","legacy","1024","2","48000","-16","task","5219114","even","NA","23580","25677","25583","59676","5925","16247","11896","60181","NA","59674","60181","59591","25677","60932","21978","59091","5912","NA","Lexical Decision Task","23","17249","23","yes","1024"
"2.86332286","6.71","2","feud","word","100","100","781.375","781.375","black","no","legacy","legacy","legacy","0","uniform","1","undefined","undefined","undefined","1","j","0","0","0","0","23","0","0","0","23","NA","19","23","19","0","19","3","23","0","23","Thu Feb 18 13:47:41 2021","The main experiment item","yes","Lexical_Decision_Task.osexp","C:/Users/princ","no","Andale Mono","no","18","no","white","no","yes","576","legacy","19","19","3","C:/Users/princ/subject-5219114.csv","legacy","Lentiform Loewenfeld","3.3.7","yes","yes","600bd7cfb6416f0113b04181","602110864497cf011d9c0822","0","j","NA","space","space","space","NA","j","1504","NA","93","5967","4350","NA","1504","2","legacy","1024","2","48000","-16","task","5219114","even","NA","23580","25677","25583","61553","5925","16247","11896","62057","NA","61551","62057","61466","25677","63562","21978","60966","5912","NA","Lexical Decision Task","24","18753","24","yes","1024"
"2.64476673","0","5","moft","non-word","100","100","785.4","785.4","black","no","legacy","legacy","legacy","0","uniform","1","undefined","undefined","undefined","1","f","0","0","0","0","24","0","0","0","24","NA","20","24","20","0","20","3","24","0","24","Thu Feb 18 13:47:41 2021","The main experiment item","yes","Lexical_Decision_Task.osexp","C:/Users/princ","no","Andale Mono","no","18","no","white","no","yes","576","legacy","20","20","3","C:/Users/princ/subject-5219114.csv","legacy","Lentiform Loewenfeld","3.3.7","yes","yes","600bd7cfb6416f0113b04181","602110864497cf011d9c0822","0","f","NA","space","space","space","NA","f","882","NA","93","5967","4350","NA","882","2","legacy","1024","2","48000","-16","task","5219114","even","NA","23580","25677","25583","64184","5925","16247","11896","64688","NA","64182","64688","64096","25677","65571","21978","63596","5912","NA","Lexical Decision Task","25","19635","25","yes","1024"
"2.7084209","0","8","vump","non-word","100","100","779.5","779.5","black","no","legacy","legacy","legacy","0","uniform","1","undefined","undefined","undefined","1","f","0","0","0","0","25","0","0","0","25","NA","21","25","21","0","21","3","25","0","25","Thu Feb 18 13:47:41 2021","The main experiment item","yes","Lexical_Decision_Task.osexp","C:/Users/princ","no","Andale Mono","no","18","no","white","no","yes","576","legacy","21","21","3","C:/Users/princ/subject-5219114.csv","legacy","Lentiform Loewenfeld","3.3.7","yes","yes","600bd7cfb6416f0113b04181","602110864497cf011d9c0822","0","f","NA","space","space","space","NA","f","632","NA","93","5967","4350","NA","632","2","legacy","1024","2","48000","-16","task","5219114","even","NA","23580","25677","25583","66189","5925","16247","11896","66694","NA","66186","66695","66104","25677","67328","21978","65604","5912","NA","Lexical Decision Task","26","20267","26","yes","1024"
"3.156347201","0","8","lasp","non-word","100","100","778.6296296296297","778.6296296296297","black","no","legacy","legacy","legacy","0","uniform","1","undefined","undefined","undefined","1","f","0","0","0","0","26","0","0","0","26","NA","22","26","22","0","22","3","26","0","26","Thu Feb 18 13:47:41 2021","The main experiment item","yes","Lexical_Decision_Task.osexp","C:/Users/princ","no","Andale Mono","no","18","no","white","no","yes","576","legacy","22","22","3","C:/Users/princ/subject-5219114.csv","legacy","Lentiform Loewenfeld","3.3.7","yes","yes","600bd7cfb6416f0113b04181","602110864497cf011d9c0822","0","f","NA","space","space","space","NA","f","756","NA","93","5967","4350","NA","756","2","legacy","1024","2","48000","-16","task","5219114","even","NA","23580","25677","25583","67926","5925","16247","11896","68430","NA","67924","68430","67836","25677","69187","21978","67335","5912","NA","Lexical Decision Task","27","21023","27","yes","1024"
"3.039414119","0","9","meep","non-word","96.42857142857143","96.42857142857143","787.4642857142857","787.4642857142857","black","no","legacy","legacy","legacy","0","uniform","0","undefined","undefined","undefined","0","f","0","0","0","0","27","0","0","0","27","NA","23","27","23","0","23","3","27","0","27","Thu Feb 18 13:47:41 2021","The main experiment item","yes","Lexical_Decision_Task.osexp","C:/Users/princ","no","Andale Mono","no","18","no","white","no","yes","576","legacy","23","23","3","C:/Users/princ/subject-5219114.csv","legacy","Lentiform Loewenfeld","3.3.7","yes","yes","600bd7cfb6416f0113b04181","602110864497cf011d9c0822","0","j","NA","space","space","space","NA","j","1026","NA","93","5967","4350","NA","1026","2","legacy","1024","2","48000","-16","task","5219114","even","NA","23580","25677","25583","69772","5925","16247","11896","70276","NA","69769","70276","69693","25677","71304","21978","69193","5912","NA","Lexical Decision Task","27","22049","28","yes","1024"
"3.120135028","0","3","vals","non-word","96.55172413793103","96.55172413793103","784.7586206896551","784.7586206896551","black","no","legacy","legacy","legacy","0","uniform","1","undefined","undefined","undefined","1","f","0","0","0","0","28","0","0","0","28","NA","24","28","24","0","24","3","28","0","28","Thu Feb 18 13:47:41 2021","The main experiment item","yes","Lexical_Decision_Task.osexp","C:/Users/princ","no","Andale Mono","no","18","no","white","no","yes","576","legacy","24","24","3","C:/Users/princ/subject-5219114.csv","legacy","Lentiform Loewenfeld","3.3.7","yes","yes","600bd7cfb6416f0113b04181","602110864497cf011d9c0822","0","f","NA","space","space","space","NA","f","709","NA","93","5967","4350","NA","709","2","legacy","1024","2","48000","-16","task","5219114","even","NA","23580","25677","25583","72922","5925","16247","11896","73427","NA","72919","73429","72837","25677","74140","21978","69193","5912","71337","Lexical Decision Task","28","22758","29","yes","1024"
"3.194328374","9.42","6","harm","word","96.66666666666667","96.66666666666667","794.3","794.3","black","no","legacy","legacy","legacy","0","uniform","1","undefined","undefined","undefined","1","j","0","0","0","0","29","0","0","0","29","NA","25","29","25","0","25","3","29","0","29","Thu Feb 18 13:47:41 2021","The main experiment item","yes","Lexical_Decision_Task.osexp","C:/Users/princ","no","Andale Mono","no","18","no","white","no","yes","576","legacy","25","25","3","C:/Users/princ/subject-5219114.csv","legacy","Lentiform Loewenfeld","3.3.7","yes","yes","600bd7cfb6416f0113b04181","602110864497cf011d9c0822","0","j","NA","space","space","space","NA","j","1071","NA","93","5967","4350","NA","1071","2","legacy","1024","2","48000","-16","task","5219114","even","NA","23580","25677","25583","74764","5925","16247","11896","75268","NA","74761","75268","74672","25677","76341","21978","74172","5912","71337","Lexical Decision Task","29","23829","30","yes","1024"
"2.744553742","0","2","nawk","non-word","96.7741935483871","96.7741935483871","789.7741935483871","789.7741935483871","black","no","legacy","legacy","legacy","0","uniform","1","undefined","undefined","undefined","1","f","0","0","0","0","30","0","0","0","30","NA","26","30","26","0","26","3","30","0","30","Thu Feb 18 13:47:41 2021","The main experiment item","yes","Lexical_Decision_Task.osexp","C:/Users/princ","no","Andale Mono","no","18","no","white","no","yes","576","legacy","26","26","3","C:/Users/princ/subject-5219114.csv","legacy","Lentiform Loewenfeld","3.3.7","yes","yes","600bd7cfb6416f0113b04181","602110864497cf011d9c0822","0","f","NA","space","space","space","NA","f","654","NA","93","5967","4350","NA","654","2","legacy","1024","2","48000","-16","task","5219114","even","NA","23580","25677","25583","76974","5925","16247","11896","77479","NA","76972","77479","76875","25677","78134","21978","76375","5912","71337","Lexical Decision Task","30","24483","31","yes","1024"
"2.8162413","0","5","nusk","non-word","96.875","96.875","820.0625","820.0625","black","no","legacy","legacy","legacy","0","uniform","1","undefined","undefined","undefined","1","f","0","0","0","0","31","0","0","0","31","NA","27","31","27","0","27","3","31","0","31","Thu Feb 18 13:47:41 2021","The main experiment item","yes","Lexical_Decision_Task.osexp","C:/Users/princ","no","Andale Mono","no","18","no","white","no","yes","576","legacy","27","27","3","C:/Users/princ/subject-5219114.csv","legacy","Lentiform Loewenfeld","3.3.7","yes","yes","600bd7cfb6416f0113b04181","602110864497cf011d9c0822","0","f","NA","space","space","space","NA","f","1759","NA","93","5967","4350","NA","1759","2","legacy","1024","2","48000","-16","task","5219114","even","NA","23580","25677","25583","78763","5925","16247","11896","79266","NA","78761","79267","78671","25677","81027","21978","78170","5912","71337","Lexical Decision Task","31","26242","32","yes","1024"
"3.105055783","0","2","norp","non-word","96.96969696969697","96.96969696969697","812.4848484848485","812.4848484848485","black","no","legacy","legacy","legacy","0","uniform","1","undefined","undefined","undefined","1","f","0","0","0","0","32","0","0","0","32","NA","28","32","28","0","28","3","32","0","32","Thu Feb 18 13:47:41 2021","The main experiment item","yes","Lexical_Decision_Task.osexp","C:/Users/princ","no","Andale Mono","no","18","no","white","no","yes","576","legacy","28","28","3","C:/Users/princ/subject-5219114.csv","legacy","Lentiform Loewenfeld","3.3.7","yes","yes","600bd7cfb6416f0113b04181","602110864497cf011d9c0822","0","f","NA","space","space","space","NA","f","570","NA","93","5967","4350","NA","570","2","legacy","1024","2","48000","-16","task","5219114","even","NA","23580","25677","25583","81641","5925","16247","11896","82143","NA","81639","82143","81561","25677","82714","21978","81061","5912","71337","Lexical Decision Task","32","26812","33","yes","1024"
"3.043885998","0","9","gome","non-word","97.05882352941177","97.05882352941177","804.1764705882352","804.1764705882352","black","no","legacy","legacy","legacy","0","uniform","1","undefined","undefined","undefined","1","f","0","0","0","0","33","0","0","0","33","NA","29","33","29","0","29","3","33","0","33","Thu Feb 18 13:47:41 2021","The main experiment item","yes","Lexical_Decision_Task.osexp","C:/Users/princ","no","Andale Mono","no","18","no","white","no","yes","576","legacy","29","29","3","C:/Users/princ/subject-5219114.csv","legacy","Lentiform Loewenfeld","3.3.7","yes","yes","600bd7cfb6416f0113b04181","602110864497cf011d9c0822","0","f","NA","space","space","space","NA","f","530","NA","93","5967","4350","NA","530","2","legacy","1024","2","48000","-16","task","5219114","even","NA","23580","25677","25583","83306","5925","16247","11896","83810","NA","83304","83810","83220","25677","84341","21978","82720","5912","71337","Lexical Decision Task","33","27342","34","yes","1024"
"2.807758206","6.25","4","hurl","word","97.14285714285714","97.14285714285714","798.2857142857143","798.2857142857143","black","no","legacy","legacy","legacy","0","uniform","1","undefined","undefined","undefined","1","j","0","0","0","0","34","0","0","0","34","NA","30","34","30","0","30","3","34","0","34","Thu Feb 18 13:47:41 2021","The main experiment item","yes","Lexical_Decision_Task.osexp","C:/Users/princ","no","Andale Mono","no","18","no","white","no","yes","576","legacy","30","30","3","C:/Users/princ/subject-5219114.csv","legacy","Lentiform Loewenfeld","3.3.7","yes","yes","600bd7cfb6416f0113b04181","602110864497cf011d9c0822","0","j","NA","space","space","space","NA","j","598","NA","93","5967","4350","NA","598","2","legacy","1024","2","48000","-16","task","5219114","even","NA","23580","25677","25583","84977","5925","16247","11896","85481","NA","84974","85482","84871","25677","86081","21978","84371","5912","71337","Lexical Decision Task","34","27940","35","yes","1024"
"2.696356389","0","1","pizz","non-word","97.22222222222223","97.22222222222223","794.3333333333334","794.3333333333334","black","no","legacy","legacy","legacy","0","uniform","1","undefined","undefined","undefined","1","f","0","0","0","0","35","0","0","0","35","NA","31","35","31","0","31","3","35","0","35","Thu Feb 18 13:47:41 2021","The main experiment item","yes","Lexical_Decision_Task.osexp","C:/Users/princ","no","Andale Mono","no","18","no","white","no","yes","576","legacy","31","31","3","C:/Users/princ/subject-5219114.csv","legacy","Lentiform Loewenfeld","3.3.7","yes","yes","600bd7cfb6416f0113b04181","602110864497cf011d9c0822","0","f","NA","space","space","space","NA","f","656","NA","93","5967","4350","NA","656","2","legacy","1024","2","48000","-16","task","5219114","even","NA","23580","25677","25583","86706","5925","16247","11896","87210","NA","86704","87210","86615","25677","87867","21978","86114","5912","71337","Lexical Decision Task","35","28596","36","yes","1024"
"2.69019608","9.01","2","myth","word","97.29729729729729","97.29729729729729","788.4864864864865","788.4864864864865","black","no","legacy","legacy","legacy","0","uniform","1","undefined","undefined","undefined","1","j","0","0","0","0","36","0","0","0","36","NA","32","36","32","0","32","3","36","0","36","Thu Feb 18 13:47:41 2021","The main experiment item","yes","Lexical_Decision_Task.osexp","C:/Users/princ","no","Andale Mono","no","18","no","white","no","yes","576","legacy","32","32","3","C:/Users/princ/subject-5219114.csv","legacy","Lentiform Loewenfeld","3.3.7","yes","yes","600bd7cfb6416f0113b04181","602110864497cf011d9c0822","0","j","NA","space","space","space","NA","j","578","NA","93","5967","4350","NA","578","2","legacy","1024","2","48000","-16","task","5219114","even","NA","23580","25677","25583","88488","5925","16247","11896","88991","NA","88486","88991","88401","25677","89570","21978","87901","5912","71337","Lexical Decision Task","36","29174","37","yes","1024"
"3.1430148","7.92","8","bald","word","97.36842105263158","97.36842105263158","786.4736842105264","786.4736842105264","black","no","legacy","legacy","legacy","0","uniform","1","undefined","undefined","undefined","1","j","0","0","0","0","37","0","0","0","37","NA","33","37","33","0","33","3","37","0","37","Thu Feb 18 13:47:41 2021","The main experiment item","yes","Lexical_Decision_Task.osexp","C:/Users/princ","no","Andale Mono","no","18","no","white","no","yes","576","legacy","33","33","3","C:/Users/princ/subject-5219114.csv","legacy","Lentiform Loewenfeld","3.3.7","yes","yes","600bd7cfb6416f0113b04181","602110864497cf011d9c0822","0","j","NA","space","space","space","NA","j","712","NA","93","5967","4350","NA","712","2","legacy","1024","2","48000","-16","task","5219114","even","NA","23580","25677","25583","90197","5925","16247","11896","90700","NA","90195","90701","90105","25677","91414","21978","89605","5912","71337","Lexical Decision Task","37","29886","38","yes","1024"
"3.302475237","0","7","leel","non-word","97.43589743589743","97.43589743589743","785.1282051282051","785.1282051282051","black","no","legacy","legacy","legacy","0","uniform","1","undefined","undefined","undefined","1","f","0","0","0","0","38","0","0","0","38","NA","34","38","34","0","34","3","38","0","38","Thu Feb 18 13:47:41 2021","The main experiment item","yes","Lexical_Decision_Task.osexp","C:/Users/princ","no","Andale Mono","no","18","no","white","no","yes","576","legacy","34","34","3","C:/Users/princ/subject-5219114.csv","legacy","Lentiform Loewenfeld","3.3.7","yes","yes","600bd7cfb6416f0113b04181","602110864497cf011d9c0822","0","f","NA","space","space","space","NA","f","734","NA","93","5967","4350","NA","734","2","legacy","1024","2","48000","-16","task","5219114","even","NA","23580","25677","25583","92038","5925","16247","11896","92542","NA","92033","92542","91947","25677","93277","21978","91447","5912","71337","Lexical Decision Task","38","30620","39","yes","1024"
"2.875447132","0","9","jelt","non-word","97.5","97.5","779.575","779.575","black","no","legacy","legacy","legacy","0","uniform","1","undefined","undefined","undefined","1","f","0","0","0","0","39","0","0","0","39","NA","35","39","35","0","35","3","39","0","39","Thu Feb 18 13:47:41 2021","The main experiment item","yes","Lexical_Decision_Task.osexp","C:/Users/princ","no","Andale Mono","no","18","no","white","no","yes","576","legacy","35","35","3","C:/Users/princ/subject-5219114.csv","legacy","Lentiform Loewenfeld","3.3.7","yes","yes","600bd7cfb6416f0113b04181","602110864497cf011d9c0822","0","f","NA","space","space","space","NA","f","563","NA","93","5967","4350","NA","563","2","legacy","1024","2","48000","-16","task","5219114","even","NA","23580","25677","25583","93912","5925","16247","11896","94416","NA","93908","94416","93811","25677","94980","21978","93310","5912","71337","Lexical Decision Task","39","31183","40","yes","1024"
"3.216517684","10.87","3","film","word","97.5609756097561","97.5609756097561","774.9024390243902","774.9024390243902","black","no","legacy","legacy","legacy","0","uniform","1","undefined","undefined","undefined","1","j","0","0","0","0","40","0","0","0","40","NA","36","40","36","0","36","3","40","0","40","Thu Feb 18 13:47:41 2021","The main experiment item","yes","Lexical_Decision_Task.osexp","C:/Users/princ","no","Andale Mono","no","18","no","white","no","yes","576","legacy","36","36","3","C:/Users/princ/subject-5219114.csv","legacy","Lentiform Loewenfeld","3.3.7","yes","yes","600bd7cfb6416f0113b04181","602110864497cf011d9c0822","0","j","NA","space","space","space","NA","j","588","NA","93","5967","4350","NA","588","2","legacy","1024","2","48000","-16","task","5219114","even","NA","23580","25677","25583","95574","5925","16247","11896","96078","NA","95571","96078","95486","25677","96668","21978","94986","5912","71337","Lexical Decision Task","40","31771","41","yes","1024"
"3.529815197","0","3","lerm","non-word","97.61904761904762","97.61904761904762","768.8095238095239","768.8095238095239","black","no","legacy","legacy","legacy","0","uniform","1","undefined","undefined","undefined","1","f","0","0","0","0","41","0","0","0","41","NA","37","41","37","0","37","3","41","0","41","Thu Feb 18 13:47:41 2021","The main experiment item","yes","Lexical_Decision_Task.osexp","C:/Users/princ","no","Andale Mono","no","18","no","white","no","yes","576","legacy","37","37","3","C:/Users/princ/subject-5219114.csv","legacy","Lentiform Loewenfeld","3.3.7","yes","yes","600bd7cfb6416f0113b04181","602110864497cf011d9c0822","0","f","NA","space","space","space","NA","f","519","NA","93","5967","4350","NA","519","2","legacy","1024","2","48000","-16","task","5219114","even","NA","23580","25677","25583","97262","5925","16247","11896","97764","NA","97259","97764","97175","25677","98286","21978","96675","5912","71337","Lexical Decision Task","41","32290","42","yes","1024"
"2.778633532","0","3","jurp","non-word","97.67441860465117","97.67441860465117","765.0697674418604","765.0697674418604","black","no","legacy","legacy","legacy","0","uniform","1","undefined","undefined","undefined","1","f","0","0","0","0","42","0","0","0","42","NA","38","42","38","0","38","3","42","0","42","Thu Feb 18 13:47:41 2021","The main experiment item","yes","Lexical_Decision_Task.osexp","C:/Users/princ","no","Andale Mono","no","18","no","white","no","yes","576","legacy","38","38","3","C:/Users/princ/subject-5219114.csv","legacy","Lentiform Loewenfeld","3.3.7","yes","yes","600bd7cfb6416f0113b04181","602110864497cf011d9c0822","0","f","NA","space","space","space","NA","f","608","NA","93","5967","4350","NA","608","2","legacy","1024","2","48000","-16","task","5219114","even","NA","23580","25677","25583","98913","5925","16247","11896","99417","NA","98911","99417","98822","25677","100026","21978","98321","5912","71337","Lexical Decision Task","42","32898","43","yes","1024"
"3.174641193","0","3","ramb","non-word","97.72727272727273","97.72727272727273","764.9545454545455","764.9545454545455","black","no","legacy","legacy","legacy","0","uniform","1","undefined","undefined","undefined","1","f","0","0","0","0","43","0","0","0","43","NA","39","43","39","0","39","3","43","0","43","Thu Feb 18 13:47:41 2021","The main experiment item","yes","Lexical_Decision_Task.osexp","C:/Users/princ","no","Andale Mono","no","18","no","white","no","yes","576","legacy","39","39","3","C:/Users/princ/subject-5219114.csv","legacy","Lentiform Loewenfeld","3.3.7","yes","yes","600bd7cfb6416f0113b04181","602110864497cf011d9c0822","0","f","NA","space","space","space","NA","f","760","NA","93","5967","4350","NA","760","2","legacy","1024","2","48000","-16","task","5219114","even","NA","23580","25677","25583","100642","5925","16247","11896","101146","NA","100639","101146","100560","25677","101907","21978","100060","5912","71337","Lexical Decision Task","43","33658","44","yes","1024"
"3.460446784","0","5","dess","non-word","97.77777777777777","97.77777777777777","759.7777777777778","759.7777777777778","black","no","legacy","legacy","legacy","0","uniform","1","undefined","undefined","undefined","1","f","0","0","0","0","44","0","0","0","44","NA","40","44","40","0","40","3","44","0","44","Thu Feb 18 13:47:41 2021","The main experiment item","yes","Lexical_Decision_Task.osexp","C:/Users/princ","no","Andale Mono","no","18","no","white","no","yes","576","legacy","40","40","3","C:/Users/princ/subject-5219114.csv","legacy","Lentiform Loewenfeld","3.3.7","yes","yes","600bd7cfb6416f0113b04181","602110864497cf011d9c0822","0","f","NA","space","space","space","NA","f","532","NA","93","5967","4350","NA","532","2","legacy","1024","2","48000","-16","task","5219114","even","NA","23580","25677","25583","102496","5925","16247","11896","103000","NA","102494","103000","102413","25677","103534","21978","101913","5912","71337","Lexical Decision Task","44","34190","45","yes","1024"
"3.031408464","0","7","drow","non-word","97.82608695652173","97.82608695652173","761","761","black","no","legacy","legacy","legacy","0","uniform","1","undefined","undefined","undefined","1","f","0","0","0","0","45","0","0","0","45","NA","41","45","41","0","41","3","45","0","45","Thu Feb 18 13:47:41 2021","The main experiment item","yes","Lexical_Decision_Task.osexp","C:/Users/princ","no","Andale Mono","no","18","no","white","no","yes","576","legacy","41","41","3","C:/Users/princ/subject-5219114.csv","legacy","Lentiform Loewenfeld","3.3.7","yes","yes","600bd7cfb6416f0113b04181","602110864497cf011d9c0822","0","f","NA","space","space","space","NA","f","816","NA","93","5967","4350","NA","816","2","legacy","1024","2","48000","-16","task","5219114","even","NA","23580","25677","25583","104153","5925","16247","11896","104658","NA","104150","104658","104068","25677","105475","21978","103568","5912","71337","Lexical Decision Task","45","35006","46","yes","1024"
"2.819763221","0","2","durp","non-word","97.87234042553192","97.87234042553192","755.7234042553191","755.7234042553191","black","no","legacy","legacy","legacy","0","uniform","1","undefined","undefined","undefined","1","f","0","0","0","0","46","0","0","0","46","NA","42","46","42","0","42","3","46","0","46","Thu Feb 18 13:47:41 2021","The main experiment item","yes","Lexical_Decision_Task.osexp","C:/Users/princ","no","Andale Mono","no","18","no","white","no","yes","576","legacy","42","42","3","C:/Users/princ/subject-5219114.csv","legacy","Lentiform Loewenfeld","3.3.7","yes","yes","600bd7cfb6416f0113b04181","602110864497cf011d9c0822","0","f","NA","space","space","space","NA","f","513","NA","93","5967","4350","NA","513","2","legacy","1024","2","48000","-16","task","5219114","even","NA","23580","25677","25583","106099","5925","16247","11896","106604","NA","106097","106604","106010","25677","107119","21978","105510","5912","71337","Lexical Decision Task","46","35519","47","yes","1024"
"2.884795364","0","6","flob","non-word","97.91666666666667","97.91666666666667","752.1875","752.1875","black","no","legacy","legacy","legacy","0","uniform","1","undefined","undefined","undefined","1","f","0","0","0","0","47","0","0","0","47","NA","43","47","43","0","43","3","47","0","47","Thu Feb 18 13:47:41 2021","The main experiment item","yes","Lexical_Decision_Task.osexp","C:/Users/princ","no","Andale Mono","no","18","no","white","no","yes","576","legacy","43","43","3","C:/Users/princ/subject-5219114.csv","legacy","Lentiform Loewenfeld","3.3.7","yes","yes","600bd7cfb6416f0113b04181","602110864497cf011d9c0822","0","f","NA","space","space","space","NA","f","586","NA","93","5967","4350","NA","586","2","legacy","1024","2","48000","-16","task","5219114","even","NA","23580","25677","25583","107744","5925","16247","11896","108247","NA","107742","108247","107654","25677","108835","21978","107154","5912","71337","Lexical Decision Task","47","36105","48","yes","1024"
"3.252447662","9.67","9","boat","word","97.95918367346938","97.95918367346938","748.7755102040817","748.7755102040817","black","no","legacy","legacy","legacy","0","uniform","1","undefined","undefined","undefined","1","j","0","0","0","0","48","0","0","0","48","NA","44","48","44","0","44","3","48","0","48","Thu Feb 18 13:47:41 2021","The main experiment item","yes","Lexical_Decision_Task.osexp","C:/Users/princ","no","Andale Mono","no","18","no","white","no","yes","576","legacy","44","44","3","C:/Users/princ/subject-5219114.csv","legacy","Lentiform Loewenfeld","3.3.7","yes","yes","600bd7cfb6416f0113b04181","602110864497cf011d9c0822","0","j","NA","space","space","space","NA","j","585","NA","93","5967","4350","NA","585","2","legacy","1024","2","48000","-16","task","5219114","even","NA","23580","25677","25583","109445","5925","16247","11896","109949","NA","109443","109949","109369","25677","110535","21978","108868","5912","71337","Lexical Decision Task","48","36690","49","yes","1024"
"2.784379519","0","2","snaf","non-word","98","98","744.32","744.32","black","no","legacy","legacy","legacy","0","uniform","1","undefined","undefined","undefined","1","f","0","0","0","0","49","0","0","0","49","NA","45","49","45","0","45","3","49","0","49","Thu Feb 18 13:47:41 2021","The main experiment item","yes","Lexical_Decision_Task.osexp","C:/Users/princ","no","Andale Mono","no","18","no","white","no","yes","576","legacy","45","45","3","C:/Users/princ/subject-5219114.csv","legacy","Lentiform Loewenfeld","3.3.7","yes","yes","600bd7cfb6416f0113b04181","602110864497cf011d9c0822","0","f","NA","space","space","space","NA","f","526","NA","93","5967","4350","NA","526","2","legacy","1024","2","48000","-16","task","5219114","even","NA","23580","25677","25583","111156","5925","16247","11896","111661","NA","111154","111661","111069","25677","112189","21978","110569","5912","71337","Lexical Decision Task","49","37216","50","yes","1024"
"2.971428938","9.86","7","spot","word","98.03921568627452","98.03921568627452","741.7843137254902","741.7843137254902","black","no","legacy","legacy","legacy","0","uniform","1","undefined","undefined","undefined","1","j","0","0","0","0","50","0","0","0","50","NA","46","50","46","0","46","3","50","0","50","Thu Feb 18 13:47:41 2021","The main experiment item","yes","Lexical_Decision_Task.osexp","C:/Users/princ","no","Andale Mono","no","18","no","white","no","yes","576","legacy","46","46","3","C:/Users/princ/subject-5219114.csv","legacy","Lentiform Loewenfeld","3.3.7","yes","yes","600bd7cfb6416f0113b04181","602110864497cf011d9c0822","0","j","NA","space","space","space","NA","j","615","NA","93","5967","4350","NA","615","2","legacy","1024","2","48000","-16","task","5219114","even","NA","23580","25677","25583","112806","5925","16247","11896","113308","NA","112804","113308","112724","25677","113925","21978","112224","5912","71337","Lexical Decision Task","50","37831","51","yes","1024"
"2.695481676","0","7","goke","non-word","98.07692307692308","98.07692307692308","737.3653846153846","737.3653846153846","black","no","legacy","legacy","legacy","0","uniform","1","undefined","undefined","undefined","1","f","0","0","0","0","51","0","0","0","51","NA","47","51","47","0","47","3","51","0","51","Thu Feb 18 13:47:41 2021","The main experiment item","yes","Lexical_Decision_Task.osexp","C:/Users/princ","no","Andale Mono","no","18","no","white","no","yes","576","legacy","47","47","3","C:/Users/princ/subject-5219114.csv","legacy","Lentiform Loewenfeld","3.3.7","yes","yes","600bd7cfb6416f0113b04181","602110864497cf011d9c0822","0","f","NA","space","space","space","NA","f","512","NA","93","5967","4350","NA","512","2","legacy","1024","2","48000","-16","task","5219114","even","NA","23580","25677","25583","114550","5925","16247","11896","115055","NA","114548","115055","114460","25677","115568","21978","113960","5912","71337","Lexical Decision Task","51","38343","52","yes","1024"
"2.953276337","6.32","4","thaw","word","96.22641509433963","96.22641509433963","733.9622641509434","733.9622641509434","black","no","legacy","legacy","legacy","0","uniform","0","undefined","undefined","undefined","0","j","0","0","0","0","52","0","0","0","52","NA","48","52","48","0","48","3","52","0","52","Thu Feb 18 13:47:41 2021","The main experiment item","yes","Lexical_Decision_Task.osexp","C:/Users/princ","no","Andale Mono","no","18","no","white","no","yes","576","legacy","48","48","3","C:/Users/princ/subject-5219114.csv","legacy","Lentiform Loewenfeld","3.3.7","yes","yes","600bd7cfb6416f0113b04181","602110864497cf011d9c0822","0","f","NA","space","space","space","NA","f","557","NA","93","5967","4350","NA","557","2","legacy","1024","2","48000","-16","task","5219114","even","NA","23580","25677","25583","116196","5925","16247","11896","116699","NA","116194","116699","116104","25677","117257","21978","115604","5912","71337","Lexical Decision Task","51","38900","53","yes","1024"
"2.812467698","0","7","hafe","non-word","96.29629629629629","96.29629629629629","730.8333333333334","730.8333333333334","black","no","legacy","legacy","legacy","0","uniform","1","undefined","undefined","undefined","1","f","0","0","0","0","53","0","0","0","53","NA","49","53","49","0","49","3","53","0","53","Thu Feb 18 13:47:41 2021","The main experiment item","yes","Lexical_Decision_Task.osexp","C:/Users/princ","no","Andale Mono","no","18","no","white","no","yes","576","legacy","49","49","3","C:/Users/princ/subject-5219114.csv","legacy","Lentiform Loewenfeld","3.3.7","yes","yes","600bd7cfb6416f0113b04181","602110864497cf011d9c0822","0","f","NA","space","space","space","NA","f","565","NA","93","5967","4350","NA","565","2","legacy","1024","2","48000","-16","task","5219114","even","NA","23580","25677","25583","118878","5925","16247","11896","119382","NA","118875","119382","118790","25677","119948","21978","115604","5912","117290","Lexical Decision Task","52","39465","54","yes","1024"
"3.064581521","5.51","6","cask","word","94.54545454545455","94.54545454545455","749.0545454545454","749.0545454545454","black","no","legacy","legacy","legacy","0","uniform","0","undefined","undefined","undefined","0","j","0","0","0","0","54","0","0","0","54","0","50","54","50","0","50","3","54","0","54","Thu Feb 18 13:47:41 2021","The main experiment item","yes","Lexical_Decision_Task.osexp","C:/Users/princ","no","Andale Mono","no","18","no","white","no","yes","576","legacy","50","50","3","C:/Users/princ/subject-5219114.csv","legacy","Lentiform Loewenfeld","3.3.7","yes","yes","600bd7cfb6416f0113b04181","602110864497cf011d9c0822","0","f","NA","space","space","space","space","f","1733","NA","93","5967","4350","2696","1733","2","legacy","1024","2","48000","-16","task","5219114","even","NA","23580","25677","25583","123331","5925","16247","11896","123836","120554","123328","123836","120483","25677","125571","21978","119982","5912","117290","Lexical Decision Task","52","41198","55","yes","1024"
"3.269668578","0","7","trag","non-word","94.64285714285714","94.64285714285714","748.7857142857143","748.7857142857143","black","no","legacy","legacy","legacy","0","uniform","1","undefined","undefined","undefined","1","f","0","0","0","0","55","0","0","0","55","0","51","55","51","0","51","3","55","0","55","Thu Feb 18 13:47:41 2021","The main experiment item","yes","Lexical_Decision_Task.osexp","C:/Users/princ","no","Andale Mono","no","18","no","white","no","yes","576","legacy","51","51","3","C:/Users/princ/subject-5219114.csv","legacy","Lentiform Loewenfeld","3.3.7","yes","yes","600bd7cfb6416f0113b04181","602110864497cf011d9c0822","0","f","NA","space","space","space","space","f","734","NA","93","5967","4350","2696","734","2","legacy","1024","2","48000","-16","task","5219114","even","NA","23580","25677","25583","127198","5925","16247","11896","127702","120554","127196","127703","127106","25677","128438","21978","119982","5912","125605","Lexical Decision Task","53","41932","56","yes","1024"
"2.771097306","0","9","jold","non-word","94.73684210526316","94.73684210526316","746.6842105263158","746.6842105263158","black","no","legacy","legacy","legacy","0","uniform","1","undefined","undefined","undefined","1","f","0","0","0","0","56","0","0","0","56","0","52","56","52","0","52","3","56","0","56","Thu Feb 18 13:47:41 2021","The main experiment item","yes","Lexical_Decision_Task.osexp","C:/Users/princ","no","Andale Mono","no","18","no","white","no","yes","576","legacy","52","52","3","C:/Users/princ/subject-5219114.csv","legacy","Lentiform Loewenfeld","3.3.7","yes","yes","600bd7cfb6416f0113b04181","602110864497cf011d9c0822","0","f","NA","space","space","space","space","f","629","NA","93","5967","4350","2696","629","2","legacy","1024","2","48000","-16","task","5219114","even","NA","23580","25677","25583","129056","5925","16247","11896","129561","120554","129054","129561","128972","25677","130191","21978","128472","5912","125605","Lexical Decision Task","54","42561","57","yes","1024"
"3.397302518","7.01","2","knit","word","94.82758620689656","94.82758620689656","741.4655172413793","741.4655172413793","black","no","legacy","legacy","legacy","0","uniform","1","undefined","undefined","undefined","1","j","0","0","0","0","57","0","0","0","57","0","53","57","53","0","53","3","57","0","57","Thu Feb 18 13:47:41 2021","The main experiment item","yes","Lexical_Decision_Task.osexp","C:/Users/princ","no","Andale Mono","no","18","no","white","no","yes","576","legacy","53","53","3","C:/Users/princ/subject-5219114.csv","legacy","Lentiform Loewenfeld","3.3.7","yes","yes","600bd7cfb6416f0113b04181","602110864497cf011d9c0822","0","j","NA","space","space","space","space","j","444","NA","93","5967","4350","2696","444","2","legacy","1024","2","48000","-16","task","5219114","even","NA","23580","25677","25583","130805","5925","16247","11896","131307","120554","130802","131307","130725","25677","131752","21978","130225","5912","125605","Lexical Decision Task","55","43005","58","yes","1024"
"2.966923697","5.4","2","fume","word","94.91525423728814","94.91525423728814","737.9152542372881","737.9152542372881","black","no","legacy","legacy","legacy","0","uniform","1","undefined","undefined","undefined","1","j","0","0","0","0","58","0","0","0","58","0","54","58","54","0","54","3","58","0","58","Thu Feb 18 13:47:41 2021","The main experiment item","yes","Lexical_Decision_Task.osexp","C:/Users/princ","no","Andale Mono","no","18","no","white","no","yes","576","legacy","54","54","3","C:/Users/princ/subject-5219114.csv","legacy","Lentiform Loewenfeld","3.3.7","yes","yes","600bd7cfb6416f0113b04181","602110864497cf011d9c0822","0","j","NA","space","space","space","space","j","532","NA","93","5967","4350","2696","532","2","legacy","1024","2","48000","-16","task","5219114","even","NA","23580","25677","25583","132376","5925","16247","11896","132880","120554","132373","132880","132285","25677","133414","21978","131785","5912","125605","Lexical Decision Task","56","43537","59","yes","1024"
"2.709837904","6.85","8","skim","word","95","95","737.2166666666667","737.2166666666667","black","no","legacy","legacy","legacy","0","uniform","1","undefined","undefined","undefined","1","j","0","0","0","0","59","0","0","0","59","0","55","59","55","0","55","3","59","0","59","Thu Feb 18 13:47:41 2021","The main experiment item","yes","Lexical_Decision_Task.osexp","C:/Users/princ","no","Andale Mono","no","18","no","white","no","yes","576","legacy","55","55","3","C:/Users/princ/subject-5219114.csv","legacy","Lentiform Loewenfeld","3.3.7","yes","yes","600bd7cfb6416f0113b04181","602110864497cf011d9c0822","0","j","NA","space","space","space","space","j","696","NA","93","5967","4350","2696","696","2","legacy","1024","2","48000","-16","task","5219114","even","NA","23580","25677","25583","133996","5925","16247","11896","134498","120554","133994","134498","133920","25677","135196","21978","133420","5912","125605","Lexical Decision Task","57","44233","60","yes","1024"
"2.794720352","0","9","koot","non-word","95.08196721311475","95.08196721311475","734.8688524590164","734.8688524590164","black","no","legacy","legacy","legacy","0","uniform","1","undefined","undefined","undefined","1","f","0","0","0","0","60","0","0","0","60","0","56","60","56","0","56","3","60","0","60","Thu Feb 18 13:47:41 2021","The main experiment item","yes","Lexical_Decision_Task.osexp","C:/Users/princ","no","Andale Mono","no","18","no","white","no","yes","576","legacy","56","56","3","C:/Users/princ/subject-5219114.csv","legacy","Lentiform Loewenfeld","3.3.7","yes","yes","600bd7cfb6416f0113b04181","602110864497cf011d9c0822","0","f","NA","space","space","space","space","f","594","NA","93","5967","4350","2696","594","2","legacy","1024","2","48000","-16","task","5219114","even","NA","23580","25677","25583","135789","5925","16247","11896","136294","120554","135787","136294","135704","25677","136889","21978","135204","5912","125605","Lexical Decision Task","58","44827","61","yes","1024"
"2.693726949","5.08","3","swig","word","95.16129032258064","95.16129032258064","733.6935483870968","733.6935483870968","black","no","legacy","legacy","legacy","0","uniform","1","undefined","undefined","undefined","1","j","0","0","0","0","61","0","0","0","61","0","57","61","57","0","57","3","61","0","61","Thu Feb 18 13:47:41 2021","The main experiment item","yes","Lexical_Decision_Task.osexp","C:/Users/princ","no","Andale Mono","no","18","no","white","no","yes","576","legacy","57","57","3","C:/Users/princ/subject-5219114.csv","legacy","Lentiform Loewenfeld","3.3.7","yes","yes","600bd7cfb6416f0113b04181","602110864497cf011d9c0822","0","j","NA","space","space","space","space","j","662","NA","93","5967","4350","2696","662","2","legacy","1024","2","48000","-16","task","5219114","even","NA","23580","25677","25583","137514","5925","16247","11896","138018","120554","137512","138018","137423","25677","138682","21978","136923","5912","125605","Lexical Decision Task","59","45489","62","yes","1024"
"3.121778632","0","9","sark","non-word","95.23809523809524","95.23809523809524","731.2698412698413","731.2698412698413","black","no","legacy","legacy","legacy","0","uniform","1","undefined","undefined","undefined","1","f","0","0","0","0","62","0","0","0","62","0","58","62","58","0","58","3","62","0","62","Thu Feb 18 13:47:41 2021","The main experiment item","yes","Lexical_Decision_Task.osexp","C:/Users/princ","no","Andale Mono","no","18","no","white","no","yes","576","legacy","58","58","3","C:/Users/princ/subject-5219114.csv","legacy","Lentiform Loewenfeld","3.3.7","yes","yes","600bd7cfb6416f0113b04181","602110864497cf011d9c0822","0","f","NA","space","space","space","space","f","581","NA","93","5967","4350","2696","581","2","legacy","1024","2","48000","-16","task","5219114","even","NA","23580","25677","25583","139281","5925","16247","11896","139783","120554","139278","139784","139190","25677","140367","21978","138690","5912","125605","Lexical Decision Task","60","46070","63","yes","1024"
"3.368162872","0","4","ferk","non-word","95.3125","95.3125","728.25","728.25","black","no","legacy","legacy","legacy","0","uniform","1","undefined","undefined","undefined","1","f","0","0","0","0","63","0","0","0","63","0","59","63","59","0","59","3","63","0","63","Thu Feb 18 13:47:41 2021","The main experiment item","yes","Lexical_Decision_Task.osexp","C:/Users/princ","no","Andale Mono","no","18","no","white","no","yes","576","legacy","59","59","3","C:/Users/princ/subject-5219114.csv","legacy","Lentiform Loewenfeld","3.3.7","yes","yes","600bd7cfb6416f0113b04181","602110864497cf011d9c0822","0","f","NA","space","space","space","space","f","538","NA","93","5967","4350","2696","538","2","legacy","1024","2","48000","-16","task","5219114","even","NA","23580","25677","25583","140991","5925","16247","11896","141495","120554","140988","141495","140902","25677","142035","21978","140402","5912","125605","Lexical Decision Task","61","46608","64","yes","1024"
"2.843025032","0","9","pusk","non-word","95.38461538461539","95.38461538461539","728.8","728.8","black","no","legacy","legacy","legacy","0","uniform","1","undefined","undefined","undefined","1","f","0","0","0","0","64","0","0","0","64","0","60","64","60","0","60","3","64","0","64","Thu Feb 18 13:47:41 2021","The main experiment item","yes","Lexical_Decision_Task.osexp","C:/Users/princ","no","Andale Mono","no","18","no","white","no","yes","576","legacy","60","60","3","C:/Users/princ/subject-5219114.csv","legacy","Lentiform Loewenfeld","3.3.7","yes","yes","600bd7cfb6416f0113b04181","602110864497cf011d9c0822","0","f","NA","space","space","space","space","f","764","NA","93","5967","4350","2696","764","2","legacy","1024","2","48000","-16","task","5219114","even","NA","23580","25677","25583","142657","5925","16247","11896","143161","120554","142655","143161","142568","25677","143927","21978","142068","5912","125605","Lexical Decision Task","62","47372","65","yes","1024"
"2.868644438","10.52","4","town","word","95.45454545454545","95.45454545454545","725.4848484848485","725.4848484848485","black","no","legacy","legacy","legacy","0","uniform","1","undefined","undefined","undefined","1","j","0","0","0","0","65","0","0","0","65","0","61","65","61","0","61","3","65","0","65","Thu Feb 18 13:47:41 2021","The main experiment item","yes","Lexical_Decision_Task.osexp","C:/Users/princ","no","Andale Mono","no","18","no","white","no","yes","576","legacy","61","61","3","C:/Users/princ/subject-5219114.csv","legacy","Lentiform Loewenfeld","3.3.7","yes","yes","600bd7cfb6416f0113b04181","602110864497cf011d9c0822","0","j","NA","space","space","space","space","j","510","NA","93","5967","4350","2696","510","2","legacy","1024","2","48000","-16","task","5219114","even","NA","23580","25677","25583","144554","5925","16247","11896","145057","120554","144551","145057","144463","25677","145569","21978","143963","5912","125605","Lexical Decision Task","63","47882","66","yes","1024"
"3.488597715","0","9","nain","non-word","95.5223880597015","95.5223880597015","728.5820895522388","728.5820895522388","black","no","legacy","legacy","legacy","0","uniform","1","undefined","undefined","undefined","1","f","0","0","0","0","66","0","0","0","66","0","62","66","62","0","62","3","66","0","66","Thu Feb 18 13:47:41 2021","The main experiment item","yes","Lexical_Decision_Task.osexp","C:/Users/princ","no","Andale Mono","no","18","no","white","no","yes","576","legacy","62","62","3","C:/Users/princ/subject-5219114.csv","legacy","Lentiform Loewenfeld","3.3.7","yes","yes","600bd7cfb6416f0113b04181","602110864497cf011d9c0822","0","f","NA","space","space","space","space","f","933","NA","93","5967","4350","2696","933","2","legacy","1024","2","48000","-16","task","5219114","even","NA","23580","25677","25583","146185","5925","16247","11896","146689","120554","146183","146690","146104","25677","147624","21978","145603","5912","125605","Lexical Decision Task","64","48815","67","yes","1024"
"3.374198258","0","8","vist","non-word","94.11764705882354","94.11764705882354","726.5147058823529","726.5147058823529","black","no","legacy","legacy","legacy","0","uniform","0","undefined","undefined","undefined","0","f","0","0","0","0","67","0","0","0","67","0","63","67","63","0","63","3","67","0","67","Thu Feb 18 13:47:41 2021","The main experiment item","yes","Lexical_Decision_Task.osexp","C:/Users/princ","no","Andale Mono","no","18","no","white","no","yes","576","legacy","63","63","3","C:/Users/princ/subject-5219114.csv","legacy","Lentiform Loewenfeld","3.3.7","yes","yes","600bd7cfb6416f0113b04181","602110864497cf011d9c0822","0","j","NA","space","space","space","space","j","588","NA","93","5967","4350","2696","588","2","legacy","1024","2","48000","-16","task","5219114","even","NA","23580","25677","25583","148238","5925","16247","11896","148743","120554","148237","148743","148159","25677","149333","21978","147659","5912","125605","Lexical Decision Task","64","49403","68","yes","1024"
"2.616654026","9.37","5","gift","word","94.20289855072464","94.20289855072464","728.1594202898551","728.1594202898551","black","no","legacy","legacy","legacy","0","uniform","1","undefined","undefined","undefined","1","j","0","0","0","0","68","0","0","0","68","0","64","68","64","0","64","3","68","0","68","Thu Feb 18 13:47:41 2021","The main experiment item","yes","Lexical_Decision_Task.osexp","C:/Users/princ","no","Andale Mono","no","18","no","white","no","yes","576","legacy","64","64","3","C:/Users/princ/subject-5219114.csv","legacy","Lentiform Loewenfeld","3.3.7","yes","yes","600bd7cfb6416f0113b04181","602110864497cf011d9c0822","0","j","NA","space","space","space","space","j","840","NA","93","5967","4350","2696","840","2","legacy","1024","2","48000","-16","task","5219114","even","NA","23580","25677","25583","150936","5925","16247","11896","151440","120554","150933","151440","150841","25677","152282","21978","147659","5912","149341","Lexical Decision Task","65","50243","69","yes","1024"
"2.82129731","6.72","5","plum","word","94.28571428571429","94.28571428571429","724.8571428571429","724.8571428571429","black","no","legacy","legacy","legacy","0","uniform","1","undefined","undefined","undefined","1","j","0","0","0","0","69","0","0","0","69","0","65","69","65","0","65","3","69","0","69","Thu Feb 18 13:47:41 2021","The main experiment item","yes","Lexical_Decision_Task.osexp","C:/Users/princ","no","Andale Mono","no","18","no","white","no","yes","576","legacy","65","65","3","C:/Users/princ/subject-5219114.csv","legacy","Lentiform Loewenfeld","3.3.7","yes","yes","600bd7cfb6416f0113b04181","602110864497cf011d9c0822","0","j","NA","space","space","space","space","j","497","NA","93","5967","4350","2696","497","2","legacy","1024","2","48000","-16","task","5219114","even","NA","23580","25677","25583","152877","5925","16247","11896","153379","120554","152874","153379","152788","25677","153877","21978","152288","5912","149341","Lexical Decision Task","66","50740","70","yes","1024"
"2.799799878","0","4","ciff","non-word","94.36619718309859","94.36619718309859","723.7183098591549","723.7183098591549","black","no","legacy","legacy","legacy","0","uniform","1","undefined","undefined","undefined","1","f","0","0","0","0","70","0","0","0","70","0","66","70","66","0","66","3","70","0","70","Thu Feb 18 13:47:41 2021","The main experiment item","yes","Lexical_Decision_Task.osexp","C:/Users/princ","no","Andale Mono","no","18","no","white","no","yes","576","legacy","66","66","3","C:/Users/princ/subject-5219114.csv","legacy","Lentiform Loewenfeld","3.3.7","yes","yes","600bd7cfb6416f0113b04181","602110864497cf011d9c0822","0","f","NA","space","space","space","space","f","644","NA","93","5967","4350","2696","644","2","legacy","1024","2","48000","-16","task","5219114","even","NA","23580","25677","25583","154472","5925","16247","11896","154977","120554","154469","154977","154390","25677","155622","21978","153890","5912","149341","Lexical Decision Task","67","51384","71","yes","1024"
"2.728085817","10.02","9","bike","word","94.44444444444444","94.44444444444444","722.0833333333334","722.0833333333334","black","no","legacy","legacy","legacy","0","uniform","1","undefined","undefined","undefined","1","j","0","0","0","0","71","0","0","0","71","0","67","71","67","0","67","3","71","0","71","Thu Feb 18 13:47:41 2021","The main experiment item","yes","Lexical_Decision_Task.osexp","C:/Users/princ","no","Andale Mono","no","18","no","white","no","yes","576","legacy","67","67","3","C:/Users/princ/subject-5219114.csv","legacy","Lentiform Loewenfeld","3.3.7","yes","yes","600bd7cfb6416f0113b04181","602110864497cf011d9c0822","0","j","NA","space","space","space","space","j","606","NA","93","5967","4350","2696","606","2","legacy","1024","2","48000","-16","task","5219114","even","NA","23580","25677","25583","156247","5925","16247","11896","156752","120554","156244","156752","156155","25677","157360","21978","155655","5912","149341","Lexical Decision Task","68","51990","72","yes","1024"
"2.845304797","0","6","buct","non-word","94.52054794520548","94.52054794520548","720.054794520548","720.054794520548","black","no","legacy","legacy","legacy","0","uniform","1","undefined","undefined","undefined","1","f","0","0","0","0","72","0","0","0","72","0","68","72","68","0","68","3","72","0","72","Thu Feb 18 13:47:41 2021","The main experiment item","yes","Lexical_Decision_Task.osexp","C:/Users/princ","no","Andale Mono","no","18","no","white","no","yes","576","legacy","68","68","3","C:/Users/princ/subject-5219114.csv","legacy","Lentiform Loewenfeld","3.3.7","yes","yes","600bd7cfb6416f0113b04181","602110864497cf011d9c0822","0","f","NA","space","space","space","space","f","574","NA","93","5967","4350","2696","574","2","legacy","1024","2","48000","-16","task","5219114","even","NA","23580","25677","25583","157981","5925","16247","11896","158485","120554","157978","158485","157894","25677","159061","21978","157394","5912","149341","Lexical Decision Task","69","52564","73","yes","1024"
"2.713490543","0","3","feps","non-word","94.5945945945946","94.5945945945946","716.6621621621622","716.6621621621622","black","no","legacy","legacy","legacy","0","uniform","1","undefined","undefined","undefined","1","f","0","0","0","0","73","0","0","0","73","0","69","73","69","0","69","3","73","0","73","Thu Feb 18 13:47:41 2021","The main experiment item","yes","Lexical_Decision_Task.osexp","C:/Users/princ","no","Andale Mono","no","18","no","white","no","yes","576","legacy","69","69","3","C:/Users/princ/subject-5219114.csv","legacy","Lentiform Loewenfeld","3.3.7","yes","yes","600bd7cfb6416f0113b04181","602110864497cf011d9c0822","0","f","NA","space","space","space","space","f","469","NA","93","5967","4350","2696","469","2","legacy","1024","2","48000","-16","task","5219114","even","NA","23580","25677","25583","159687","5925","16247","11896","160191","120554","159685","160191","159595","25677","160662","21978","159094","5912","149341","Lexical Decision Task","70","53033","74","yes","1024"
"3.195807436","0","6","stup","non-word","94.66666666666667","94.66666666666667","713.28","713.28","black","no","legacy","legacy","legacy","0","uniform","1","undefined","undefined","undefined","1","f","0","0","0","0","74","0","0","0","74","0","70","74","70","0","70","3","74","0","74","Thu Feb 18 13:47:41 2021","The main experiment item","yes","Lexical_Decision_Task.osexp","C:/Users/princ","no","Andale Mono","no","18","no","white","no","yes","576","legacy","70","70","3","C:/Users/princ/subject-5219114.csv","legacy","Lentiform Loewenfeld","3.3.7","yes","yes","600bd7cfb6416f0113b04181","602110864497cf011d9c0822","0","f","NA","space","space","space","space","f","463","NA","93","5967","4350","2696","463","2","legacy","1024","2","48000","-16","task","5219114","even","NA","23580","25677","25583","161283","5925","16247","11896","161786","120554","161281","161786","161196","25677","162251","21978","160695","5912","149341","Lexical Decision Task","71","53496","75","yes","1024"
"3.481012421","8.34","5","teen","word","94.73684210526316","94.73684210526316","710.921052631579","710.921052631579","black","no","legacy","legacy","legacy","0","uniform","1","undefined","undefined","undefined","1","j","0","0","0","0","75","0","0","0","75","0","71","75","71","0","71","3","75","0","75","Thu Feb 18 13:47:41 2021","The main experiment item","yes","Lexical_Decision_Task.osexp","C:/Users/princ","no","Andale Mono","no","18","no","white","no","yes","576","legacy","71","71","3","C:/Users/princ/subject-5219114.csv","legacy","Lentiform Loewenfeld","3.3.7","yes","yes","600bd7cfb6416f0113b04181","602110864497cf011d9c0822","0","j","NA","space","space","space","space","j","534","NA","93","5967","4350","2696","534","2","legacy","1024","2","48000","-16","task","5219114","even","NA","23580","25677","25583","162872","5925","16247","11896","163376","120554","162870","163376","162785","25677","163912","21978","162285","5912","149341","Lexical Decision Task","72","54030","76","yes","1024"
"2.972357144","0","5","dasp","non-word","94.8051948051948","94.8051948051948","709.1298701298701","709.1298701298701","black","no","legacy","legacy","legacy","0","uniform","1","undefined","undefined","undefined","1","f","0","0","0","0","76","0","0","0","76","0","72","76","72","0","72","3","76","0","76","Thu Feb 18 13:47:41 2021","The main experiment item","yes","Lexical_Decision_Task.osexp","C:/Users/princ","no","Andale Mono","no","18","no","white","no","yes","576","legacy","72","72","3","C:/Users/princ/subject-5219114.csv","legacy","Lentiform Loewenfeld","3.3.7","yes","yes","600bd7cfb6416f0113b04181","602110864497cf011d9c0822","0","f","NA","space","space","space","space","f","573","NA","93","5967","4350","2696","573","2","legacy","1024","2","48000","-16","task","5219114","even","NA","23580","25677","25583","164507","5925","16247","11896","165011","120554","164504","165011","164419","25677","165586","21978","163919","5912","149341","Lexical Decision Task","73","54603","77","yes","1024"
"2.893578687","8.69","3","surf","word","94.87179487179488","94.87179487179488","707.1282051282051","707.1282051282051","black","no","legacy","legacy","legacy","0","uniform","1","undefined","undefined","undefined","1","j","0","0","0","0","77","0","0","0","77","0","73","77","73","0","73","3","77","0","77","Thu Feb 18 13:47:41 2021","The main experiment item","yes","Lexical_Decision_Task.osexp","C:/Users/princ","no","Andale Mono","no","18","no","white","no","yes","576","legacy","73","73","3","C:/Users/princ/subject-5219114.csv","legacy","Lentiform Loewenfeld","3.3.7","yes","yes","600bd7cfb6416f0113b04181","602110864497cf011d9c0822","0","j","NA","space","space","space","space","j","553","NA","93","5967","4350","2696","553","2","legacy","1024","2","48000","-16","task","5219114","even","NA","23580","25677","25583","166209","5925","16247","11896","166713","120554","166206","166714","166120","25677","167269","21978","165620","5912","149341","Lexical Decision Task","74","55156","78","yes","1024"
"2.842815106","7.86","8","lump","word","93.67088607594937","93.67088607594937","703.7341772151899","703.7341772151899","black","no","legacy","legacy","legacy","0","uniform","0","undefined","undefined","undefined","0","j","0","0","0","0","78","0","0","0","78","0","74","78","74","0","74","3","78","0","78","Thu Feb 18 13:47:41 2021","The main experiment item","yes","Lexical_Decision_Task.osexp","C:/Users/princ","no","Andale Mono","no","18","no","white","no","yes","576","legacy","74","74","3","C:/Users/princ/subject-5219114.csv","legacy","Lentiform Loewenfeld","3.3.7","yes","yes","600bd7cfb6416f0113b04181","602110864497cf011d9c0822","0","f","NA","space","space","space","space","f","439","NA","93","5967","4350","2696","439","2","legacy","1024","2","48000","-16","task","5219114","even","NA","23580","25677","25583","167890","5925","16247","11896","168394","120554","167888","168394","167803","25677","168834","21978","167303","5912","149341","Lexical Decision Task","74","55595","79","yes","1024"
"3.208978517","10.33","4","fish","word","93.75","93.75","705.775","705.775","black","no","legacy","legacy","legacy","0","uniform","1","undefined","undefined","undefined","1","j","0","0","0","0","79","0","0","0","79","0","75","79","75","0","75","3","79","0","79","Thu Feb 18 13:47:41 2021","The main experiment item","yes","Lexical_Decision_Task.osexp","C:/Users/princ","no","Andale Mono","no","18","no","white","no","yes","576","legacy","75","75","3","C:/Users/princ/subject-5219114.csv","legacy","Lentiform Loewenfeld","3.3.7","yes","yes","600bd7cfb6416f0113b04181","602110864497cf011d9c0822","0","j","NA","space","space","space","space","j","867","NA","93","5967","4350","2696","867","2","legacy","1024","2","48000","-16","task","5219114","even","NA","23580","25677","25583","170459","5925","16247","11896","170963","120554","170457","170963","170368","25677","171831","21978","167303","5912","168868","Lexical Decision Task","75","56462","80","yes","1024"
"2.980306438","0","7","slun","non-word","93.82716049382717","93.82716049382717","705.8148148148148","705.8148148148148","black","no","legacy","legacy","legacy","0","uniform","1","undefined","undefined","undefined","1","f","0","0","0","0","80","0","0","0","80","0","76","80","76","0","76","3","80","0","80","Thu Feb 18 13:47:41 2021","The main experiment item","yes","Lexical_Decision_Task.osexp","C:/Users/princ","no","Andale Mono","no","18","no","white","no","yes","576","legacy","76","76","3","C:/Users/princ/subject-5219114.csv","legacy","Lentiform Loewenfeld","3.3.7","yes","yes","600bd7cfb6416f0113b04181","602110864497cf011d9c0822","0","f","NA","space","space","space","space","f","709","NA","93","5967","4350","2696","709","2","legacy","1024","2","48000","-16","task","5219114","even","NA","23580","25677","25583","172454","5925","16247","11896","172958","120554","172452","172958","172364","25677","173669","21978","171864","5912","168868","Lexical Decision Task","76","57171","81","yes","1024"
"3.225825991","0","7","talm","non-word","93.90243902439025","93.90243902439025","704.0487804878048","704.0487804878048","black","no","legacy","legacy","legacy","0","uniform","1","undefined","undefined","undefined","1","f","0","0","0","0","81","0","0","0","81","0","77","81","77","0","77","3","81","0","81","Thu Feb 18 13:47:41 2021","The main experiment item","yes","Lexical_Decision_Task.osexp","C:/Users/princ","no","Andale Mono","no","18","no","white","no","yes","576","legacy","77","77","3","C:/Users/princ/subject-5219114.csv","legacy","Lentiform Loewenfeld","3.3.7","yes","yes","600bd7cfb6416f0113b04181","602110864497cf011d9c0822","0","f","NA","space","space","space","space","f","561","NA","93","5967","4350","2696","561","2","legacy","1024","2","48000","-16","task","5219114","even","NA","23580","25677","25583","174291","5925","16247","11896","174795","120554","174289","174795","174205","25677","175358","21978","173704","5912","168868","Lexical Decision Task","77","57732","82","yes","1024"
"3.259832699","0","9","flar","non-word","93.97590361445783","93.97590361445783","702.0843373493976","702.0843373493976","black","no","legacy","legacy","legacy","0","uniform","1","undefined","undefined","undefined","1","f","0","0","0","0","82","0","0","0","82","0","78","82","78","0","78","3","82","0","82","Thu Feb 18 13:47:41 2021","The main experiment item","yes","Lexical_Decision_Task.osexp","C:/Users/princ","no","Andale Mono","no","18","no","white","no","yes","576","legacy","78","78","3","C:/Users/princ/subject-5219114.csv","legacy","Lentiform Loewenfeld","3.3.7","yes","yes","600bd7cfb6416f0113b04181","602110864497cf011d9c0822","0","f","NA","space","space","space","space","f","541","NA","93","5967","4350","2696","541","2","legacy","1024","2","48000","-16","task","5219114","even","NA","23580","25677","25583","175955","5925","16247","11896","176456","120554","175953","176457","175866","25677","177000","21978","175366","5912","168868","Lexical Decision Task","78","58273","83","yes","1024"
"3.316948329","0","1","besc","non-word","94.04761904761905","94.04761904761905","699.7738095238095","699.7738095238095","black","no","legacy","legacy","legacy","0","uniform","1","undefined","undefined","undefined","1","f","0","0","0","0","83","0","0","0","83","0","79","83","79","0","79","3","83","0","83","Thu Feb 18 13:47:41 2021","The main experiment item","yes","Lexical_Decision_Task.osexp","C:/Users/princ","no","Andale Mono","no","18","no","white","no","yes","576","legacy","79","79","3","C:/Users/princ/subject-5219114.csv","legacy","Lentiform Loewenfeld","3.3.7","yes","yes","600bd7cfb6416f0113b04181","602110864497cf011d9c0822","0","f","NA","space","space","space","space","f","508","NA","93","5967","4350","2696","508","2","legacy","1024","2","48000","-16","task","5219114","even","NA","23580","25677","25583","177585","5925","16247","11896","178090","120554","177583","178090","177507","25677","178600","21978","177007","5912","168868","Lexical Decision Task","79","58781","84","yes","1024"
"3.100255637","0","6","brax","non-word","94.11764705882354","94.11764705882354","697.0470588235294","697.0470588235294","black","no","legacy","legacy","legacy","0","uniform","1","undefined","undefined","undefined","1","f","0","0","0","0","84","0","0","0","84","0","80","84","80","0","80","3","84","0","84","Thu Feb 18 13:47:41 2021","The main experiment item","yes","Lexical_Decision_Task.osexp","C:/Users/princ","no","Andale Mono","no","18","no","white","no","yes","576","legacy","80","80","3","C:/Users/princ/subject-5219114.csv","legacy","Lentiform Loewenfeld","3.3.7","yes","yes","600bd7cfb6416f0113b04181","602110864497cf011d9c0822","0","f","NA","space","space","space","space","f","468","NA","93","5967","4350","2696","468","2","legacy","1024","2","48000","-16","task","5219114","even","NA","23580","25677","25583","179195","5925","16247","11896","179698","120554","179192","179698","179106","25677","180169","21978","178606","5912","168868","Lexical Decision Task","80","59249","85","yes","1024"
"3.131833513","7.66","4","limb","word","94.18604651162791","94.18604651162791","694.0348837209302","694.0348837209302","black","no","legacy","legacy","legacy","0","uniform","1","undefined","undefined","undefined","1","j","0","0","0","0","85","0","0","0","85","0","81","85","81","0","81","3","85","0","85","Thu Feb 18 13:47:41 2021","The main experiment item","yes","Lexical_Decision_Task.osexp","C:/Users/princ","no","Andale Mono","no","18","no","white","no","yes","576","legacy","81","81","3","C:/Users/princ/subject-5219114.csv","legacy","Lentiform Loewenfeld","3.3.7","yes","yes","600bd7cfb6416f0113b04181","602110864497cf011d9c0822","0","j","NA","space","space","space","space","j","438","NA","93","5967","4350","2696","438","2","legacy","1024","2","48000","-16","task","5219114","even","NA","23580","25677","25583","180787","5925","16247","11896","181291","120554","180785","181291","180702","25677","181731","21978","180202","5912","168868","Lexical Decision Task","81","59687","86","yes","1024"
"2.6599162","0","2","saff","non-word","94.25287356321839","94.25287356321839","693.2413793103449","693.2413793103449","black","no","legacy","legacy","legacy","0","uniform","1","undefined","undefined","undefined","1","f","0","0","0","0","86","0","0","0","86","0","82","86","82","0","82","3","86","0","86","Thu Feb 18 13:47:41 2021","The main experiment item","yes","Lexical_Decision_Task.osexp","C:/Users/princ","no","Andale Mono","no","18","no","white","no","yes","576","legacy","82","82","3","C:/Users/princ/subject-5219114.csv","legacy","Lentiform Loewenfeld","3.3.7","yes","yes","600bd7cfb6416f0113b04181","602110864497cf011d9c0822","0","f","NA","space","space","space","space","f","625","NA","93","5967","4350","2696","625","2","legacy","1024","2","48000","-16","task","5219114","even","NA","23580","25677","25583","182326","5925","16247","11896","182830","120554","182323","182830","182237","25677","183456","21978","181737","5912","168868","Lexical Decision Task","82","60312","87","yes","1024"
"3.440331212","7.35","6","stew","word","94.31818181818181","94.31818181818181","691.7045454545455","691.7045454545455","black","no","legacy","legacy","legacy","0","uniform","1","undefined","undefined","undefined","1","j","0","0","0","0","87","0","0","0","87","0","83","87","83","0","83","3","87","0","87","Thu Feb 18 13:47:41 2021","The main experiment item","yes","Lexical_Decision_Task.osexp","C:/Users/princ","no","Andale Mono","no","18","no","white","no","yes","576","legacy","83","83","3","C:/Users/princ/subject-5219114.csv","legacy","Lentiform Loewenfeld","3.3.7","yes","yes","600bd7cfb6416f0113b04181","602110864497cf011d9c0822","0","j","NA","space","space","space","space","j","558","NA","93","5967","4350","2696","558","2","legacy","1024","2","48000","-16","task","5219114","even","NA","23580","25677","25583","184079","5925","16247","11896","184583","120554","184077","184583","183989","25677","185143","21978","183489","5912","168868","Lexical Decision Task","83","60870","88","yes","1024"
"3.307211407","6.07","7","honk","word","94.38202247191012","94.38202247191012","691.4044943820224","691.4044943820224","black","no","legacy","legacy","legacy","0","uniform","1","undefined","undefined","undefined","1","j","0","0","0","0","88","0","0","0","88","0","84","88","84","0","84","3","88","0","88","Thu Feb 18 13:47:41 2021","The main experiment item","yes","Lexical_Decision_Task.osexp","C:/Users/princ","no","Andale Mono","no","18","no","white","no","yes","576","legacy","84","84","3","C:/Users/princ/subject-5219114.csv","legacy","Lentiform Loewenfeld","3.3.7","yes","yes","600bd7cfb6416f0113b04181","602110864497cf011d9c0822","0","j","NA","space","space","space","space","j","665","NA","93","5967","4350","2696","665","2","legacy","1024","2","48000","-16","task","5219114","even","NA","23580","25677","25583","185767","5925","16247","11896","186271","120554","185765","186272","185678","25677","186938","21978","185178","5912","168868","Lexical Decision Task","84","61535","89","yes","1024"
"2.75025376","10.2","6","jump","word","94.44444444444444","94.44444444444444","689.5222222222222","689.5222222222222","black","no","legacy","legacy","legacy","0","uniform","1","undefined","undefined","undefined","1","j","0","0","0","0","89","0","0","0","89","0","85","89","85","0","85","3","89","0","89","Thu Feb 18 13:47:41 2021","The main experiment item","yes","Lexical_Decision_Task.osexp","C:/Users/princ","no","Andale Mono","no","18","no","white","no","yes","576","legacy","85","85","3","C:/Users/princ/subject-5219114.csv","legacy","Lentiform Loewenfeld","3.3.7","yes","yes","600bd7cfb6416f0113b04181","602110864497cf011d9c0822","0","j","NA","space","space","space","space","j","522","NA","93","5967","4350","2696","522","2","legacy","1024","2","48000","-16","task","5219114","even","NA","23580","25677","25583","187534","5925","16247","11896","188038","120554","187531","188038","187444","25677","188561","21978","186944","5912","168868","Lexical Decision Task","85","62057","90","yes","1024"
"3.102203805","7.21","3","drip","word","94.50549450549451","94.50549450549451","687.0439560439561","687.0439560439561","black","no","legacy","legacy","legacy","0","uniform","1","undefined","undefined","undefined","1","j","0","0","0","0","90","0","0","0","90","0","86","90","86","0","86","3","90","0","90","Thu Feb 18 13:47:41 2021","The main experiment item","yes","Lexical_Decision_Task.osexp","C:/Users/princ","no","Andale Mono","no","18","no","white","no","yes","576","legacy","86","86","3","C:/Users/princ/subject-5219114.csv","legacy","Lentiform Loewenfeld","3.3.7","yes","yes","600bd7cfb6416f0113b04181","602110864497cf011d9c0822","0","j","NA","space","space","space","space","j","464","NA","93","5967","4350","2696","464","2","legacy","1024","2","48000","-16","task","5219114","even","NA","23580","25677","25583","189186","5925","16247","11896","189690","120554","189183","189690","189095","25677","190155","21978","188595","5912","168868","Lexical Decision Task","86","62521","91","yes","1024"
"2.95456409","0","4","taud","non-word","94.56521739130434","94.56521739130434","685.7826086956521","685.7826086956521","black","no","legacy","legacy","legacy","0","uniform","1","undefined","undefined","undefined","1","f","0","0","0","0","91","0","0","0","91","0","87","91","87","0","87","3","91","0","91","Thu Feb 18 13:47:41 2021","The main experiment item","yes","Lexical_Decision_Task.osexp","C:/Users/princ","no","Andale Mono","no","18","no","white","no","yes","576","legacy","87","87","3","C:/Users/princ/subject-5219114.csv","legacy","Lentiform Loewenfeld","3.3.7","yes","yes","600bd7cfb6416f0113b04181","602110864497cf011d9c0822","0","f","NA","space","space","space","space","f","571","NA","93","5967","4350","2696","571","2","legacy","1024","2","48000","-16","task","5219114","even","NA","23580","25677","25583","190752","5925","16247","11896","191256","120554","190748","191256","190662","25677","191829","21978","190161","5912","168868","Lexical Decision Task","87","63092","92","yes","1024"
"2.979548375","8.71","4","soup","word","94.6236559139785","94.6236559139785","690.989247311828","690.989247311828","black","no","legacy","legacy","legacy","0","uniform","1","undefined","undefined","undefined","1","j","0","0","0","0","92","0","0","0","92","0","88","92","88","0","88","3","92","0","92","Thu Feb 18 13:47:41 2021","The main experiment item","yes","Lexical_Decision_Task.osexp","C:/Users/princ","no","Andale Mono","no","18","no","white","no","yes","576","legacy","88","88","3","C:/Users/princ/subject-5219114.csv","legacy","Lentiform Loewenfeld","3.3.7","yes","yes","600bd7cfb6416f0113b04181","602110864497cf011d9c0822","0","j","NA","space","space","space","space","j","1170","NA","93","5967","4350","2696","1170","2","legacy","1024","2","48000","-16","task","5219114","even","NA","23580","25677","25583","192452","5925","16247","11896","192956","120554","192450","192956","192362","25677","194128","21978","191862","5912","168868","Lexical Decision Task","88","64262","93","yes","1024"
"2.892836167","10.01","5","soft","word","94.68085106382979","94.68085106382979","688.0957446808511","688.0957446808511","black","no","legacy","legacy","legacy","0","uniform","1","undefined","undefined","undefined","1","j","0","0","0","0","93","0","0","0","93","0","89","93","89","0","89","3","93","0","93","Thu Feb 18 13:47:41 2021","The main experiment item","yes","Lexical_Decision_Task.osexp","C:/Users/princ","no","Andale Mono","no","18","no","white","no","yes","576","legacy","89","89","3","C:/Users/princ/subject-5219114.csv","legacy","Lentiform Loewenfeld","3.3.7","yes","yes","600bd7cfb6416f0113b04181","602110864497cf011d9c0822","0","j","NA","space","space","space","space","j","419","NA","93","5967","4350","2696","419","2","legacy","1024","2","48000","-16","task","5219114","even","NA","23580","25677","25583","194737","5925","16247","11896","195241","120554","194734","195241","194635","25677","195661","21978","194135","5912","168868","Lexical Decision Task","89","64681","94","yes","1024"
"2.9737419","7.69","7","claw","word","94.73684210526316","94.73684210526316","687.1052631578947","687.1052631578947","black","no","legacy","legacy","legacy","0","uniform","1","undefined","undefined","undefined","1","j","0","0","0","0","94","0","0","0","94","0","90","94","90","0","90","3","94","0","94","Thu Feb 18 13:47:41 2021","The main experiment item","yes","Lexical_Decision_Task.osexp","C:/Users/princ","no","Andale Mono","no","18","no","white","no","yes","576","legacy","90","90","3","C:/Users/princ/subject-5219114.csv","legacy","Lentiform Loewenfeld","3.3.7","yes","yes","600bd7cfb6416f0113b04181","602110864497cf011d9c0822","0","j","NA","space","space","space","space","j","594","NA","93","5967","4350","2696","594","2","legacy","1024","2","48000","-16","task","5219114","even","NA","23580","25677","25583","196259","5925","16247","11896","196763","120554","196256","196763","196169","25677","197360","21978","195669","5912","168868","Lexical Decision Task","90","65275","95","yes","1024"
"3.474361976","5.24","6","veer","word","94.79166666666667","94.79166666666667","685.4791666666666","685.4791666666666","black","no","legacy","legacy","legacy","0","uniform","1","undefined","undefined","undefined","1","j","0","0","0","0","95","0","0","0","95","0","91","95","91","0","91","3","95","0","95","Thu Feb 18 13:47:41 2021","The main experiment item","yes","Lexical_Decision_Task.osexp","C:/Users/princ","no","Andale Mono","no","18","no","white","no","yes","576","legacy","91","91","3","C:/Users/princ/subject-5219114.csv","legacy","Lentiform Loewenfeld","3.3.7","yes","yes","600bd7cfb6416f0113b04181","602110864497cf011d9c0822","0","j","NA","space","space","space","space","j","531","NA","93","5967","4350","2696","531","2","legacy","1024","2","48000","-16","task","5219114","even","NA","23580","25677","25583","197961","5925","16247","11896","198463","120554","197958","198463","197869","25677","198996","21978","197369","5912","168868","Lexical Decision Task","91","65806","96","yes","1024"
"2.664328519","0","4","plux","non-word","94.84536082474227","94.84536082474227","684.6185567010309","684.6185567010309","black","no","legacy","legacy","legacy","0","uniform","1","undefined","undefined","undefined","1","f","0","0","0","0","96","0","0","0","96","0","92","96","92","0","92","3","96","0","96","Thu Feb 18 13:47:41 2021","The main experiment item","yes","Lexical_Decision_Task.osexp","C:/Users/princ","no","Andale Mono","no","18","no","white","no","yes","576","legacy","92","92","3","C:/Users/princ/subject-5219114.csv","legacy","Lentiform Loewenfeld","3.3.7","yes","yes","600bd7cfb6416f0113b04181","602110864497cf011d9c0822","0","f","NA","space","space","space","space","f","602","NA","93","5967","4350","2696","602","2","legacy","1024","2","48000","-16","task","5219114","even","NA","23580","25677","25583","199613","5925","16247","11896","200116","120554","199611","200117","199531","25677","200721","21978","199031","5912","168868","Lexical Decision Task","92","66408","97","yes","1024"
"3.091901331","0","9","nipe","non-word","94.89795918367346","94.89795918367346","686.765306122449","686.765306122449","black","no","legacy","legacy","legacy","0","uniform","1","undefined","undefined","undefined","1","f","0","0","0","0","97","0","0","0","97","0","93","97","93","0","93","3","97","0","97","Thu Feb 18 13:47:41 2021","The main experiment item","yes","Lexical_Decision_Task.osexp","C:/Users/princ","no","Andale Mono","no","18","no","white","no","yes","576","legacy","93","93","3","C:/Users/princ/subject-5219114.csv","legacy","Lentiform Loewenfeld","3.3.7","yes","yes","600bd7cfb6416f0113b04181","602110864497cf011d9c0822","0","f","NA","space","space","space","space","f","895","NA","93","5967","4350","2696","895","2","legacy","1024","2","48000","-16","task","5219114","even","NA","23580","25677","25583","201337","5925","16247","11896","201841","120554","201334","201842","201255","25677","202739","21978","200755","5912","168868","Lexical Decision Task","93","67303","98","yes","1024"
"2.907588697","8.91","9","mood","word","94.94949494949495","94.94949494949495","685.1818181818181","685.1818181818181","black","no","legacy","legacy","legacy","0","uniform","1","undefined","undefined","undefined","1","j","0","0","0","0","98","0","0","0","98","0","94","98","94","0","94","3","98","0","98","Thu Feb 18 13:47:41 2021","The main experiment item","yes","Lexical_Decision_Task.osexp","C:/Users/princ","no","Andale Mono","no","18","no","white","no","yes","576","legacy","94","94","3","C:/Users/princ/subject-5219114.csv","legacy","Lentiform Loewenfeld","3.3.7","yes","yes","600bd7cfb6416f0113b04181","602110864497cf011d9c0822","0","j","NA","space","space","space","space","j","530","NA","93","5967","4350","2696","530","2","legacy","1024","2","48000","-16","task","5219114","even","NA","23580","25677","25583","203328","5925","16247","11896","203832","120554","203325","203832","203246","25677","204364","21978","202746","5912","168868","Lexical Decision Task","94","67833","99","yes","1024"
"3.218535505","7.85","7","goat","word","95","95","682.91","682.91","black","no","legacy","legacy","legacy","0","uniform","1","undefined","undefined","undefined","1","j","0","0","0","0","99","0","0","0","99","0","95","99","95","0","95","3","99","0","99","Thu Feb 18 13:47:41 2021","The main experiment item","yes","Lexical_Decision_Task.osexp","C:/Users/princ","no","Andale Mono","no","18","no","white","no","yes","576","legacy","95","95","3","C:/Users/princ/subject-5219114.csv","legacy","Lentiform Loewenfeld","3.3.7","yes","yes","600bd7cfb6416f0113b04181","602110864497cf011d9c0822","0","j","NA","space","space","space","space","j","458","NA","93","5967","4350","2696","458","2","legacy","1024","2","48000","-16","task","5219114","even","NA","23580","25677","25583","204984","5925","16247","11896","205488","120554","204982","205489","204898","25677","205948","21978","204398","5912","168868","Lexical Decision Task","95","68291","100","yes","1024"
"2.67699827","0","6","hulf","non-word","95.04950495049505","95.04950495049505","682.6435643564356","682.6435643564356","black","no","legacy","legacy","legacy","0","uniform","1","undefined","undefined","undefined","1","f","0","0","0","0","100","0","0","0","100","0","96","100","96","0","96","3","100","0","100","Thu Feb 18 13:47:41 2021","The main experiment item","yes","Lexical_Decision_Task.osexp","C:/Users/princ","no","Andale Mono","no","18","no","white","no","yes","576","legacy","96","96","3","C:/Users/princ/subject-5219114.csv","legacy","Lentiform Loewenfeld","3.3.7","yes","yes","600bd7cfb6416f0113b04181","602110864497cf011d9c0822","0","f","NA","space","space","space","space","f","656","NA","93","5967","4350","2696","656","2","legacy","1024","2","48000","-16","task","5219114","even","NA","23580","25677","25583","206567","5925","16247","11896","207071","120554","206564","207072","206481","25677","207729","21978","205981","5912","168868","Lexical Decision Task","96","68947","101","yes","1024"
"2.895974732","6.65","5","sift","word","95.09803921568627","95.09803921568627","681.6372549019608","681.6372549019608","black","no","legacy","legacy","legacy","0","uniform","1","undefined","undefined","undefined","1","j","0","0","0","0","101","0","0","0","101","0","97","101","97","0","97","3","101","0","101","Thu Feb 18 13:47:41 2021","The main experiment item","yes","Lexical_Decision_Task.osexp","C:/Users/princ","no","Andale Mono","no","18","no","white","no","yes","576","legacy","97","97","3","C:/Users/princ/subject-5219114.csv","legacy","Lentiform Loewenfeld","3.3.7","yes","yes","600bd7cfb6416f0113b04181","602110864497cf011d9c0822","0","j","NA","space","space","space","space","j","580","NA","93","5967","4350","2696","580","2","legacy","1024","2","48000","-16","task","5219114","even","NA","23580","25677","25583","208348","5925","16247","11896","208852","120554","208344","208852","208262","25677","209433","21978","207762","5912","168868","Lexical Decision Task","97","69527","102","yes","1024"
"3.16326079","0","5","parg","non-word","95.14563106796116","95.14563106796116","681.7766990291262","681.7766990291262","black","no","legacy","legacy","legacy","0","uniform","1","undefined","undefined","undefined","1","f","0","0","0","0","102","0","0","0","102","0","98","102","98","0","98","3","102","0","102","Thu Feb 18 13:47:41 2021","The main experiment item","yes","Lexical_Decision_Task.osexp","C:/Users/princ","no","Andale Mono","no","18","no","white","no","yes","576","legacy","98","98","3","C:/Users/princ/subject-5219114.csv","legacy","Lentiform Loewenfeld","3.3.7","yes","yes","600bd7cfb6416f0113b04181","602110864497cf011d9c0822","0","f","NA","space","space","space","space","f","696","NA","93","5967","4350","2696","696","2","legacy","1024","2","48000","-16","task","5219114","even","NA","23580","25677","25583","210055","5925","16247","11896","210559","120554","210051","210559","209967","25677","211258","21978","209467","5912","168868","Lexical Decision Task","98","70223","103","yes","1024"
