"Log_BG","Log_Freq_HAL","Ortho_N","Stimulus","Type","acc","accuracy","average_response_time","avg_rt","background","bidi","canvas_backend","clock_backend","color_backend","compensation","coordinates","correct","correct_Experimental_intro","correct_Introduction","correct_Practice_intro","correct_experimenter_kb","correct_response","count_End_Of_Experiment","count_End_Of_Practice","count_Experimental_Loop","count_Experimental_intro","count_Fixation","count_Introduction","count_Practice_Loop","count_Practice_intro","count_Stimulus","count_block_break_feedback","count_experimental_sequence","count_experimenter_kb","count_increment_trial_count","count_init_trial_count","count_logger","count_practice_sequence","count_right","count_task","count_wrong","datetime","description","disable_garbage_collection","experiment_file","experiment_path","font_bold","font_family","font_italic","font_size","font_underline","foreground","form_clicks","fullscreen","height","keyboard_backend","live_row","live_row_Experimental_Loop","live_row_Practice_Loop","logfile","mouse_backend","opensesame_codename","opensesame_version","osf_always_upload_data","osf_always_upload_experiment","osf_datanode_id","osf_id","repeat_cycle","response","response_End_Of_Experiment","response_Experimental_intro","response_Introduction","response_Practice_intro","response_block_break_feedback","response_experimenter_kb","response_time","response_time_End_Of_Experiment","response_time_Experimental_intro","response_time_Introduction","response_time_Practice_intro","response_time_block_break_feedback","response_time_experimenter_kb","round_decimals","sampler_backend","sound_buf_size","sound_channels","sound_freq","sound_sample_size","start","subject_nr","subject_parity","time_End_Of_Experiment","time_End_Of_Practice","time_Experimental_Loop","time_Experimental_intro","time_Fixation","time_Introduction","time_Practice_Loop","time_Practice_intro","time_Stimulus","time_block_break_feedback","time_experimental_sequence","time_experimenter_kb","time_increment_trial_count","time_init_trial_count","time_logger","time_practice_sequence","time_right","time_task","time_wrong","title","total_correct","total_response_time","total_responses","uniform_coordinates","width"
"2.668385917","5.48","4","twig","word","80","80","1353","1353","black","no","legacy","legacy","legacy","0","uniform","1","undefined","undefined","undefined","1","j","0","0","0","0","4","0","0","0","4","NA","0","4","0","0","0","3","4","0","4","Sun Feb 28 00:27:01 2021","The main experiment item","yes","Lexical_Decision_Task.osexp","/Users/amaanyasin","no","Andale Mono","no","18","no","white","no","yes","576","legacy","0","0","3","/Users/amaanyasin/subject-5213709 - 1.csv","legacy","Lentiform Loewenfeld","3.3.8","yes","yes","600bd7cfb6416f0113b04181","602110864497cf011d9c0822","0","j","NA","space","space","space","NA","j","937","NA","1949","13174","15837","NA","937","2","legacy","1024","2","48000","-16","task","5213709","odd","NA","60595","64548","62599","64571","4350","33376","17535","65074","NA","64569","65075","NA","64548","66012","59064","60070","4301","36921","Lexical Decision Task","4","6765","5","yes","1024"
"2.803231716","5.26","3","kiln","word","83.33333333333333","83.33333333333333","1251.8333333333333","1251.8333333333333","black","no","legacy","legacy","legacy","0","uniform","1","undefined","undefined","undefined","1","j","0","0","0","0","5","0","0","0","5","NA","1","5","1","0","1","3","5","0","5","Sun Feb 28 00:27:01 2021","The main experiment item","yes","Lexical_Decision_Task.osexp","/Users/amaanyasin","no","Andale Mono","no","18","no","white","no","yes","576","legacy","1","1","3","/Users/amaanyasin/subject-5213709 - 1.csv","legacy","Lentiform Loewenfeld","3.3.8","yes","yes","600bd7cfb6416f0113b04181","602110864497cf011d9c0822","0","j","NA","space","space","space","NA","j","746","NA","1949","13174","15837","NA","746","2","legacy","1024","2","48000","-16","task","5213709","odd","NA","60595","64548","62599","66570","4350","33376","17535","67073","NA","66567","67073","66518","64548","67824","59064","66018","4301","36921","Lexical Decision Task","5","7511","6","yes","1024"
"3.261341392","5.08","8","reek","word","71.42857142857143","71.42857142857143","1246.2857142857142","1246.2857142857142","black","no","legacy","legacy","legacy","0","uniform","0","undefined","undefined","undefined","0","j","0","0","0","0","6","0","0","0","6","NA","2","6","2","0","2","3","6","0","6","Sun Feb 28 00:27:01 2021","The main experiment item","yes","Lexical_Decision_Task.osexp","/Users/amaanyasin","no","Andale Mono","no","18","no","white","no","yes","576","legacy","2","2","3","/Users/amaanyasin/subject-5213709 - 1.csv","legacy","Lentiform Loewenfeld","3.3.8","yes","yes","600bd7cfb6416f0113b04181","602110864497cf011d9c0822","0","f","NA","space","space","space","NA","f","1213","NA","1949","13174","15837","NA","1213","2","legacy","1024","2","48000","-16","task","5213709","odd","NA","60595","64548","62599","68375","4350","33376","17535","68878","NA","68373","68878","68327","64548","70092","59064","67827","4301","36921","Lexical Decision Task","5","8724","7","yes","1024"
"3.039414119","0","9","meep","non-word","62.5","62.5","1184","1184","black","no","legacy","legacy","legacy","0","uniform","0","undefined","undefined","undefined","0","f","0","0","0","0","7","0","0","0","7","NA","3","7","3","0","3","3","7","0","7","Sun Feb 28 00:27:01 2021","The main experiment item","yes","Lexical_Decision_Task.osexp","/Users/amaanyasin","no","Andale Mono","no","18","no","white","no","yes","576","legacy","3","3","3","/Users/amaanyasin/subject-5213709 - 1.csv","legacy","Lentiform Loewenfeld","3.3.8","yes","yes","600bd7cfb6416f0113b04181","602110864497cf011d9c0822","0","j","NA","space","space","space","NA","j","748","NA","1949","13174","15837","NA","748","2","legacy","1024","2","48000","-16","task","5213709","odd","NA","60595","64548","62599","71648","4350","33376","17535","72151","NA","71646","72151","71596","64548","72900","59064","67827","4301","70096","Lexical Decision Task","5","9472","8","yes","1024"
"3.133964479","0","8","graw","non-word","55.55555555555556","55.55555555555556","1162.3333333333333","1162.3333333333333","black","no","legacy","legacy","legacy","0","uniform","0","undefined","undefined","undefined","0","f","0","0","0","0","8","0","0","0","8","NA","4","8","4","0","4","3","8","0","8","Sun Feb 28 00:27:01 2021","The main experiment item","yes","Lexical_Decision_Task.osexp","/Users/amaanyasin","no","Andale Mono","no","18","no","white","no","yes","576","legacy","4","4","3","/Users/amaanyasin/subject-5213709 - 1.csv","legacy","Lentiform Loewenfeld","3.3.8","yes","yes","600bd7cfb6416f0113b04181","602110864497cf011d9c0822","0","j","NA","space","space","space","NA","j","989","NA","1949","13174","15837","NA","989","2","legacy","1024","2","48000","-16","task","5213709","odd","NA","60595","64548","62599","74455","4350","33376","17535","74958","NA","74453","74958","74404","64548","75948","59064","67827","4301","72903","Lexical Decision Task","5","10461","9","yes","1024"
"3.303771854","0","9","dath","non-word","60","60","1127.3","1127.3","black","no","legacy","legacy","legacy","0","uniform","1","undefined","undefined","undefined","1","f","0","0","0","0","9","0","0","0","9","NA","5","9","5","0","5","3","9","0","9","Sun Feb 28 00:27:01 2021","The main experiment item","yes","Lexical_Decision_Task.osexp","/Users/amaanyasin","no","Andale Mono","no","18","no","white","no","yes","576","legacy","5","5","3","/Users/amaanyasin/subject-5213709 - 1.csv","legacy","Lentiform Loewenfeld","3.3.8","yes","yes","600bd7cfb6416f0113b04181","602110864497cf011d9c0822","0","f","NA","space","space","space","NA","f","812","NA","1949","13174","15837","NA","812","2","legacy","1024","2","48000","-16","task","5213709","odd","NA","60595","64548","62599","77503","4350","33376","17535","78007","NA","77501","78007","77452","64548","78820","59064","67827","4301","75952","Lexical Decision Task","6","11273","10","yes","1024"
"3.168400243","9.12","6","horn","word","63.63636363636363","63.63636363636363","1076.5454545454545","1076.5454545454545","black","no","legacy","legacy","legacy","0","uniform","1","undefined","undefined","undefined","1","j","0","0","0","0","10","0","0","0","10","NA","6","10","6","0","6","3","10","0","10","Sun Feb 28 00:27:01 2021","The main experiment item","yes","Lexical_Decision_Task.osexp","/Users/amaanyasin","no","Andale Mono","no","18","no","white","no","yes","576","legacy","6","6","3","/Users/amaanyasin/subject-5213709 - 1.csv","legacy","Lentiform Loewenfeld","3.3.8","yes","yes","600bd7cfb6416f0113b04181","602110864497cf011d9c0822","0","j","NA","space","space","space","NA","j","569","NA","1949","13174","15837","NA","569","2","legacy","1024","2","48000","-16","task","5213709","odd","NA","60595","64548","62599","79372","4350","33376","17535","79875","NA","79369","79875","79323","64548","80444","59064","78823","4301","75952","Lexical Decision Task","7","11842","11","yes","1024"
"3.132473155","0","4","glim","non-word","66.66666666666667","66.66666666666667","1074.3333333333333","1074.3333333333333","black","no","legacy","legacy","legacy","0","uniform","1","undefined","undefined","undefined","1","f","0","0","0","0","11","0","0","0","11","NA","7","11","7","0","7","3","11","0","11","Sun Feb 28 00:27:01 2021","The main experiment item","yes","Lexical_Decision_Task.osexp","/Users/amaanyasin","no","Andale Mono","no","18","no","white","no","yes","576","legacy","7","7","3","/Users/amaanyasin/subject-5213709 - 1.csv","legacy","Lentiform Loewenfeld","3.3.8","yes","yes","600bd7cfb6416f0113b04181","602110864497cf011d9c0822","0","f","NA","space","space","space","NA","f","1050","NA","1949","13174","15837","NA","1050","2","legacy","1024","2","48000","-16","task","5213709","odd","NA","60595","64548","62599","80995","4350","33376","17535","81498","NA","80993","81498","80948","64548","82548","59064","80448","4301","75952","Lexical Decision Task","8","12892","12","yes","1024"
"3.29439347","8.6","9","wand","word","69.23076923076923","69.23076923076923","1044.5384615384614","1044.5384615384614","black","no","legacy","legacy","legacy","0","uniform","1","undefined","undefined","undefined","1","j","0","0","0","0","12","0","0","0","12","NA","8","12","8","0","8","3","12","0","12","Sun Feb 28 00:27:01 2021","The main experiment item","yes","Lexical_Decision_Task.osexp","/Users/amaanyasin","no","Andale Mono","no","18","no","white","no","yes","576","legacy","8","8","3","/Users/amaanyasin/subject-5213709 - 1.csv","legacy","Lentiform Loewenfeld","3.3.8","yes","yes","600bd7cfb6416f0113b04181","602110864497cf011d9c0822","0","j","NA","space","space","space","NA","j","687","NA","1949","13174","15837","NA","687","2","legacy","1024","2","48000","-16","task","5213709","odd","NA","60595","64548","62599","83101","4350","33376","17535","83604","NA","83098","83604","83052","64548","84292","59064","82552","4301","75952","Lexical Decision Task","9","13579","13","yes","1024"
"2.884795364","0","6","flob","non-word","71.42857142857143","71.42857142857143","1039.142857142857","1039.142857142857","black","no","legacy","legacy","legacy","0","uniform","1","undefined","undefined","undefined","1","f","0","0","0","0","13","0","0","0","13","NA","9","13","9","0","9","3","13","0","13","Sun Feb 28 00:27:01 2021","The main experiment item","yes","Lexical_Decision_Task.osexp","/Users/amaanyasin","no","Andale Mono","no","18","no","white","no","yes","576","legacy","9","9","3","/Users/amaanyasin/subject-5213709 - 1.csv","legacy","Lentiform Loewenfeld","3.3.8","yes","yes","600bd7cfb6416f0113b04181","602110864497cf011d9c0822","0","f","NA","space","space","space","NA","f","969","NA","1949","13174","15837","NA","969","2","legacy","1024","2","48000","-16","task","5213709","odd","NA","60595","64548","62599","84843","4350","33376","17535","85346","NA","84841","85346","84795","64548","86316","59064","84295","4301","75952","Lexical Decision Task","10","14548","14","yes","1024"
"3.076883066","0","8","mout","non-word","73.33333333333333","73.33333333333333","1044.6","1044.6","black","no","legacy","legacy","legacy","0","uniform","1","undefined","undefined","undefined","1","f","0","0","0","0","14","0","0","0","14","NA","10","14","10","0","10","3","14","0","14","Sun Feb 28 00:27:01 2021","The main experiment item","yes","Lexical_Decision_Task.osexp","/Users/amaanyasin","no","Andale Mono","no","18","no","white","no","yes","576","legacy","10","10","3","/Users/amaanyasin/subject-5213709 - 1.csv","legacy","Lentiform Loewenfeld","3.3.8","yes","yes","600bd7cfb6416f0113b04181","602110864497cf011d9c0822","0","f","NA","space","space","space","NA","f","1121","NA","1949","13174","15837","NA","1121","2","legacy","1024","2","48000","-16","task","5213709","odd","NA","60595","64548","62599","86867","4350","33376","17535","87370","NA","86865","87370","86819","64548","88492","59064","86319","4301","75952","Lexical Decision Task","11","15669","15","yes","1024"
"2.907588697","8.91","9","mood","word","75","75","1023.8125","1023.8125","black","no","legacy","legacy","legacy","0","uniform","1","undefined","undefined","undefined","1","j","0","0","0","0","15","0","0","0","15","NA","11","15","11","0","11","3","15","0","15","Sun Feb 28 00:27:01 2021","The main experiment item","yes","Lexical_Decision_Task.osexp","/Users/amaanyasin","no","Andale Mono","no","18","no","white","no","yes","576","legacy","11","11","3","/Users/amaanyasin/subject-5213709 - 1.csv","legacy","Lentiform Loewenfeld","3.3.8","yes","yes","600bd7cfb6416f0113b04181","602110864497cf011d9c0822","0","j","NA","space","space","space","NA","j","712","NA","1949","13174","15837","NA","712","2","legacy","1024","2","48000","-16","task","5213709","odd","NA","60595","64548","62599","89044","4350","33376","17535","89547","NA","89042","89547","88996","64548","90260","59064","88496","4301","75952","Lexical Decision Task","12","16381","16","yes","1024"
"3.062080345","0","6","tomp","non-word","76.47058823529412","76.47058823529412","1014.3529411764706","1014.3529411764706","black","no","legacy","legacy","legacy","0","uniform","1","undefined","undefined","undefined","1","f","0","0","0","0","16","0","0","0","16","NA","12","16","12","0","12","3","16","0","16","Sun Feb 28 00:27:01 2021","The main experiment item","yes","Lexical_Decision_Task.osexp","/Users/amaanyasin","no","Andale Mono","no","18","no","white","no","yes","576","legacy","12","12","3","/Users/amaanyasin/subject-5213709 - 1.csv","legacy","Lentiform Loewenfeld","3.3.8","yes","yes","600bd7cfb6416f0113b04181","602110864497cf011d9c0822","0","f","NA","space","space","space","NA","f","863","NA","1949","13174","15837","NA","863","2","legacy","1024","2","48000","-16","task","5213709","odd","NA","60595","64548","62599","90813","4350","33376","17535","91316","NA","90810","91316","90764","64548","92180","59064","90263","4301","75952","Lexical Decision Task","13","17244","17","yes","1024"
"2.784379519","0","2","snaf","non-word","72.22222222222223","72.22222222222223","1005.6111111111111","1005.6111111111111","black","no","legacy","legacy","legacy","0","uniform","0","undefined","undefined","undefined","0","f","0","0","0","0","17","0","0","0","17","NA","13","17","13","0","13","3","17","0","17","Sun Feb 28 00:27:01 2021","The main experiment item","yes","Lexical_Decision_Task.osexp","/Users/amaanyasin","no","Andale Mono","no","18","no","white","no","yes","576","legacy","13","13","3","/Users/amaanyasin/subject-5213709 - 1.csv","legacy","Lentiform Loewenfeld","3.3.8","yes","yes","600bd7cfb6416f0113b04181","602110864497cf011d9c0822","0","j","NA","space","space","space","NA","j","857","NA","1949","13174","15837","NA","857","2","legacy","1024","2","48000","-16","task","5213709","odd","NA","60595","64548","62599","92731","4350","33376","17535","93234","NA","92729","93234","92683","64548","94092","59064","92183","4301","75952","Lexical Decision Task","13","18101","18","yes","1024"
"2.755364069","7.72","2","hoax","word","73.6842105263158","73.6842105263158","992.6842105263158","992.6842105263158","black","no","legacy","legacy","legacy","0","uniform","1","undefined","undefined","undefined","1","j","0","0","0","0","18","0","0","0","18","NA","14","18","14","0","14","3","18","0","18","Sun Feb 28 00:27:01 2021","The main experiment item","yes","Lexical_Decision_Task.osexp","/Users/amaanyasin","no","Andale Mono","no","18","no","white","no","yes","576","legacy","14","14","3","/Users/amaanyasin/subject-5213709 - 1.csv","legacy","Lentiform Loewenfeld","3.3.8","yes","yes","600bd7cfb6416f0113b04181","602110864497cf011d9c0822","0","j","NA","space","space","space","NA","j","760","NA","1949","13174","15837","NA","760","2","legacy","1024","2","48000","-16","task","5213709","odd","NA","60595","64548","62599","95645","4350","33376","17535","96148","NA","95643","96148","95595","64548","96908","59064","92183","4301","94095","Lexical Decision Task","14","18861","19","yes","1024"
"3.105055783","0","2","norp","non-word","75","75","970.65","970.65","black","no","legacy","legacy","legacy","0","uniform","1","undefined","undefined","undefined","1","f","0","0","0","0","19","0","0","0","19","NA","15","19","15","0","15","3","19","0","19","Sun Feb 28 00:27:01 2021","The main experiment item","yes","Lexical_Decision_Task.osexp","/Users/amaanyasin","no","Andale Mono","no","18","no","white","no","yes","576","legacy","15","15","3","/Users/amaanyasin/subject-5213709 - 1.csv","legacy","Lentiform Loewenfeld","3.3.8","yes","yes","600bd7cfb6416f0113b04181","602110864497cf011d9c0822","0","f","NA","space","space","space","NA","f","552","NA","1949","13174","15837","NA","552","2","legacy","1024","2","48000","-16","task","5213709","odd","NA","60595","64548","62599","97460","4350","33376","17535","97963","NA","97458","97963","97412","64548","98516","59064","96912","4301","94095","Lexical Decision Task","15","19413","20","yes","1024"
"2.845304797","0","6","buct","non-word","76.19047619047619","76.19047619047619","966.3809523809524","966.3809523809524","black","no","legacy","legacy","legacy","0","uniform","1","undefined","undefined","undefined","1","f","0","0","0","0","20","0","0","0","20","NA","16","20","16","0","16","3","20","0","20","Sun Feb 28 00:27:01 2021","The main experiment item","yes","Lexical_Decision_Task.osexp","/Users/amaanyasin","no","Andale Mono","no","18","no","white","no","yes","576","legacy","16","16","3","/Users/amaanyasin/subject-5213709 - 1.csv","legacy","Lentiform Loewenfeld","3.3.8","yes","yes","600bd7cfb6416f0113b04181","602110864497cf011d9c0822","0","f","NA","space","space","space","NA","f","881","NA","1949","13174","15837","NA","881","2","legacy","1024","2","48000","-16","task","5213709","odd","NA","60595","64548","62599","99067","4350","33376","17535","99570","NA","99065","99570","99019","64548","100452","59064","98519","4301","94095","Lexical Decision Task","16","20294","21","yes","1024"
"3.252447662","9.67","9","boat","word","77.27272727272727","77.27272727272727","952.1818181818181","952.1818181818181","black","no","legacy","legacy","legacy","0","uniform","1","undefined","undefined","undefined","1","j","0","0","0","0","21","0","0","0","21","NA","17","21","17","0","17","3","21","0","21","Sun Feb 28 00:27:01 2021","The main experiment item","yes","Lexical_Decision_Task.osexp","/Users/amaanyasin","no","Andale Mono","no","18","no","white","no","yes","576","legacy","17","17","3","/Users/amaanyasin/subject-5213709 - 1.csv","legacy","Lentiform Loewenfeld","3.3.8","yes","yes","600bd7cfb6416f0113b04181","602110864497cf011d9c0822","0","j","NA","space","space","space","NA","j","654","NA","1949","13174","15837","NA","654","2","legacy","1024","2","48000","-16","task","5213709","odd","NA","60595","64548","62599","101006","4350","33376","17535","101509","NA","101004","101509","100956","64548","102164","59064","100455","4301","94095","Lexical Decision Task","17","20948","22","yes","1024"
"3.064581521","5.51","6","cask","word","78.26086956521739","78.26086956521739","942.7826086956521","942.7826086956521","black","no","legacy","legacy","legacy","0","uniform","1","undefined","undefined","undefined","1","j","0","0","0","0","22","0","0","0","22","NA","18","22","18","0","18","3","22","0","22","Sun Feb 28 00:27:01 2021","The main experiment item","yes","Lexical_Decision_Task.osexp","/Users/amaanyasin","no","Andale Mono","no","18","no","white","no","yes","576","legacy","18","18","3","/Users/amaanyasin/subject-5213709 - 1.csv","legacy","Lentiform Loewenfeld","3.3.8","yes","yes","600bd7cfb6416f0113b04181","602110864497cf011d9c0822","0","j","NA","space","space","space","NA","j","736","NA","1949","13174","15837","NA","736","2","legacy","1024","2","48000","-16","task","5213709","odd","NA","60595","64548","62599","102716","4350","33376","17535","103219","NA","102714","103219","102668","64548","103956","59064","102168","4301","94095","Lexical Decision Task","18","21684","23","yes","1024"
"2.64476673","0","5","moft","non-word","79.16666666666667","79.16666666666667","932.875","932.875","black","no","legacy","legacy","legacy","0","uniform","1","undefined","undefined","undefined","1","f","0","0","0","0","23","0","0","0","23","NA","19","23","19","0","19","3","23","0","23","Sun Feb 28 00:27:01 2021","The main experiment item","yes","Lexical_Decision_Task.osexp","/Users/amaanyasin","no","Andale Mono","no","18","no","white","no","yes","576","legacy","19","19","3","/Users/amaanyasin/subject-5213709 - 1.csv","legacy","Lentiform Loewenfeld","3.3.8","yes","yes","600bd7cfb6416f0113b04181","602110864497cf011d9c0822","0","f","NA","space","space","space","NA","f","705","NA","1949","13174","15837","NA","705","2","legacy","1024","2","48000","-16","task","5213709","odd","NA","60595","64548","62599","104507","4350","33376","17535","105010","NA","104505","105010","104459","64548","105716","59064","103959","4301","94095","Lexical Decision Task","19","22389","24","yes","1024"
"2.952953801","0","8","clax","non-word","76","76","954.76","954.76","black","no","legacy","legacy","legacy","0","uniform","0","undefined","undefined","undefined","0","f","0","0","0","0","24","0","0","0","24","NA","20","24","20","0","20","3","24","0","24","Sun Feb 28 00:27:01 2021","The main experiment item","yes","Lexical_Decision_Task.osexp","/Users/amaanyasin","no","Andale Mono","no","18","no","white","no","yes","576","legacy","20","20","3","/Users/amaanyasin/subject-5213709 - 1.csv","legacy","Lentiform Loewenfeld","3.3.8","yes","yes","600bd7cfb6416f0113b04181","602110864497cf011d9c0822","0","j","NA","space","space","space","NA","j","1480","NA","1949","13174","15837","NA","1480","2","legacy","1024","2","48000","-16","task","5213709","odd","NA","60595","64548","62599","106268","4350","33376","17535","106771","NA","106265","106771","106220","64548","108252","59064","105720","4301","94095","Lexical Decision Task","19","23869","25","yes","1024"
"2.899092422","7.27","6","snag","word","76.92307692307692","76.92307692307692","948.6923076923077","948.6923076923077","black","no","legacy","legacy","legacy","0","uniform","1","undefined","undefined","undefined","1","j","0","0","0","0","25","0","0","0","25","NA","21","25","21","0","21","3","25","0","25","Sun Feb 28 00:27:01 2021","The main experiment item","yes","Lexical_Decision_Task.osexp","/Users/amaanyasin","no","Andale Mono","no","18","no","white","no","yes","576","legacy","21","21","3","/Users/amaanyasin/subject-5213709 - 1.csv","legacy","Lentiform Loewenfeld","3.3.8","yes","yes","600bd7cfb6416f0113b04181","602110864497cf011d9c0822","0","j","NA","space","space","space","NA","j","797","NA","1949","13174","15837","NA","797","2","legacy","1024","2","48000","-16","task","5213709","odd","NA","60595","64548","62599","109807","4350","33376","17535","110310","NA","109805","110310","109756","64548","111108","59064","105720","4301","108255","Lexical Decision Task","20","24666","26","yes","1024"
"3.067070856","9.39","3","loud","word","77.77777777777777","77.77777777777777","935.8148148148148","935.8148148148148","black","no","legacy","legacy","legacy","0","uniform","1","undefined","undefined","undefined","1","j","0","0","0","0","26","0","0","0","26","NA","22","26","22","0","22","3","26","0","26","Sun Feb 28 00:27:01 2021","The main experiment item","yes","Lexical_Decision_Task.osexp","/Users/amaanyasin","no","Andale Mono","no","18","no","white","no","yes","576","legacy","22","22","3","/Users/amaanyasin/subject-5213709 - 1.csv","legacy","Lentiform Loewenfeld","3.3.8","yes","yes","600bd7cfb6416f0113b04181","602110864497cf011d9c0822","0","j","NA","space","space","space","NA","j","601","NA","1949","13174","15837","NA","601","2","legacy","1024","2","48000","-16","task","5213709","odd","NA","60595","64548","62599","111659","4350","33376","17535","112162","NA","111657","112162","111611","64548","112764","59064","111111","4301","108255","Lexical Decision Task","21","25267","27","yes","1024"
"2.80048796","0","8","pife","non-word","78.57142857142857","78.57142857142857","931.2857142857143","931.2857142857143","black","no","legacy","legacy","legacy","0","uniform","1","undefined","undefined","undefined","1","f","0","0","0","0","27","0","0","0","27","NA","23","27","23","0","23","3","27","0","27","Sun Feb 28 00:27:01 2021","The main experiment item","yes","Lexical_Decision_Task.osexp","/Users/amaanyasin","no","Andale Mono","no","18","no","white","no","yes","576","legacy","23","23","3","/Users/amaanyasin/subject-5213709 - 1.csv","legacy","Lentiform Loewenfeld","3.3.8","yes","yes","600bd7cfb6416f0113b04181","602110864497cf011d9c0822","0","f","NA","space","space","space","NA","f","809","NA","1949","13174","15837","NA","809","2","legacy","1024","2","48000","-16","task","5213709","odd","NA","60595","64548","62599","113315","4350","33376","17535","113818","NA","113313","113818","113267","64548","114628","59064","112767","4301","108255","Lexical Decision Task","22","26076","28","yes","1024"
"2.875447132","0","9","jelt","non-word","75.86206896551724","75.86206896551724","919.3448275862069","919.3448275862069","black","no","legacy","legacy","legacy","0","uniform","0","undefined","undefined","undefined","0","f","0","0","0","0","28","0","0","0","28","NA","24","28","24","0","24","3","28","0","28","Sun Feb 28 00:27:01 2021","The main experiment item","yes","Lexical_Decision_Task.osexp","/Users/amaanyasin","no","Andale Mono","no","18","no","white","no","yes","576","legacy","24","24","3","/Users/amaanyasin/subject-5213709 - 1.csv","legacy","Lentiform Loewenfeld","3.3.8","yes","yes","600bd7cfb6416f0113b04181","602110864497cf011d9c0822","0","j","NA","space","space","space","NA","j","585","NA","1949","13174","15837","NA","585","2","legacy","1024","2","48000","-16","task","5213709","odd","NA","60595","64548","62599","115179","4350","33376","17535","115682","NA","115177","115682","115131","64548","116268","59064","114631","4301","108255","Lexical Decision Task","22","26661","29","yes","1024"
"2.713490543","0","3","feps","non-word","76.66666666666667","76.66666666666667","918.2333333333333","918.2333333333333","black","no","legacy","legacy","legacy","0","uniform","1","undefined","undefined","undefined","1","f","0","0","0","0","29","0","0","0","29","NA","25","29","25","0","25","3","29","0","29","Sun Feb 28 00:27:01 2021","The main experiment item","yes","Lexical_Decision_Task.osexp","/Users/amaanyasin","no","Andale Mono","no","18","no","white","no","yes","576","legacy","25","25","3","/Users/amaanyasin/subject-5213709 - 1.csv","legacy","Lentiform Loewenfeld","3.3.8","yes","yes","600bd7cfb6416f0113b04181","602110864497cf011d9c0822","0","f","NA","space","space","space","NA","f","886","NA","1949","13174","15837","NA","886","2","legacy","1024","2","48000","-16","task","5213709","odd","NA","60595","64548","62599","117823","4350","33376","17535","118325","NA","117821","118326","117772","64548","119212","59064","114631","4301","116272","Lexical Decision Task","23","27547","30","yes","1024"
"3.003891166","8.05","2","frog","word","77.41935483870968","77.41935483870968","911.3548387096774","911.3548387096774","black","no","legacy","legacy","legacy","0","uniform","1","undefined","undefined","undefined","1","j","0","0","0","0","30","0","0","0","30","NA","26","30","26","0","26","3","30","0","30","Sun Feb 28 00:27:01 2021","The main experiment item","yes","Lexical_Decision_Task.osexp","/Users/amaanyasin","no","Andale Mono","no","18","no","white","no","yes","576","legacy","26","26","3","/Users/amaanyasin/subject-5213709 - 1.csv","legacy","Lentiform Loewenfeld","3.3.8","yes","yes","600bd7cfb6416f0113b04181","602110864497cf011d9c0822","0","j","NA","space","space","space","NA","j","705","NA","1949","13174","15837","NA","705","2","legacy","1024","2","48000","-16","task","5213709","odd","NA","60595","64548","62599","119763","4350","33376","17535","120266","NA","119761","120266","119716","64548","120972","59064","119216","4301","116272","Lexical Decision Task","24","28252","31","yes","1024"
"2.6599162","0","6","flug","non-word","78.125","78.125","909.15625","909.15625","black","no","legacy","legacy","legacy","0","uniform","1","undefined","undefined","undefined","1","f","0","0","0","0","31","0","0","0","31","NA","27","31","27","0","27","3","31","0","31","Sun Feb 28 00:27:01 2021","The main experiment item","yes","Lexical_Decision_Task.osexp","/Users/amaanyasin","no","Andale Mono","no","18","no","white","no","yes","576","legacy","27","27","3","/Users/amaanyasin/subject-5213709 - 1.csv","legacy","Lentiform Loewenfeld","3.3.8","yes","yes","600bd7cfb6416f0113b04181","602110864497cf011d9c0822","0","f","NA","space","space","space","NA","f","841","NA","1949","13174","15837","NA","841","2","legacy","1024","2","48000","-16","task","5213709","odd","NA","60595","64548","62599","121523","4350","33376","17535","122026","NA","121521","122026","121475","64548","122868","59064","120975","4301","116272","Lexical Decision Task","25","29093","32","yes","1024"
"2.8162413","0","5","nusk","non-word","78.78787878787878","78.78787878787878","903.4848484848485","903.4848484848485","black","no","legacy","legacy","legacy","0","uniform","1","undefined","undefined","undefined","1","f","0","0","0","0","32","0","0","0","32","NA","28","32","28","0","28","3","32","0","32","Sun Feb 28 00:27:01 2021","The main experiment item","yes","Lexical_Decision_Task.osexp","/Users/amaanyasin","no","Andale Mono","no","18","no","white","no","yes","576","legacy","28","28","3","/Users/amaanyasin/subject-5213709 - 1.csv","legacy","Lentiform Loewenfeld","3.3.8","yes","yes","600bd7cfb6416f0113b04181","602110864497cf011d9c0822","0","f","NA","space","space","space","NA","f","722","NA","1949","13174","15837","NA","722","2","legacy","1024","2","48000","-16","task","5213709","odd","NA","60595","64548","62599","123419","4350","33376","17535","123922","NA","123417","123922","123371","64548","124644","59064","122871","4301","116272","Lexical Decision Task","26","29815","33","yes","1024"
"3.031812271","6.52","3","gulp","word","79.41176470588235","79.41176470588235","910.7941176470588","910.7941176470588","black","no","legacy","legacy","legacy","0","uniform","1","undefined","undefined","undefined","1","j","0","0","0","0","33","0","0","0","33","NA","29","33","29","0","29","3","33","0","33","Sun Feb 28 00:27:01 2021","The main experiment item","yes","Lexical_Decision_Task.osexp","/Users/amaanyasin","no","Andale Mono","no","18","no","white","no","yes","576","legacy","29","29","3","/Users/amaanyasin/subject-5213709 - 1.csv","legacy","Lentiform Loewenfeld","3.3.8","yes","yes","600bd7cfb6416f0113b04181","602110864497cf011d9c0822","0","j","NA","space","space","space","NA","j","1152","NA","1949","13174","15837","NA","1152","2","legacy","1024","2","48000","-16","task","5213709","odd","NA","60595","64548","62599","125196","4350","33376","17535","125699","NA","125194","125699","125148","64548","126852","59064","124647","4301","116272","Lexical Decision Task","27","30967","34","yes","1024"
"3.366547468","0","6","plat","non-word","80","80","909.8571428571429","909.8571428571429","black","no","legacy","legacy","legacy","0","uniform","1","undefined","undefined","undefined","1","f","0","0","0","0","34","0","0","0","34","NA","30","34","30","0","30","3","34","0","34","Sun Feb 28 00:27:01 2021","The main experiment item","yes","Lexical_Decision_Task.osexp","/Users/amaanyasin","no","Andale Mono","no","18","no","white","no","yes","576","legacy","30","30","3","/Users/amaanyasin/subject-5213709 - 1.csv","legacy","Lentiform Loewenfeld","3.3.8","yes","yes","600bd7cfb6416f0113b04181","602110864497cf011d9c0822","0","f","NA","space","space","space","NA","f","878","NA","1949","13174","15837","NA","878","2","legacy","1024","2","48000","-16","task","5213709","odd","NA","60595","64548","62599","127406","4350","33376","17535","127909","NA","127403","127909","127356","64548","128788","59064","126856","4301","116272","Lexical Decision Task","28","31845","35","yes","1024"
"2.594027722","9.08","8","skip","word","80.55555555555556","80.55555555555556","902.6111111111111","902.6111111111111","black","no","legacy","legacy","legacy","0","uniform","1","undefined","undefined","undefined","1","j","0","0","0","0","35","0","0","0","35","NA","31","35","31","0","31","3","35","0","35","Sun Feb 28 00:27:01 2021","The main experiment item","yes","Lexical_Decision_Task.osexp","/Users/amaanyasin","no","Andale Mono","no","18","no","white","no","yes","576","legacy","31","31","3","/Users/amaanyasin/subject-5213709 - 1.csv","legacy","Lentiform Loewenfeld","3.3.8","yes","yes","600bd7cfb6416f0113b04181","602110864497cf011d9c0822","0","j","NA","space","space","space","NA","j","649","NA","1949","13174","15837","NA","649","2","legacy","1024","2","48000","-16","task","5213709","odd","NA","60595","64548","62599","129339","4350","33376","17535","129843","NA","129337","129843","129292","64548","130492","59064","128792","4301","116272","Lexical Decision Task","29","32494","36","yes","1024"
"3.495914186","0","4","peng","non-word","78.37837837837837","78.37837837837837","918.6486486486486","918.6486486486486","black","no","legacy","legacy","legacy","0","uniform","0","undefined","undefined","undefined","0","f","0","0","0","0","36","0","0","0","36","NA","32","36","32","0","32","3","36","0","36","Sun Feb 28 00:27:01 2021","The main experiment item","yes","Lexical_Decision_Task.osexp","/Users/amaanyasin","no","Andale Mono","no","18","no","white","no","yes","576","legacy","32","32","3","/Users/amaanyasin/subject-5213709 - 1.csv","legacy","Lentiform Loewenfeld","3.3.8","yes","yes","600bd7cfb6416f0113b04181","602110864497cf011d9c0822","0","j","NA","space","space","space","NA","j","1496","NA","1949","13174","15837","NA","1496","2","legacy","1024","2","48000","-16","task","5213709","odd","NA","60595","64548","62599","131044","4350","33376","17535","131547","NA","131042","131547","130996","64548","133044","59064","130496","4301","116272","Lexical Decision Task","29","33990","37","yes","1024"
"3.216517684","10.87","3","film","word","78.94736842105263","78.94736842105263","922.6052631578947","922.6052631578947","black","no","legacy","legacy","legacy","0","uniform","1","undefined","undefined","undefined","1","j","0","0","0","0","37","0","0","0","37","NA","33","37","33","0","33","3","37","0","37","Sun Feb 28 00:27:01 2021","The main experiment item","yes","Lexical_Decision_Task.osexp","/Users/amaanyasin","no","Andale Mono","no","18","no","white","no","yes","576","legacy","33","33","3","/Users/amaanyasin/subject-5213709 - 1.csv","legacy","Lentiform Loewenfeld","3.3.8","yes","yes","600bd7cfb6416f0113b04181","602110864497cf011d9c0822","0","j","NA","space","space","space","NA","j","1069","NA","1949","13174","15837","NA","1069","2","legacy","1024","2","48000","-16","task","5213709","odd","NA","60595","64548","62599","134600","4350","33376","17535","135103","NA","134598","135103","134548","64548","136172","59064","130496","4301","133048","Lexical Decision Task","30","35059","38","yes","1024"
"2.897810299","0","5","glur","non-word","79.48717948717949","79.48717948717949","919.2820512820513","919.2820512820513","black","no","legacy","legacy","legacy","0","uniform","1","undefined","undefined","undefined","1","f","0","0","0","0","38","0","0","0","38","NA","34","38","34","0","34","3","38","0","38","Sun Feb 28 00:27:01 2021","The main experiment item","yes","Lexical_Decision_Task.osexp","/Users/amaanyasin","no","Andale Mono","no","18","no","white","no","yes","576","legacy","34","34","3","/Users/amaanyasin/subject-5213709 - 1.csv","legacy","Lentiform Loewenfeld","3.3.8","yes","yes","600bd7cfb6416f0113b04181","602110864497cf011d9c0822","0","f","NA","space","space","space","NA","f","793","NA","1949","13174","15837","NA","793","2","legacy","1024","2","48000","-16","task","5213709","odd","NA","60595","64548","62599","136724","4350","33376","17535","137227","NA","136721","137227","136676","64548","138020","59064","136176","4301","133048","Lexical Decision Task","31","35852","39","yes","1024"
"2.983324025","9.56","2","debt","word","80","80","913.075","913.075","black","no","legacy","legacy","legacy","0","uniform","1","undefined","undefined","undefined","1","j","0","0","0","0","39","0","0","0","39","NA","35","39","35","0","35","3","39","0","39","Sun Feb 28 00:27:01 2021","The main experiment item","yes","Lexical_Decision_Task.osexp","/Users/amaanyasin","no","Andale Mono","no","18","no","white","no","yes","576","legacy","35","35","3","/Users/amaanyasin/subject-5213709 - 1.csv","legacy","Lentiform Loewenfeld","3.3.8","yes","yes","600bd7cfb6416f0113b04181","602110864497cf011d9c0822","0","j","NA","space","space","space","NA","j","671","NA","1949","13174","15837","NA","671","2","legacy","1024","2","48000","-16","task","5213709","odd","NA","60595","64548","62599","138574","4350","33376","17535","139077","NA","138572","139077","138524","64548","139748","59064","138024","4301","133048","Lexical Decision Task","32","36523","40","yes","1024"
"3.705778213","0","6","stin","non-word","80.48780487804878","80.48780487804878","908.5853658536586","908.5853658536586","black","no","legacy","legacy","legacy","0","uniform","1","undefined","undefined","undefined","1","f","0","0","0","0","40","0","0","0","40","NA","36","40","36","0","36","3","40","0","40","Sun Feb 28 00:27:01 2021","The main experiment item","yes","Lexical_Decision_Task.osexp","/Users/amaanyasin","no","Andale Mono","no","18","no","white","no","yes","576","legacy","36","36","3","/Users/amaanyasin/subject-5213709 - 1.csv","legacy","Lentiform Loewenfeld","3.3.8","yes","yes","600bd7cfb6416f0113b04181","602110864497cf011d9c0822","0","f","NA","space","space","space","NA","f","729","NA","1949","13174","15837","NA","729","2","legacy","1024","2","48000","-16","task","5213709","odd","NA","60595","64548","62599","140299","4350","33376","17535","140803","NA","140297","140803","140252","64548","141532","59064","139752","4301","133048","Lexical Decision Task","33","37252","41","yes","1024"
"2.838639236","0","4","furg","non-word","80.95238095238095","80.95238095238095","905.2619047619048","905.2619047619048","black","no","legacy","legacy","legacy","0","uniform","1","undefined","undefined","undefined","1","f","0","0","0","0","41","0","0","0","41","NA","37","41","37","0","37","3","41","0","41","Sun Feb 28 00:27:01 2021","The main experiment item","yes","Lexical_Decision_Task.osexp","/Users/amaanyasin","no","Andale Mono","no","18","no","white","no","yes","576","legacy","37","37","3","/Users/amaanyasin/subject-5213709 - 1.csv","legacy","Lentiform Loewenfeld","3.3.8","yes","yes","600bd7cfb6416f0113b04181","602110864497cf011d9c0822","0","f","NA","space","space","space","NA","f","769","NA","1949","13174","15837","NA","769","2","legacy","1024","2","48000","-16","task","5213709","odd","NA","60595","64548","62599","142084","4350","33376","17535","142587","NA","142082","142587","142036","64548","143356","59064","141536","4301","133048","Lexical Decision Task","34","38021","42","yes","1024"
"2.693726949","5.08","3","swig","word","81.3953488372093","81.3953488372093","904.9069767441861","904.9069767441861","black","no","legacy","legacy","legacy","0","uniform","1","undefined","undefined","undefined","1","j","0","0","0","0","42","0","0","0","42","NA","38","42","38","0","38","3","42","0","42","Sun Feb 28 00:27:01 2021","The main experiment item","yes","Lexical_Decision_Task.osexp","/Users/amaanyasin","no","Andale Mono","no","18","no","white","no","yes","576","legacy","38","38","3","/Users/amaanyasin/subject-5213709 - 1.csv","legacy","Lentiform Loewenfeld","3.3.8","yes","yes","600bd7cfb6416f0113b04181","602110864497cf011d9c0822","0","j","NA","space","space","space","NA","j","890","NA","1949","13174","15837","NA","890","2","legacy","1024","2","48000","-16","task","5213709","odd","NA","60595","64548","62599","143907","4350","33376","17535","144410","NA","143905","144410","143860","64548","145300","59064","143360","4301","133048","Lexical Decision Task","35","38911","43","yes","1024"
"2.858136002","0","4","phip","non-word","81.81818181818181","81.81818181818181","900.3409090909091","900.3409090909091","black","no","legacy","legacy","legacy","0","uniform","1","undefined","undefined","undefined","1","f","0","0","0","0","43","0","0","0","43","NA","39","43","39","0","39","3","43","0","43","Sun Feb 28 00:27:01 2021","The main experiment item","yes","Lexical_Decision_Task.osexp","/Users/amaanyasin","no","Andale Mono","no","18","no","white","no","yes","576","legacy","39","39","3","/Users/amaanyasin/subject-5213709 - 1.csv","legacy","Lentiform Loewenfeld","3.3.8","yes","yes","600bd7cfb6416f0113b04181","602110864497cf011d9c0822","0","f","NA","space","space","space","NA","f","704","NA","1949","13174","15837","NA","704","2","legacy","1024","2","48000","-16","task","5213709","odd","NA","60595","64548","62599","145852","4350","33376","17535","146355","NA","145850","146355","145804","64548","147060","59064","145304","4301","133048","Lexical Decision Task","36","39615","44","yes","1024"
"2.899638141","0","3","hapt","non-word","82.22222222222223","82.22222222222223","894.2444444444444","894.2444444444444","black","no","legacy","legacy","legacy","0","uniform","1","undefined","undefined","undefined","1","f","0","0","0","0","44","0","0","0","44","NA","40","44","40","0","40","3","44","0","44","Sun Feb 28 00:27:01 2021","The main experiment item","yes","Lexical_Decision_Task.osexp","/Users/amaanyasin","no","Andale Mono","no","18","no","white","no","yes","576","legacy","40","40","3","/Users/amaanyasin/subject-5213709 - 1.csv","legacy","Lentiform Loewenfeld","3.3.8","yes","yes","600bd7cfb6416f0113b04181","602110864497cf011d9c0822","0","f","NA","space","space","space","NA","f","626","NA","1949","13174","15837","NA","626","2","legacy","1024","2","48000","-16","task","5213709","odd","NA","60595","64548","62599","147612","4350","33376","17535","148113","NA","147609","148113","147564","64548","148740","59064","147063","4301","133048","Lexical Decision Task","37","40241","45","yes","1024"
"2.69019608","9.01","2","myth","word","82.6086956521739","82.6086956521739","886.304347826087","886.304347826087","black","no","legacy","legacy","legacy","0","uniform","1","undefined","undefined","undefined","1","j","0","0","0","0","45","0","0","0","45","NA","41","45","41","0","41","3","45","0","45","Sun Feb 28 00:27:01 2021","The main experiment item","yes","Lexical_Decision_Task.osexp","/Users/amaanyasin","no","Andale Mono","no","18","no","white","no","yes","576","legacy","41","41","3","/Users/amaanyasin/subject-5213709 - 1.csv","legacy","Lentiform Loewenfeld","3.3.8","yes","yes","600bd7cfb6416f0113b04181","602110864497cf011d9c0822","0","j","NA","space","space","space","NA","j","529","NA","1949","13174","15837","NA","529","2","legacy","1024","2","48000","-16","task","5213709","odd","NA","60595","64548","62599","149291","4350","33376","17535","149795","NA","149289","149795","149244","64548","150324","59064","148744","4301","133048","Lexical Decision Task","38","40770","46","yes","1024"
"3.378276681","6.39","8","bran","word","82.97872340425532","82.97872340425532","891.1063829787234","891.1063829787234","black","no","legacy","legacy","legacy","0","uniform","1","undefined","undefined","undefined","1","j","0","0","0","0","46","0","0","0","46","NA","42","46","42","0","42","3","46","0","46","Sun Feb 28 00:27:01 2021","The main experiment item","yes","Lexical_Decision_Task.osexp","/Users/amaanyasin","no","Andale Mono","no","18","no","white","no","yes","576","legacy","42","42","3","/Users/amaanyasin/subject-5213709 - 1.csv","legacy","Lentiform Loewenfeld","3.3.8","yes","yes","600bd7cfb6416f0113b04181","602110864497cf011d9c0822","0","j","NA","space","space","space","NA","j","1112","NA","1949","13174","15837","NA","1112","2","legacy","1024","2","48000","-16","task","5213709","odd","NA","60595","64548","62599","150876","4350","33376","17535","151379","NA","150874","151379","150828","64548","152492","59064","150328","4301","133048","Lexical Decision Task","39","41882","47","yes","1024"
"2.616654026","9.37","5","gift","word","83.33333333333333","83.33333333333333","885.3958333333334","885.3958333333334","black","no","legacy","legacy","legacy","0","uniform","1","undefined","undefined","undefined","1","j","0","0","0","0","47","0","0","0","47","NA","43","47","43","0","43","3","47","0","47","Sun Feb 28 00:27:01 2021","The main experiment item","yes","Lexical_Decision_Task.osexp","/Users/amaanyasin","no","Andale Mono","no","18","no","white","no","yes","576","legacy","43","43","3","/Users/amaanyasin/subject-5213709 - 1.csv","legacy","Lentiform Loewenfeld","3.3.8","yes","yes","600bd7cfb6416f0113b04181","602110864497cf011d9c0822","0","j","NA","space","space","space","NA","j","617","NA","1949","13174","15837","NA","617","2","legacy","1024","2","48000","-16","task","5213709","odd","NA","60595","64548","62599","153044","4350","33376","17535","153547","NA","153042","153547","152996","64548","154164","59064","152496","4301","133048","Lexical Decision Task","40","42499","48","yes","1024"
"3.134602053","0","8","jart","non-word","83.6734693877551","83.6734693877551","882.530612244898","882.530612244898","black","no","legacy","legacy","legacy","0","uniform","1","undefined","undefined","undefined","1","f","0","0","0","0","48","0","0","0","48","NA","44","48","44","0","44","3","48","0","48","Sun Feb 28 00:27:01 2021","The main experiment item","yes","Lexical_Decision_Task.osexp","/Users/amaanyasin","no","Andale Mono","no","18","no","white","no","yes","576","legacy","44","44","3","/Users/amaanyasin/subject-5213709 - 1.csv","legacy","Lentiform Loewenfeld","3.3.8","yes","yes","600bd7cfb6416f0113b04181","602110864497cf011d9c0822","0","f","NA","space","space","space","NA","f","745","NA","1949","13174","15837","NA","745","2","legacy","1024","2","48000","-16","task","5213709","odd","NA","60595","64548","62599","154716","4350","33376","17535","155219","NA","154714","155219","154668","64548","155964","59064","154168","4301","133048","Lexical Decision Task","41","43244","49","yes","1024"
"2.966923697","5.4","2","fume","word","84","84","881.24","881.24","black","no","legacy","legacy","legacy","0","uniform","1","undefined","undefined","undefined","1","j","0","0","0","0","49","0","0","0","49","NA","45","49","45","0","45","3","49","0","49","Sun Feb 28 00:27:01 2021","The main experiment item","yes","Lexical_Decision_Task.osexp","/Users/amaanyasin","no","Andale Mono","no","18","no","white","no","yes","576","legacy","45","45","3","/Users/amaanyasin/subject-5213709 - 1.csv","legacy","Lentiform Loewenfeld","3.3.8","yes","yes","600bd7cfb6416f0113b04181","602110864497cf011d9c0822","0","j","NA","space","space","space","NA","j","818","NA","1949","13174","15837","NA","818","2","legacy","1024","2","48000","-16","task","5213709","odd","NA","60595","64548","62599","156516","4350","33376","17535","157018","NA","156514","157018","156468","64548","157836","59064","155968","4301","133048","Lexical Decision Task","42","44062","50","yes","1024"
"3.067193647","6.73","6","raft","word","84.31372549019608","84.31372549019608","878.0784313725491","878.0784313725491","black","no","legacy","legacy","legacy","0","uniform","1","undefined","undefined","undefined","1","j","0","0","0","0","50","0","0","0","50","NA","46","50","46","0","46","3","50","0","50","Sun Feb 28 00:27:01 2021","The main experiment item","yes","Lexical_Decision_Task.osexp","/Users/amaanyasin","no","Andale Mono","no","18","no","white","no","yes","576","legacy","46","46","3","/Users/amaanyasin/subject-5213709 - 1.csv","legacy","Lentiform Loewenfeld","3.3.8","yes","yes","600bd7cfb6416f0113b04181","602110864497cf011d9c0822","0","j","NA","space","space","space","NA","j","720","NA","1949","13174","15837","NA","720","2","legacy","1024","2","48000","-16","task","5213709","odd","NA","60595","64548","62599","158388","4350","33376","17535","158891","NA","158386","158891","158340","64548","159612","59064","157840","4301","133048","Lexical Decision Task","43","44782","51","yes","1024"
"3.049218023","7.4","9","robe","word","84.61538461538461","84.61538461538461","872.4230769230769","872.4230769230769","black","no","legacy","legacy","legacy","0","uniform","1","undefined","undefined","undefined","1","j","0","0","0","0","51","0","0","0","51","NA","47","51","47","0","47","3","51","0","51","Sun Feb 28 00:27:01 2021","The main experiment item","yes","Lexical_Decision_Task.osexp","/Users/amaanyasin","no","Andale Mono","no","18","no","white","no","yes","576","legacy","47","47","3","/Users/amaanyasin/subject-5213709 - 1.csv","legacy","Lentiform Loewenfeld","3.3.8","yes","yes","600bd7cfb6416f0113b04181","602110864497cf011d9c0822","0","j","NA","space","space","space","NA","j","584","NA","1949","13174","15837","NA","584","2","legacy","1024","2","48000","-16","task","5213709","odd","NA","60595","64548","62599","160164","4350","33376","17535","160667","NA","160162","160667","160116","64548","161252","59064","159616","4301","133048","Lexical Decision Task","44","45366","52","yes","1024"
"2.75025376","10.2","6","jump","word","84.90566037735849","84.90566037735849","866.3962264150944","866.3962264150944","black","no","legacy","legacy","legacy","0","uniform","1","undefined","undefined","undefined","1","j","0","0","0","0","52","0","0","0","52","NA","48","52","48","0","48","3","52","0","52","Sun Feb 28 00:27:01 2021","The main experiment item","yes","Lexical_Decision_Task.osexp","/Users/amaanyasin","no","Andale Mono","no","18","no","white","no","yes","576","legacy","48","48","3","/Users/amaanyasin/subject-5213709 - 1.csv","legacy","Lentiform Loewenfeld","3.3.8","yes","yes","600bd7cfb6416f0113b04181","602110864497cf011d9c0822","0","j","NA","space","space","space","NA","j","553","NA","1949","13174","15837","NA","553","2","legacy","1024","2","48000","-16","task","5213709","odd","NA","60595","64548","62599","161804","4350","33376","17535","162307","NA","161802","162307","161756","64548","162860","59064","161256","4301","133048","Lexical Decision Task","45","45919","53","yes","1024"
"3.119255889","6.63","2","itch","word","85.18518518518519","85.18518518518519","864.2962962962963","864.2962962962963","black","no","legacy","legacy","legacy","0","uniform","1","undefined","undefined","undefined","1","j","0","0","0","0","53","0","0","0","53","NA","49","53","49","0","49","3","53","0","53","Sun Feb 28 00:27:01 2021","The main experiment item","yes","Lexical_Decision_Task.osexp","/Users/amaanyasin","no","Andale Mono","no","18","no","white","no","yes","576","legacy","49","49","3","/Users/amaanyasin/subject-5213709 - 1.csv","legacy","Lentiform Loewenfeld","3.3.8","yes","yes","600bd7cfb6416f0113b04181","602110864497cf011d9c0822","0","j","NA","space","space","space","NA","j","753","NA","1949","13174","15837","NA","753","2","legacy","1024","2","48000","-16","task","5213709","odd","NA","60595","64548","62599","163411","4350","33376","17535","163914","NA","163409","163914","163363","64548","164668","59064","162863","4301","133048","Lexical Decision Task","46","46672","54","yes","1024"
"2.86332286","6.71","2","feud","word","85.45454545454545","85.45454545454545","861.4545454545455","861.4545454545455","black","no","legacy","legacy","legacy","0","uniform","1","undefined","undefined","undefined","1","j","0","0","0","0","54","0","0","0","54","0","50","54","50","0","50","3","54","0","54","Sun Feb 28 00:27:01 2021","The main experiment item","yes","Lexical_Decision_Task.osexp","/Users/amaanyasin","no","Andale Mono","no","18","no","white","no","yes","576","legacy","50","50","3","/Users/amaanyasin/subject-5213709 - 1.csv","legacy","Lentiform Loewenfeld","3.3.8","yes","yes","600bd7cfb6416f0113b04181","602110864497cf011d9c0822","0","j","NA","space","space","space","space","j","708","NA","1949","13174","15837","8046","708","2","legacy","1024","2","48000","-16","task","5213709","odd","NA","60595","64548","62599","173287","4350","33376","17535","173791","165197","173285","173791","165171","64548","174500","59064","164671","4301","133048","Lexical Decision Task","47","47380","55","yes","1024"
"2.771097306","0","9","jold","non-word","85.71428571428571","85.71428571428571","859.5178571428571","859.5178571428571","black","no","legacy","legacy","legacy","0","uniform","1","undefined","undefined","undefined","1","f","0","0","0","0","55","0","0","0","55","0","51","55","51","0","51","3","55","0","55","Sun Feb 28 00:27:01 2021","The main experiment item","yes","Lexical_Decision_Task.osexp","/Users/amaanyasin","no","Andale Mono","no","18","no","white","no","yes","576","legacy","51","51","3","/Users/amaanyasin/subject-5213709 - 1.csv","legacy","Lentiform Loewenfeld","3.3.8","yes","yes","600bd7cfb6416f0113b04181","602110864497cf011d9c0822","0","f","NA","space","space","space","space","f","753","NA","1949","13174","15837","8046","753","2","legacy","1024","2","48000","-16","task","5213709","odd","NA","60595","64548","62599","175052","4350","33376","17535","175555","165197","175050","175555","175004","64548","176308","59064","174504","4301","133048","Lexical Decision Task","48","48133","56","yes","1024"
"3.492014979","0","9","yine","non-word","84.21052631578948","84.21052631578948","853.7368421052631","853.7368421052631","black","no","legacy","legacy","legacy","0","uniform","0","undefined","undefined","undefined","0","f","0","0","0","0","56","0","0","0","56","0","52","56","52","0","52","3","56","0","56","Sun Feb 28 00:27:01 2021","The main experiment item","yes","Lexical_Decision_Task.osexp","/Users/amaanyasin","no","Andale Mono","no","18","no","white","no","yes","576","legacy","52","52","3","/Users/amaanyasin/subject-5213709 - 1.csv","legacy","Lentiform Loewenfeld","3.3.8","yes","yes","600bd7cfb6416f0113b04181","602110864497cf011d9c0822","0","j","NA","space","space","space","space","j","530","NA","1949","13174","15837","8046","530","2","legacy","1024","2","48000","-16","task","5213709","odd","NA","60595","64548","62599","176859","4350","33376","17535","177360","165197","176857","177361","176812","64548","177892","59064","176312","4301","133048","Lexical Decision Task","48","48663","57","yes","1024"
"3.145920145","8.51","8","flew","word","84.48275862068965","84.48275862068965","850.2931034482758","850.2931034482758","black","no","legacy","legacy","legacy","0","uniform","1","undefined","undefined","undefined","1","j","0","0","0","0","57","0","0","0","57","0","53","57","53","0","53","3","57","0","57","Sun Feb 28 00:27:01 2021","The main experiment item","yes","Lexical_Decision_Task.osexp","/Users/amaanyasin","no","Andale Mono","no","18","no","white","no","yes","576","legacy","53","53","3","/Users/amaanyasin/subject-5213709 - 1.csv","legacy","Lentiform Loewenfeld","3.3.8","yes","yes","600bd7cfb6416f0113b04181","602110864497cf011d9c0822","0","j","NA","space","space","space","space","j","654","NA","1949","13174","15837","8046","654","2","legacy","1024","2","48000","-16","task","5213709","odd","NA","60595","64548","62599","179447","4350","33376","17535","179950","165197","179444","179950","179395","64548","180604","59064","176312","4301","177895","Lexical Decision Task","49","49317","58","yes","1024"
"2.979548375","8.71","4","soup","word","84.7457627118644","84.7457627118644","846.4745762711865","846.4745762711865","black","no","legacy","legacy","legacy","0","uniform","1","undefined","undefined","undefined","1","j","0","0","0","0","58","0","0","0","58","0","54","58","54","0","54","3","58","0","58","Sun Feb 28 00:27:01 2021","The main experiment item","yes","Lexical_Decision_Task.osexp","/Users/amaanyasin","no","Andale Mono","no","18","no","white","no","yes","576","legacy","54","54","3","/Users/amaanyasin/subject-5213709 - 1.csv","legacy","Lentiform Loewenfeld","3.3.8","yes","yes","600bd7cfb6416f0113b04181","602110864497cf011d9c0822","0","j","NA","space","space","space","space","j","625","NA","1949","13174","15837","8046","625","2","legacy","1024","2","48000","-16","task","5213709","odd","NA","60595","64548","62599","181155","4350","33376","17535","181658","165197","181153","181658","181108","64548","182284","59064","180607","4301","177895","Lexical Decision Task","50","49942","59","yes","1024"
"3.209246849","0","7","slem","non-word","83.33333333333333","83.33333333333333","840.65","840.65","black","no","legacy","legacy","legacy","0","uniform","0","undefined","undefined","undefined","0","f","0","0","0","0","59","0","0","0","59","0","55","59","55","0","55","3","59","0","59","Sun Feb 28 00:27:01 2021","The main experiment item","yes","Lexical_Decision_Task.osexp","/Users/amaanyasin","no","Andale Mono","no","18","no","white","no","yes","576","legacy","55","55","3","/Users/amaanyasin/subject-5213709 - 1.csv","legacy","Lentiform Loewenfeld","3.3.8","yes","yes","600bd7cfb6416f0113b04181","602110864497cf011d9c0822","0","j","NA","space","space","space","space","j","497","NA","1949","13174","15837","8046","497","2","legacy","1024","2","48000","-16","task","5213709","odd","NA","60595","64548","62599","182836","4350","33376","17535","183339","165197","182834","183339","182788","64548","183836","59064","182288","4301","177895","Lexical Decision Task","50","50439","60","yes","1024"
"2.980911938","7.15","7","hoop","word","83.60655737704919","83.60655737704919","837.8524590163935","837.8524590163935","black","no","legacy","legacy","legacy","0","uniform","1","undefined","undefined","undefined","1","j","0","0","0","0","60","0","0","0","60","0","56","60","56","0","56","3","60","0","60","Sun Feb 28 00:27:01 2021","The main experiment item","yes","Lexical_Decision_Task.osexp","/Users/amaanyasin","no","Andale Mono","no","18","no","white","no","yes","576","legacy","56","56","3","/Users/amaanyasin/subject-5213709 - 1.csv","legacy","Lentiform Loewenfeld","3.3.8","yes","yes","600bd7cfb6416f0113b04181","602110864497cf011d9c0822","0","j","NA","space","space","space","space","j","670","NA","1949","13174","15837","8046","670","2","legacy","1024","2","48000","-16","task","5213709","odd","NA","60595","64548","62599","185390","4350","33376","17535","185893","165197","185388","185893","185340","64548","186564","59064","182288","4301","183839","Lexical Decision Task","51","51109","61","yes","1024"
"3.282244367","0","6","fute","non-word","83.87096774193549","83.87096774193549","838.7903225806451","838.7903225806451","black","no","legacy","legacy","legacy","0","uniform","1","undefined","undefined","undefined","1","f","0","0","0","0","61","0","0","0","61","0","57","61","57","0","57","3","61","0","61","Sun Feb 28 00:27:01 2021","The main experiment item","yes","Lexical_Decision_Task.osexp","/Users/amaanyasin","no","Andale Mono","no","18","no","white","no","yes","576","legacy","57","57","3","/Users/amaanyasin/subject-5213709 - 1.csv","legacy","Lentiform Loewenfeld","3.3.8","yes","yes","600bd7cfb6416f0113b04181","602110864497cf011d9c0822","0","f","NA","space","space","space","space","f","896","NA","1949","13174","15837","8046","896","2","legacy","1024","2","48000","-16","task","5213709","odd","NA","60595","64548","62599","187116","4350","33376","17535","187619","165197","187114","187619","187068","64548","188516","59064","186568","4301","183839","Lexical Decision Task","52","52005","62","yes","1024"
"2.843025032","0","9","pusk","non-word","84.12698412698413","84.12698412698413","837.6666666666666","837.6666666666666","black","no","legacy","legacy","legacy","0","uniform","1","undefined","undefined","undefined","1","f","0","0","0","0","62","0","0","0","62","0","58","62","58","0","58","3","62","0","62","Sun Feb 28 00:27:01 2021","The main experiment item","yes","Lexical_Decision_Task.osexp","/Users/amaanyasin","no","Andale Mono","no","18","no","white","no","yes","576","legacy","58","58","3","/Users/amaanyasin/subject-5213709 - 1.csv","legacy","Lentiform Loewenfeld","3.3.8","yes","yes","600bd7cfb6416f0113b04181","602110864497cf011d9c0822","0","f","NA","space","space","space","space","f","768","NA","1949","13174","15837","8046","768","2","legacy","1024","2","48000","-16","task","5213709","odd","NA","60595","64548","62599","189068","4350","33376","17535","189571","165197","189066","189571","189020","64548","190340","59064","188519","4301","183839","Lexical Decision Task","53","52773","63","yes","1024"
"3.131833513","7.66","4","limb","word","84.375","84.375","834.46875","834.46875","black","no","legacy","legacy","legacy","0","uniform","1","undefined","undefined","undefined","1","j","0","0","0","0","63","0","0","0","63","0","59","63","59","0","59","3","63","0","63","Sun Feb 28 00:27:01 2021","The main experiment item","yes","Lexical_Decision_Task.osexp","/Users/amaanyasin","no","Andale Mono","no","18","no","white","no","yes","576","legacy","59","59","3","/Users/amaanyasin/subject-5213709 - 1.csv","legacy","Lentiform Loewenfeld","3.3.8","yes","yes","600bd7cfb6416f0113b04181","602110864497cf011d9c0822","0","j","NA","space","space","space","space","j","633","NA","1949","13174","15837","8046","633","2","legacy","1024","2","48000","-16","task","5213709","odd","NA","60595","64548","62599","190891","4350","33376","17535","191394","165197","190889","191394","190844","64548","192028","59064","190344","4301","183839","Lexical Decision Task","54","53406","64","yes","1024"
"3.302475237","0","7","leel","non-word","84.61538461538461","84.61538461538461","832.5846153846154","832.5846153846154","black","no","legacy","legacy","legacy","0","uniform","1","undefined","undefined","undefined","1","f","0","0","0","0","64","0","0","0","64","0","60","64","60","0","60","3","64","0","64","Sun Feb 28 00:27:01 2021","The main experiment item","yes","Lexical_Decision_Task.osexp","/Users/amaanyasin","no","Andale Mono","no","18","no","white","no","yes","576","legacy","60","60","3","/Users/amaanyasin/subject-5213709 - 1.csv","legacy","Lentiform Loewenfeld","3.3.8","yes","yes","600bd7cfb6416f0113b04181","602110864497cf011d9c0822","0","f","NA","space","space","space","space","f","712","NA","1949","13174","15837","8046","712","2","legacy","1024","2","48000","-16","task","5213709","odd","NA","60595","64548","62599","192580","4350","33376","17535","193083","165197","192578","193083","192532","64548","193796","59064","192032","4301","183839","Lexical Decision Task","55","54118","65","yes","1024"
"2.695481676","0","7","goke","non-word","84.84848484848484","84.84848484848484","830.7727272727273","830.7727272727273","black","no","legacy","legacy","legacy","0","uniform","1","undefined","undefined","undefined","1","f","0","0","0","0","65","0","0","0","65","0","61","65","61","0","61","3","65","0","65","Sun Feb 28 00:27:01 2021","The main experiment item","yes","Lexical_Decision_Task.osexp","/Users/amaanyasin","no","Andale Mono","no","18","no","white","no","yes","576","legacy","61","61","3","/Users/amaanyasin/subject-5213709 - 1.csv","legacy","Lentiform Loewenfeld","3.3.8","yes","yes","600bd7cfb6416f0113b04181","602110864497cf011d9c0822","0","f","NA","space","space","space","space","f","713","NA","1949","13174","15837","8046","713","2","legacy","1024","2","48000","-16","task","5213709","odd","NA","60595","64548","62599","194348","4350","33376","17535","194851","165197","194345","194851","194300","64548","195564","59064","193800","4301","183839","Lexical Decision Task","56","54831","66","yes","1024"
"3.068433376","8.09","2","bulb","word","85.07462686567165","85.07462686567165","825.7611940298508","825.7611940298508","black","no","legacy","legacy","legacy","0","uniform","1","undefined","undefined","undefined","1","j","0","0","0","0","66","0","0","0","66","0","62","66","62","0","62","3","66","0","66","Sun Feb 28 00:27:01 2021","The main experiment item","yes","Lexical_Decision_Task.osexp","/Users/amaanyasin","no","Andale Mono","no","18","no","white","no","yes","576","legacy","62","62","3","/Users/amaanyasin/subject-5213709 - 1.csv","legacy","Lentiform Loewenfeld","3.3.8","yes","yes","600bd7cfb6416f0113b04181","602110864497cf011d9c0822","0","j","NA","space","space","space","space","j","495","NA","1949","13174","15837","8046","495","2","legacy","1024","2","48000","-16","task","5213709","odd","NA","60595","64548","62599","196117","4350","33376","17535","196620","165197","196115","196620","196069","64548","197116","59064","195569","4301","183839","Lexical Decision Task","57","55326","67","yes","1024"
"3.165936429","0","7","leps","non-word","85.29411764705883","85.29411764705883","824.7794117647059","824.7794117647059","black","no","legacy","legacy","legacy","0","uniform","1","undefined","undefined","undefined","1","f","0","0","0","0","67","0","0","0","67","0","63","67","63","0","63","3","67","0","67","Sun Feb 28 00:27:01 2021","The main experiment item","yes","Lexical_Decision_Task.osexp","/Users/amaanyasin","no","Andale Mono","no","18","no","white","no","yes","576","legacy","63","63","3","/Users/amaanyasin/subject-5213709 - 1.csv","legacy","Lentiform Loewenfeld","3.3.8","yes","yes","600bd7cfb6416f0113b04181","602110864497cf011d9c0822","0","f","NA","space","space","space","space","f","759","NA","1949","13174","15837","8046","759","2","legacy","1024","2","48000","-16","task","5213709","odd","NA","60595","64548","62599","197669","4350","33376","17535","198172","165197","197666","198172","197620","64548","198932","59064","197120","4301","183839","Lexical Decision Task","58","56085","68","yes","1024"
"2.972357144","0","5","dasp","non-word","85.5072463768116","85.5072463768116","823.4927536231884","823.4927536231884","black","no","legacy","legacy","legacy","0","uniform","1","undefined","undefined","undefined","1","f","0","0","0","0","68","0","0","0","68","0","64","68","64","0","64","3","68","0","68","Sun Feb 28 00:27:01 2021","The main experiment item","yes","Lexical_Decision_Task.osexp","/Users/amaanyasin","no","Andale Mono","no","18","no","white","no","yes","576","legacy","64","64","3","/Users/amaanyasin/subject-5213709 - 1.csv","legacy","Lentiform Loewenfeld","3.3.8","yes","yes","600bd7cfb6416f0113b04181","602110864497cf011d9c0822","0","f","NA","space","space","space","space","f","736","NA","1949","13174","15837","8046","736","2","legacy","1024","2","48000","-16","task","5213709","odd","NA","60595","64548","62599","199484","4350","33376","17535","199987","165197","199481","199987","199436","64548","200724","59064","198936","4301","183839","Lexical Decision Task","59","56821","69","yes","1024"
"2.576725172","0","8","gowl","non-word","84.28571428571429","84.28571428571429","818.7142857142857","818.7142857142857","black","no","legacy","legacy","legacy","0","uniform","0","undefined","undefined","undefined","0","f","0","0","0","0","69","0","0","0","69","0","65","69","65","0","65","3","69","0","69","Sun Feb 28 00:27:01 2021","The main experiment item","yes","Lexical_Decision_Task.osexp","/Users/amaanyasin","no","Andale Mono","no","18","no","white","no","yes","576","legacy","65","65","3","/Users/amaanyasin/subject-5213709 - 1.csv","legacy","Lentiform Loewenfeld","3.3.8","yes","yes","600bd7cfb6416f0113b04181","602110864497cf011d9c0822","0","j","NA","space","space","space","space","j","489","NA","1949","13174","15837","8046","489","2","legacy","1024","2","48000","-16","task","5213709","odd","NA","60595","64548","62599","201275","4350","33376","17535","201778","165197","201273","201778","201228","64548","202268","59064","200728","4301","183839","Lexical Decision Task","59","57310","70","yes","1024"
"3.374137706","10.21","4","tree","word","84.50704225352112","84.50704225352112","818.3802816901408","818.3802816901408","black","no","legacy","legacy","legacy","0","uniform","1","undefined","undefined","undefined","1","j","0","0","0","0","70","0","0","0","70","0","66","70","66","0","66","3","70","0","70","Sun Feb 28 00:27:01 2021","The main experiment item","yes","Lexical_Decision_Task.osexp","/Users/amaanyasin","no","Andale Mono","no","18","no","white","no","yes","576","legacy","66","66","3","/Users/amaanyasin/subject-5213709 - 1.csv","legacy","Lentiform Loewenfeld","3.3.8","yes","yes","600bd7cfb6416f0113b04181","602110864497cf011d9c0822","0","j","NA","space","space","space","space","j","795","NA","1949","13174","15837","8046","795","2","legacy","1024","2","48000","-16","task","5213709","odd","NA","60595","64548","62599","203825","4350","33376","17535","204328","165197","203823","204328","203772","64548","205124","59064","200728","4301","202272","Lexical Decision Task","60","58105","71","yes","1024"
"3.20871002","7.15","8","cram","word","83.33333333333333","83.33333333333333","814.6805555555555","814.6805555555555","black","no","legacy","legacy","legacy","0","uniform","0","undefined","undefined","undefined","0","j","0","0","0","0","71","0","0","0","71","0","67","71","67","0","67","3","71","0","71","Sun Feb 28 00:27:01 2021","The main experiment item","yes","Lexical_Decision_Task.osexp","/Users/amaanyasin","no","Andale Mono","no","18","no","white","no","yes","576","legacy","67","67","3","/Users/amaanyasin/subject-5213709 - 1.csv","legacy","Lentiform Loewenfeld","3.3.8","yes","yes","600bd7cfb6416f0113b04181","602110864497cf011d9c0822","0","f","NA","space","space","space","space","f","552","NA","1949","13174","15837","8046","552","2","legacy","1024","2","48000","-16","task","5213709","odd","NA","60595","64548","62599","205676","4350","33376","17535","206179","165197","205673","206179","205628","64548","206732","59064","205128","4301","202272","Lexical Decision Task","60","58657","72","yes","1024"
"3.488597715","0","9","nain","non-word","83.56164383561644","83.56164383561644","813.2328767123288","813.2328767123288","black","no","legacy","legacy","legacy","0","uniform","1","undefined","undefined","undefined","1","f","0","0","0","0","72","0","0","0","72","0","68","72","68","0","68","3","72","0","72","Sun Feb 28 00:27:01 2021","The main experiment item","yes","Lexical_Decision_Task.osexp","/Users/amaanyasin","no","Andale Mono","no","18","no","white","no","yes","576","legacy","68","68","3","/Users/amaanyasin/subject-5213709 - 1.csv","legacy","Lentiform Loewenfeld","3.3.8","yes","yes","600bd7cfb6416f0113b04181","602110864497cf011d9c0822","0","f","NA","space","space","space","space","f","709","NA","1949","13174","15837","8046","709","2","legacy","1024","2","48000","-16","task","5213709","odd","NA","60595","64548","62599","208287","4350","33376","17535","208790","165197","208284","208790","208236","64548","209500","59064","205128","4301","206736","Lexical Decision Task","61","59366","73","yes","1024"
"3.174641193","0","3","ramb","non-word","83.78378378378379","83.78378378378379","817.5945945945946","817.5945945945946","black","no","legacy","legacy","legacy","0","uniform","1","undefined","undefined","undefined","1","f","0","0","0","0","73","0","0","0","73","0","69","73","69","0","69","3","73","0","73","Sun Feb 28 00:27:01 2021","The main experiment item","yes","Lexical_Decision_Task.osexp","/Users/amaanyasin","no","Andale Mono","no","18","no","white","no","yes","576","legacy","69","69","3","/Users/amaanyasin/subject-5213709 - 1.csv","legacy","Lentiform Loewenfeld","3.3.8","yes","yes","600bd7cfb6416f0113b04181","602110864497cf011d9c0822","0","f","NA","space","space","space","space","f","1136","NA","1949","13174","15837","8046","1136","2","legacy","1024","2","48000","-16","task","5213709","odd","NA","60595","64548","62599","210052","4350","33376","17535","210555","165197","210050","210555","210004","64548","211692","59064","209504","4301","206736","Lexical Decision Task","62","60502","74","yes","1024"
"2.971428938","9.86","7","spot","word","84","84","814.3733333333333","814.3733333333333","black","no","legacy","legacy","legacy","0","uniform","1","undefined","undefined","undefined","1","j","0","0","0","0","74","0","0","0","74","0","70","74","70","0","70","3","74","0","74","Sun Feb 28 00:27:01 2021","The main experiment item","yes","Lexical_Decision_Task.osexp","/Users/amaanyasin","no","Andale Mono","no","18","no","white","no","yes","576","legacy","70","70","3","/Users/amaanyasin/subject-5213709 - 1.csv","legacy","Lentiform Loewenfeld","3.3.8","yes","yes","600bd7cfb6416f0113b04181","602110864497cf011d9c0822","0","j","NA","space","space","space","space","j","576","NA","1949","13174","15837","8046","576","2","legacy","1024","2","48000","-16","task","5213709","odd","NA","60595","64548","62599","212244","4350","33376","17535","212747","165197","212242","212747","212196","64548","213324","59064","211696","4301","206736","Lexical Decision Task","63","61078","75","yes","1024"
"2.821076612","0","4","lult","non-word","84.21052631578948","84.21052631578948","812.171052631579","812.171052631579","black","no","legacy","legacy","legacy","0","uniform","1","undefined","undefined","undefined","1","f","0","0","0","0","75","0","0","0","75","0","71","75","71","0","71","3","75","0","75","Sun Feb 28 00:27:01 2021","The main experiment item","yes","Lexical_Decision_Task.osexp","/Users/amaanyasin","no","Andale Mono","no","18","no","white","no","yes","576","legacy","71","71","3","/Users/amaanyasin/subject-5213709 - 1.csv","legacy","Lentiform Loewenfeld","3.3.8","yes","yes","600bd7cfb6416f0113b04181","602110864497cf011d9c0822","0","f","NA","space","space","space","space","f","647","NA","1949","13174","15837","8046","647","2","legacy","1024","2","48000","-16","task","5213709","odd","NA","60595","64548","62599","213877","4350","33376","17535","214380","165197","213874","214380","213828","64548","215028","59064","213328","4301","206736","Lexical Decision Task","64","61725","76","yes","1024"
"3.299579929","0","2","flis","non-word","84.41558441558442","84.41558441558442","808.3766233766233","808.3766233766233","black","no","legacy","legacy","legacy","0","uniform","1","undefined","undefined","undefined","1","f","0","0","0","0","76","0","0","0","76","0","72","76","72","0","72","3","76","0","76","Sun Feb 28 00:27:01 2021","The main experiment item","yes","Lexical_Decision_Task.osexp","/Users/amaanyasin","no","Andale Mono","no","18","no","white","no","yes","576","legacy","72","72","3","/Users/amaanyasin/subject-5213709 - 1.csv","legacy","Lentiform Loewenfeld","3.3.8","yes","yes","600bd7cfb6416f0113b04181","602110864497cf011d9c0822","0","f","NA","space","space","space","space","f","520","NA","1949","13174","15837","8046","520","2","legacy","1024","2","48000","-16","task","5213709","odd","NA","60595","64548","62599","215580","4350","33376","17535","216083","165197","215578","216083","215532","64548","216604","59064","215031","4301","206736","Lexical Decision Task","65","62245","77","yes","1024"
"3.16326079","0","5","parg","non-word","84.61538461538461","84.61538461538461","804.7692307692307","804.7692307692307","black","no","legacy","legacy","legacy","0","uniform","1","undefined","undefined","undefined","1","f","0","0","0","0","77","0","0","0","77","0","73","77","73","0","73","3","77","0","77","Sun Feb 28 00:27:01 2021","The main experiment item","yes","Lexical_Decision_Task.osexp","/Users/amaanyasin","no","Andale Mono","no","18","no","white","no","yes","576","legacy","73","73","3","/Users/amaanyasin/subject-5213709 - 1.csv","legacy","Lentiform Loewenfeld","3.3.8","yes","yes","600bd7cfb6416f0113b04181","602110864497cf011d9c0822","0","f","NA","space","space","space","space","f","527","NA","1949","13174","15837","8046","527","2","legacy","1024","2","48000","-16","task","5213709","odd","NA","60595","64548","62599","217157","4350","33376","17535","217660","165197","217154","217660","217108","64548","218188","59064","216608","4301","206736","Lexical Decision Task","66","62772","78","yes","1024"
"3.15462682","0","6","noal","non-word","83.54430379746836","83.54430379746836","799.8354430379746","799.8354430379746","black","no","legacy","legacy","legacy","0","uniform","0","undefined","undefined","undefined","0","f","0","0","0","0","78","0","0","0","78","0","74","78","74","0","74","3","78","0","78","Sun Feb 28 00:27:01 2021","The main experiment item","yes","Lexical_Decision_Task.osexp","/Users/amaanyasin","no","Andale Mono","no","18","no","white","no","yes","576","legacy","74","74","3","/Users/amaanyasin/subject-5213709 - 1.csv","legacy","Lentiform Loewenfeld","3.3.8","yes","yes","600bd7cfb6416f0113b04181","602110864497cf011d9c0822","0","j","NA","space","space","space","space","j","415","NA","1949","13174","15837","8046","415","2","legacy","1024","2","48000","-16","task","5213709","odd","NA","60595","64548","62599","218741","4350","33376","17535","219244","165197","218739","219244","218692","64548","219660","59064","218192","4301","206736","Lexical Decision Task","66","63187","79","yes","1024"
"3.077974404","10.41","8","tool","word","83.75","83.75","797.8","797.8","black","no","legacy","legacy","legacy","0","uniform","1","undefined","undefined","undefined","1","j","0","0","0","0","79","0","0","0","79","0","75","79","75","0","75","3","79","0","79","Sun Feb 28 00:27:01 2021","The main experiment item","yes","Lexical_Decision_Task.osexp","/Users/amaanyasin","no","Andale Mono","no","18","no","white","no","yes","576","legacy","75","75","3","/Users/amaanyasin/subject-5213709 - 1.csv","legacy","Lentiform Loewenfeld","3.3.8","yes","yes","600bd7cfb6416f0113b04181","602110864497cf011d9c0822","0","j","NA","space","space","space","space","j","637","NA","1949","13174","15837","8046","637","2","legacy","1024","2","48000","-16","task","5213709","odd","NA","60595","64548","62599","221215","4350","33376","17535","221718","165197","221213","221718","221164","64548","222356","59064","218192","4301","219664","Lexical Decision Task","67","63824","80","yes","1024"
"2.68604012","0","4","pumb","non-word","83.95061728395062","83.95061728395062","796.6543209876543","796.6543209876543","black","no","legacy","legacy","legacy","0","uniform","1","undefined","undefined","undefined","1","f","0","0","0","0","80","0","0","0","80","0","76","80","76","0","76","3","80","0","80","Sun Feb 28 00:27:01 2021","The main experiment item","yes","Lexical_Decision_Task.osexp","/Users/amaanyasin","no","Andale Mono","no","18","no","white","no","yes","576","legacy","76","76","3","/Users/amaanyasin/subject-5213709 - 1.csv","legacy","Lentiform Loewenfeld","3.3.8","yes","yes","600bd7cfb6416f0113b04181","602110864497cf011d9c0822","0","f","NA","space","space","space","space","f","705","NA","1949","13174","15837","8046","705","2","legacy","1024","2","48000","-16","task","5213709","odd","NA","60595","64548","62599","222908","4350","33376","17535","223411","165197","222906","223411","222860","64548","224116","59064","222360","4301","219664","Lexical Decision Task","68","64529","81","yes","1024"
"3.307211407","6.07","7","honk","word","84.14634146341463","84.14634146341463","796.890243902439","796.890243902439","black","no","legacy","legacy","legacy","0","uniform","1","undefined","undefined","undefined","1","j","0","0","0","0","81","0","0","0","81","0","77","81","77","0","77","3","81","0","81","Sun Feb 28 00:27:01 2021","The main experiment item","yes","Lexical_Decision_Task.osexp","/Users/amaanyasin","no","Andale Mono","no","18","no","white","no","yes","576","legacy","77","77","3","/Users/amaanyasin/subject-5213709 - 1.csv","legacy","Lentiform Loewenfeld","3.3.8","yes","yes","600bd7cfb6416f0113b04181","602110864497cf011d9c0822","0","j","NA","space","space","space","space","j","816","NA","1949","13174","15837","8046","816","2","legacy","1024","2","48000","-16","task","5213709","odd","NA","60595","64548","62599","224668","4350","33376","17535","225171","165197","224666","225171","224620","64548","225988","59064","224120","4301","219664","Lexical Decision Task","69","65345","82","yes","1024"
"3.14849993","10.75","7","hour","word","84.33734939759036","84.33734939759036","799.8313253012049","799.8313253012049","black","no","legacy","legacy","legacy","0","uniform","1","undefined","undefined","undefined","1","j","0","0","0","0","82","0","0","0","82","0","78","82","78","0","78","3","82","0","82","Sun Feb 28 00:27:01 2021","The main experiment item","yes","Lexical_Decision_Task.osexp","/Users/amaanyasin","no","Andale Mono","no","18","no","white","no","yes","576","legacy","78","78","3","/Users/amaanyasin/subject-5213709 - 1.csv","legacy","Lentiform Loewenfeld","3.3.8","yes","yes","600bd7cfb6416f0113b04181","602110864497cf011d9c0822","0","j","NA","space","space","space","space","j","1041","NA","1949","13174","15837","8046","1041","2","legacy","1024","2","48000","-16","task","5213709","odd","NA","60595","64548","62599","226539","4350","33376","17535","227042","165197","226537","227042","226491","64548","228084","59064","225991","4301","219664","Lexical Decision Task","70","66386","83","yes","1024"
"2.892836167","10.01","5","soft","word","84.52380952380952","84.52380952380952","801.3809523809524","801.3809523809524","black","no","legacy","legacy","legacy","0","uniform","1","undefined","undefined","undefined","1","j","0","0","0","0","83","0","0","0","83","0","79","83","79","0","79","3","83","0","83","Sun Feb 28 00:27:01 2021","The main experiment item","yes","Lexical_Decision_Task.osexp","/Users/amaanyasin","no","Andale Mono","no","18","no","white","no","yes","576","legacy","79","79","3","/Users/amaanyasin/subject-5213709 - 1.csv","legacy","Lentiform Loewenfeld","3.3.8","yes","yes","600bd7cfb6416f0113b04181","602110864497cf011d9c0822","0","j","NA","space","space","space","space","j","930","NA","1949","13174","15837","8046","930","2","legacy","1024","2","48000","-16","task","5213709","odd","NA","60595","64548","62599","228635","4350","33376","17535","229138","165197","228633","229138","228588","64548","230068","59064","228088","4301","219664","Lexical Decision Task","71","67316","84","yes","1024"
"3.091901331","0","9","nipe","non-word","84.70588235294117","84.70588235294117","801.0117647058823","801.0117647058823","black","no","legacy","legacy","legacy","0","uniform","1","undefined","undefined","undefined","1","f","0","0","0","0","84","0","0","0","84","0","80","84","80","0","80","3","84","0","84","Sun Feb 28 00:27:01 2021","The main experiment item","yes","Lexical_Decision_Task.osexp","/Users/amaanyasin","no","Andale Mono","no","18","no","white","no","yes","576","legacy","80","80","3","/Users/amaanyasin/subject-5213709 - 1.csv","legacy","Lentiform Loewenfeld","3.3.8","yes","yes","600bd7cfb6416f0113b04181","602110864497cf011d9c0822","0","f","NA","space","space","space","space","f","770","NA","1949","13174","15837","8046","770","2","legacy","1024","2","48000","-16","task","5213709","odd","NA","60595","64548","62599","230619","4350","33376","17535","231122","165197","230617","231122","230572","64548","231893","59064","230071","4301","219664","Lexical Decision Task","72","68086","85","yes","1024"
"3.248054965","7.86","5","glow","word","84.88372093023256","84.88372093023256","801.3837209302326","801.3837209302326","black","no","legacy","legacy","legacy","0","uniform","1","undefined","undefined","undefined","1","j","0","0","0","0","85","0","0","0","85","0","81","85","81","0","81","3","85","0","85","Sun Feb 28 00:27:01 2021","The main experiment item","yes","Lexical_Decision_Task.osexp","/Users/amaanyasin","no","Andale Mono","no","18","no","white","no","yes","576","legacy","81","81","3","/Users/amaanyasin/subject-5213709 - 1.csv","legacy","Lentiform Loewenfeld","3.3.8","yes","yes","600bd7cfb6416f0113b04181","602110864497cf011d9c0822","0","j","NA","space","space","space","space","j","833","NA","1949","13174","15837","8046","833","2","legacy","1024","2","48000","-16","task","5213709","odd","NA","60595","64548","62599","232444","4350","33376","17535","232947","165197","232441","232947","232396","64548","233780","59064","231896","4301","219664","Lexical Decision Task","73","68919","86","yes","1024"
"2.873320602","0","4","lurg","non-word","85.05747126436782","85.05747126436782","799.4252873563219","799.4252873563219","black","no","legacy","legacy","legacy","0","uniform","1","undefined","undefined","undefined","1","f","0","0","0","0","86","0","0","0","86","0","82","86","82","0","82","3","86","0","86","Sun Feb 28 00:27:01 2021","The main experiment item","yes","Lexical_Decision_Task.osexp","/Users/amaanyasin","no","Andale Mono","no","18","no","white","no","yes","576","legacy","82","82","3","/Users/amaanyasin/subject-5213709 - 1.csv","legacy","Lentiform Loewenfeld","3.3.8","yes","yes","600bd7cfb6416f0113b04181","602110864497cf011d9c0822","0","f","NA","space","space","space","space","f","631","NA","1949","13174","15837","8046","631","2","legacy","1024","2","48000","-16","task","5213709","odd","NA","60595","64548","62599","234333","4350","33376","17535","234836","165197","234330","234836","234284","64548","235468","59064","233784","4301","219664","Lexical Decision Task","74","69550","87","yes","1024"
"3.474361976","5.24","6","veer","word","85.22727272727273","85.22727272727273","803.4431818181819","803.4431818181819","black","no","legacy","legacy","legacy","0","uniform","1","undefined","undefined","undefined","1","j","0","0","0","0","87","0","0","0","87","0","83","87","83","0","83","3","87","0","87","Sun Feb 28 00:27:01 2021","The main experiment item","yes","Lexical_Decision_Task.osexp","/Users/amaanyasin","no","Andale Mono","no","18","no","white","no","yes","576","legacy","83","83","3","/Users/amaanyasin/subject-5213709 - 1.csv","legacy","Lentiform Loewenfeld","3.3.8","yes","yes","600bd7cfb6416f0113b04181","602110864497cf011d9c0822","0","j","NA","space","space","space","space","j","1153","NA","1949","13174","15837","8046","1153","2","legacy","1024","2","48000","-16","task","5213709","odd","NA","60595","64548","62599","236019","4350","33376","17535","236522","165197","236017","236522","235972","64548","237676","59064","235472","4301","219664","Lexical Decision Task","75","70703","88","yes","1024"
"2.980306438","0","7","slun","non-word","85.3932584269663","85.3932584269663","801.2471910112359","801.2471910112359","black","no","legacy","legacy","legacy","0","uniform","1","undefined","undefined","undefined","1","f","0","0","0","0","88","0","0","0","88","0","84","88","84","0","84","3","88","0","88","Sun Feb 28 00:27:01 2021","The main experiment item","yes","Lexical_Decision_Task.osexp","/Users/amaanyasin","no","Andale Mono","no","18","no","white","no","yes","576","legacy","84","84","3","/Users/amaanyasin/subject-5213709 - 1.csv","legacy","Lentiform Loewenfeld","3.3.8","yes","yes","600bd7cfb6416f0113b04181","602110864497cf011d9c0822","0","f","NA","space","space","space","space","f","608","NA","1949","13174","15837","8046","608","2","legacy","1024","2","48000","-16","task","5213709","odd","NA","60595","64548","62599","238229","4350","33376","17535","238732","165197","238226","238732","238181","64548","239341","59064","237680","4301","219664","Lexical Decision Task","76","71311","89","yes","1024"
"2.744553742","0","2","nawk","non-word","85.55555555555556","85.55555555555556","800.6222222222223","800.6222222222223","black","no","legacy","legacy","legacy","0","uniform","1","undefined","undefined","undefined","1","f","0","0","0","0","89","0","0","0","89","0","85","89","85","0","85","3","89","0","89","Sun Feb 28 00:27:01 2021","The main experiment item","yes","Lexical_Decision_Task.osexp","/Users/amaanyasin","no","Andale Mono","no","18","no","white","no","yes","576","legacy","85","85","3","/Users/amaanyasin/subject-5213709 - 1.csv","legacy","Lentiform Loewenfeld","3.3.8","yes","yes","600bd7cfb6416f0113b04181","602110864497cf011d9c0822","0","f","NA","space","space","space","space","f","745","NA","1949","13174","15837","8046","745","2","legacy","1024","2","48000","-16","task","5213709","odd","NA","60595","64548","62599","239892","4350","33376","17535","240395","165197","239890","240395","239844","64548","241141","59064","239344","4301","219664","Lexical Decision Task","77","72056","90","yes","1024"
"2.709837904","6.85","8","skim","word","85.71428571428571","85.71428571428571","801.0769230769231","801.0769230769231","black","no","legacy","legacy","legacy","0","uniform","1","undefined","undefined","undefined","1","j","0","0","0","0","90","0","0","0","90","0","86","90","86","0","86","3","90","0","90","Sun Feb 28 00:27:01 2021","The main experiment item","yes","Lexical_Decision_Task.osexp","/Users/amaanyasin","no","Andale Mono","no","18","no","white","no","yes","576","legacy","86","86","3","/Users/amaanyasin/subject-5213709 - 1.csv","legacy","Lentiform Loewenfeld","3.3.8","yes","yes","600bd7cfb6416f0113b04181","602110864497cf011d9c0822","0","j","NA","space","space","space","space","j","842","NA","1949","13174","15837","8046","842","2","legacy","1024","2","48000","-16","task","5213709","odd","NA","60595","64548","62599","241691","4350","33376","17535","242194","165197","241689","242194","241644","64548","243037","59064","241144","4301","219664","Lexical Decision Task","78","72898","91","yes","1024"
"2.705007959","6.01","4","wept","word","85.8695652173913","85.8695652173913","800.3695652173913","800.3695652173913","black","no","legacy","legacy","legacy","0","uniform","1","undefined","undefined","undefined","1","j","0","0","0","0","91","0","0","0","91","0","87","91","87","0","87","3","91","0","91","Sun Feb 28 00:27:01 2021","The main experiment item","yes","Lexical_Decision_Task.osexp","/Users/amaanyasin","no","Andale Mono","no","18","no","white","no","yes","576","legacy","87","87","3","/Users/amaanyasin/subject-5213709 - 1.csv","legacy","Lentiform Loewenfeld","3.3.8","yes","yes","600bd7cfb6416f0113b04181","602110864497cf011d9c0822","0","j","NA","space","space","space","space","j","736","NA","1949","13174","15837","8046","736","2","legacy","1024","2","48000","-16","task","5213709","odd","NA","60595","64548","62599","243588","4350","33376","17535","244091","165197","243585","244091","243540","64548","244828","59064","243040","4301","219664","Lexical Decision Task","79","73634","92","yes","1024"
"2.664328519","0","4","plux","non-word","86.02150537634408","86.02150537634408","798.1290322580645","798.1290322580645","black","no","legacy","legacy","legacy","0","uniform","1","undefined","undefined","undefined","1","f","0","0","0","0","92","0","0","0","92","0","88","92","88","0","88","3","92","0","92","Sun Feb 28 00:27:01 2021","The main experiment item","yes","Lexical_Decision_Task.osexp","/Users/amaanyasin","no","Andale Mono","no","18","no","white","no","yes","576","legacy","88","88","3","/Users/amaanyasin/subject-5213709 - 1.csv","legacy","Lentiform Loewenfeld","3.3.8","yes","yes","600bd7cfb6416f0113b04181","602110864497cf011d9c0822","0","f","NA","space","space","space","space","f","592","NA","1949","13174","15837","8046","592","2","legacy","1024","2","48000","-16","task","5213709","odd","NA","60595","64548","62599","245380","4350","33376","17535","245883","165197","245378","245883","245332","64548","246476","59064","244832","4301","219664","Lexical Decision Task","80","74226","93","yes","1024"
"2.782472624","10.55","2","huge","word","86.17021276595744","86.17021276595744","796.531914893617","796.531914893617","black","no","legacy","legacy","legacy","0","uniform","1","undefined","undefined","undefined","1","j","0","0","0","0","93","0","0","0","93","0","89","93","89","0","89","3","93","0","93","Sun Feb 28 00:27:01 2021","The main experiment item","yes","Lexical_Decision_Task.osexp","/Users/amaanyasin","no","Andale Mono","no","18","no","white","no","yes","576","legacy","89","89","3","/Users/amaanyasin/subject-5213709 - 1.csv","legacy","Lentiform Loewenfeld","3.3.8","yes","yes","600bd7cfb6416f0113b04181","602110864497cf011d9c0822","0","j","NA","space","space","space","space","j","648","NA","1949","13174","15837","8046","648","2","legacy","1024","2","48000","-16","task","5213709","odd","NA","60595","64548","62599","247029","4350","33376","17535","247532","165197","247027","247532","246980","64548","248181","59064","246480","4301","219664","Lexical Decision Task","81","74874","94","yes","1024"
"3.269668578","0","7","trag","non-word","86.3157894736842","86.3157894736842","794.6315789473684","794.6315789473684","black","no","legacy","legacy","legacy","0","uniform","1","undefined","undefined","undefined","1","f","0","0","0","0","94","0","0","0","94","0","90","94","90","0","90","3","94","0","94","Sun Feb 28 00:27:01 2021","The main experiment item","yes","Lexical_Decision_Task.osexp","/Users/amaanyasin","no","Andale Mono","no","18","no","white","no","yes","576","legacy","90","90","3","/Users/amaanyasin/subject-5213709 - 1.csv","legacy","Lentiform Loewenfeld","3.3.8","yes","yes","600bd7cfb6416f0113b04181","602110864497cf011d9c0822","0","f","NA","space","space","space","space","f","616","NA","1949","13174","15837","8046","616","2","legacy","1024","2","48000","-16","task","5213709","odd","NA","60595","64548","62599","248732","4350","33376","17535","249235","165197","248730","249235","248684","64548","249852","59064","248184","4301","219664","Lexical Decision Task","82","75490","95","yes","1024"
"2.924968096","0","4","phim","non-word","86.45833333333333","86.45833333333333","793.0208333333334","793.0208333333334","black","no","legacy","legacy","legacy","0","uniform","1","undefined","undefined","undefined","1","f","0","0","0","0","95","0","0","0","95","0","91","95","91","0","91","3","95","0","95","Sun Feb 28 00:27:01 2021","The main experiment item","yes","Lexical_Decision_Task.osexp","/Users/amaanyasin","no","Andale Mono","no","18","no","white","no","yes","576","legacy","91","91","3","/Users/amaanyasin/subject-5213709 - 1.csv","legacy","Lentiform Loewenfeld","3.3.8","yes","yes","600bd7cfb6416f0113b04181","602110864497cf011d9c0822","0","f","NA","space","space","space","space","f","640","NA","1949","13174","15837","8046","640","2","legacy","1024","2","48000","-16","task","5213709","odd","NA","60595","64548","62599","250404","4350","33376","17535","250907","165197","250401","250907","250356","64548","251548","59064","249856","4301","219664","Lexical Decision Task","83","76130","96","yes","1024"
"2.714888338","0","3","brug","non-word","86.5979381443299","86.5979381443299","791.1134020618557","791.1134020618557","black","no","legacy","legacy","legacy","0","uniform","1","undefined","undefined","undefined","1","f","0","0","0","0","96","0","0","0","96","0","92","96","92","0","92","3","96","0","96","Sun Feb 28 00:27:01 2021","The main experiment item","yes","Lexical_Decision_Task.osexp","/Users/amaanyasin","no","Andale Mono","no","18","no","white","no","yes","576","legacy","92","92","3","/Users/amaanyasin/subject-5213709 - 1.csv","legacy","Lentiform Loewenfeld","3.3.8","yes","yes","600bd7cfb6416f0113b04181","602110864497cf011d9c0822","0","f","NA","space","space","space","space","f","608","NA","1949","13174","15837","8046","608","2","legacy","1024","2","48000","-16","task","5213709","odd","NA","60595","64548","62599","252101","4350","33376","17535","252604","165197","252098","252604","252052","64548","253213","59064","251552","4301","219664","Lexical Decision Task","84","76738","97","yes","1024"
"2.767650507","0","6","yolt","non-word","86.73469387755102","86.73469387755102","792.7551020408164","792.7551020408164","black","no","legacy","legacy","legacy","0","uniform","1","undefined","undefined","undefined","1","f","0","0","0","0","97","0","0","0","97","0","93","97","93","0","93","3","97","0","97","Sun Feb 28 00:27:01 2021","The main experiment item","yes","Lexical_Decision_Task.osexp","/Users/amaanyasin","no","Andale Mono","no","18","no","white","no","yes","576","legacy","93","93","3","/Users/amaanyasin/subject-5213709 - 1.csv","legacy","Lentiform Loewenfeld","3.3.8","yes","yes","600bd7cfb6416f0113b04181","602110864497cf011d9c0822","0","f","NA","space","space","space","space","f","952","NA","1949","13174","15837","8046","952","2","legacy","1024","2","48000","-16","task","5213709","odd","NA","60595","64548","62599","253764","4350","33376","17535","254267","165197","253762","254267","253716","64548","255220","59064","253216","4301","219664","Lexical Decision Task","85","77690","98","yes","1024"
"3.529815197","0","3","lerm","non-word","86.86868686868686","86.86868686868686","792.4848484848485","792.4848484848485","black","no","legacy","legacy","legacy","0","uniform","1","undefined","undefined","undefined","1","f","0","0","0","0","98","0","0","0","98","0","94","98","94","0","94","3","98","0","98","Sun Feb 28 00:27:01 2021","The main experiment item","yes","Lexical_Decision_Task.osexp","/Users/amaanyasin","no","Andale Mono","no","18","no","white","no","yes","576","legacy","94","94","3","/Users/amaanyasin/subject-5213709 - 1.csv","legacy","Lentiform Loewenfeld","3.3.8","yes","yes","600bd7cfb6416f0113b04181","602110864497cf011d9c0822","0","f","NA","space","space","space","space","f","766","NA","1949","13174","15837","8046","766","2","legacy","1024","2","48000","-16","task","5213709","odd","NA","60595","64548","62599","255774","4350","33376","17535","256277","165197","255771","256277","255725","64548","257045","59064","255225","4301","219664","Lexical Decision Task","86","78456","99","yes","1024"
"2.819763221","0","2","durp","non-word","87","87","791.13","791.13","black","no","legacy","legacy","legacy","0","uniform","1","undefined","undefined","undefined","1","f","0","0","0","0","99","0","0","0","99","0","95","99","95","0","95","3","99","0","99","Sun Feb 28 00:27:01 2021","The main experiment item","yes","Lexical_Decision_Task.osexp","/Users/amaanyasin","no","Andale Mono","no","18","no","white","no","yes","576","legacy","95","95","3","/Users/amaanyasin/subject-5213709 - 1.csv","legacy","Lentiform Loewenfeld","3.3.8","yes","yes","600bd7cfb6416f0113b04181","602110864497cf011d9c0822","0","f","NA","space","space","space","space","f","657","NA","1949","13174","15837","8046","657","2","legacy","1024","2","48000","-16","task","5213709","odd","NA","60595","64548","62599","257596","4350","33376","17535","258099","165197","257593","258099","257548","64548","258757","59064","257048","4301","219664","Lexical Decision Task","87","79113","100","yes","1024"
"2.793790385","5.67","9","swab","word","87.12871287128714","87.12871287128714","792.009900990099","792.009900990099","black","no","legacy","legacy","legacy","0","uniform","1","undefined","undefined","undefined","1","j","0","0","0","0","100","0","0","0","100","0","96","100","96","0","96","3","100","0","100","Sun Feb 28 00:27:01 2021","The main experiment item","yes","Lexical_Decision_Task.osexp","/Users/amaanyasin","no","Andale Mono","no","18","no","white","no","yes","576","legacy","96","96","3","/Users/amaanyasin/subject-5213709 - 1.csv","legacy","Lentiform Loewenfeld","3.3.8","yes","yes","600bd7cfb6416f0113b04181","602110864497cf011d9c0822","0","j","NA","space","space","space","space","j","880","NA","1949","13174","15837","8046","880","2","legacy","1024","2","48000","-16","task","5213709","odd","NA","60595","64548","62599","259308","4350","33376","17535","259811","165197","259306","259811","259260","64548","260692","59064","258760","4301","219664","Lexical Decision Task","88","79993","101","yes","1024"
