"Log_BG","Log_Freq_HAL","Ortho_N","Stimulus","Type","acc","accuracy","average_response_time","avg_rt","background","bidi","canvas_backend","clock_backend","color_backend","compensation","coordinates","correct","correct_Experimental_intro","correct_Introduction","correct_Practice_intro","correct_experimenter_kb","correct_response","count_End_Of_Experiment","count_End_Of_Practice","count_Experimental_Loop","count_Experimental_intro","count_Fixation","count_Introduction","count_Practice_Loop","count_Practice_intro","count_Stimulus","count_block_break_feedback","count_experimental_sequence","count_experimenter_kb","count_increment_trial_count","count_init_trial_count","count_logger","count_practice_sequence","count_right","count_task","count_wrong","datetime","description","disable_garbage_collection","experiment_file","experiment_path","font_bold","font_family","font_italic","font_size","font_underline","foreground","form_clicks","fullscreen","height","keyboard_backend","live_row","live_row_Experimental_Loop","live_row_Practice_Loop","logfile","mouse_backend","opensesame_codename","opensesame_version","osf_always_upload_data","osf_always_upload_experiment","osf_datanode_id","osf_id","repeat_cycle","response","response_End_Of_Experiment","response_Experimental_intro","response_Introduction","response_Practice_intro","response_block_break_feedback","response_experimenter_kb","response_time","response_time_End_Of_Experiment","response_time_Experimental_intro","response_time_Introduction","response_time_Practice_intro","response_time_block_break_feedback","response_time_experimenter_kb","round_decimals","sampler_backend","sound_buf_size","sound_channels","sound_freq","sound_sample_size","start","subject_nr","subject_parity","time_End_Of_Experiment","time_End_Of_Practice","time_Experimental_Loop","time_Experimental_intro","time_Fixation","time_Introduction","time_Practice_Loop","time_Practice_intro","time_Stimulus","time_block_break_feedback","time_experimental_sequence","time_experimenter_kb","time_increment_trial_count","time_init_trial_count","time_logger","time_practice_sequence","time_right","time_task","time_wrong","title","total_correct","total_response_time","total_responses","uniform_coordinates","width"
"2.812467698","0","7","hafe","non-word","100","100","967.6","967.6","black","no","legacy","legacy","legacy","0","uniform","1","undefined","undefined","undefined","1","f","0","0","0","0","4","0","0","0","4","NA","0","4","0","0","0","3","4","0","4","Wed Mar 10 01:55:22 2021","The main experiment item","yes","Lexical_Decision_Task.osexp","C:/Users/Navleen","no","Andale Mono","no","18","no","white","no","yes","576","legacy","0","0","3","C:/Users/Navleen/Documents/open sesame/subject-5202157.csv","legacy","Lentiform Loewenfeld","3.3.8","yes","yes","600bd7cfb6416f0113b04181","602110864497cf011d9c0822","0","f","NA","j","space","space","NA","f","1029","NA","3108","11231","5272","NA","1029","2","legacy","1024","2","48000","-16","task","5202157","odd","NA","28467","33579","30470","33628","3732","20239","14967","34131","NA","33626","34132","NA","33579","35162","26644","27938","3705","NA","Lexical Decision Task","5","4838","5","yes","1024"
"3.105055783","0","2","norp","non-word","100","100","1048.8333333333333","1048.8333333333333","black","no","legacy","legacy","legacy","0","uniform","1","undefined","undefined","undefined","1","f","0","0","0","0","5","0","0","0","5","NA","1","5","1","0","1","3","5","0","5","Wed Mar 10 01:55:22 2021","The main experiment item","yes","Lexical_Decision_Task.osexp","C:/Users/Navleen","no","Andale Mono","no","18","no","white","no","yes","576","legacy","1","1","3","C:/Users/Navleen/Documents/open sesame/subject-5202157.csv","legacy","Lentiform Loewenfeld","3.3.8","yes","yes","600bd7cfb6416f0113b04181","602110864497cf011d9c0822","0","f","NA","j","space","space","NA","f","1455","NA","3108","11231","5272","NA","1455","2","legacy","1024","2","48000","-16","task","5202157","odd","NA","28467","33579","30470","35781","3732","20239","14967","36284","NA","35780","36284","35684","33579","37741","26644","35184","3705","NA","Lexical Decision Task","6","6293","6","yes","1024"
"2.893578687","8.69","3","surf","word","100","100","992.4285714285714","992.4285714285714","black","no","legacy","legacy","legacy","0","uniform","1","undefined","undefined","undefined","1","j","0","0","0","0","6","0","0","0","6","NA","2","6","2","0","2","3","6","0","6","Wed Mar 10 01:55:22 2021","The main experiment item","yes","Lexical_Decision_Task.osexp","C:/Users/Navleen","no","Andale Mono","no","18","no","white","no","yes","576","legacy","2","2","3","C:/Users/Navleen/Documents/open sesame/subject-5202157.csv","legacy","Lentiform Loewenfeld","3.3.8","yes","yes","600bd7cfb6416f0113b04181","602110864497cf011d9c0822","0","j","NA","j","space","space","NA","j","654","NA","3108","11231","5272","NA","654","2","legacy","1024","2","48000","-16","task","5202157","odd","NA","28467","33579","30470","38322","3732","20239","14967","38823","NA","38321","38823","38256","33579","39478","26644","37756","3705","NA","Lexical Decision Task","7","6947","7","yes","1024"
"2.807758206","6.25","4","hurl","word","100","100","978.25","978.25","black","no","legacy","legacy","legacy","0","uniform","1","undefined","undefined","undefined","1","j","0","0","0","0","7","0","0","0","7","NA","3","7","3","0","3","3","7","0","7","Wed Mar 10 01:55:22 2021","The main experiment item","yes","Lexical_Decision_Task.osexp","C:/Users/Navleen","no","Andale Mono","no","18","no","white","no","yes","576","legacy","3","3","3","C:/Users/Navleen/Documents/open sesame/subject-5202157.csv","legacy","Lentiform Loewenfeld","3.3.8","yes","yes","600bd7cfb6416f0113b04181","602110864497cf011d9c0822","0","j","NA","j","space","space","NA","j","879","NA","3108","11231","5272","NA","879","2","legacy","1024","2","48000","-16","task","5202157","odd","NA","28467","33579","30470","40060","3732","20239","14967","40563","NA","40058","40564","39993","33579","41445","26644","39493","3705","NA","Lexical Decision Task","8","7826","8","yes","1024"
"3.302475237","0","7","leel","non-word","100","100","970.6666666666666","970.6666666666666","black","no","legacy","legacy","legacy","0","uniform","1","undefined","undefined","undefined","1","f","0","0","0","0","8","0","0","0","8","NA","4","8","4","0","4","3","8","0","8","Wed Mar 10 01:55:22 2021","The main experiment item","yes","Lexical_Decision_Task.osexp","C:/Users/Navleen","no","Andale Mono","no","18","no","white","no","yes","576","legacy","4","4","3","C:/Users/Navleen/Documents/open sesame/subject-5202157.csv","legacy","Lentiform Loewenfeld","3.3.8","yes","yes","600bd7cfb6416f0113b04181","602110864497cf011d9c0822","0","f","NA","j","space","space","NA","f","910","NA","3108","11231","5272","NA","910","2","legacy","1024","2","48000","-16","task","5202157","odd","NA","28467","33579","30470","42028","3732","20239","14967","42533","NA","42027","42533","41959","33579","43445","26644","41459","3705","NA","Lexical Decision Task","9","8736","9","yes","1024"
"3.121778632","0","9","sark","non-word","100","100","957.7","957.7","black","no","legacy","legacy","legacy","0","uniform","1","undefined","undefined","undefined","1","f","0","0","0","0","9","0","0","0","9","NA","5","9","5","0","5","3","9","0","9","Wed Mar 10 01:55:22 2021","The main experiment item","yes","Lexical_Decision_Task.osexp","C:/Users/Navleen","no","Andale Mono","no","18","no","white","no","yes","576","legacy","5","5","3","C:/Users/Navleen/Documents/open sesame/subject-5202157.csv","legacy","Lentiform Loewenfeld","3.3.8","yes","yes","600bd7cfb6416f0113b04181","602110864497cf011d9c0822","0","f","NA","j","space","space","NA","f","841","NA","3108","11231","5272","NA","841","2","legacy","1024","2","48000","-16","task","5202157","odd","NA","28467","33579","30470","44032","3732","20239","14967","44535","NA","44031","44535","43959","33579","45377","26644","43459","3705","NA","Lexical Decision Task","10","9577","10","yes","1024"
"2.937852093","0","7","bamp","non-word","100","100","949.1818181818181","949.1818181818181","black","no","legacy","legacy","legacy","0","uniform","1","undefined","undefined","undefined","1","f","0","0","0","0","10","0","0","0","10","NA","6","10","6","0","6","3","10","0","10","Wed Mar 10 01:55:22 2021","The main experiment item","yes","Lexical_Decision_Task.osexp","C:/Users/Navleen","no","Andale Mono","no","18","no","white","no","yes","576","legacy","6","6","3","C:/Users/Navleen/Documents/open sesame/subject-5202157.csv","legacy","Lentiform Loewenfeld","3.3.8","yes","yes","600bd7cfb6416f0113b04181","602110864497cf011d9c0822","0","f","NA","j","space","space","NA","f","864","NA","3108","11231","5272","NA","864","2","legacy","1024","2","48000","-16","task","5202157","odd","NA","28467","33579","30470","45963","3732","20239","14967","46465","NA","45962","46465","45893","33579","47330","26644","45393","3705","NA","Lexical Decision Task","11","10441","11","yes","1024"
"2.839268497","0","8","maft","non-word","100","100","948.75","948.75","black","no","legacy","legacy","legacy","0","uniform","1","undefined","undefined","undefined","1","f","0","0","0","0","11","0","0","0","11","NA","7","11","7","0","7","3","11","0","11","Wed Mar 10 01:55:22 2021","The main experiment item","yes","Lexical_Decision_Task.osexp","C:/Users/Navleen","no","Andale Mono","no","18","no","white","no","yes","576","legacy","7","7","3","C:/Users/Navleen/Documents/open sesame/subject-5202157.csv","legacy","Lentiform Loewenfeld","3.3.8","yes","yes","600bd7cfb6416f0113b04181","602110864497cf011d9c0822","0","f","NA","j","space","space","NA","f","944","NA","3108","11231","5272","NA","944","2","legacy","1024","2","48000","-16","task","5202157","odd","NA","28467","33579","30470","47909","3732","20239","14967","48412","NA","47907","48412","47845","33579","49357","26644","47345","3705","NA","Lexical Decision Task","12","11385","12","yes","1024"
"3.299579929","0","2","flis","non-word","100","100","932.8461538461538","932.8461538461538","black","no","legacy","legacy","legacy","0","uniform","1","undefined","undefined","undefined","1","f","0","0","0","0","12","0","0","0","12","NA","8","12","8","0","8","3","12","0","12","Wed Mar 10 01:55:22 2021","The main experiment item","yes","Lexical_Decision_Task.osexp","C:/Users/Navleen","no","Andale Mono","no","18","no","white","no","yes","576","legacy","8","8","3","C:/Users/Navleen/Documents/open sesame/subject-5202157.csv","legacy","Lentiform Loewenfeld","3.3.8","yes","yes","600bd7cfb6416f0113b04181","602110864497cf011d9c0822","0","f","NA","j","space","space","NA","f","742","NA","3108","11231","5272","NA","742","2","legacy","1024","2","48000","-16","task","5202157","odd","NA","28467","33579","30470","49934","3732","20239","14967","50437","NA","49933","50438","49873","33579","51181","26644","49372","3705","NA","Lexical Decision Task","13","12127","13","yes","1024"
"2.705007959","6.01","4","wept","word","100","100","923.1428571428571","923.1428571428571","black","no","legacy","legacy","legacy","0","uniform","1","undefined","undefined","undefined","1","j","0","0","0","0","13","0","0","0","13","NA","9","13","9","0","9","3","13","0","13","Wed Mar 10 01:55:22 2021","The main experiment item","yes","Lexical_Decision_Task.osexp","C:/Users/Navleen","no","Andale Mono","no","18","no","white","no","yes","576","legacy","9","9","3","C:/Users/Navleen/Documents/open sesame/subject-5202157.csv","legacy","Lentiform Loewenfeld","3.3.8","yes","yes","600bd7cfb6416f0113b04181","602110864497cf011d9c0822","0","j","NA","j","space","space","NA","j","797","NA","3108","11231","5272","NA","797","2","legacy","1024","2","48000","-16","task","5202157","odd","NA","28467","33579","30470","51759","3732","20239","14967","52260","NA","51757","52260","51697","33579","53059","26644","51197","3705","NA","Lexical Decision Task","14","12924","14","yes","1024"
"3.347850856","10.51","2","rich","word","100","100","910.1333333333333","910.1333333333333","black","no","legacy","legacy","legacy","0","uniform","1","undefined","undefined","undefined","1","j","0","0","0","0","14","0","0","0","14","NA","10","14","10","0","10","3","14","0","14","Wed Mar 10 01:55:22 2021","The main experiment item","yes","Lexical_Decision_Task.osexp","C:/Users/Navleen","no","Andale Mono","no","18","no","white","no","yes","576","legacy","10","10","3","C:/Users/Navleen/Documents/open sesame/subject-5202157.csv","legacy","Lentiform Loewenfeld","3.3.8","yes","yes","600bd7cfb6416f0113b04181","602110864497cf011d9c0822","0","j","NA","j","space","space","NA","j","728","NA","3108","11231","5272","NA","728","2","legacy","1024","2","48000","-16","task","5202157","odd","NA","28467","33579","30470","53636","3732","20239","14967","54137","NA","53634","54137","53573","33579","54866","26644","53073","3705","NA","Lexical Decision Task","15","13652","15","yes","1024"
"2.771097306","0","9","jold","non-word","100","100","923.375","923.375","black","no","legacy","legacy","legacy","0","uniform","1","undefined","undefined","undefined","1","f","0","0","0","0","15","0","0","0","15","NA","11","15","11","0","11","3","15","0","15","Wed Mar 10 01:55:22 2021","The main experiment item","yes","Lexical_Decision_Task.osexp","C:/Users/Navleen","no","Andale Mono","no","18","no","white","no","yes","576","legacy","11","11","3","C:/Users/Navleen/Documents/open sesame/subject-5202157.csv","legacy","Lentiform Loewenfeld","3.3.8","yes","yes","600bd7cfb6416f0113b04181","602110864497cf011d9c0822","0","f","NA","j","space","space","NA","f","1122","NA","3108","11231","5272","NA","1122","2","legacy","1024","2","48000","-16","task","5202157","odd","NA","28467","33579","30470","55449","3732","20239","14967","55952","NA","55447","55952","55381","33579","57075","26644","54881","3705","NA","Lexical Decision Task","16","14774","16","yes","1024"
"2.966923697","5.4","2","fume","word","100","100","950.4117647058823","950.4117647058823","black","no","legacy","legacy","legacy","0","uniform","1","undefined","undefined","undefined","1","j","0","0","0","0","16","0","0","0","16","NA","12","16","12","0","12","3","16","0","16","Wed Mar 10 01:55:22 2021","The main experiment item","yes","Lexical_Decision_Task.osexp","C:/Users/Navleen","no","Andale Mono","no","18","no","white","no","yes","576","legacy","12","12","3","C:/Users/Navleen/Documents/open sesame/subject-5202157.csv","legacy","Lentiform Loewenfeld","3.3.8","yes","yes","600bd7cfb6416f0113b04181","602110864497cf011d9c0822","0","j","NA","j","space","space","NA","j","1383","NA","3108","11231","5272","NA","1383","2","legacy","1024","2","48000","-16","task","5202157","odd","NA","28467","33579","30470","57651","3732","20239","14967","58154","NA","57649","58155","57592","33579","59539","26644","57091","3705","NA","Lexical Decision Task","17","16157","17","yes","1024"
"3.230789326","5.38","5","prim","word","94.44444444444444","94.44444444444444","966","966","black","no","legacy","legacy","legacy","0","uniform","0","undefined","undefined","undefined","0","j","0","0","0","0","17","0","0","0","17","NA","13","17","13","0","13","3","17","0","17","Wed Mar 10 01:55:22 2021","The main experiment item","yes","Lexical_Decision_Task.osexp","C:/Users/Navleen","no","Andale Mono","no","18","no","white","no","yes","576","legacy","13","13","3","C:/Users/Navleen/Documents/open sesame/subject-5202157.csv","legacy","Lentiform Loewenfeld","3.3.8","yes","yes","600bd7cfb6416f0113b04181","602110864497cf011d9c0822","0","f","NA","j","space","space","NA","f","1231","NA","3108","11231","5272","NA","1231","2","legacy","1024","2","48000","-16","task","5202157","odd","NA","28467","33579","30470","60122","3732","20239","14967","60623","NA","60121","60623","60053","33579","61855","26644","59553","3705","NA","Lexical Decision Task","17","17388","18","yes","1024"
"2.895974732","6.65","5","sift","word","94.73684210526316","94.73684210526316","979.1052631578947","979.1052631578947","black","no","legacy","legacy","legacy","0","uniform","1","undefined","undefined","undefined","1","j","0","0","0","0","18","0","0","0","18","NA","14","18","14","0","14","3","18","0","18","Wed Mar 10 01:55:22 2021","The main experiment item","yes","Lexical_Decision_Task.osexp","C:/Users/Navleen","no","Andale Mono","no","18","no","white","no","yes","576","legacy","14","14","3","C:/Users/Navleen/Documents/open sesame/subject-5202157.csv","legacy","Lentiform Loewenfeld","3.3.8","yes","yes","600bd7cfb6416f0113b04181","602110864497cf011d9c0822","0","j","NA","j","space","space","NA","j","1215","NA","3108","11231","5272","NA","1215","2","legacy","1024","2","48000","-16","task","5202157","odd","NA","28467","33579","30470","63441","3732","20239","14967","63944","NA","63440","63944","63370","33579","65161","26644","59553","3705","61870","Lexical Decision Task","18","18603","19","yes","1024"
"3.218535505","7.85","7","goat","word","95","95","958.4","958.4","black","no","legacy","legacy","legacy","0","uniform","1","undefined","undefined","undefined","1","j","0","0","0","0","19","0","0","0","19","NA","15","19","15","0","15","3","19","0","19","Wed Mar 10 01:55:22 2021","The main experiment item","yes","Lexical_Decision_Task.osexp","C:/Users/Navleen","no","Andale Mono","no","18","no","white","no","yes","576","legacy","15","15","3","C:/Users/Navleen/Documents/open sesame/subject-5202157.csv","legacy","Lentiform Loewenfeld","3.3.8","yes","yes","600bd7cfb6416f0113b04181","602110864497cf011d9c0822","0","j","NA","j","space","space","NA","j","565","NA","3108","11231","5272","NA","565","2","legacy","1024","2","48000","-16","task","5202157","odd","NA","28467","33579","30470","65738","3732","20239","14967","66239","NA","65737","66239","65678","33579","66805","26644","65177","3705","61870","Lexical Decision Task","19","19168","20","yes","1024"
"3.495914186","0","4","peng","non-word","90.47619047619048","90.47619047619048","966.3333333333334","966.3333333333334","black","no","legacy","legacy","legacy","0","uniform","0","undefined","undefined","undefined","0","f","0","0","0","0","20","0","0","0","20","NA","16","20","16","0","16","3","20","0","20","Wed Mar 10 01:55:22 2021","The main experiment item","yes","Lexical_Decision_Task.osexp","C:/Users/Navleen","no","Andale Mono","no","18","no","white","no","yes","576","legacy","16","16","3","C:/Users/Navleen/Documents/open sesame/subject-5202157.csv","legacy","Lentiform Loewenfeld","3.3.8","yes","yes","600bd7cfb6416f0113b04181","602110864497cf011d9c0822","0","j","NA","j","space","space","NA","j","1125","NA","3108","11231","5272","NA","1125","2","legacy","1024","2","48000","-16","task","5202157","odd","NA","28467","33579","30470","67392","3732","20239","14967","67893","NA","67390","67893","67321","33579","69020","26644","66821","3705","61870","Lexical Decision Task","19","20293","21","yes","1024"
"2.980911938","7.15","7","hoop","word","90.9090909090909","90.9090909090909","961.0909090909091","961.0909090909091","black","no","legacy","legacy","legacy","0","uniform","1","undefined","undefined","undefined","1","j","0","0","0","0","21","0","0","0","21","NA","17","21","17","0","17","3","21","0","21","Wed Mar 10 01:55:22 2021","The main experiment item","yes","Lexical_Decision_Task.osexp","C:/Users/Navleen","no","Andale Mono","no","18","no","white","no","yes","576","legacy","17","17","3","C:/Users/Navleen/Documents/open sesame/subject-5202157.csv","legacy","Lentiform Loewenfeld","3.3.8","yes","yes","600bd7cfb6416f0113b04181","602110864497cf011d9c0822","0","j","NA","j","space","space","NA","j","851","NA","3108","11231","5272","NA","851","2","legacy","1024","2","48000","-16","task","5202157","odd","NA","28467","33579","30470","70611","3732","20239","14967","71114","NA","70609","71114","70536","33579","71967","26644","66821","3705","69036","Lexical Decision Task","20","21144","22","yes","1024"
"2.907588697","8.91","9","mood","word","91.30434782608695","91.30434782608695","947.4782608695652","947.4782608695652","black","no","legacy","legacy","legacy","0","uniform","1","undefined","undefined","undefined","1","j","0","0","0","0","22","0","0","0","22","NA","18","22","18","0","18","3","22","0","22","Wed Mar 10 01:55:22 2021","The main experiment item","yes","Lexical_Decision_Task.osexp","C:/Users/Navleen","no","Andale Mono","no","18","no","white","no","yes","576","legacy","18","18","3","C:/Users/Navleen/Documents/open sesame/subject-5202157.csv","legacy","Lentiform Loewenfeld","3.3.8","yes","yes","600bd7cfb6416f0113b04181","602110864497cf011d9c0822","0","j","NA","j","space","space","NA","j","648","NA","3108","11231","5272","NA","648","2","legacy","1024","2","48000","-16","task","5202157","odd","NA","28467","33579","30470","72553","3732","20239","14967","73057","NA","72552","73057","72482","33579","73707","26644","71982","3705","69036","Lexical Decision Task","21","21792","23","yes","1024"
"3.197740804","6.74","3","ache","word","91.66666666666667","91.66666666666667","948.125","948.125","black","no","legacy","legacy","legacy","0","uniform","1","undefined","undefined","undefined","1","j","0","0","0","0","23","0","0","0","23","NA","19","23","19","0","19","3","23","0","23","Wed Mar 10 01:55:22 2021","The main experiment item","yes","Lexical_Decision_Task.osexp","C:/Users/Navleen","no","Andale Mono","no","18","no","white","no","yes","576","legacy","19","19","3","C:/Users/Navleen/Documents/open sesame/subject-5202157.csv","legacy","Lentiform Loewenfeld","3.3.8","yes","yes","600bd7cfb6416f0113b04181","602110864497cf011d9c0822","0","j","NA","j","space","space","NA","j","963","NA","3108","11231","5272","NA","963","2","legacy","1024","2","48000","-16","task","5202157","odd","NA","28467","33579","30470","74292","3732","20239","14967","74795","NA","74290","74795","74222","33579","75759","26644","73722","3705","69036","Lexical Decision Task","22","22755","24","yes","1024"
"3.16326079","0","5","parg","non-word","92","92","947.84","947.84","black","no","legacy","legacy","legacy","0","uniform","1","undefined","undefined","undefined","1","f","0","0","0","0","24","0","0","0","24","NA","20","24","20","0","20","3","24","0","24","Wed Mar 10 01:55:22 2021","The main experiment item","yes","Lexical_Decision_Task.osexp","C:/Users/Navleen","no","Andale Mono","no","18","no","white","no","yes","576","legacy","20","20","3","C:/Users/Navleen/Documents/open sesame/subject-5202157.csv","legacy","Lentiform Loewenfeld","3.3.8","yes","yes","600bd7cfb6416f0113b04181","602110864497cf011d9c0822","0","f","NA","j","space","space","NA","f","941","NA","3108","11231","5272","NA","941","2","legacy","1024","2","48000","-16","task","5202157","odd","NA","28467","33579","30470","76335","3732","20239","14967","76836","NA","76333","76836","76275","33579","77778","26644","75775","3705","69036","Lexical Decision Task","23","23696","25","yes","1024"
"2.80048796","0","8","pife","non-word","92.3076923076923","92.3076923076923","976.4615384615385","976.4615384615385","black","no","legacy","legacy","legacy","0","uniform","1","undefined","undefined","undefined","1","f","0","0","0","0","25","0","0","0","25","NA","21","25","21","0","21","3","25","0","25","Wed Mar 10 01:55:22 2021","The main experiment item","yes","Lexical_Decision_Task.osexp","C:/Users/Navleen","no","Andale Mono","no","18","no","white","no","yes","576","legacy","21","21","3","C:/Users/Navleen/Documents/open sesame/subject-5202157.csv","legacy","Lentiform Loewenfeld","3.3.8","yes","yes","600bd7cfb6416f0113b04181","602110864497cf011d9c0822","0","f","NA","j","space","space","NA","f","1692","NA","3108","11231","5272","NA","1692","2","legacy","1024","2","48000","-16","task","5202157","odd","NA","28467","33579","30470","78362","3732","20239","14967","78865","NA","78360","78865","78293","33579","80558","26644","77793","3705","69036","Lexical Decision Task","24","25388","26","yes","1024"
"2.845304797","0","6","buct","non-word","92.5925925925926","92.5925925925926","990.3333333333334","990.3333333333334","black","no","legacy","legacy","legacy","0","uniform","1","undefined","undefined","undefined","1","f","0","0","0","0","26","0","0","0","26","NA","22","26","22","0","22","3","26","0","26","Wed Mar 10 01:55:22 2021","The main experiment item","yes","Lexical_Decision_Task.osexp","C:/Users/Navleen","no","Andale Mono","no","18","no","white","no","yes","576","legacy","22","22","3","C:/Users/Navleen/Documents/open sesame/subject-5202157.csv","legacy","Lentiform Loewenfeld","3.3.8","yes","yes","600bd7cfb6416f0113b04181","602110864497cf011d9c0822","0","f","NA","j","space","space","NA","f","1351","NA","3108","11231","5272","NA","1351","2","legacy","1024","2","48000","-16","task","5202157","odd","NA","28467","33579","30470","81135","3732","20239","14967","81636","NA","81134","81636","81075","33579","82988","26644","80575","3705","69036","Lexical Decision Task","25","26739","27","yes","1024"
"2.899638141","0","3","hapt","non-word","92.85714285714286","92.85714285714286","995.9642857142857","995.9642857142857","black","no","legacy","legacy","legacy","0","uniform","1","undefined","undefined","undefined","1","f","0","0","0","0","27","0","0","0","27","NA","23","27","23","0","23","3","27","0","27","Wed Mar 10 01:55:22 2021","The main experiment item","yes","Lexical_Decision_Task.osexp","C:/Users/Navleen","no","Andale Mono","no","18","no","white","no","yes","576","legacy","23","23","3","C:/Users/Navleen/Documents/open sesame/subject-5202157.csv","legacy","Lentiform Loewenfeld","3.3.8","yes","yes","600bd7cfb6416f0113b04181","602110864497cf011d9c0822","0","f","NA","j","space","space","NA","f","1148","NA","3108","11231","5272","NA","1148","2","legacy","1024","2","48000","-16","task","5202157","odd","NA","28467","33579","30470","83574","3732","20239","14967","84075","NA","83573","84075","83504","33579","85225","26644","83004","3705","69036","Lexical Decision Task","26","27887","28","yes","1024"
"2.813801082","5.47","7","nook","word","93.10344827586206","93.10344827586206","1011.6551724137931","1011.6551724137931","black","no","legacy","legacy","legacy","0","uniform","1","undefined","undefined","undefined","1","j","0","0","0","0","28","0","0","0","28","NA","24","28","24","0","24","3","28","0","28","Wed Mar 10 01:55:22 2021","The main experiment item","yes","Lexical_Decision_Task.osexp","C:/Users/Navleen","no","Andale Mono","no","18","no","white","no","yes","576","legacy","24","24","3","C:/Users/Navleen/Documents/open sesame/subject-5202157.csv","legacy","Lentiform Loewenfeld","3.3.8","yes","yes","600bd7cfb6416f0113b04181","602110864497cf011d9c0822","0","j","NA","j","space","space","NA","j","1451","NA","3108","11231","5272","NA","1451","2","legacy","1024","2","48000","-16","task","5202157","odd","NA","28467","33579","30470","85800","3732","20239","14967","86301","NA","85798","86301","85739","33579","87753","26644","85239","3705","69036","Lexical Decision Task","27","29338","29","yes","1024"
"3.20996159","0","4","clee","non-word","93.33333333333333","93.33333333333333","1017.6","1017.6","black","no","legacy","legacy","legacy","0","uniform","1","undefined","undefined","undefined","1","f","0","0","0","0","29","0","0","0","29","NA","25","29","25","0","25","3","29","0","29","Wed Mar 10 01:55:22 2021","The main experiment item","yes","Lexical_Decision_Task.osexp","C:/Users/Navleen","no","Andale Mono","no","18","no","white","no","yes","576","legacy","25","25","3","C:/Users/Navleen/Documents/open sesame/subject-5202157.csv","legacy","Lentiform Loewenfeld","3.3.8","yes","yes","600bd7cfb6416f0113b04181","602110864497cf011d9c0822","0","f","NA","j","space","space","NA","f","1190","NA","3108","11231","5272","NA","1190","2","legacy","1024","2","48000","-16","task","5202157","odd","NA","28467","33579","30470","88337","3732","20239","14967","88840","NA","88336","88841","88270","33579","90032","26644","87770","3705","69036","Lexical Decision Task","28","30528","30","yes","1024"
"2.68604012","0","3","mulb","non-word","93.54838709677419","93.54838709677419","1009.258064516129","1009.258064516129","black","no","legacy","legacy","legacy","0","uniform","1","undefined","undefined","undefined","1","f","0","0","0","0","30","0","0","0","30","NA","26","30","26","0","26","3","30","0","30","Wed Mar 10 01:55:22 2021","The main experiment item","yes","Lexical_Decision_Task.osexp","C:/Users/Navleen","no","Andale Mono","no","18","no","white","no","yes","576","legacy","26","26","3","C:/Users/Navleen/Documents/open sesame/subject-5202157.csv","legacy","Lentiform Loewenfeld","3.3.8","yes","yes","600bd7cfb6416f0113b04181","602110864497cf011d9c0822","0","f","NA","j","space","space","NA","f","759","NA","3108","11231","5272","NA","759","2","legacy","1024","2","48000","-16","task","5202157","odd","NA","28467","33579","30470","90608","3732","20239","14967","91111","NA","90606","91111","90548","33579","91872","26644","90048","3705","69036","Lexical Decision Task","29","31287","31","yes","1024"
"2.95456409","0","4","taud","non-word","93.75","93.75","1006.03125","1006.03125","black","no","legacy","legacy","legacy","0","uniform","1","undefined","undefined","undefined","1","f","0","0","0","0","31","0","0","0","31","NA","27","31","27","0","27","3","31","0","31","Wed Mar 10 01:55:22 2021","The main experiment item","yes","Lexical_Decision_Task.osexp","C:/Users/Navleen","no","Andale Mono","no","18","no","white","no","yes","576","legacy","27","27","3","C:/Users/Navleen/Documents/open sesame/subject-5202157.csv","legacy","Lentiform Loewenfeld","3.3.8","yes","yes","600bd7cfb6416f0113b04181","602110864497cf011d9c0822","0","f","NA","j","space","space","NA","f","906","NA","3108","11231","5272","NA","906","2","legacy","1024","2","48000","-16","task","5202157","odd","NA","28467","33579","30470","92449","3732","20239","14967","92950","NA","92447","92950","92388","33579","93857","26644","91888","3705","69036","Lexical Decision Task","30","32193","32","yes","1024"
"3.145920145","8.51","8","flew","word","93.93939393939394","93.93939393939394","1005.060606060606","1005.060606060606","black","no","legacy","legacy","legacy","0","uniform","1","undefined","undefined","undefined","1","j","0","0","0","0","32","0","0","0","32","NA","28","32","28","0","28","3","32","0","32","Wed Mar 10 01:55:22 2021","The main experiment item","yes","Lexical_Decision_Task.osexp","C:/Users/Navleen","no","Andale Mono","no","18","no","white","no","yes","576","legacy","28","28","3","C:/Users/Navleen/Documents/open sesame/subject-5202157.csv","legacy","Lentiform Loewenfeld","3.3.8","yes","yes","600bd7cfb6416f0113b04181","602110864497cf011d9c0822","0","j","NA","j","space","space","NA","j","974","NA","3108","11231","5272","NA","974","2","legacy","1024","2","48000","-16","task","5202157","odd","NA","28467","33579","30470","94434","3732","20239","14967","94937","NA","94432","94937","94375","33579","95912","26644","93875","3705","69036","Lexical Decision Task","31","33167","33","yes","1024"
"3.20871002","7.15","8","cram","word","94.11764705882354","94.11764705882354","1005.5294117647059","1005.5294117647059","black","no","legacy","legacy","legacy","0","uniform","1","undefined","undefined","undefined","1","j","0","0","0","0","33","0","0","0","33","NA","29","33","29","0","29","3","33","0","33","Wed Mar 10 01:55:22 2021","The main experiment item","yes","Lexical_Decision_Task.osexp","C:/Users/Navleen","no","Andale Mono","no","18","no","white","no","yes","576","legacy","29","29","3","C:/Users/Navleen/Documents/open sesame/subject-5202157.csv","legacy","Lentiform Loewenfeld","3.3.8","yes","yes","600bd7cfb6416f0113b04181","602110864497cf011d9c0822","0","j","NA","j","space","space","NA","j","1021","NA","3108","11231","5272","NA","1021","2","legacy","1024","2","48000","-16","task","5202157","odd","NA","28467","33579","30470","96487","3732","20239","14967","96990","NA","96486","96991","96427","33579","98013","26644","95927","3705","69036","Lexical Decision Task","32","34188","34","yes","1024"
"3.705778213","0","6","stin","non-word","94.28571428571429","94.28571428571429","1003.9714285714285","1003.9714285714285","black","no","legacy","legacy","legacy","0","uniform","1","undefined","undefined","undefined","1","f","0","0","0","0","34","0","0","0","34","NA","30","34","30","0","30","3","34","0","34","Wed Mar 10 01:55:22 2021","The main experiment item","yes","Lexical_Decision_Task.osexp","C:/Users/Navleen","no","Andale Mono","no","18","no","white","no","yes","576","legacy","30","30","3","C:/Users/Navleen/Documents/open sesame/subject-5202157.csv","legacy","Lentiform Loewenfeld","3.3.8","yes","yes","600bd7cfb6416f0113b04181","602110864497cf011d9c0822","0","f","NA","j","space","space","NA","f","951","NA","3108","11231","5272","NA","951","2","legacy","1024","2","48000","-16","task","5202157","odd","NA","28467","33579","30470","98598","3732","20239","14967","99099","NA","98596","99099","98529","33579","100051","26644","98029","3705","69036","Lexical Decision Task","33","35139","35","yes","1024"
"2.821076612","0","4","lult","non-word","94.44444444444444","94.44444444444444","1014.6944444444445","1014.6944444444445","black","no","legacy","legacy","legacy","0","uniform","1","undefined","undefined","undefined","1","f","0","0","0","0","35","0","0","0","35","NA","31","35","31","0","31","3","35","0","35","Wed Mar 10 01:55:22 2021","The main experiment item","yes","Lexical_Decision_Task.osexp","C:/Users/Navleen","no","Andale Mono","no","18","no","white","no","yes","576","legacy","31","31","3","C:/Users/Navleen/Documents/open sesame/subject-5202157.csv","legacy","Lentiform Loewenfeld","3.3.8","yes","yes","600bd7cfb6416f0113b04181","602110864497cf011d9c0822","0","f","NA","j","space","space","NA","f","1390","NA","3108","11231","5272","NA","1390","2","legacy","1024","2","48000","-16","task","5202157","odd","NA","28467","33579","30470","100623","3732","20239","14967","101126","NA","100622","101127","100565","33579","102519","26644","100065","3705","69036","Lexical Decision Task","34","36529","36","yes","1024"
"2.782472624","10.55","2","huge","word","94.5945945945946","94.5945945945946","1010.7027027027027","1010.7027027027027","black","no","legacy","legacy","legacy","0","uniform","1","undefined","undefined","undefined","1","j","0","0","0","0","36","0","0","0","36","NA","32","36","32","0","32","3","36","0","36","Wed Mar 10 01:55:22 2021","The main experiment item","yes","Lexical_Decision_Task.osexp","C:/Users/Navleen","no","Andale Mono","no","18","no","white","no","yes","576","legacy","32","32","3","C:/Users/Navleen/Documents/open sesame/subject-5202157.csv","legacy","Lentiform Loewenfeld","3.3.8","yes","yes","600bd7cfb6416f0113b04181","602110864497cf011d9c0822","0","j","NA","j","space","space","NA","j","867","NA","3108","11231","5272","NA","867","2","legacy","1024","2","48000","-16","task","5202157","odd","NA","28467","33579","30470","103105","3732","20239","14967","103606","NA","103103","103606","103036","33579","104474","26644","102536","3705","69036","Lexical Decision Task","35","37396","37","yes","1024"
"3.094121596","0","8","fode","non-word","94.73684210526316","94.73684210526316","1006.7105263157895","1006.7105263157895","black","no","legacy","legacy","legacy","0","uniform","1","undefined","undefined","undefined","1","f","0","0","0","0","37","0","0","0","37","NA","33","37","33","0","33","3","37","0","37","Wed Mar 10 01:55:22 2021","The main experiment item","yes","Lexical_Decision_Task.osexp","C:/Users/Navleen","no","Andale Mono","no","18","no","white","no","yes","576","legacy","33","33","3","C:/Users/Navleen/Documents/open sesame/subject-5202157.csv","legacy","Lentiform Loewenfeld","3.3.8","yes","yes","600bd7cfb6416f0113b04181","602110864497cf011d9c0822","0","f","NA","j","space","space","NA","f","859","NA","3108","11231","5272","NA","859","2","legacy","1024","2","48000","-16","task","5202157","odd","NA","28467","33579","30470","105057","3732","20239","14967","105560","NA","105055","105560","104988","33579","106421","26644","104488","3705","69036","Lexical Decision Task","36","38255","38","yes","1024"
"3.082307743","9.68","8","camp","word","94.87179487179488","94.87179487179488","1027.820512820513","1027.820512820513","black","no","legacy","legacy","legacy","0","uniform","1","undefined","undefined","undefined","1","j","0","0","0","0","38","0","0","0","38","NA","34","38","34","0","34","3","38","0","38","Wed Mar 10 01:55:22 2021","The main experiment item","yes","Lexical_Decision_Task.osexp","C:/Users/Navleen","no","Andale Mono","no","18","no","white","no","yes","576","legacy","34","34","3","C:/Users/Navleen/Documents/open sesame/subject-5202157.csv","legacy","Lentiform Loewenfeld","3.3.8","yes","yes","600bd7cfb6416f0113b04181","602110864497cf011d9c0822","0","j","NA","j","space","space","NA","j","1830","NA","3108","11231","5272","NA","1830","2","legacy","1024","2","48000","-16","task","5202157","odd","NA","28467","33579","30470","107003","3732","20239","14967","107506","NA","107001","107507","106935","33579","109338","26644","106435","3705","69036","Lexical Decision Task","37","40085","39","yes","1024"
"2.693726949","5.08","3","swig","word","92.5","92.5","1045.875","1045.875","black","no","legacy","legacy","legacy","0","uniform","0","undefined","undefined","undefined","0","j","0","0","0","0","39","0","0","0","39","NA","35","39","35","0","35","3","39","0","39","Wed Mar 10 01:55:22 2021","The main experiment item","yes","Lexical_Decision_Task.osexp","C:/Users/Navleen","no","Andale Mono","no","18","no","white","no","yes","576","legacy","35","35","3","C:/Users/Navleen/Documents/open sesame/subject-5202157.csv","legacy","Lentiform Loewenfeld","3.3.8","yes","yes","600bd7cfb6416f0113b04181","602110864497cf011d9c0822","0","f","NA","j","space","space","NA","f","1750","NA","3108","11231","5272","NA","1750","2","legacy","1024","2","48000","-16","task","5202157","odd","NA","28467","33579","30470","109916","3732","20239","14967","110419","NA","109914","110420","109854","33579","112171","26644","109354","3705","69036","Lexical Decision Task","37","41835","40","yes","1024"
"3.248054965","7.86","5","glow","word","92.6829268292683","92.6829268292683","1037.1463414634147","1037.1463414634147","black","no","legacy","legacy","legacy","0","uniform","1","undefined","undefined","undefined","1","j","0","0","0","0","40","0","0","0","40","NA","36","40","36","0","36","3","40","0","40","Wed Mar 10 01:55:22 2021","The main experiment item","yes","Lexical_Decision_Task.osexp","C:/Users/Navleen","no","Andale Mono","no","18","no","white","no","yes","576","legacy","36","36","3","C:/Users/Navleen/Documents/open sesame/subject-5202157.csv","legacy","Lentiform Loewenfeld","3.3.8","yes","yes","600bd7cfb6416f0113b04181","602110864497cf011d9c0822","0","j","NA","j","space","space","NA","j","688","NA","3108","11231","5272","NA","688","2","legacy","1024","2","48000","-16","task","5202157","odd","NA","28467","33579","30470","113764","3732","20239","14967","114265","NA","113762","114265","113688","33579","114955","26644","109354","3705","112187","Lexical Decision Task","38","42523","41","yes","1024"
"2.767650507","0","6","yolt","non-word","90.47619047619048","90.47619047619048","1046.904761904762","1046.904761904762","black","no","legacy","legacy","legacy","0","uniform","0","undefined","undefined","undefined","0","f","0","0","0","0","41","0","0","0","41","NA","37","41","37","0","37","3","41","0","41","Wed Mar 10 01:55:22 2021","The main experiment item","yes","Lexical_Decision_Task.osexp","C:/Users/Navleen","no","Andale Mono","no","18","no","white","no","yes","576","legacy","37","37","3","C:/Users/Navleen/Documents/open sesame/subject-5202157.csv","legacy","Lentiform Loewenfeld","3.3.8","yes","yes","600bd7cfb6416f0113b04181","602110864497cf011d9c0822","0","j","NA","j","space","space","NA","j","1447","NA","3108","11231","5272","NA","1447","2","legacy","1024","2","48000","-16","task","5202157","odd","NA","28467","33579","30470","115527","3732","20239","14967","116031","NA","115525","116031","115461","33579","117479","26644","114961","3705","112187","Lexical Decision Task","38","43970","42","yes","1024"
"2.75025376","10.2","6","jump","word","90.69767441860465","90.69767441860465","1038.046511627907","1038.046511627907","black","no","legacy","legacy","legacy","0","uniform","1","undefined","undefined","undefined","1","j","0","0","0","0","42","0","0","0","42","NA","38","42","38","0","38","3","42","0","42","Wed Mar 10 01:55:22 2021","The main experiment item","yes","Lexical_Decision_Task.osexp","C:/Users/Navleen","no","Andale Mono","no","18","no","white","no","yes","576","legacy","38","38","3","C:/Users/Navleen/Documents/open sesame/subject-5202157.csv","legacy","Lentiform Loewenfeld","3.3.8","yes","yes","600bd7cfb6416f0113b04181","602110864497cf011d9c0822","0","j","NA","j","space","space","NA","j","666","NA","3108","11231","5272","NA","666","2","legacy","1024","2","48000","-16","task","5202157","odd","NA","28467","33579","30470","119055","3732","20239","14967","119558","NA","119053","119558","118982","33579","120226","26644","114961","3705","117482","Lexical Decision Task","39","44636","43","yes","1024"
"2.897810299","0","5","glur","non-word","90.9090909090909","90.9090909090909","1051.9545454545455","1051.9545454545455","black","no","legacy","legacy","legacy","0","uniform","1","undefined","undefined","undefined","1","f","0","0","0","0","43","0","0","0","43","NA","39","43","39","0","39","3","43","0","43","Wed Mar 10 01:55:22 2021","The main experiment item","yes","Lexical_Decision_Task.osexp","C:/Users/Navleen","no","Andale Mono","no","18","no","white","no","yes","576","legacy","39","39","3","C:/Users/Navleen/Documents/open sesame/subject-5202157.csv","legacy","Lentiform Loewenfeld","3.3.8","yes","yes","600bd7cfb6416f0113b04181","602110864497cf011d9c0822","0","f","NA","j","space","space","NA","f","1650","NA","3108","11231","5272","NA","1650","2","legacy","1024","2","48000","-16","task","5202157","odd","NA","28467","33579","30470","120804","3732","20239","14967","121305","NA","120802","121305","120741","33579","122957","26644","120241","3705","117482","Lexical Decision Task","40","46286","44","yes","1024"
"3.120025233","0","2","nyst","non-word","91.11111111111111","91.11111111111111","1048.4666666666667","1048.4666666666667","black","no","legacy","legacy","legacy","0","uniform","1","undefined","undefined","undefined","1","f","0","0","0","0","44","0","0","0","44","NA","40","44","40","0","40","3","44","0","44","Wed Mar 10 01:55:22 2021","The main experiment item","yes","Lexical_Decision_Task.osexp","C:/Users/Navleen","no","Andale Mono","no","18","no","white","no","yes","576","legacy","40","40","3","C:/Users/Navleen/Documents/open sesame/subject-5202157.csv","legacy","Lentiform Loewenfeld","3.3.8","yes","yes","600bd7cfb6416f0113b04181","602110864497cf011d9c0822","0","f","NA","j","space","space","NA","f","895","NA","3108","11231","5272","NA","895","2","legacy","1024","2","48000","-16","task","5202157","odd","NA","28467","33579","30470","123541","3732","20239","14967","124044","NA","123539","124044","123471","33579","124940","26644","122971","3705","117482","Lexical Decision Task","41","47181","45","yes","1024"
"2.972819734","0","4","scew","non-word","91.30434782608695","91.30434782608695","1050.9130434782608","1050.9130434782608","black","no","legacy","legacy","legacy","0","uniform","1","undefined","undefined","undefined","1","f","0","0","0","0","45","0","0","0","45","NA","41","45","41","0","41","3","45","0","45","Wed Mar 10 01:55:22 2021","The main experiment item","yes","Lexical_Decision_Task.osexp","C:/Users/Navleen","no","Andale Mono","no","18","no","white","no","yes","576","legacy","41","41","3","C:/Users/Navleen/Documents/open sesame/subject-5202157.csv","legacy","Lentiform Loewenfeld","3.3.8","yes","yes","600bd7cfb6416f0113b04181","602110864497cf011d9c0822","0","f","NA","j","space","space","NA","f","1161","NA","3108","11231","5272","NA","1161","2","legacy","1024","2","48000","-16","task","5202157","odd","NA","28467","33579","30470","125516","3732","20239","14967","126019","NA","125514","126020","125455","33579","127184","26644","124955","3705","117482","Lexical Decision Task","42","48342","46","yes","1024"
"3.2757719","0","5","slea","non-word","91.48936170212765","91.48936170212765","1052.723404255319","1052.723404255319","black","no","legacy","legacy","legacy","0","uniform","1","undefined","undefined","undefined","1","f","0","0","0","0","46","0","0","0","46","NA","42","46","42","0","42","3","46","0","46","Wed Mar 10 01:55:22 2021","The main experiment item","yes","Lexical_Decision_Task.osexp","C:/Users/Navleen","no","Andale Mono","no","18","no","white","no","yes","576","legacy","42","42","3","C:/Users/Navleen/Documents/open sesame/subject-5202157.csv","legacy","Lentiform Loewenfeld","3.3.8","yes","yes","600bd7cfb6416f0113b04181","602110864497cf011d9c0822","0","f","NA","j","space","space","NA","f","1136","NA","3108","11231","5272","NA","1136","2","legacy","1024","2","48000","-16","task","5202157","odd","NA","28467","33579","30470","127762","3732","20239","14967","128264","NA","127760","128264","127698","33579","129402","26644","127198","3705","117482","Lexical Decision Task","43","49478","47","yes","1024"
"3.1430148","7.92","8","bald","word","91.66666666666667","91.66666666666667","1085.7708333333333","1085.7708333333333","black","no","legacy","legacy","legacy","0","uniform","1","undefined","undefined","undefined","1","j","0","0","0","0","47","0","0","0","47","NA","43","47","43","0","43","3","47","0","47","Wed Mar 10 01:55:22 2021","The main experiment item","yes","Lexical_Decision_Task.osexp","C:/Users/Navleen","no","Andale Mono","no","18","no","white","no","yes","576","legacy","43","43","3","C:/Users/Navleen/Documents/open sesame/subject-5202157.csv","legacy","Lentiform Loewenfeld","3.3.8","yes","yes","600bd7cfb6416f0113b04181","602110864497cf011d9c0822","0","j","NA","j","space","space","NA","j","2639","NA","3108","11231","5272","NA","2639","2","legacy","1024","2","48000","-16","task","5202157","odd","NA","28467","33579","30470","129976","3732","20239","14967","130477","NA","129974","130477","129916","33579","133117","26644","129416","3705","117482","Lexical Decision Task","44","52117","48","yes","1024"
"2.819763221","0","2","durp","non-word","91.83673469387755","91.83673469387755","1099.9795918367347","1099.9795918367347","black","no","legacy","legacy","legacy","0","uniform","1","undefined","undefined","undefined","1","f","0","0","0","0","48","0","0","0","48","NA","44","48","44","0","44","3","48","0","48","Wed Mar 10 01:55:22 2021","The main experiment item","yes","Lexical_Decision_Task.osexp","C:/Users/Navleen","no","Andale Mono","no","18","no","white","no","yes","576","legacy","44","44","3","C:/Users/Navleen/Documents/open sesame/subject-5202157.csv","legacy","Lentiform Loewenfeld","3.3.8","yes","yes","600bd7cfb6416f0113b04181","602110864497cf011d9c0822","0","f","NA","j","space","space","NA","f","1782","NA","3108","11231","5272","NA","1782","2","legacy","1024","2","48000","-16","task","5202157","odd","NA","28467","33579","30470","133692","3732","20239","14967","134193","NA","133691","134193","133634","33579","135977","26644","133133","3705","117482","Lexical Decision Task","45","53899","49","yes","1024"
"2.68604012","0","4","pumb","non-word","92","92","1097.56","1097.56","black","no","legacy","legacy","legacy","0","uniform","1","undefined","undefined","undefined","1","f","0","0","0","0","49","0","0","0","49","NA","45","49","45","0","45","3","49","0","49","Wed Mar 10 01:55:22 2021","The main experiment item","yes","Lexical_Decision_Task.osexp","C:/Users/Navleen","no","Andale Mono","no","18","no","white","no","yes","576","legacy","45","45","3","C:/Users/Navleen/Documents/open sesame/subject-5202157.csv","legacy","Lentiform Loewenfeld","3.3.8","yes","yes","600bd7cfb6416f0113b04181","602110864497cf011d9c0822","0","f","NA","j","space","space","NA","f","979","NA","3108","11231","5272","NA","979","2","legacy","1024","2","48000","-16","task","5202157","odd","NA","28467","33579","30470","136549","3732","20239","14967","137050","NA","136547","137050","136490","33579","138031","26644","135990","3705","117482","Lexical Decision Task","46","54878","50","yes","1024"
"2.594027722","9.08","8","skip","word","92.15686274509804","92.15686274509804","1093.9411764705883","1093.9411764705883","black","no","legacy","legacy","legacy","0","uniform","1","undefined","undefined","undefined","1","j","0","0","0","0","50","0","0","0","50","NA","46","50","46","0","46","3","50","0","50","Wed Mar 10 01:55:22 2021","The main experiment item","yes","Lexical_Decision_Task.osexp","C:/Users/Navleen","no","Andale Mono","no","18","no","white","no","yes","576","legacy","46","46","3","C:/Users/Navleen/Documents/open sesame/subject-5202157.csv","legacy","Lentiform Loewenfeld","3.3.8","yes","yes","600bd7cfb6416f0113b04181","602110864497cf011d9c0822","0","j","NA","j","space","space","NA","j","913","NA","3108","11231","5272","NA","913","2","legacy","1024","2","48000","-16","task","5202157","odd","NA","28467","33579","30470","138613","3732","20239","14967","139114","NA","138612","139114","138545","33579","140028","26644","138044","3705","117482","Lexical Decision Task","47","55791","51","yes","1024"
"3.153104174","10.89","6","door","word","92.3076923076923","92.3076923076923","1090.2115384615386","1090.2115384615386","black","no","legacy","legacy","legacy","0","uniform","1","undefined","undefined","undefined","1","j","0","0","0","0","51","0","0","0","51","NA","47","51","47","0","47","3","51","0","51","Wed Mar 10 01:55:22 2021","The main experiment item","yes","Lexical_Decision_Task.osexp","C:/Users/Navleen","no","Andale Mono","no","18","no","white","no","yes","576","legacy","47","47","3","C:/Users/Navleen/Documents/open sesame/subject-5202157.csv","legacy","Lentiform Loewenfeld","3.3.8","yes","yes","600bd7cfb6416f0113b04181","602110864497cf011d9c0822","0","j","NA","j","space","space","NA","j","900","NA","3108","11231","5272","NA","900","2","legacy","1024","2","48000","-16","task","5202157","odd","NA","28467","33579","30470","140602","3732","20239","14967","141103","NA","140600","141103","140542","33579","142005","26644","140042","3705","117482","Lexical Decision Task","48","56691","52","yes","1024"
"2.616654026","9.37","5","gift","word","92.45283018867924","92.45283018867924","1087.6037735849056","1087.6037735849056","black","no","legacy","legacy","legacy","0","uniform","1","undefined","undefined","undefined","1","j","0","0","0","0","52","0","0","0","52","NA","48","52","48","0","48","3","52","0","52","Wed Mar 10 01:55:22 2021","The main experiment item","yes","Lexical_Decision_Task.osexp","C:/Users/Navleen","no","Andale Mono","no","18","no","white","no","yes","576","legacy","48","48","3","C:/Users/Navleen/Documents/open sesame/subject-5202157.csv","legacy","Lentiform Loewenfeld","3.3.8","yes","yes","600bd7cfb6416f0113b04181","602110864497cf011d9c0822","0","j","NA","j","space","space","NA","j","952","NA","3108","11231","5272","NA","952","2","legacy","1024","2","48000","-16","task","5202157","odd","NA","28467","33579","30470","142577","3732","20239","14967","143081","NA","142576","143082","142520","33579","144036","26644","142020","3705","117482","Lexical Decision Task","49","57643","53","yes","1024"
"3.156347201","0","8","lasp","non-word","92.5925925925926","92.5925925925926","1087.2407407407406","1087.2407407407406","black","no","legacy","legacy","legacy","0","uniform","1","undefined","undefined","undefined","1","f","0","0","0","0","53","0","0","0","53","NA","49","53","49","0","49","3","53","0","53","Wed Mar 10 01:55:22 2021","The main experiment item","yes","Lexical_Decision_Task.osexp","C:/Users/Navleen","no","Andale Mono","no","18","no","white","no","yes","576","legacy","49","49","3","C:/Users/Navleen/Documents/open sesame/subject-5202157.csv","legacy","Lentiform Loewenfeld","3.3.8","yes","yes","600bd7cfb6416f0113b04181","602110864497cf011d9c0822","0","f","NA","j","space","space","NA","f","1068","NA","3108","11231","5272","NA","1068","2","legacy","1024","2","48000","-16","task","5202157","odd","NA","28467","33579","30470","144619","3732","20239","14967","145120","NA","144618","145120","144552","33579","146190","26644","144052","3705","117482","Lexical Decision Task","50","58711","54","yes","1024"
"3.003891166","8.05","2","frog","word","92.72727272727273","92.72727272727273","1090.4727272727273","1090.4727272727273","black","no","legacy","legacy","legacy","0","uniform","1","undefined","undefined","undefined","1","j","0","0","0","0","54","0","0","0","54","0","50","54","50","0","50","3","54","0","54","Wed Mar 10 01:55:22 2021","The main experiment item","yes","Lexical_Decision_Task.osexp","C:/Users/Navleen","no","Andale Mono","no","18","no","white","no","yes","576","legacy","50","50","3","C:/Users/Navleen/Documents/open sesame/subject-5202157.csv","legacy","Lentiform Loewenfeld","3.3.8","yes","yes","600bd7cfb6416f0113b04181","602110864497cf011d9c0822","0","j","NA","j","space","space","space","j","1265","NA","3108","11231","5272","29955","1265","2","legacy","1024","2","48000","-16","task","5202157","odd","NA","28467","33579","30470","176782","3732","20239","14967","177283","146756","176780","177283","146706","33579","178550","26644","146206","3705","117482","Lexical Decision Task","51","59976","55","yes","1024"
"2.696356389","0","1","pizz","non-word","92.85714285714286","92.85714285714286","1088.9107142857142","1088.9107142857142","black","no","legacy","legacy","legacy","0","uniform","1","undefined","undefined","undefined","1","f","0","0","0","0","55","0","0","0","55","0","51","55","51","0","51","3","55","0","55","Wed Mar 10 01:55:22 2021","The main experiment item","yes","Lexical_Decision_Task.osexp","C:/Users/Navleen","no","Andale Mono","no","18","no","white","no","yes","576","legacy","51","51","3","C:/Users/Navleen/Documents/open sesame/subject-5202157.csv","legacy","Lentiform Loewenfeld","3.3.8","yes","yes","600bd7cfb6416f0113b04181","602110864497cf011d9c0822","0","f","NA","j","space","space","space","f","1003","NA","3108","11231","5272","29955","1003","2","legacy","1024","2","48000","-16","task","5202157","odd","NA","28467","33579","30470","179128","3732","20239","14967","179629","146756","179127","179629","179066","33579","180633","26644","178566","3705","117482","Lexical Decision Task","52","60979","56","yes","1024"
"2.809559715","8.44","4","volt","word","92.98245614035088","92.98245614035088","1083.298245614035","1083.298245614035","black","no","legacy","legacy","legacy","0","uniform","1","undefined","undefined","undefined","1","j","0","0","0","0","56","0","0","0","56","0","52","56","52","0","52","3","56","0","56","Wed Mar 10 01:55:22 2021","The main experiment item","yes","Lexical_Decision_Task.osexp","C:/Users/Navleen","no","Andale Mono","no","18","no","white","no","yes","576","legacy","52","52","3","C:/Users/Navleen/Documents/open sesame/subject-5202157.csv","legacy","Lentiform Loewenfeld","3.3.8","yes","yes","600bd7cfb6416f0113b04181","602110864497cf011d9c0822","0","j","NA","j","space","space","space","j","769","NA","3108","11231","5272","29955","769","2","legacy","1024","2","48000","-16","task","5202157","odd","NA","28467","33579","30470","181211","3732","20239","14967","181714","146756","181210","181714","181148","33579","182485","26644","180648","3705","117482","Lexical Decision Task","53","61748","57","yes","1024"
"2.868644438","10.52","4","town","word","93.10344827586206","93.10344827586206","1074.3793103448277","1074.3793103448277","black","no","legacy","legacy","legacy","0","uniform","1","undefined","undefined","undefined","1","j","0","0","0","0","57","0","0","0","57","0","53","57","53","0","53","3","57","0","57","Wed Mar 10 01:55:22 2021","The main experiment item","yes","Lexical_Decision_Task.osexp","C:/Users/Navleen","no","Andale Mono","no","18","no","white","no","yes","576","legacy","53","53","3","C:/Users/Navleen/Documents/open sesame/subject-5202157.csv","legacy","Lentiform Loewenfeld","3.3.8","yes","yes","600bd7cfb6416f0113b04181","602110864497cf011d9c0822","0","j","NA","j","space","space","space","j","566","NA","3108","11231","5272","29955","566","2","legacy","1024","2","48000","-16","task","5202157","odd","NA","28467","33579","30470","183071","3732","20239","14967","183575","146756","183070","183575","182999","33579","184143","26644","182499","3705","117482","Lexical Decision Task","54","62314","58","yes","1024"
"3.194328374","9.42","6","harm","word","93.22033898305085","93.22033898305085","1066.915254237288","1066.915254237288","black","no","legacy","legacy","legacy","0","uniform","1","undefined","undefined","undefined","1","j","0","0","0","0","58","0","0","0","58","0","54","58","54","0","54","3","58","0","58","Wed Mar 10 01:55:22 2021","The main experiment item","yes","Lexical_Decision_Task.osexp","C:/Users/Navleen","no","Andale Mono","no","18","no","white","no","yes","576","legacy","54","54","3","C:/Users/Navleen/Documents/open sesame/subject-5202157.csv","legacy","Lentiform Loewenfeld","3.3.8","yes","yes","600bd7cfb6416f0113b04181","602110864497cf011d9c0822","0","j","NA","j","space","space","space","j","634","NA","3108","11231","5272","29955","634","2","legacy","1024","2","48000","-16","task","5202157","odd","NA","28467","33579","30470","184722","3732","20239","14967","185223","146756","184721","185223","184650","33579","185859","26644","184150","3705","117482","Lexical Decision Task","55","62948","59","yes","1024"
"3.131833513","7.66","4","limb","word","93.33333333333333","93.33333333333333","1059.7166666666667","1059.7166666666667","black","no","legacy","legacy","legacy","0","uniform","1","undefined","undefined","undefined","1","j","0","0","0","0","59","0","0","0","59","0","55","59","55","0","55","3","59","0","59","Wed Mar 10 01:55:22 2021","The main experiment item","yes","Lexical_Decision_Task.osexp","C:/Users/Navleen","no","Andale Mono","no","18","no","white","no","yes","576","legacy","55","55","3","C:/Users/Navleen/Documents/open sesame/subject-5202157.csv","legacy","Lentiform Loewenfeld","3.3.8","yes","yes","600bd7cfb6416f0113b04181","602110864497cf011d9c0822","0","j","NA","j","space","space","space","j","635","NA","3108","11231","5272","29955","635","2","legacy","1024","2","48000","-16","task","5202157","odd","NA","28467","33579","30470","186447","3732","20239","14967","186948","146756","186446","186948","186375","33579","187585","26644","185874","3705","117482","Lexical Decision Task","56","63583","60","yes","1024"
"3.15462682","0","6","noal","non-word","93.44262295081967","93.44262295081967","1074.950819672131","1074.950819672131","black","no","legacy","legacy","legacy","0","uniform","1","undefined","undefined","undefined","1","f","0","0","0","0","60","0","0","0","60","0","56","60","56","0","56","3","60","0","60","Wed Mar 10 01:55:22 2021","The main experiment item","yes","Lexical_Decision_Task.osexp","C:/Users/Navleen","no","Andale Mono","no","18","no","white","no","yes","576","legacy","56","56","3","C:/Users/Navleen/Documents/open sesame/subject-5202157.csv","legacy","Lentiform Loewenfeld","3.3.8","yes","yes","600bd7cfb6416f0113b04181","602110864497cf011d9c0822","0","f","NA","j","space","space","space","f","1989","NA","3108","11231","5272","29955","1989","2","legacy","1024","2","48000","-16","task","5202157","odd","NA","28467","33579","30470","188182","3732","20239","14967","188683","146756","188180","188683","188100","33579","190674","26644","187600","3705","117482","Lexical Decision Task","57","65572","61","yes","1024"
"3.039414119","0","9","meep","non-word","93.54838709677419","93.54838709677419","1076.3387096774193","1076.3387096774193","black","no","legacy","legacy","legacy","0","uniform","1","undefined","undefined","undefined","1","f","0","0","0","0","61","0","0","0","61","0","57","61","57","0","57","3","61","0","61","Wed Mar 10 01:55:22 2021","The main experiment item","yes","Lexical_Decision_Task.osexp","C:/Users/Navleen","no","Andale Mono","no","18","no","white","no","yes","576","legacy","57","57","3","C:/Users/Navleen/Documents/open sesame/subject-5202157.csv","legacy","Lentiform Loewenfeld","3.3.8","yes","yes","600bd7cfb6416f0113b04181","602110864497cf011d9c0822","0","f","NA","j","space","space","space","f","1161","NA","3108","11231","5272","29955","1161","2","legacy","1024","2","48000","-16","task","5202157","odd","NA","28467","33579","30470","191246","3732","20239","14967","191747","146756","191245","191747","191188","33579","192909","26644","190688","3705","117482","Lexical Decision Task","58","66733","62","yes","1024"
"3.374137706","10.21","4","tree","word","93.65079365079364","93.65079365079364","1083.079365079365","1083.079365079365","black","no","legacy","legacy","legacy","0","uniform","1","undefined","undefined","undefined","1","j","0","0","0","0","62","0","0","0","62","0","58","62","58","0","58","3","62","0","62","Wed Mar 10 01:55:22 2021","The main experiment item","yes","Lexical_Decision_Task.osexp","C:/Users/Navleen","no","Andale Mono","no","18","no","white","no","yes","576","legacy","58","58","3","C:/Users/Navleen/Documents/open sesame/subject-5202157.csv","legacy","Lentiform Loewenfeld","3.3.8","yes","yes","600bd7cfb6416f0113b04181","602110864497cf011d9c0822","0","j","NA","j","space","space","space","j","1501","NA","3108","11231","5272","29955","1501","2","legacy","1024","2","48000","-16","task","5202157","odd","NA","28467","33579","30470","193494","3732","20239","14967","193995","146756","193493","193995","193426","33579","195498","26644","192926","3705","117482","Lexical Decision Task","59","68234","63","yes","1024"
"3.259832699","0","9","flar","non-word","93.75","93.75","1086.515625","1086.515625","black","no","legacy","legacy","legacy","0","uniform","1","undefined","undefined","undefined","1","f","0","0","0","0","63","0","0","0","63","0","59","63","59","0","59","3","63","0","63","Wed Mar 10 01:55:22 2021","The main experiment item","yes","Lexical_Decision_Task.osexp","C:/Users/Navleen","no","Andale Mono","no","18","no","white","no","yes","576","legacy","59","59","3","C:/Users/Navleen/Documents/open sesame/subject-5202157.csv","legacy","Lentiform Loewenfeld","3.3.8","yes","yes","600bd7cfb6416f0113b04181","602110864497cf011d9c0822","0","f","NA","j","space","space","space","f","1303","NA","3108","11231","5272","29955","1303","2","legacy","1024","2","48000","-16","task","5202157","odd","NA","28467","33579","30470","196075","3732","20239","14967","196577","146756","196073","196577","196015","33579","197883","26644","195515","3705","117482","Lexical Decision Task","60","69537","64","yes","1024"
"3.208978517","10.33","4","fish","word","93.84615384615384","93.84615384615384","1084.3692307692309","1084.3692307692309","black","no","legacy","legacy","legacy","0","uniform","1","undefined","undefined","undefined","1","j","0","0","0","0","64","0","0","0","64","0","60","64","60","0","60","3","64","0","64","Wed Mar 10 01:55:22 2021","The main experiment item","yes","Lexical_Decision_Task.osexp","C:/Users/Navleen","no","Andale Mono","no","18","no","white","no","yes","576","legacy","60","60","3","C:/Users/Navleen/Documents/open sesame/subject-5202157.csv","legacy","Lentiform Loewenfeld","3.3.8","yes","yes","600bd7cfb6416f0113b04181","602110864497cf011d9c0822","0","j","NA","j","space","space","space","j","947","NA","3108","11231","5272","29955","947","2","legacy","1024","2","48000","-16","task","5202157","odd","NA","28467","33579","30470","198458","3732","20239","14967","198962","146756","198457","198962","198397","33579","199911","26644","197897","3705","117482","Lexical Decision Task","61","70484","65","yes","1024"
"3.037294994","8.64","7","roof","word","93.93939393939394","93.93939393939394","1079.121212121212","1079.121212121212","black","no","legacy","legacy","legacy","0","uniform","1","undefined","undefined","undefined","1","j","0","0","0","0","65","0","0","0","65","0","61","65","61","0","61","3","65","0","65","Wed Mar 10 01:55:22 2021","The main experiment item","yes","Lexical_Decision_Task.osexp","C:/Users/Navleen","no","Andale Mono","no","18","no","white","no","yes","576","legacy","61","61","3","C:/Users/Navleen/Documents/open sesame/subject-5202157.csv","legacy","Lentiform Loewenfeld","3.3.8","yes","yes","600bd7cfb6416f0113b04181","602110864497cf011d9c0822","0","j","NA","j","space","space","space","j","738","NA","3108","11231","5272","29955","738","2","legacy","1024","2","48000","-16","task","5202157","odd","NA","28467","33579","30470","200485","3732","20239","14967","200986","146756","200483","200986","200426","33579","201726","26644","199926","3705","117482","Lexical Decision Task","62","71222","66","yes","1024"
"2.703007489","8.37","3","pulp","word","94.02985074626865","94.02985074626865","1076.6268656716418","1076.6268656716418","black","no","legacy","legacy","legacy","0","uniform","1","undefined","undefined","undefined","1","j","0","0","0","0","66","0","0","0","66","0","62","66","62","0","62","3","66","0","66","Wed Mar 10 01:55:22 2021","The main experiment item","yes","Lexical_Decision_Task.osexp","C:/Users/Navleen","no","Andale Mono","no","18","no","white","no","yes","576","legacy","62","62","3","C:/Users/Navleen/Documents/open sesame/subject-5202157.csv","legacy","Lentiform Loewenfeld","3.3.8","yes","yes","600bd7cfb6416f0113b04181","602110864497cf011d9c0822","0","j","NA","j","space","space","space","j","912","NA","3108","11231","5272","29955","912","2","legacy","1024","2","48000","-16","task","5202157","odd","NA","28467","33579","30470","202301","3732","20239","14967","202804","146756","202299","202804","202240","33579","203718","26644","201740","3705","117482","Lexical Decision Task","63","72134","67","yes","1024"
"2.924968096","0","4","phim","non-word","94.11764705882354","94.11764705882354","1098.7794117647059","1098.7794117647059","black","no","legacy","legacy","legacy","0","uniform","1","undefined","undefined","undefined","1","f","0","0","0","0","67","0","0","0","67","0","63","67","63","0","63","3","67","0","67","Wed Mar 10 01:55:22 2021","The main experiment item","yes","Lexical_Decision_Task.osexp","C:/Users/Navleen","no","Andale Mono","no","18","no","white","no","yes","576","legacy","63","63","3","C:/Users/Navleen/Documents/open sesame/subject-5202157.csv","legacy","Lentiform Loewenfeld","3.3.8","yes","yes","600bd7cfb6416f0113b04181","602110864497cf011d9c0822","0","f","NA","j","space","space","space","f","2583","NA","3108","11231","5272","29955","2583","2","legacy","1024","2","48000","-16","task","5202157","odd","NA","28467","33579","30470","204302","3732","20239","14967","204803","146756","204300","204803","204232","33579","207388","26644","203732","3705","117482","Lexical Decision Task","64","74717","68","yes","1024"
"3.397302518","7.01","2","knit","word","94.20289855072464","94.20289855072464","1100.8260869565217","1100.8260869565217","black","no","legacy","legacy","legacy","0","uniform","1","undefined","undefined","undefined","1","j","0","0","0","0","68","0","0","0","68","0","64","68","64","0","64","3","68","0","68","Wed Mar 10 01:55:22 2021","The main experiment item","yes","Lexical_Decision_Task.osexp","C:/Users/Navleen","no","Andale Mono","no","18","no","white","no","yes","576","legacy","64","64","3","C:/Users/Navleen/Documents/open sesame/subject-5202157.csv","legacy","Lentiform Loewenfeld","3.3.8","yes","yes","600bd7cfb6416f0113b04181","602110864497cf011d9c0822","0","j","NA","j","space","space","space","j","1240","NA","3108","11231","5272","29955","1240","2","legacy","1024","2","48000","-16","task","5202157","odd","NA","28467","33579","30470","207965","3732","20239","14967","208466","146756","207964","208466","207904","33579","209708","26644","207404","3705","117482","Lexical Decision Task","65","75957","69","yes","1024"
"2.793790385","5.67","9","swab","word","94.28571428571429","94.28571428571429","1106.2714285714285","1106.2714285714285","black","no","legacy","legacy","legacy","0","uniform","1","undefined","undefined","undefined","1","j","0","0","0","0","69","0","0","0","69","0","65","69","65","0","65","3","69","0","69","Wed Mar 10 01:55:22 2021","The main experiment item","yes","Lexical_Decision_Task.osexp","C:/Users/Navleen","no","Andale Mono","no","18","no","white","no","yes","576","legacy","65","65","3","C:/Users/Navleen/Documents/open sesame/subject-5202157.csv","legacy","Lentiform Loewenfeld","3.3.8","yes","yes","600bd7cfb6416f0113b04181","602110864497cf011d9c0822","0","j","NA","j","space","space","space","j","1482","NA","3108","11231","5272","29955","1482","2","legacy","1024","2","48000","-16","task","5202157","odd","NA","28467","33579","30470","210289","3732","20239","14967","210790","146756","210287","210790","210222","33579","212274","26644","209722","3705","117482","Lexical Decision Task","66","77439","70","yes","1024"
"3.209246849","0","7","slem","non-word","92.95774647887323","92.95774647887323","1132.943661971831","1132.943661971831","black","no","legacy","legacy","legacy","0","uniform","0","undefined","undefined","undefined","0","f","0","0","0","0","70","0","0","0","70","0","66","70","66","0","66","3","70","0","70","Wed Mar 10 01:55:22 2021","The main experiment item","yes","Lexical_Decision_Task.osexp","C:/Users/Navleen","no","Andale Mono","no","18","no","white","no","yes","576","legacy","66","66","3","C:/Users/Navleen/Documents/open sesame/subject-5202157.csv","legacy","Lentiform Loewenfeld","3.3.8","yes","yes","600bd7cfb6416f0113b04181","602110864497cf011d9c0822","0","None","NA","j","space","space","space","None","3000","NA","3108","11231","5272","29955","3000","2","legacy","1024","2","48000","-16","task","5202157","odd","NA","28467","33579","30470","212849","3732","20239","14967","213350","146756","212848","213350","212789","33579","216350","26644","212289","3705","117482","Lexical Decision Task","66","80439","71","yes","1024"
"2.728085817","10.02","9","bike","word","93.05555555555556","93.05555555555556","1126.5416666666667","1126.5416666666667","black","no","legacy","legacy","legacy","0","uniform","1","undefined","undefined","undefined","1","j","0","0","0","0","71","0","0","0","71","0","67","71","67","0","67","3","71","0","71","Wed Mar 10 01:55:22 2021","The main experiment item","yes","Lexical_Decision_Task.osexp","C:/Users/Navleen","no","Andale Mono","no","18","no","white","no","yes","576","legacy","67","67","3","C:/Users/Navleen/Documents/open sesame/subject-5202157.csv","legacy","Lentiform Loewenfeld","3.3.8","yes","yes","600bd7cfb6416f0113b04181","602110864497cf011d9c0822","0","j","NA","j","space","space","space","j","672","NA","3108","11231","5272","29955","672","2","legacy","1024","2","48000","-16","task","5202157","odd","NA","28467","33579","30470","217938","3732","20239","14967","218439","146756","217937","218439","217865","33579","219113","26644","212289","3705","216365","Lexical Decision Task","67","81111","72","yes","1024"
"3.216517684","10.87","3","film","word","93.15068493150685","93.15068493150685","1124.5479452054794","1124.5479452054794","black","no","legacy","legacy","legacy","0","uniform","1","undefined","undefined","undefined","1","j","0","0","0","0","72","0","0","0","72","0","68","72","68","0","68","3","72","0","72","Wed Mar 10 01:55:22 2021","The main experiment item","yes","Lexical_Decision_Task.osexp","C:/Users/Navleen","no","Andale Mono","no","18","no","white","no","yes","576","legacy","68","68","3","C:/Users/Navleen/Documents/open sesame/subject-5202157.csv","legacy","Lentiform Loewenfeld","3.3.8","yes","yes","600bd7cfb6416f0113b04181","602110864497cf011d9c0822","0","j","NA","j","space","space","space","j","981","NA","3108","11231","5272","29955","981","2","legacy","1024","2","48000","-16","task","5202157","odd","NA","28467","33579","30470","219688","3732","20239","14967","220189","146756","219687","220189","219619","33579","221172","26644","219119","3705","216365","Lexical Decision Task","68","82092","73","yes","1024"
"3.374198258","0","8","vist","non-word","91.89189189189189","91.89189189189189","1118.5405405405406","1118.5405405405406","black","no","legacy","legacy","legacy","0","uniform","0","undefined","undefined","undefined","0","f","0","0","0","0","73","0","0","0","73","0","69","73","69","0","69","3","73","0","73","Wed Mar 10 01:55:22 2021","The main experiment item","yes","Lexical_Decision_Task.osexp","C:/Users/Navleen","no","Andale Mono","no","18","no","white","no","yes","576","legacy","69","69","3","C:/Users/Navleen/Documents/open sesame/subject-5202157.csv","legacy","Lentiform Loewenfeld","3.3.8","yes","yes","600bd7cfb6416f0113b04181","602110864497cf011d9c0822","0","j","NA","j","space","space","space","j","680","NA","3108","11231","5272","29955","680","2","legacy","1024","2","48000","-16","task","5202157","odd","NA","28467","33579","30470","221757","3732","20239","14967","222260","146756","221755","222260","221688","33579","222942","26644","221188","3705","216365","Lexical Decision Task","68","82772","74","yes","1024"
"3.384413096","10.15","3","glad","word","92","92","1112.1333333333334","1112.1333333333334","black","no","legacy","legacy","legacy","0","uniform","1","undefined","undefined","undefined","1","j","0","0","0","0","74","0","0","0","74","0","70","74","70","0","70","3","74","0","74","Wed Mar 10 01:55:22 2021","The main experiment item","yes","Lexical_Decision_Task.osexp","C:/Users/Navleen","no","Andale Mono","no","18","no","white","no","yes","576","legacy","70","70","3","C:/Users/Navleen/Documents/open sesame/subject-5202157.csv","legacy","Lentiform Loewenfeld","3.3.8","yes","yes","600bd7cfb6416f0113b04181","602110864497cf011d9c0822","0","j","NA","j","space","space","space","j","638","NA","3108","11231","5272","29955","638","2","legacy","1024","2","48000","-16","task","5202157","odd","NA","28467","33579","30470","224521","3732","20239","14967","225021","146756","224519","225021","224457","33579","225661","26644","221188","3705","222957","Lexical Decision Task","69","83410","75","yes","1024"
"3.366547468","0","6","plat","non-word","92.10526315789474","92.10526315789474","1118.1184210526317","1118.1184210526317","black","no","legacy","legacy","legacy","0","uniform","1","undefined","undefined","undefined","1","f","0","0","0","0","75","0","0","0","75","0","71","75","71","0","71","3","75","0","75","Wed Mar 10 01:55:22 2021","The main experiment item","yes","Lexical_Decision_Task.osexp","C:/Users/Navleen","no","Andale Mono","no","18","no","white","no","yes","576","legacy","71","71","3","C:/Users/Navleen/Documents/open sesame/subject-5202157.csv","legacy","Lentiform Loewenfeld","3.3.8","yes","yes","600bd7cfb6416f0113b04181","602110864497cf011d9c0822","0","f","NA","j","space","space","space","f","1567","NA","3108","11231","5272","29955","1567","2","legacy","1024","2","48000","-16","task","5202157","odd","NA","28467","33579","30470","226245","3732","20239","14967","226747","146756","226243","226747","226178","33579","228316","26644","225677","3705","222957","Lexical Decision Task","70","84977","76","yes","1024"
"3.208172527","10.27","7","deck","word","92.20779220779221","92.20779220779221","1113.5974025974026","1113.5974025974026","black","no","legacy","legacy","legacy","0","uniform","1","undefined","undefined","undefined","1","j","0","0","0","0","76","0","0","0","76","0","72","76","72","0","72","3","76","0","76","Wed Mar 10 01:55:22 2021","The main experiment item","yes","Lexical_Decision_Task.osexp","C:/Users/Navleen","no","Andale Mono","no","18","no","white","no","yes","576","legacy","72","72","3","C:/Users/Navleen/Documents/open sesame/subject-5202157.csv","legacy","Lentiform Loewenfeld","3.3.8","yes","yes","600bd7cfb6416f0113b04181","602110864497cf011d9c0822","0","j","NA","j","space","space","space","j","770","NA","3108","11231","5272","29955","770","2","legacy","1024","2","48000","-16","task","5202157","odd","NA","28467","33579","30470","228898","3732","20239","14967","229399","146756","228896","229399","228830","33579","230171","26644","228330","3705","222957","Lexical Decision Task","71","85747","77","yes","1024"
"2.920123326","7.43","4","duel","word","91.02564102564102","91.02564102564102","1111.7179487179487","1111.7179487179487","black","no","legacy","legacy","legacy","0","uniform","0","undefined","undefined","undefined","0","j","0","0","0","0","77","0","0","0","77","0","73","77","73","0","73","3","77","0","77","Wed Mar 10 01:55:22 2021","The main experiment item","yes","Lexical_Decision_Task.osexp","C:/Users/Navleen","no","Andale Mono","no","18","no","white","no","yes","576","legacy","73","73","3","C:/Users/Navleen/Documents/open sesame/subject-5202157.csv","legacy","Lentiform Loewenfeld","3.3.8","yes","yes","600bd7cfb6416f0113b04181","602110864497cf011d9c0822","0","f","NA","j","space","space","space","f","967","NA","3108","11231","5272","29955","967","2","legacy","1024","2","48000","-16","task","5202157","odd","NA","28467","33579","30470","230745","3732","20239","14967","231246","146756","230744","231247","230686","33579","232216","26644","230185","3705","222957","Lexical Decision Task","71","86714","78","yes","1024"
"2.842815106","7.86","8","lump","word","91.13924050632912","91.13924050632912","1105.886075949367","1105.886075949367","black","no","legacy","legacy","legacy","0","uniform","1","undefined","undefined","undefined","1","j","0","0","0","0","78","0","0","0","78","0","74","78","74","0","74","3","78","0","78","Wed Mar 10 01:55:22 2021","The main experiment item","yes","Lexical_Decision_Task.osexp","C:/Users/Navleen","no","Andale Mono","no","18","no","white","no","yes","576","legacy","74","74","3","C:/Users/Navleen/Documents/open sesame/subject-5202157.csv","legacy","Lentiform Loewenfeld","3.3.8","yes","yes","600bd7cfb6416f0113b04181","602110864497cf011d9c0822","0","j","NA","j","space","space","space","j","651","NA","3108","11231","5272","29955","651","2","legacy","1024","2","48000","-16","task","5202157","odd","NA","28467","33579","30470","233793","3732","20239","14967","234294","146756","233791","234294","233732","33579","234946","26644","230185","3705","232232","Lexical Decision Task","72","87365","79","yes","1024"
"3.274157849","0","8","leet","non-word","90","90","1102.9625","1102.9625","black","no","legacy","legacy","legacy","0","uniform","0","undefined","undefined","undefined","0","f","0","0","0","0","79","0","0","0","79","0","75","79","75","0","75","3","79","0","79","Wed Mar 10 01:55:22 2021","The main experiment item","yes","Lexical_Decision_Task.osexp","C:/Users/Navleen","no","Andale Mono","no","18","no","white","no","yes","576","legacy","75","75","3","C:/Users/Navleen/Documents/open sesame/subject-5202157.csv","legacy","Lentiform Loewenfeld","3.3.8","yes","yes","600bd7cfb6416f0113b04181","602110864497cf011d9c0822","0","j","NA","j","space","space","space","j","872","NA","3108","11231","5272","29955","872","2","legacy","1024","2","48000","-16","task","5202157","odd","NA","28467","33579","30470","235535","3732","20239","14967","236039","146756","235533","236039","235461","33579","236913","26644","234961","3705","232232","Lexical Decision Task","72","88237","80","yes","1024"
"3.049218023","7.4","9","robe","word","90.12345679012346","90.12345679012346","1098.20987654321","1098.20987654321","black","no","legacy","legacy","legacy","0","uniform","1","undefined","undefined","undefined","1","j","0","0","0","0","80","0","0","0","80","0","76","80","76","0","76","3","80","0","80","Wed Mar 10 01:55:22 2021","The main experiment item","yes","Lexical_Decision_Task.osexp","C:/Users/Navleen","no","Andale Mono","no","18","no","white","no","yes","576","legacy","76","76","3","C:/Users/Navleen/Documents/open sesame/subject-5202157.csv","legacy","Lentiform Loewenfeld","3.3.8","yes","yes","600bd7cfb6416f0113b04181","602110864497cf011d9c0822","0","j","NA","j","space","space","space","j","718","NA","3108","11231","5272","29955","718","2","legacy","1024","2","48000","-16","task","5202157","odd","NA","28467","33579","30470","238491","3732","20239","14967","238994","146756","238490","238994","238426","33579","239714","26644","234961","3705","236926","Lexical Decision Task","73","88955","81","yes","1024"
"3.529815197","0","3","lerm","non-word","90.2439024390244","90.2439024390244","1094.158536585366","1094.158536585366","black","no","legacy","legacy","legacy","0","uniform","1","undefined","undefined","undefined","1","f","0","0","0","0","81","0","0","0","81","0","77","81","77","0","77","3","81","0","81","Wed Mar 10 01:55:22 2021","The main experiment item","yes","Lexical_Decision_Task.osexp","C:/Users/Navleen","no","Andale Mono","no","18","no","white","no","yes","576","legacy","77","77","3","C:/Users/Navleen/Documents/open sesame/subject-5202157.csv","legacy","Lentiform Loewenfeld","3.3.8","yes","yes","600bd7cfb6416f0113b04181","602110864497cf011d9c0822","0","f","NA","j","space","space","space","f","766","NA","3108","11231","5272","29955","766","2","legacy","1024","2","48000","-16","task","5202157","odd","NA","28467","33579","30470","240296","3732","20239","14967","240798","146756","240295","240798","240227","33579","241566","26644","239727","3705","236926","Lexical Decision Task","74","89721","82","yes","1024"
"3.261341392","5.08","8","reek","word","90.36144578313252","90.36144578313252","1098.3734939759036","1098.3734939759036","black","no","legacy","legacy","legacy","0","uniform","1","undefined","undefined","undefined","1","j","0","0","0","0","82","0","0","0","82","0","78","82","78","0","78","3","82","0","82","Wed Mar 10 01:55:22 2021","The main experiment item","yes","Lexical_Decision_Task.osexp","C:/Users/Navleen","no","Andale Mono","no","18","no","white","no","yes","576","legacy","78","78","3","C:/Users/Navleen/Documents/open sesame/subject-5202157.csv","legacy","Lentiform Loewenfeld","3.3.8","yes","yes","600bd7cfb6416f0113b04181","602110864497cf011d9c0822","0","j","NA","j","space","space","space","j","1444","NA","3108","11231","5272","29955","1444","2","legacy","1024","2","48000","-16","task","5202157","odd","NA","28467","33579","30470","242148","3732","20239","14967","242652","146756","242146","242652","242079","33579","244099","26644","241579","3705","236926","Lexical Decision Task","75","91165","83","yes","1024"
"2.9737419","7.69","7","claw","word","90.47619047619048","90.47619047619048","1093","1093","black","no","legacy","legacy","legacy","0","uniform","1","undefined","undefined","undefined","1","j","0","0","0","0","83","0","0","0","83","0","79","83","79","0","79","3","83","0","83","Wed Mar 10 01:55:22 2021","The main experiment item","yes","Lexical_Decision_Task.osexp","C:/Users/Navleen","no","Andale Mono","no","18","no","white","no","yes","576","legacy","79","79","3","C:/Users/Navleen/Documents/open sesame/subject-5202157.csv","legacy","Lentiform Loewenfeld","3.3.8","yes","yes","600bd7cfb6416f0113b04181","602110864497cf011d9c0822","0","j","NA","j","space","space","space","j","647","NA","3108","11231","5272","29955","647","2","legacy","1024","2","48000","-16","task","5202157","odd","NA","28467","33579","30470","244678","3732","20239","14967","245181","146756","244676","245181","244615","33579","245831","26644","244115","3705","236926","Lexical Decision Task","76","91812","84","yes","1024"
"3.091901331","0","9","nipe","non-word","90.58823529411765","90.58823529411765","1092.929411764706","1092.929411764706","black","no","legacy","legacy","legacy","0","uniform","1","undefined","undefined","undefined","1","f","0","0","0","0","84","0","0","0","84","0","80","84","80","0","80","3","84","0","84","Wed Mar 10 01:55:22 2021","The main experiment item","yes","Lexical_Decision_Task.osexp","C:/Users/Navleen","no","Andale Mono","no","18","no","white","no","yes","576","legacy","80","80","3","C:/Users/Navleen/Documents/open sesame/subject-5202157.csv","legacy","Lentiform Loewenfeld","3.3.8","yes","yes","600bd7cfb6416f0113b04181","602110864497cf011d9c0822","0","f","NA","j","space","space","space","f","1087","NA","3108","11231","5272","29955","1087","2","legacy","1024","2","48000","-16","task","5202157","odd","NA","28467","33579","30470","246405","3732","20239","14967","246908","146756","246403","246909","246346","33579","247998","26644","245845","3705","236926","Lexical Decision Task","77","92899","85","yes","1024"
"3.168400243","9.12","6","horn","word","90.69767441860465","90.69767441860465","1088.1046511627908","1088.1046511627908","black","no","legacy","legacy","legacy","0","uniform","1","undefined","undefined","undefined","1","j","0","0","0","0","85","0","0","0","85","0","81","85","81","0","81","3","85","0","85","Wed Mar 10 01:55:22 2021","The main experiment item","yes","Lexical_Decision_Task.osexp","C:/Users/Navleen","no","Andale Mono","no","18","no","white","no","yes","576","legacy","81","81","3","C:/Users/Navleen/Documents/open sesame/subject-5202157.csv","legacy","Lentiform Loewenfeld","3.3.8","yes","yes","600bd7cfb6416f0113b04181","602110864497cf011d9c0822","0","j","NA","j","space","space","space","j","678","NA","3108","11231","5272","29955","678","2","legacy","1024","2","48000","-16","task","5202157","odd","NA","28467","33579","30470","248582","3732","20239","14967","249083","146756","248581","249083","248513","33579","249763","26644","248013","3705","236926","Lexical Decision Task","78","93577","86","yes","1024"
"3.153001286","8.7","5","palm","word","90.80459770114942","90.80459770114942","1088.344827586207","1088.344827586207","black","no","legacy","legacy","legacy","0","uniform","1","undefined","undefined","undefined","1","j","0","0","0","0","86","0","0","0","86","0","82","86","82","0","82","3","86","0","86","Wed Mar 10 01:55:22 2021","The main experiment item","yes","Lexical_Decision_Task.osexp","C:/Users/Navleen","no","Andale Mono","no","18","no","white","no","yes","576","legacy","82","82","3","C:/Users/Navleen/Documents/open sesame/subject-5202157.csv","legacy","Lentiform Loewenfeld","3.3.8","yes","yes","600bd7cfb6416f0113b04181","602110864497cf011d9c0822","0","j","NA","j","space","space","space","j","1109","NA","3108","11231","5272","29955","1109","2","legacy","1024","2","48000","-16","task","5202157","odd","NA","28467","33579","30470","250339","3732","20239","14967","250842","146756","250338","250843","250279","33579","251955","26644","249779","3705","236926","Lexical Decision Task","79","94686","87","yes","1024"
"2.82129731","6.72","5","plum","word","90.9090909090909","90.9090909090909","1089.375","1089.375","black","no","legacy","legacy","legacy","0","uniform","1","undefined","undefined","undefined","1","j","0","0","0","0","87","0","0","0","87","0","83","87","83","0","83","3","87","0","87","Wed Mar 10 01:55:22 2021","The main experiment item","yes","Lexical_Decision_Task.osexp","C:/Users/Navleen","no","Andale Mono","no","18","no","white","no","yes","576","legacy","83","83","3","C:/Users/Navleen/Documents/open sesame/subject-5202157.csv","legacy","Lentiform Loewenfeld","3.3.8","yes","yes","600bd7cfb6416f0113b04181","602110864497cf011d9c0822","0","j","NA","j","space","space","space","j","1179","NA","3108","11231","5272","29955","1179","2","legacy","1024","2","48000","-16","task","5202157","odd","NA","28467","33579","30470","252540","3732","20239","14967","253041","146756","252539","253041","252469","33579","254222","26644","251969","3705","236926","Lexical Decision Task","80","95865","88","yes","1024"
"3.263399331","0","8","cour","non-word","91.01123595505618","91.01123595505618","1092.7640449438202","1092.7640449438202","black","no","legacy","legacy","legacy","0","uniform","1","undefined","undefined","undefined","1","f","0","0","0","0","88","0","0","0","88","0","84","88","84","0","84","3","88","0","88","Wed Mar 10 01:55:22 2021","The main experiment item","yes","Lexical_Decision_Task.osexp","C:/Users/Navleen","no","Andale Mono","no","18","no","white","no","yes","576","legacy","84","84","3","C:/Users/Navleen/Documents/open sesame/subject-5202157.csv","legacy","Lentiform Loewenfeld","3.3.8","yes","yes","600bd7cfb6416f0113b04181","602110864497cf011d9c0822","0","f","NA","j","space","space","space","f","1391","NA","3108","11231","5272","29955","1391","2","legacy","1024","2","48000","-16","task","5202157","odd","NA","28467","33579","30470","254796","3732","20239","14967","255299","146756","254795","255299","254736","33579","256692","26644","254236","3705","236926","Lexical Decision Task","81","97256","89","yes","1024"
"2.778633532","0","3","jurp","non-word","91.11111111111111","91.11111111111111","1090.2222222222222","1090.2222222222222","black","no","legacy","legacy","legacy","0","uniform","1","undefined","undefined","undefined","1","f","0","0","0","0","89","0","0","0","89","0","85","89","85","0","85","3","89","0","89","Wed Mar 10 01:55:22 2021","The main experiment item","yes","Lexical_Decision_Task.osexp","C:/Users/Navleen","no","Andale Mono","no","18","no","white","no","yes","576","legacy","85","85","3","C:/Users/Navleen/Documents/open sesame/subject-5202157.csv","legacy","Lentiform Loewenfeld","3.3.8","yes","yes","600bd7cfb6416f0113b04181","602110864497cf011d9c0822","0","f","NA","j","space","space","space","f","864","NA","3108","11231","5272","29955","864","2","legacy","1024","2","48000","-16","task","5202157","odd","NA","28467","33579","30470","257275","3732","20239","14967","257778","146756","257274","257779","257206","33579","258645","26644","256706","3705","236926","Lexical Decision Task","82","98120","90","yes","1024"
"3.132473155","0","4","glim","non-word","90.10989010989012","90.10989010989012","1089.956043956044","1089.956043956044","black","no","legacy","legacy","legacy","0","uniform","0","undefined","undefined","undefined","0","f","0","0","0","0","90","0","0","0","90","0","86","90","86","0","86","3","90","0","90","Wed Mar 10 01:55:22 2021","The main experiment item","yes","Lexical_Decision_Task.osexp","C:/Users/Navleen","no","Andale Mono","no","18","no","white","no","yes","576","legacy","86","86","3","C:/Users/Navleen/Documents/open sesame/subject-5202157.csv","legacy","Lentiform Loewenfeld","3.3.8","yes","yes","600bd7cfb6416f0113b04181","602110864497cf011d9c0822","0","j","NA","j","space","space","space","j","1066","NA","3108","11231","5272","29955","1066","2","legacy","1024","2","48000","-16","task","5202157","odd","NA","28467","33579","30470","259227","3732","20239","14967","259728","146756","259225","259728","259159","33579","260796","26644","258659","3705","236926","Lexical Decision Task","82","99186","91","yes","1024"
"2.708989954","9.28","9","bowl","word","90.21739130434783","90.21739130434783","1084.9021739130435","1084.9021739130435","black","no","legacy","legacy","legacy","0","uniform","1","undefined","undefined","undefined","1","j","0","0","0","0","91","0","0","0","91","0","87","91","87","0","87","3","91","0","91","Wed Mar 10 01:55:22 2021","The main experiment item","yes","Lexical_Decision_Task.osexp","C:/Users/Navleen","no","Andale Mono","no","18","no","white","no","yes","576","legacy","87","87","3","C:/Users/Navleen/Documents/open sesame/subject-5202157.csv","legacy","Lentiform Loewenfeld","3.3.8","yes","yes","600bd7cfb6416f0113b04181","602110864497cf011d9c0822","0","j","NA","j","space","space","space","j","625","NA","3108","11231","5272","29955","625","2","legacy","1024","2","48000","-16","task","5202157","odd","NA","28467","33579","30470","262377","3732","20239","14967","262878","146756","262376","262878","262313","33579","263505","26644","258659","3705","260813","Lexical Decision Task","83","99811","92","yes","1024"
"2.875447132","0","9","jelt","non-word","90.3225806451613","90.3225806451613","1081.5483870967741","1081.5483870967741","black","no","legacy","legacy","legacy","0","uniform","1","undefined","undefined","undefined","1","f","0","0","0","0","92","0","0","0","92","0","88","92","88","0","88","3","92","0","92","Wed Mar 10 01:55:22 2021","The main experiment item","yes","Lexical_Decision_Task.osexp","C:/Users/Navleen","no","Andale Mono","no","18","no","white","no","yes","576","legacy","88","88","3","C:/Users/Navleen/Documents/open sesame/subject-5202157.csv","legacy","Lentiform Loewenfeld","3.3.8","yes","yes","600bd7cfb6416f0113b04181","602110864497cf011d9c0822","0","f","NA","j","space","space","space","f","773","NA","3108","11231","5272","29955","773","2","legacy","1024","2","48000","-16","task","5202157","odd","NA","28467","33579","30470","264077","3732","20239","14967","264578","146756","264076","264578","264019","33579","265352","26644","263519","3705","260813","Lexical Decision Task","84","100584","93","yes","1024"
"3.064581521","5.51","6","cask","word","89.36170212765957","89.36170212765957","1089.627659574468","1089.627659574468","black","no","legacy","legacy","legacy","0","uniform","0","undefined","undefined","undefined","0","j","0","0","0","0","93","0","0","0","93","0","89","93","89","0","89","3","93","0","93","Wed Mar 10 01:55:22 2021","The main experiment item","yes","Lexical_Decision_Task.osexp","C:/Users/Navleen","no","Andale Mono","no","18","no","white","no","yes","576","legacy","89","89","3","C:/Users/Navleen/Documents/open sesame/subject-5202157.csv","legacy","Lentiform Loewenfeld","3.3.8","yes","yes","600bd7cfb6416f0113b04181","602110864497cf011d9c0822","0","f","NA","j","space","space","space","f","1841","NA","3108","11231","5272","29955","1841","2","legacy","1024","2","48000","-16","task","5202157","odd","NA","28467","33579","30470","265937","3732","20239","14967","266439","146756","265936","266439","265868","33579","268283","26644","265368","3705","260813","Lexical Decision Task","84","102425","94","yes","1024"
"2.698387659","6.66","7","skid","word","89.47368421052632","89.47368421052632","1102.6526315789474","1102.6526315789474","black","no","legacy","legacy","legacy","0","uniform","1","undefined","undefined","undefined","1","j","0","0","0","0","94","0","0","0","94","0","90","94","90","0","90","3","94","0","94","Wed Mar 10 01:55:22 2021","The main experiment item","yes","Lexical_Decision_Task.osexp","C:/Users/Navleen","no","Andale Mono","no","18","no","white","no","yes","576","legacy","90","90","3","C:/Users/Navleen/Documents/open sesame/subject-5202157.csv","legacy","Lentiform Loewenfeld","3.3.8","yes","yes","600bd7cfb6416f0113b04181","602110864497cf011d9c0822","0","j","NA","j","space","space","space","j","2327","NA","3108","11231","5272","29955","2327","2","legacy","1024","2","48000","-16","task","5202157","odd","NA","28467","33579","30470","269859","3732","20239","14967","270360","146756","269858","270360","269797","33579","272690","26644","265368","3705","268297","Lexical Decision Task","85","104752","95","yes","1024"
"3.031408464","0","7","drow","non-word","88.54166666666667","88.54166666666667","1115.3333333333333","1115.3333333333333","black","no","legacy","legacy","legacy","0","uniform","0","undefined","undefined","undefined","0","f","0","0","0","0","95","0","0","0","95","0","91","95","91","0","91","3","95","0","95","Wed Mar 10 01:55:22 2021","The main experiment item","yes","Lexical_Decision_Task.osexp","C:/Users/Navleen","no","Andale Mono","no","18","no","white","no","yes","576","legacy","91","91","3","C:/Users/Navleen/Documents/open sesame/subject-5202157.csv","legacy","Lentiform Loewenfeld","3.3.8","yes","yes","600bd7cfb6416f0113b04181","602110864497cf011d9c0822","0","j","NA","j","space","space","space","j","2320","NA","3108","11231","5272","29955","2320","2","legacy","1024","2","48000","-16","task","5202157","odd","NA","28467","33579","30470","273265","3732","20239","14967","273766","146756","273263","273767","273205","33579","276089","26644","272705","3705","268297","Lexical Decision Task","85","107072","96","yes","1024"
"2.898725182","0","7","turl","non-word","88.65979381443299","88.65979381443299","1112.7731958762886","1112.7731958762886","black","no","legacy","legacy","legacy","0","uniform","1","undefined","undefined","undefined","1","f","0","0","0","0","96","0","0","0","96","0","92","96","92","0","92","3","96","0","96","Wed Mar 10 01:55:22 2021","The main experiment item","yes","Lexical_Decision_Task.osexp","C:/Users/Navleen","no","Andale Mono","no","18","no","white","no","yes","576","legacy","92","92","3","C:/Users/Navleen/Documents/open sesame/subject-5202157.csv","legacy","Lentiform Loewenfeld","3.3.8","yes","yes","600bd7cfb6416f0113b04181","602110864497cf011d9c0822","0","f","NA","j","space","space","space","f","867","NA","3108","11231","5272","29955","867","2","legacy","1024","2","48000","-16","task","5202157","odd","NA","28467","33579","30470","277681","3732","20239","14967","278184","146756","277679","278185","277604","33579","279054","26644","272705","3705","276104","Lexical Decision Task","86","107939","97","yes","1024"
"3.168890155","0","6","thet","non-word","88.77551020408163","88.77551020408163","1107.9591836734694","1107.9591836734694","black","no","legacy","legacy","legacy","0","uniform","1","undefined","undefined","undefined","1","f","0","0","0","0","97","0","0","0","97","0","93","97","93","0","93","3","97","0","97","Wed Mar 10 01:55:22 2021","The main experiment item","yes","Lexical_Decision_Task.osexp","C:/Users/Navleen","no","Andale Mono","no","18","no","white","no","yes","576","legacy","93","93","3","C:/Users/Navleen/Documents/open sesame/subject-5202157.csv","legacy","Lentiform Loewenfeld","3.3.8","yes","yes","600bd7cfb6416f0113b04181","602110864497cf011d9c0822","0","f","NA","j","space","space","space","f","641","NA","3108","11231","5272","29955","641","2","legacy","1024","2","48000","-16","task","5202157","odd","NA","28467","33579","30470","279628","3732","20239","14967","280129","146756","279626","280129","279568","33579","280771","26644","279068","3705","276104","Lexical Decision Task","87","108580","98","yes","1024"
"2.64476673","0","5","moft","non-word","88.88888888888889","88.88888888888889","1105.7171717171718","1105.7171717171718","black","no","legacy","legacy","legacy","0","uniform","1","undefined","undefined","undefined","1","f","0","0","0","0","98","0","0","0","98","0","94","98","94","0","94","3","98","0","98","Wed Mar 10 01:55:22 2021","The main experiment item","yes","Lexical_Decision_Task.osexp","C:/Users/Navleen","no","Andale Mono","no","18","no","white","no","yes","576","legacy","94","94","3","C:/Users/Navleen/Documents/open sesame/subject-5202157.csv","legacy","Lentiform Loewenfeld","3.3.8","yes","yes","600bd7cfb6416f0113b04181","602110864497cf011d9c0822","0","f","NA","j","space","space","space","f","886","NA","3108","11231","5272","29955","886","2","legacy","1024","2","48000","-16","task","5202157","odd","NA","28467","33579","30470","281343","3732","20239","14967","281847","146756","281341","281847","281277","33579","282735","26644","280777","3705","276104","Lexical Decision Task","88","109466","99","yes","1024"
"2.952953801","0","8","clax","non-word","89","89","1101.1","1101.1","black","no","legacy","legacy","legacy","0","uniform","1","undefined","undefined","undefined","1","f","0","0","0","0","99","0","0","0","99","0","95","99","95","0","95","3","99","0","99","Wed Mar 10 01:55:22 2021","The main experiment item","yes","Lexical_Decision_Task.osexp","C:/Users/Navleen","no","Andale Mono","no","18","no","white","no","yes","576","legacy","95","95","3","C:/Users/Navleen/Documents/open sesame/subject-5202157.csv","legacy","Lentiform Loewenfeld","3.3.8","yes","yes","600bd7cfb6416f0113b04181","602110864497cf011d9c0822","0","f","NA","j","space","space","space","f","644","NA","3108","11231","5272","29955","644","2","legacy","1024","2","48000","-16","task","5202157","odd","NA","28467","33579","30470","283319","3732","20239","14967","283822","146756","283318","283822","283248","33579","284468","26644","282748","3705","276104","Lexical Decision Task","89","110110","100","yes","1024"
