"Log_BG","Log_Freq_HAL","Ortho_N","Stimulus","Type","acc","accuracy","average_response_time","avg_rt","background","bidi","canvas_backend","clock_backend","color_backend","compensation","coordinates","correct","correct_Experimental_intro","correct_Introduction","correct_Practice_intro","correct_experimenter_kb","correct_response","count_End_Of_Experiment","count_End_Of_Practice","count_Experimental_Loop","count_Experimental_intro","count_Fixation","count_Introduction","count_Practice_Loop","count_Practice_intro","count_Stimulus","count_block_break_feedback","count_experimental_sequence","count_experimenter_kb","count_increment_trial_count","count_init_trial_count","count_logger","count_practice_sequence","count_right","count_task","count_wrong","datetime","description","disable_garbage_collection","experiment_file","experiment_path","font_bold","font_family","font_italic","font_size","font_underline","foreground","form_clicks","fullscreen","height","keyboard_backend","live_row","live_row_Experimental_Loop","live_row_Practice_Loop","logfile","mouse_backend","opensesame_codename","opensesame_version","osf_always_upload_data","osf_always_upload_experiment","osf_datanode_id","osf_id","repeat_cycle","response","response_End_Of_Experiment","response_Experimental_intro","response_Introduction","response_Practice_intro","response_block_break_feedback","response_experimenter_kb","response_time","response_time_End_Of_Experiment","response_time_Experimental_intro","response_time_Introduction","response_time_Practice_intro","response_time_block_break_feedback","response_time_experimenter_kb","round_decimals","sampler_backend","sound_buf_size","sound_channels","sound_freq","sound_sample_size","start","subject_nr","subject_parity","time_End_Of_Experiment","time_End_Of_Practice","time_Experimental_Loop","time_Experimental_intro","time_Fixation","time_Introduction","time_Practice_Loop","time_Practice_intro","time_Stimulus","time_block_break_feedback","time_experimental_sequence","time_experimenter_kb","time_increment_trial_count","time_init_trial_count","time_logger","time_practice_sequence","time_right","time_task","time_wrong","title","total_correct","total_response_time","total_responses","uniform_coordinates","width"
"2.698100546","0","9","mulk","non-word","100","100","983","983","black","no","legacy","legacy","legacy","0","uniform","1","undefined","undefined","undefined","1","f","0","0","0","0","4","0","0","0","4","NA","0","4","0","0","0","3","4","0","4","Wed Feb 17 12:42:57 2021","The main experiment item","yes","Lexical_Decision_Task.osexp","C:/Users/ellie","no","Andale Mono","no","18","no","white","no","yes","576","legacy","0","0","3","C:/Users/ellie/subject-5209220.csv","legacy","Lentiform Loewenfeld","3.3.7","yes","yes","600bd7cfb6416f0113b04181","602110864497cf011d9c0822","0","f","NA","j","j","j","NA","f","1063","NA","3753","14979","6653","NA","1063","2","legacy","1024","2","48000","-16","task","5209220","even","NA","35959","41715","37962","41758","6035","27671","21017","42261","NA","41756","42261","NA","41715","43325","34323","35424","6028","NA","Lexical Decision Task","5","4915","5","yes","1024"
"3.20996159","0","4","clee","non-word","100","100","968","968","black","no","legacy","legacy","legacy","0","uniform","1","undefined","undefined","undefined","1","f","0","0","0","0","5","0","0","0","5","NA","1","5","1","0","1","3","5","0","5","Wed Feb 17 12:42:57 2021","The main experiment item","yes","Lexical_Decision_Task.osexp","C:/Users/ellie","no","Andale Mono","no","18","no","white","no","yes","576","legacy","1","1","3","C:/Users/ellie/subject-5209220.csv","legacy","Lentiform Loewenfeld","3.3.7","yes","yes","600bd7cfb6416f0113b04181","602110864497cf011d9c0822","0","f","NA","j","j","j","NA","f","893","NA","3753","14979","6653","NA","893","2","legacy","1024","2","48000","-16","task","5209220","even","NA","35959","41715","37962","43940","6035","27671","21017","44443","NA","43938","44443","43837","41715","45337","34323","43337","6028","NA","Lexical Decision Task","6","5808","6","yes","1024"
"3.368162872","0","4","ferk","non-word","100","100","935","935","black","no","legacy","legacy","legacy","0","uniform","1","undefined","undefined","undefined","1","f","0","0","0","0","6","0","0","0","6","NA","2","6","2","0","2","3","6","0","6","Wed Feb 17 12:42:57 2021","The main experiment item","yes","Lexical_Decision_Task.osexp","C:/Users/ellie","no","Andale Mono","no","18","no","white","no","yes","576","legacy","2","2","3","C:/Users/ellie/subject-5209220.csv","legacy","Lentiform Loewenfeld","3.3.7","yes","yes","600bd7cfb6416f0113b04181","602110864497cf011d9c0822","0","f","NA","j","j","j","NA","f","737","NA","3753","14979","6653","NA","737","2","legacy","1024","2","48000","-16","task","5209220","even","NA","35959","41715","37962","45918","6035","27671","21017","46421","NA","45917","46422","45844","41715","47159","34323","45344","6028","NA","Lexical Decision Task","7","6545","7","yes","1024"
"2.708989954","9.28","9","bowl","word","100","100","889.75","889.75","black","no","legacy","legacy","legacy","0","uniform","1","undefined","undefined","undefined","1","j","0","0","0","0","7","0","0","0","7","NA","3","7","3","0","3","3","7","0","7","Wed Feb 17 12:42:57 2021","The main experiment item","yes","Lexical_Decision_Task.osexp","C:/Users/ellie","no","Andale Mono","no","18","no","white","no","yes","576","legacy","3","3","3","C:/Users/ellie/subject-5209220.csv","legacy","Lentiform Loewenfeld","3.3.7","yes","yes","600bd7cfb6416f0113b04181","602110864497cf011d9c0822","0","j","NA","j","j","j","NA","j","573","NA","3753","14979","6653","NA","573","2","legacy","1024","2","48000","-16","task","5209220","even","NA","35959","41715","37962","47742","6035","27671","21017","48245","NA","47741","48246","47666","41715","48819","34323","47166","6028","NA","Lexical Decision Task","8","7118","8","yes","1024"
"3.119255889","6.63","2","itch","word","100","100","851.1111111111111","851.1111111111111","black","no","legacy","legacy","legacy","0","uniform","1","undefined","undefined","undefined","1","j","0","0","0","0","8","0","0","0","8","NA","4","8","4","0","4","3","8","0","8","Wed Feb 17 12:42:57 2021","The main experiment item","yes","Lexical_Decision_Task.osexp","C:/Users/ellie","no","Andale Mono","no","18","no","white","no","yes","576","legacy","4","4","3","C:/Users/ellie/subject-5209220.csv","legacy","Lentiform Loewenfeld","3.3.7","yes","yes","600bd7cfb6416f0113b04181","602110864497cf011d9c0822","0","j","NA","j","j","j","NA","j","542","NA","3753","14979","6653","NA","542","2","legacy","1024","2","48000","-16","task","5209220","even","NA","35959","41715","37962","49406","6035","27671","21017","49909","NA","49405","49910","49326","41715","50452","34323","48826","6028","NA","Lexical Decision Task","9","7660","9","yes","1024"
"3.043885998","0","9","gome","non-word","100","100","842.4","842.4","black","no","legacy","legacy","legacy","0","uniform","1","undefined","undefined","undefined","1","f","0","0","0","0","9","0","0","0","9","NA","5","9","5","0","5","3","9","0","9","Wed Feb 17 12:42:57 2021","The main experiment item","yes","Lexical_Decision_Task.osexp","C:/Users/ellie","no","Andale Mono","no","18","no","white","no","yes","576","legacy","5","5","3","C:/Users/ellie/subject-5209220.csv","legacy","Lentiform Loewenfeld","3.3.7","yes","yes","600bd7cfb6416f0113b04181","602110864497cf011d9c0822","0","f","NA","j","j","j","NA","f","764","NA","3753","14979","6653","NA","764","2","legacy","1024","2","48000","-16","task","5209220","even","NA","35959","41715","37962","51033","6035","27671","21017","51536","NA","51031","51537","50959","41715","52301","34323","50459","6028","NA","Lexical Decision Task","10","8424","10","yes","1024"
"2.799799878","0","4","ciff","non-word","100","100","827.5454545454545","827.5454545454545","black","no","legacy","legacy","legacy","0","uniform","1","undefined","undefined","undefined","1","f","0","0","0","0","10","0","0","0","10","NA","6","10","6","0","6","3","10","0","10","Wed Feb 17 12:42:57 2021","The main experiment item","yes","Lexical_Decision_Task.osexp","C:/Users/ellie","no","Andale Mono","no","18","no","white","no","yes","576","legacy","6","6","3","C:/Users/ellie/subject-5209220.csv","legacy","Lentiform Loewenfeld","3.3.7","yes","yes","600bd7cfb6416f0113b04181","602110864497cf011d9c0822","0","f","NA","j","j","j","NA","f","679","NA","3753","14979","6653","NA","679","2","legacy","1024","2","48000","-16","task","5209220","even","NA","35959","41715","37962","52885","6035","27671","21017","53389","NA","52883","53389","52809","41715","54069","34323","52309","6028","NA","Lexical Decision Task","11","9103","11","yes","1024"
"2.838639236","0","4","furg","non-word","100","100","806.9166666666666","806.9166666666666","black","no","legacy","legacy","legacy","0","uniform","1","undefined","undefined","undefined","1","f","0","0","0","0","11","0","0","0","11","NA","7","11","7","0","7","3","11","0","11","Wed Feb 17 12:42:57 2021","The main experiment item","yes","Lexical_Decision_Task.osexp","C:/Users/ellie","no","Andale Mono","no","18","no","white","no","yes","576","legacy","7","7","3","C:/Users/ellie/subject-5209220.csv","legacy","Lentiform Loewenfeld","3.3.7","yes","yes","600bd7cfb6416f0113b04181","602110864497cf011d9c0822","0","f","NA","j","j","j","NA","f","580","NA","3753","14979","6653","NA","580","2","legacy","1024","2","48000","-16","task","5209220","even","NA","35959","41715","37962","54654","6035","27671","21017","55157","NA","54652","55157","54576","41715","55738","34323","54076","6028","NA","Lexical Decision Task","12","9683","12","yes","1024"
"2.793790385","5.67","9","swab","word","100","100","792.1538461538462","792.1538461538462","black","no","legacy","legacy","legacy","0","uniform","1","undefined","undefined","undefined","1","j","0","0","0","0","12","0","0","0","12","NA","8","12","8","0","8","3","12","0","12","Wed Feb 17 12:42:57 2021","The main experiment item","yes","Lexical_Decision_Task.osexp","C:/Users/ellie","no","Andale Mono","no","18","no","white","no","yes","576","legacy","8","8","3","C:/Users/ellie/subject-5209220.csv","legacy","Lentiform Loewenfeld","3.3.7","yes","yes","600bd7cfb6416f0113b04181","602110864497cf011d9c0822","0","j","NA","j","j","j","NA","j","615","NA","3753","14979","6653","NA","615","2","legacy","1024","2","48000","-16","task","5209220","even","NA","35959","41715","37962","56323","6035","27671","21017","56826","NA","56321","56826","56244","41715","57442","34323","55744","6028","NA","Lexical Decision Task","13","10298","13","yes","1024"
"3.531734309","0","6","lerd","non-word","100","100","784.1428571428571","784.1428571428571","black","no","legacy","legacy","legacy","0","uniform","1","undefined","undefined","undefined","1","f","0","0","0","0","13","0","0","0","13","NA","9","13","9","0","9","3","13","0","13","Wed Feb 17 12:42:57 2021","The main experiment item","yes","Lexical_Decision_Task.osexp","C:/Users/ellie","no","Andale Mono","no","18","no","white","no","yes","576","legacy","9","9","3","C:/Users/ellie/subject-5209220.csv","legacy","Lentiform Loewenfeld","3.3.7","yes","yes","600bd7cfb6416f0113b04181","602110864497cf011d9c0822","0","f","NA","j","j","j","NA","f","680","NA","3753","14979","6653","NA","680","2","legacy","1024","2","48000","-16","task","5209220","even","NA","35959","41715","37962","58027","6035","27671","21017","58530","NA","58025","58531","57949","41715","59212","34323","57449","6028","NA","Lexical Decision Task","14","10978","14","yes","1024"
"2.69019608","9.01","2","myth","word","100","100","835.4","835.4","black","no","legacy","legacy","legacy","0","uniform","1","undefined","undefined","undefined","1","j","0","0","0","0","14","0","0","0","14","NA","10","14","10","0","10","3","14","0","14","Wed Feb 17 12:42:57 2021","The main experiment item","yes","Lexical_Decision_Task.osexp","C:/Users/ellie","no","Andale Mono","no","18","no","white","no","yes","576","legacy","10","10","3","C:/Users/ellie/subject-5209220.csv","legacy","Lentiform Loewenfeld","3.3.7","yes","yes","600bd7cfb6416f0113b04181","602110864497cf011d9c0822","0","j","NA","j","j","j","NA","j","1553","NA","3753","14979","6653","NA","1553","2","legacy","1024","2","48000","-16","task","5209220","even","NA","35959","41715","37962","59801","6035","27671","21017","60304","NA","59799","60305","59722","41715","61859","34323","59222","6028","NA","Lexical Decision Task","15","12531","15","yes","1024"
"3.039414119","0","9","meep","non-word","100","100","851.6875","851.6875","black","no","legacy","legacy","legacy","0","uniform","1","undefined","undefined","undefined","1","f","0","0","0","0","15","0","0","0","15","NA","11","15","11","0","11","3","15","0","15","Wed Feb 17 12:42:57 2021","The main experiment item","yes","Lexical_Decision_Task.osexp","C:/Users/ellie","no","Andale Mono","no","18","no","white","no","yes","576","legacy","11","11","3","C:/Users/ellie/subject-5209220.csv","legacy","Lentiform Loewenfeld","3.3.7","yes","yes","600bd7cfb6416f0113b04181","602110864497cf011d9c0822","0","f","NA","j","j","j","NA","f","1096","NA","3753","14979","6653","NA","1096","2","legacy","1024","2","48000","-16","task","5209220","even","NA","35959","41715","37962","62449","6035","27671","21017","62952","NA","62448","62953","62367","41715","64049","34323","61867","6028","NA","Lexical Decision Task","16","13627","16","yes","1024"
"3.259832699","0","9","flar","non-word","100","100","873.6470588235294","873.6470588235294","black","no","legacy","legacy","legacy","0","uniform","1","undefined","undefined","undefined","1","f","0","0","0","0","16","0","0","0","16","NA","12","16","12","0","12","3","16","0","16","Wed Feb 17 12:42:57 2021","The main experiment item","yes","Lexical_Decision_Task.osexp","C:/Users/ellie","no","Andale Mono","no","18","no","white","no","yes","576","legacy","12","12","3","C:/Users/ellie/subject-5209220.csv","legacy","Lentiform Loewenfeld","3.3.7","yes","yes","600bd7cfb6416f0113b04181","602110864497cf011d9c0822","0","f","NA","j","j","j","NA","f","1225","NA","3753","14979","6653","NA","1225","2","legacy","1024","2","48000","-16","task","5209220","even","NA","35959","41715","37962","64632","6035","27671","21017","65135","NA","64631","65136","64556","41715","66362","34323","64056","6028","NA","Lexical Decision Task","17","14852","17","yes","1024"
"3.209246849","0","7","slem","non-word","100","100","862.1111111111111","862.1111111111111","black","no","legacy","legacy","legacy","0","uniform","1","undefined","undefined","undefined","1","f","0","0","0","0","17","0","0","0","17","NA","13","17","13","0","13","3","17","0","17","Wed Feb 17 12:42:57 2021","The main experiment item","yes","Lexical_Decision_Task.osexp","C:/Users/ellie","no","Andale Mono","no","18","no","white","no","yes","576","legacy","13","13","3","C:/Users/ellie/subject-5209220.csv","legacy","Lentiform Loewenfeld","3.3.7","yes","yes","600bd7cfb6416f0113b04181","602110864497cf011d9c0822","0","f","NA","j","j","j","NA","f","666","NA","3753","14979","6653","NA","666","2","legacy","1024","2","48000","-16","task","5209220","even","NA","35959","41715","37962","66944","6035","27671","21017","67447","NA","66942","67448","66869","41715","68115","34323","66369","6028","NA","Lexical Decision Task","18","15518","18","yes","1024"
"2.986323777","10.85","8","ship","word","100","100","844.6842105263158","844.6842105263158","black","no","legacy","legacy","legacy","0","uniform","1","undefined","undefined","undefined","1","j","0","0","0","0","18","0","0","0","18","NA","14","18","14","0","14","3","18","0","18","Wed Feb 17 12:42:57 2021","The main experiment item","yes","Lexical_Decision_Task.osexp","C:/Users/ellie","no","Andale Mono","no","18","no","white","no","yes","576","legacy","14","14","3","C:/Users/ellie/subject-5209220.csv","legacy","Lentiform Loewenfeld","3.3.7","yes","yes","600bd7cfb6416f0113b04181","602110864497cf011d9c0822","0","j","NA","j","j","j","NA","j","531","NA","3753","14979","6653","NA","531","2","legacy","1024","2","48000","-16","task","5209220","even","NA","35959","41715","37962","68700","6035","27671","21017","69203","NA","68698","69204","68620","41715","69736","34323","68120","6028","NA","Lexical Decision Task","19","16049","19","yes","1024"
"3.208978517","10.33","4","fish","word","100","100","829.35","829.35","black","no","legacy","legacy","legacy","0","uniform","1","undefined","undefined","undefined","1","j","0","0","0","0","19","0","0","0","19","NA","15","19","15","0","15","3","19","0","19","Wed Feb 17 12:42:57 2021","The main experiment item","yes","Lexical_Decision_Task.osexp","C:/Users/ellie","no","Andale Mono","no","18","no","white","no","yes","576","legacy","15","15","3","C:/Users/ellie/subject-5209220.csv","legacy","Lentiform Loewenfeld","3.3.7","yes","yes","600bd7cfb6416f0113b04181","602110864497cf011d9c0822","0","j","NA","j","j","j","NA","j","538","NA","3753","14979","6653","NA","538","2","legacy","1024","2","48000","-16","task","5209220","even","NA","35959","41715","37962","70318","6035","27671","21017","70821","NA","70317","70821","70242","41715","71359","34323","69742","6028","NA","Lexical Decision Task","20","16587","20","yes","1024"
"3.248054965","7.86","5","glow","word","100","100","816.3333333333334","816.3333333333334","black","no","legacy","legacy","legacy","0","uniform","1","undefined","undefined","undefined","1","j","0","0","0","0","20","0","0","0","20","NA","16","20","16","0","16","3","20","0","20","Wed Feb 17 12:42:57 2021","The main experiment item","yes","Lexical_Decision_Task.osexp","C:/Users/ellie","no","Andale Mono","no","18","no","white","no","yes","576","legacy","16","16","3","C:/Users/ellie/subject-5209220.csv","legacy","Lentiform Loewenfeld","3.3.7","yes","yes","600bd7cfb6416f0113b04181","602110864497cf011d9c0822","0","j","NA","j","j","j","NA","j","556","NA","3753","14979","6653","NA","556","2","legacy","1024","2","48000","-16","task","5209220","even","NA","35959","41715","37962","71950","6035","27671","21017","72453","NA","71949","72454","71874","41715","73011","34323","71373","6028","NA","Lexical Decision Task","21","17143","21","yes","1024"
"2.794720352","0","9","koot","non-word","100","100","813.5","813.5","black","no","legacy","legacy","legacy","0","uniform","1","undefined","undefined","undefined","1","f","0","0","0","0","21","0","0","0","21","NA","17","21","17","0","17","3","21","0","21","Wed Feb 17 12:42:57 2021","The main experiment item","yes","Lexical_Decision_Task.osexp","C:/Users/ellie","no","Andale Mono","no","18","no","white","no","yes","576","legacy","17","17","3","C:/Users/ellie/subject-5209220.csv","legacy","Lentiform Loewenfeld","3.3.7","yes","yes","600bd7cfb6416f0113b04181","602110864497cf011d9c0822","0","f","NA","j","j","j","NA","f","754","NA","3753","14979","6653","NA","754","2","legacy","1024","2","48000","-16","task","5209220","even","NA","35959","41715","37962","73594","6035","27671","21017","74098","NA","73594","74098","73518","41715","74852","34323","73018","6028","NA","Lexical Decision Task","22","17897","22","yes","1024"
"3.081107167","0","6","chot","non-word","100","100","813.7391304347826","813.7391304347826","black","no","legacy","legacy","legacy","0","uniform","1","undefined","undefined","undefined","1","f","0","0","0","0","22","0","0","0","22","NA","18","22","18","0","18","3","22","0","22","Wed Feb 17 12:42:57 2021","The main experiment item","yes","Lexical_Decision_Task.osexp","C:/Users/ellie","no","Andale Mono","no","18","no","white","no","yes","576","legacy","18","18","3","C:/Users/ellie/subject-5209220.csv","legacy","Lentiform Loewenfeld","3.3.7","yes","yes","600bd7cfb6416f0113b04181","602110864497cf011d9c0822","0","f","NA","j","j","j","NA","f","819","NA","3753","14979","6653","NA","819","2","legacy","1024","2","48000","-16","task","5209220","even","NA","35959","41715","37962","75438","6035","27671","21017","75941","NA","75436","75942","75360","41715","76762","34323","74860","6028","NA","Lexical Decision Task","23","18716","23","yes","1024"
"3.131833513","7.66","4","limb","word","100","100","806.1666666666666","806.1666666666666","black","no","legacy","legacy","legacy","0","uniform","1","undefined","undefined","undefined","1","j","0","0","0","0","23","0","0","0","23","NA","19","23","19","0","19","3","23","0","23","Wed Feb 17 12:42:57 2021","The main experiment item","yes","Lexical_Decision_Task.osexp","C:/Users/ellie","no","Andale Mono","no","18","no","white","no","yes","576","legacy","19","19","3","C:/Users/ellie/subject-5209220.csv","legacy","Lentiform Loewenfeld","3.3.7","yes","yes","600bd7cfb6416f0113b04181","602110864497cf011d9c0822","0","j","NA","j","j","j","NA","j","632","NA","3753","14979","6653","NA","632","2","legacy","1024","2","48000","-16","task","5209220","even","NA","35959","41715","37962","77348","6035","27671","21017","77850","NA","77346","77850","77269","41715","78483","34323","76769","6028","NA","Lexical Decision Task","24","19348","24","yes","1024"
"3.208172527","10.27","7","deck","word","100","100","794.16","794.16","black","no","legacy","legacy","legacy","0","uniform","1","undefined","undefined","undefined","1","j","0","0","0","0","24","0","0","0","24","NA","20","24","20","0","20","3","24","0","24","Wed Feb 17 12:42:57 2021","The main experiment item","yes","Lexical_Decision_Task.osexp","C:/Users/ellie","no","Andale Mono","no","18","no","white","no","yes","576","legacy","20","20","3","C:/Users/ellie/subject-5209220.csv","legacy","Lentiform Loewenfeld","3.3.7","yes","yes","600bd7cfb6416f0113b04181","602110864497cf011d9c0822","0","j","NA","j","j","j","NA","j","506","NA","3753","14979","6653","NA","506","2","legacy","1024","2","48000","-16","task","5209220","even","NA","35959","41715","37962","79069","6035","27671","21017","79572","NA","79067","79572","78991","41715","80079","34323","78491","6028","NA","Lexical Decision Task","25","19854","25","yes","1024"
"3.037294994","8.64","7","roof","word","100","100","789.0769230769231","789.0769230769231","black","no","legacy","legacy","legacy","0","uniform","1","undefined","undefined","undefined","1","j","0","0","0","0","25","0","0","0","25","NA","21","25","21","0","21","3","25","0","25","Wed Feb 17 12:42:57 2021","The main experiment item","yes","Lexical_Decision_Task.osexp","C:/Users/ellie","no","Andale Mono","no","18","no","white","no","yes","576","legacy","21","21","3","C:/Users/ellie/subject-5209220.csv","legacy","Lentiform Loewenfeld","3.3.7","yes","yes","600bd7cfb6416f0113b04181","602110864497cf011d9c0822","0","j","NA","j","j","j","NA","j","662","NA","3753","14979","6653","NA","662","2","legacy","1024","2","48000","-16","task","5209220","even","NA","35959","41715","37962","80665","6035","27671","21017","81168","NA","80664","81169","80586","41715","81831","34323","80086","6028","NA","Lexical Decision Task","26","20516","26","yes","1024"
"3.067070856","9.39","3","loud","word","100","100","781.1111111111111","781.1111111111111","black","no","legacy","legacy","legacy","0","uniform","1","undefined","undefined","undefined","1","j","0","0","0","0","26","0","0","0","26","NA","22","26","22","0","22","3","26","0","26","Wed Feb 17 12:42:57 2021","The main experiment item","yes","Lexical_Decision_Task.osexp","C:/Users/ellie","no","Andale Mono","no","18","no","white","no","yes","576","legacy","22","22","3","C:/Users/ellie/subject-5209220.csv","legacy","Lentiform Loewenfeld","3.3.7","yes","yes","600bd7cfb6416f0113b04181","602110864497cf011d9c0822","0","j","NA","j","j","j","NA","j","574","NA","3753","14979","6653","NA","574","2","legacy","1024","2","48000","-16","task","5209220","even","NA","35959","41715","37962","82417","6035","27671","21017","82920","NA","82415","82921","82339","41715","83495","34323","81839","6028","NA","Lexical Decision Task","27","21090","27","yes","1024"
"3.2757719","0","5","slea","non-word","100","100","785.25","785.25","black","no","legacy","legacy","legacy","0","uniform","1","undefined","undefined","undefined","1","f","0","0","0","0","27","0","0","0","27","NA","23","27","23","0","23","3","27","0","27","Wed Feb 17 12:42:57 2021","The main experiment item","yes","Lexical_Decision_Task.osexp","C:/Users/ellie","no","Andale Mono","no","18","no","white","no","yes","576","legacy","23","23","3","C:/Users/ellie/subject-5209220.csv","legacy","Lentiform Loewenfeld","3.3.7","yes","yes","600bd7cfb6416f0113b04181","602110864497cf011d9c0822","0","f","NA","j","j","j","NA","f","897","NA","3753","14979","6653","NA","897","2","legacy","1024","2","48000","-16","task","5209220","even","NA","35959","41715","37962","84077","6035","27671","21017","84580","NA","84075","84581","84002","41715","85478","34323","83502","6028","NA","Lexical Decision Task","28","21987","28","yes","1024"
"2.972357144","0","5","dasp","non-word","100","100","785.3793103448276","785.3793103448276","black","no","legacy","legacy","legacy","0","uniform","1","undefined","undefined","undefined","1","f","0","0","0","0","28","0","0","0","28","NA","24","28","24","0","24","3","28","0","28","Wed Feb 17 12:42:57 2021","The main experiment item","yes","Lexical_Decision_Task.osexp","C:/Users/ellie","no","Andale Mono","no","18","no","white","no","yes","576","legacy","24","24","3","C:/Users/ellie/subject-5209220.csv","legacy","Lentiform Loewenfeld","3.3.7","yes","yes","600bd7cfb6416f0113b04181","602110864497cf011d9c0822","0","f","NA","j","j","j","NA","f","789","NA","3753","14979","6653","NA","789","2","legacy","1024","2","48000","-16","task","5209220","even","NA","35959","41715","37962","86069","6035","27671","21017","86572","NA","86067","86573","85985","41715","87363","34323","85485","6028","NA","Lexical Decision Task","29","22776","29","yes","1024"
"2.981215883","10.66","5","hair","word","100","100","776.1","776.1","black","no","legacy","legacy","legacy","0","uniform","1","undefined","undefined","undefined","1","j","0","0","0","0","29","0","0","0","29","NA","25","29","25","0","25","3","29","0","29","Wed Feb 17 12:42:57 2021","The main experiment item","yes","Lexical_Decision_Task.osexp","C:/Users/ellie","no","Andale Mono","no","18","no","white","no","yes","576","legacy","25","25","3","C:/Users/ellie/subject-5209220.csv","legacy","Lentiform Loewenfeld","3.3.7","yes","yes","600bd7cfb6416f0113b04181","602110864497cf011d9c0822","0","j","NA","j","j","j","NA","j","507","NA","3753","14979","6653","NA","507","2","legacy","1024","2","48000","-16","task","5209220","even","NA","35959","41715","37962","87944","6035","27671","21017","88447","NA","87942","88447","87870","41715","88955","34323","87370","6028","NA","Lexical Decision Task","30","23283","30","yes","1024"
"3.29439347","8.6","9","wand","word","100","100","773.1612903225806","773.1612903225806","black","no","legacy","legacy","legacy","0","uniform","1","undefined","undefined","undefined","1","j","0","0","0","0","30","0","0","0","30","NA","26","30","26","0","26","3","30","0","30","Wed Feb 17 12:42:57 2021","The main experiment item","yes","Lexical_Decision_Task.osexp","C:/Users/ellie","no","Andale Mono","no","18","no","white","no","yes","576","legacy","26","26","3","C:/Users/ellie/subject-5209220.csv","legacy","Lentiform Loewenfeld","3.3.7","yes","yes","600bd7cfb6416f0113b04181","602110864497cf011d9c0822","0","j","NA","j","j","j","NA","j","685","NA","3753","14979","6653","NA","685","2","legacy","1024","2","48000","-16","task","5209220","even","NA","35959","41715","37962","89548","6035","27671","21017","90051","NA","89545","90052","89463","41715","90738","34323","88963","6028","NA","Lexical Decision Task","31","23968","31","yes","1024"
"2.706148589","0","4","hube","non-word","100","100","771.03125","771.03125","black","no","legacy","legacy","legacy","0","uniform","1","undefined","undefined","undefined","1","f","0","0","0","0","31","0","0","0","31","NA","27","31","27","0","27","3","31","0","31","Wed Feb 17 12:42:57 2021","The main experiment item","yes","Lexical_Decision_Task.osexp","C:/Users/ellie","no","Andale Mono","no","18","no","white","no","yes","576","legacy","27","27","3","C:/Users/ellie/subject-5209220.csv","legacy","Lentiform Loewenfeld","3.3.7","yes","yes","600bd7cfb6416f0113b04181","602110864497cf011d9c0822","0","f","NA","j","j","j","NA","f","705","NA","3753","14979","6653","NA","705","2","legacy","1024","2","48000","-16","task","5209220","even","NA","35959","41715","37962","91324","6035","27671","21017","91827","NA","91322","91828","91246","41715","92533","34323","90746","6028","NA","Lexical Decision Task","32","24673","32","yes","1024"
"3.159867847","5.98","5","brim","word","100","100","785.2727272727273","785.2727272727273","black","no","legacy","legacy","legacy","0","uniform","1","undefined","undefined","undefined","1","j","0","0","0","0","32","0","0","0","32","NA","28","32","28","0","28","3","32","0","32","Wed Feb 17 12:42:57 2021","The main experiment item","yes","Lexical_Decision_Task.osexp","C:/Users/ellie","no","Andale Mono","no","18","no","white","no","yes","576","legacy","28","28","3","C:/Users/ellie/subject-5209220.csv","legacy","Lentiform Loewenfeld","3.3.7","yes","yes","600bd7cfb6416f0113b04181","602110864497cf011d9c0822","0","j","NA","j","j","j","NA","j","1241","NA","3753","14979","6653","NA","1241","2","legacy","1024","2","48000","-16","task","5209220","even","NA","35959","41715","37962","93116","6035","27671","21017","93619","NA","93115","93620","93041","41715","94862","34323","92541","6028","NA","Lexical Decision Task","33","25914","33","yes","1024"
"2.746890964","9.67","3","plug","word","100","100","777.9117647058823","777.9117647058823","black","no","legacy","legacy","legacy","0","uniform","1","undefined","undefined","undefined","1","j","0","0","0","0","33","0","0","0","33","NA","29","33","29","0","29","3","33","0","33","Wed Feb 17 12:42:57 2021","The main experiment item","yes","Lexical_Decision_Task.osexp","C:/Users/ellie","no","Andale Mono","no","18","no","white","no","yes","576","legacy","29","29","3","C:/Users/ellie/subject-5209220.csv","legacy","Lentiform Loewenfeld","3.3.7","yes","yes","600bd7cfb6416f0113b04181","602110864497cf011d9c0822","0","j","NA","j","j","j","NA","j","535","NA","3753","14979","6653","NA","535","2","legacy","1024","2","48000","-16","task","5209220","even","NA","35959","41715","37962","95442","6035","27671","21017","95946","NA","95441","95946","95368","41715","96482","34323","94868","6028","NA","Lexical Decision Task","34","26449","34","yes","1024"
"2.86332286","6.71","2","feud","word","100","100","784.0285714285715","784.0285714285715","black","no","legacy","legacy","legacy","0","uniform","1","undefined","undefined","undefined","1","j","0","0","0","0","34","0","0","0","34","NA","30","34","30","0","30","3","34","0","34","Wed Feb 17 12:42:57 2021","The main experiment item","yes","Lexical_Decision_Task.osexp","C:/Users/ellie","no","Andale Mono","no","18","no","white","no","yes","576","legacy","30","30","3","C:/Users/ellie/subject-5209220.csv","legacy","Lentiform Loewenfeld","3.3.7","yes","yes","600bd7cfb6416f0113b04181","602110864497cf011d9c0822","0","j","NA","j","j","j","NA","j","992","NA","3753","14979","6653","NA","992","2","legacy","1024","2","48000","-16","task","5209220","even","NA","35959","41715","37962","97068","6035","27671","21017","97572","NA","97066","97572","96990","41715","98564","34323","96490","6028","NA","Lexical Decision Task","35","27441","35","yes","1024"
"3.077974404","10.41","8","tool","word","100","100","778.1111111111111","778.1111111111111","black","no","legacy","legacy","legacy","0","uniform","1","undefined","undefined","undefined","1","j","0","0","0","0","35","0","0","0","35","NA","31","35","31","0","31","3","35","0","35","Wed Feb 17 12:42:57 2021","The main experiment item","yes","Lexical_Decision_Task.osexp","C:/Users/ellie","no","Andale Mono","no","18","no","white","no","yes","576","legacy","31","31","3","C:/Users/ellie/subject-5209220.csv","legacy","Lentiform Loewenfeld","3.3.7","yes","yes","600bd7cfb6416f0113b04181","602110864497cf011d9c0822","0","j","NA","j","j","j","NA","j","571","NA","3753","14979","6653","NA","571","2","legacy","1024","2","48000","-16","task","5209220","even","NA","35959","41715","37962","99147","6035","27671","21017","99650","NA","99145","99651","99072","41715","100223","34323","98572","6028","NA","Lexical Decision Task","36","28012","36","yes","1024"
"3.156347201","0","8","lasp","non-word","100","100","781.5135135135135","781.5135135135135","black","no","legacy","legacy","legacy","0","uniform","1","undefined","undefined","undefined","1","f","0","0","0","0","36","0","0","0","36","NA","32","36","32","0","32","3","36","0","36","Wed Feb 17 12:42:57 2021","The main experiment item","yes","Lexical_Decision_Task.osexp","C:/Users/ellie","no","Andale Mono","no","18","no","white","no","yes","576","legacy","32","32","3","C:/Users/ellie/subject-5209220.csv","legacy","Lentiform Loewenfeld","3.3.7","yes","yes","600bd7cfb6416f0113b04181","602110864497cf011d9c0822","0","f","NA","j","j","j","NA","f","904","NA","3753","14979","6653","NA","904","2","legacy","1024","2","48000","-16","task","5209220","even","NA","35959","41715","37962","100809","6035","27671","21017","101313","NA","100807","101313","100732","41715","102218","34323","100232","6028","NA","Lexical Decision Task","37","28916","37","yes","1024"
"3.049218023","7.4","9","robe","word","100","100","778.8947368421053","778.8947368421053","black","no","legacy","legacy","legacy","0","uniform","1","undefined","undefined","undefined","1","j","0","0","0","0","37","0","0","0","37","NA","33","37","33","0","33","3","37","0","37","Wed Feb 17 12:42:57 2021","The main experiment item","yes","Lexical_Decision_Task.osexp","C:/Users/ellie","no","Andale Mono","no","18","no","white","no","yes","576","legacy","33","33","3","C:/Users/ellie/subject-5209220.csv","legacy","Lentiform Loewenfeld","3.3.7","yes","yes","600bd7cfb6416f0113b04181","602110864497cf011d9c0822","0","j","NA","j","j","j","NA","j","682","NA","3753","14979","6653","NA","682","2","legacy","1024","2","48000","-16","task","5209220","even","NA","35959","41715","37962","102800","6035","27671","21017","103303","NA","102798","103304","102725","41715","103987","34323","102225","6028","NA","Lexical Decision Task","38","29598","38","yes","1024"
"2.6599162","0","6","flug","non-word","100","100","778.6410256410256","778.6410256410256","black","no","legacy","legacy","legacy","0","uniform","1","undefined","undefined","undefined","1","f","0","0","0","0","38","0","0","0","38","NA","34","38","34","0","34","3","38","0","38","Wed Feb 17 12:42:57 2021","The main experiment item","yes","Lexical_Decision_Task.osexp","C:/Users/ellie","no","Andale Mono","no","18","no","white","no","yes","576","legacy","34","34","3","C:/Users/ellie/subject-5209220.csv","legacy","Lentiform Loewenfeld","3.3.7","yes","yes","600bd7cfb6416f0113b04181","602110864497cf011d9c0822","0","f","NA","j","j","j","NA","f","769","NA","3753","14979","6653","NA","769","2","legacy","1024","2","48000","-16","task","5209220","even","NA","35959","41715","37962","104569","6035","27671","21017","105072","NA","104568","105073","104495","41715","105843","34323","103994","6028","NA","Lexical Decision Task","39","30367","39","yes","1024"
"2.695481676","0","7","goke","non-word","100","100","779.675","779.675","black","no","legacy","legacy","legacy","0","uniform","1","undefined","undefined","undefined","1","f","0","0","0","0","39","0","0","0","39","NA","35","39","35","0","35","3","39","0","39","Wed Feb 17 12:42:57 2021","The main experiment item","yes","Lexical_Decision_Task.osexp","C:/Users/ellie","no","Andale Mono","no","18","no","white","no","yes","576","legacy","35","35","3","C:/Users/ellie/subject-5209220.csv","legacy","Lentiform Loewenfeld","3.3.7","yes","yes","600bd7cfb6416f0113b04181","602110864497cf011d9c0822","0","f","NA","j","j","j","NA","f","820","NA","3753","14979","6653","NA","820","2","legacy","1024","2","48000","-16","task","5209220","even","NA","35959","41715","37962","106430","6035","27671","21017","106933","NA","106428","106933","106352","41715","107754","34323","105852","6028","NA","Lexical Decision Task","40","31187","40","yes","1024"
"2.68604012","0","3","mulb","non-word","100","100","777.6585365853658","777.6585365853658","black","no","legacy","legacy","legacy","0","uniform","1","undefined","undefined","undefined","1","f","0","0","0","0","40","0","0","0","40","NA","36","40","36","0","36","3","40","0","40","Wed Feb 17 12:42:57 2021","The main experiment item","yes","Lexical_Decision_Task.osexp","C:/Users/ellie","no","Andale Mono","no","18","no","white","no","yes","576","legacy","36","36","3","C:/Users/ellie/subject-5209220.csv","legacy","Lentiform Loewenfeld","3.3.7","yes","yes","600bd7cfb6416f0113b04181","602110864497cf011d9c0822","0","f","NA","j","j","j","NA","f","697","NA","3753","14979","6653","NA","697","2","legacy","1024","2","48000","-16","task","5209220","even","NA","35959","41715","37962","108337","6035","27671","21017","108840","NA","108335","108841","108263","41715","109539","34323","107762","6028","NA","Lexical Decision Task","41","31884","41","yes","1024"
"3.14849993","10.75","7","hour","word","100","100","773.3095238095239","773.3095238095239","black","no","legacy","legacy","legacy","0","uniform","1","undefined","undefined","undefined","1","j","0","0","0","0","41","0","0","0","41","NA","37","41","37","0","37","3","41","0","41","Wed Feb 17 12:42:57 2021","The main experiment item","yes","Lexical_Decision_Task.osexp","C:/Users/ellie","no","Andale Mono","no","18","no","white","no","yes","576","legacy","37","37","3","C:/Users/ellie/subject-5209220.csv","legacy","Lentiform Loewenfeld","3.3.7","yes","yes","600bd7cfb6416f0113b04181","602110864497cf011d9c0822","0","j","NA","j","j","j","NA","j","595","NA","3753","14979","6653","NA","595","2","legacy","1024","2","48000","-16","task","5209220","even","NA","35959","41715","37962","110121","6035","27671","21017","110624","NA","110119","110625","110046","41715","111221","34323","109546","6028","NA","Lexical Decision Task","42","32479","42","yes","1024"
"2.971428938","9.86","7","spot","word","100","100","767.8837209302326","767.8837209302326","black","no","legacy","legacy","legacy","0","uniform","1","undefined","undefined","undefined","1","j","0","0","0","0","42","0","0","0","42","NA","38","42","38","0","38","3","42","0","42","Wed Feb 17 12:42:57 2021","The main experiment item","yes","Lexical_Decision_Task.osexp","C:/Users/ellie","no","Andale Mono","no","18","no","white","no","yes","576","legacy","38","38","3","C:/Users/ellie/subject-5209220.csv","legacy","Lentiform Loewenfeld","3.3.7","yes","yes","600bd7cfb6416f0113b04181","602110864497cf011d9c0822","0","j","NA","j","j","j","NA","j","540","NA","3753","14979","6653","NA","540","2","legacy","1024","2","48000","-16","task","5209220","even","NA","35959","41715","37962","111805","6035","27671","21017","112308","NA","111803","112308","111728","41715","112849","34323","111228","6028","NA","Lexical Decision Task","43","33019","43","yes","1024"
"3.261341392","5.08","8","reek","word","100","100","797.1818181818181","797.1818181818181","black","no","legacy","legacy","legacy","0","uniform","1","undefined","undefined","undefined","1","j","0","0","0","0","43","0","0","0","43","NA","39","43","39","0","39","3","43","0","43","Wed Feb 17 12:42:57 2021","The main experiment item","yes","Lexical_Decision_Task.osexp","C:/Users/ellie","no","Andale Mono","no","18","no","white","no","yes","576","legacy","39","39","3","C:/Users/ellie/subject-5209220.csv","legacy","Lentiform Loewenfeld","3.3.7","yes","yes","600bd7cfb6416f0113b04181","602110864497cf011d9c0822","0","j","NA","j","j","j","NA","j","2057","NA","3753","14979","6653","NA","2057","2","legacy","1024","2","48000","-16","task","5209220","even","NA","35959","41715","37962","113429","6035","27671","21017","113932","NA","113427","113933","113356","41715","115991","34323","112856","6028","NA","Lexical Decision Task","44","35076","44","yes","1024"
"3.094121596","0","8","fode","non-word","100","100","796.8","796.8","black","no","legacy","legacy","legacy","0","uniform","1","undefined","undefined","undefined","1","f","0","0","0","0","44","0","0","0","44","NA","40","44","40","0","40","3","44","0","44","Wed Feb 17 12:42:57 2021","The main experiment item","yes","Lexical_Decision_Task.osexp","C:/Users/ellie","no","Andale Mono","no","18","no","white","no","yes","576","legacy","40","40","3","C:/Users/ellie/subject-5209220.csv","legacy","Lentiform Loewenfeld","3.3.7","yes","yes","600bd7cfb6416f0113b04181","602110864497cf011d9c0822","0","f","NA","j","j","j","NA","f","780","NA","3753","14979","6653","NA","780","2","legacy","1024","2","48000","-16","task","5209220","even","NA","35959","41715","37962","116578","6035","27671","21017","117081","NA","116576","117082","116498","41715","117863","34323","115998","6028","NA","Lexical Decision Task","45","35856","45","yes","1024"
"3.269668578","0","7","trag","non-word","100","100","797.8913043478261","797.8913043478261","black","no","legacy","legacy","legacy","0","uniform","1","undefined","undefined","undefined","1","f","0","0","0","0","45","0","0","0","45","NA","41","45","41","0","41","3","45","0","45","Wed Feb 17 12:42:57 2021","The main experiment item","yes","Lexical_Decision_Task.osexp","C:/Users/ellie","no","Andale Mono","no","18","no","white","no","yes","576","legacy","41","41","3","C:/Users/ellie/subject-5209220.csv","legacy","Lentiform Loewenfeld","3.3.7","yes","yes","600bd7cfb6416f0113b04181","602110864497cf011d9c0822","0","f","NA","j","j","j","NA","f","847","NA","3753","14979","6653","NA","847","2","legacy","1024","2","48000","-16","task","5209220","even","NA","35959","41715","37962","118446","6035","27671","21017","118949","NA","118445","118950","118370","41715","119798","34323","117870","6028","NA","Lexical Decision Task","46","36703","46","yes","1024"
"3.091901331","0","9","nipe","non-word","100","100","797.8510638297872","797.8510638297872","black","no","legacy","legacy","legacy","0","uniform","1","undefined","undefined","undefined","1","f","0","0","0","0","46","0","0","0","46","NA","42","46","42","0","42","3","46","0","46","Wed Feb 17 12:42:57 2021","The main experiment item","yes","Lexical_Decision_Task.osexp","C:/Users/ellie","no","Andale Mono","no","18","no","white","no","yes","576","legacy","42","42","3","C:/Users/ellie/subject-5209220.csv","legacy","Lentiform Loewenfeld","3.3.7","yes","yes","600bd7cfb6416f0113b04181","602110864497cf011d9c0822","0","f","NA","j","j","j","NA","f","796","NA","3753","14979","6653","NA","796","2","legacy","1024","2","48000","-16","task","5209220","even","NA","35959","41715","37962","120379","6035","27671","21017","120881","NA","120378","120881","120307","41715","121678","34323","119807","6028","NA","Lexical Decision Task","47","37499","47","yes","1024"
"2.875447132","0","9","jelt","non-word","100","100","799.0208333333334","799.0208333333334","black","no","legacy","legacy","legacy","0","uniform","1","undefined","undefined","undefined","1","f","0","0","0","0","47","0","0","0","47","NA","43","47","43","0","43","3","47","0","47","Wed Feb 17 12:42:57 2021","The main experiment item","yes","Lexical_Decision_Task.osexp","C:/Users/ellie","no","Andale Mono","no","18","no","white","no","yes","576","legacy","43","43","3","C:/Users/ellie/subject-5209220.csv","legacy","Lentiform Loewenfeld","3.3.7","yes","yes","600bd7cfb6416f0113b04181","602110864497cf011d9c0822","0","f","NA","j","j","j","NA","f","854","NA","3753","14979","6653","NA","854","2","legacy","1024","2","48000","-16","task","5209220","even","NA","35959","41715","37962","122259","6035","27671","21017","122763","NA","122257","122763","122185","41715","123618","34323","121685","6028","NA","Lexical Decision Task","48","38353","48","yes","1024"
"3.165936429","0","7","leps","non-word","100","100","797.6122448979592","797.6122448979592","black","no","legacy","legacy","legacy","0","uniform","1","undefined","undefined","undefined","1","f","0","0","0","0","48","0","0","0","48","NA","44","48","44","0","44","3","48","0","48","Wed Feb 17 12:42:57 2021","The main experiment item","yes","Lexical_Decision_Task.osexp","C:/Users/ellie","no","Andale Mono","no","18","no","white","no","yes","576","legacy","44","44","3","C:/Users/ellie/subject-5209220.csv","legacy","Lentiform Loewenfeld","3.3.7","yes","yes","600bd7cfb6416f0113b04181","602110864497cf011d9c0822","0","f","NA","j","j","j","NA","f","730","NA","3753","14979","6653","NA","730","2","legacy","1024","2","48000","-16","task","5209220","even","NA","35959","41715","37962","124202","6035","27671","21017","124705","NA","124201","124706","124125","41715","125437","34323","123625","6028","NA","Lexical Decision Task","49","39083","49","yes","1024"
"2.9737419","7.69","7","claw","word","100","100","794.1","794.1","black","no","legacy","legacy","legacy","0","uniform","1","undefined","undefined","undefined","1","j","0","0","0","0","49","0","0","0","49","NA","45","49","45","0","45","3","49","0","49","Wed Feb 17 12:42:57 2021","The main experiment item","yes","Lexical_Decision_Task.osexp","C:/Users/ellie","no","Andale Mono","no","18","no","white","no","yes","576","legacy","45","45","3","C:/Users/ellie/subject-5209220.csv","legacy","Lentiform Loewenfeld","3.3.7","yes","yes","600bd7cfb6416f0113b04181","602110864497cf011d9c0822","0","j","NA","j","j","j","NA","j","622","NA","3753","14979","6653","NA","622","2","legacy","1024","2","48000","-16","task","5209220","even","NA","35959","41715","37962","126020","6035","27671","21017","126523","NA","126018","126524","125943","41715","127147","34323","125443","6028","NA","Lexical Decision Task","50","39705","50","yes","1024"
"3.064581521","5.51","6","cask","word","98.03921568627452","98.03921568627452","810.1372549019608","810.1372549019608","black","no","legacy","legacy","legacy","0","uniform","0","undefined","undefined","undefined","0","j","0","0","0","0","50","0","0","0","50","NA","46","50","46","0","46","3","50","0","50","Wed Feb 17 12:42:57 2021","The main experiment item","yes","Lexical_Decision_Task.osexp","C:/Users/ellie","no","Andale Mono","no","18","no","white","no","yes","576","legacy","46","46","3","C:/Users/ellie/subject-5209220.csv","legacy","Lentiform Loewenfeld","3.3.7","yes","yes","600bd7cfb6416f0113b04181","602110864497cf011d9c0822","0","f","NA","j","j","j","NA","f","1612","NA","3753","14979","6653","NA","1612","2","legacy","1024","2","48000","-16","task","5209220","even","NA","35959","41715","37962","127727","6035","27671","21017","128230","NA","127725","128231","127655","41715","129843","34323","127155","6028","NA","Lexical Decision Task","50","41317","51","yes","1024"
"3.028977705","0","7","frow","non-word","98.07692307692308","98.07692307692308","822.5769230769231","822.5769230769231","black","no","legacy","legacy","legacy","0","uniform","1","undefined","undefined","undefined","1","f","0","0","0","0","51","0","0","0","51","NA","47","51","47","0","47","3","51","0","51","Wed Feb 17 12:42:57 2021","The main experiment item","yes","Lexical_Decision_Task.osexp","C:/Users/ellie","no","Andale Mono","no","18","no","white","no","yes","576","legacy","47","47","3","C:/Users/ellie/subject-5209220.csv","legacy","Lentiform Loewenfeld","3.3.7","yes","yes","600bd7cfb6416f0113b04181","602110864497cf011d9c0822","0","f","NA","j","j","j","NA","f","1457","NA","3753","14979","6653","NA","1457","2","legacy","1024","2","48000","-16","task","5209220","even","NA","35959","41715","37962","131431","6035","27671","21017","131934","NA","131429","131935","131351","41715","133392","34323","127155","6028","129851","Lexical Decision Task","51","42774","52","yes","1024"
"2.7084209","0","8","vump","non-word","98.11320754716981","98.11320754716981","821.6415094339623","821.6415094339623","black","no","legacy","legacy","legacy","0","uniform","1","undefined","undefined","undefined","1","f","0","0","0","0","52","0","0","0","52","NA","48","52","48","0","48","3","52","0","52","Wed Feb 17 12:42:57 2021","The main experiment item","yes","Lexical_Decision_Task.osexp","C:/Users/ellie","no","Andale Mono","no","18","no","white","no","yes","576","legacy","48","48","3","C:/Users/ellie/subject-5209220.csv","legacy","Lentiform Loewenfeld","3.3.7","yes","yes","600bd7cfb6416f0113b04181","602110864497cf011d9c0822","0","f","NA","j","j","j","NA","f","773","NA","3753","14979","6653","NA","773","2","legacy","1024","2","48000","-16","task","5209220","even","NA","35959","41715","37962","133975","6035","27671","21017","134479","NA","133973","134480","133898","41715","135254","34323","133398","6028","129851","Lexical Decision Task","52","43547","53","yes","1024"
"2.728085817","10.02","9","bike","word","98.14814814814815","98.14814814814815","816.9444444444445","816.9444444444445","black","no","legacy","legacy","legacy","0","uniform","1","undefined","undefined","undefined","1","j","0","0","0","0","53","0","0","0","53","NA","49","53","49","0","49","3","53","0","53","Wed Feb 17 12:42:57 2021","The main experiment item","yes","Lexical_Decision_Task.osexp","C:/Users/ellie","no","Andale Mono","no","18","no","white","no","yes","576","legacy","49","49","3","C:/Users/ellie/subject-5209220.csv","legacy","Lentiform Loewenfeld","3.3.7","yes","yes","600bd7cfb6416f0113b04181","602110864497cf011d9c0822","0","j","NA","j","j","j","NA","j","568","NA","3753","14979","6653","NA","568","2","legacy","1024","2","48000","-16","task","5209220","even","NA","35959","41715","37962","135840","6035","27671","21017","136344","NA","135838","136345","135763","41715","136914","34323","135263","6028","129851","Lexical Decision Task","53","44115","54","yes","1024"
"3.382617311","0","4","pret","non-word","96.36363636363636","96.36363636363636","839.5454545454545","839.5454545454545","black","no","legacy","legacy","legacy","0","uniform","0","undefined","undefined","undefined","0","f","0","0","0","0","54","0","0","0","54","0","50","54","50","0","50","3","54","0","54","Wed Feb 17 12:42:57 2021","The main experiment item","yes","Lexical_Decision_Task.osexp","C:/Users/ellie","no","Andale Mono","no","18","no","white","no","yes","576","legacy","50","50","3","C:/Users/ellie/subject-5209220.csv","legacy","Lentiform Loewenfeld","3.3.7","yes","yes","600bd7cfb6416f0113b04181","602110864497cf011d9c0822","0","j","NA","j","j","j","space","j","2060","NA","3753","14979","6653","4363","2060","2","legacy","1024","2","48000","-16","task","5209220","even","NA","35959","41715","37962","141910","6035","27671","21017","142412","137487","141909","142413","137421","41715","144475","34323","136921","6028","129851","Lexical Decision Task","53","46175","55","yes","1024"
"2.839898939","8.99","6","soap","word","96.42857142857143","96.42857142857143","835.9642857142857","835.9642857142857","black","no","legacy","legacy","legacy","0","uniform","1","undefined","undefined","undefined","1","j","0","0","0","0","55","0","0","0","55","0","51","55","51","0","51","3","55","0","55","Wed Feb 17 12:42:57 2021","The main experiment item","yes","Lexical_Decision_Task.osexp","C:/Users/ellie","no","Andale Mono","no","18","no","white","no","yes","576","legacy","51","51","3","C:/Users/ellie/subject-5209220.csv","legacy","Lentiform Loewenfeld","3.3.7","yes","yes","600bd7cfb6416f0113b04181","602110864497cf011d9c0822","0","j","NA","j","j","j","space","j","639","NA","3753","14979","6653","4363","639","2","legacy","1024","2","48000","-16","task","5209220","even","NA","35959","41715","37962","146065","6035","27671","21017","146568","137487","146063","146569","145982","41715","147209","34323","136921","6028","144482","Lexical Decision Task","54","46814","56","yes","1024"
"3.168400243","9.12","6","horn","word","96.49122807017544","96.49122807017544","830.0526315789474","830.0526315789474","black","no","legacy","legacy","legacy","0","uniform","1","undefined","undefined","undefined","1","j","0","0","0","0","56","0","0","0","56","0","52","56","52","0","52","3","56","0","56","Wed Feb 17 12:42:57 2021","The main experiment item","yes","Lexical_Decision_Task.osexp","C:/Users/ellie","no","Andale Mono","no","18","no","white","no","yes","576","legacy","52","52","3","C:/Users/ellie/subject-5209220.csv","legacy","Lentiform Loewenfeld","3.3.7","yes","yes","600bd7cfb6416f0113b04181","602110864497cf011d9c0822","0","j","NA","j","j","j","space","j","499","NA","3753","14979","6653","4363","499","2","legacy","1024","2","48000","-16","task","5209220","even","NA","35959","41715","37962","147789","6035","27671","21017","148292","137487","147788","148293","147716","41715","148793","34323","147216","6028","144482","Lexical Decision Task","55","47313","57","yes","1024"
"2.696644658","5.78","2","yolk","word","96.55172413793103","96.55172413793103","825.5689655172414","825.5689655172414","black","no","legacy","legacy","legacy","0","uniform","1","undefined","undefined","undefined","1","j","0","0","0","0","57","0","0","0","57","0","53","57","53","0","53","3","57","0","57","Wed Feb 17 12:42:57 2021","The main experiment item","yes","Lexical_Decision_Task.osexp","C:/Users/ellie","no","Andale Mono","no","18","no","white","no","yes","576","legacy","53","53","3","C:/Users/ellie/subject-5209220.csv","legacy","Lentiform Loewenfeld","3.3.7","yes","yes","600bd7cfb6416f0113b04181","602110864497cf011d9c0822","0","j","NA","j","j","j","space","j","570","NA","3753","14979","6653","4363","570","2","legacy","1024","2","48000","-16","task","5209220","even","NA","35959","41715","37962","149375","6035","27671","21017","149878","137487","149374","149878","149300","41715","150449","34323","148800","6028","144482","Lexical Decision Task","56","47883","58","yes","1024"
"2.75025376","10.2","6","jump","word","96.61016949152543","96.61016949152543","819.3728813559322","819.3728813559322","black","no","legacy","legacy","legacy","0","uniform","1","undefined","undefined","undefined","1","j","0","0","0","0","58","0","0","0","58","0","54","58","54","0","54","3","58","0","58","Wed Feb 17 12:42:57 2021","The main experiment item","yes","Lexical_Decision_Task.osexp","C:/Users/ellie","no","Andale Mono","no","18","no","white","no","yes","576","legacy","54","54","3","C:/Users/ellie/subject-5209220.csv","legacy","Lentiform Loewenfeld","3.3.7","yes","yes","600bd7cfb6416f0113b04181","602110864497cf011d9c0822","0","j","NA","j","j","j","space","j","460","NA","3753","14979","6653","4363","460","2","legacy","1024","2","48000","-16","task","5209220","even","NA","35959","41715","37962","151031","6035","27671","21017","151534","137487","151030","151535","150956","41715","151996","34323","150456","6028","144482","Lexical Decision Task","57","48343","59","yes","1024"
"2.983324025","9.56","2","debt","word","96.66666666666667","96.66666666666667","815.6166666666667","815.6166666666667","black","no","legacy","legacy","legacy","0","uniform","1","undefined","undefined","undefined","1","j","0","0","0","0","59","0","0","0","59","0","55","59","55","0","55","3","59","0","59","Wed Feb 17 12:42:57 2021","The main experiment item","yes","Lexical_Decision_Task.osexp","C:/Users/ellie","no","Andale Mono","no","18","no","white","no","yes","576","legacy","55","55","3","C:/Users/ellie/subject-5209220.csv","legacy","Lentiform Loewenfeld","3.3.7","yes","yes","600bd7cfb6416f0113b04181","602110864497cf011d9c0822","0","j","NA","j","j","j","space","j","594","NA","3753","14979","6653","4363","594","2","legacy","1024","2","48000","-16","task","5209220","even","NA","35959","41715","37962","152577","6035","27671","21017","153080","137487","152575","153081","152503","41715","153676","34323","152003","6028","144482","Lexical Decision Task","58","48937","60","yes","1024"
"3.137775856","7.39","5","comb","word","96.72131147540983","96.72131147540983","811.6065573770492","811.6065573770492","black","no","legacy","legacy","legacy","0","uniform","1","undefined","undefined","undefined","1","j","0","0","0","0","60","0","0","0","60","0","56","60","56","0","56","3","60","0","60","Wed Feb 17 12:42:57 2021","The main experiment item","yes","Lexical_Decision_Task.osexp","C:/Users/ellie","no","Andale Mono","no","18","no","white","no","yes","576","legacy","56","56","3","C:/Users/ellie/subject-5209220.csv","legacy","Lentiform Loewenfeld","3.3.7","yes","yes","600bd7cfb6416f0113b04181","602110864497cf011d9c0822","0","j","NA","j","j","j","space","j","571","NA","3753","14979","6653","4363","571","2","legacy","1024","2","48000","-16","task","5209220","even","NA","35959","41715","37962","154268","6035","27671","21017","154771","137487","154267","154772","154184","41715","155344","34323","153683","6028","144482","Lexical Decision Task","59","49508","61","yes","1024"
"3.282244367","0","6","fute","non-word","96.7741935483871","96.7741935483871","810.8225806451613","810.8225806451613","black","no","legacy","legacy","legacy","0","uniform","1","undefined","undefined","undefined","1","f","0","0","0","0","61","0","0","0","61","0","57","61","57","0","57","3","61","0","61","Wed Feb 17 12:42:57 2021","The main experiment item","yes","Lexical_Decision_Task.osexp","C:/Users/ellie","no","Andale Mono","no","18","no","white","no","yes","576","legacy","57","57","3","C:/Users/ellie/subject-5209220.csv","legacy","Lentiform Loewenfeld","3.3.7","yes","yes","600bd7cfb6416f0113b04181","602110864497cf011d9c0822","0","f","NA","j","j","j","space","f","763","NA","3753","14979","6653","4363","763","2","legacy","1024","2","48000","-16","task","5209220","even","NA","35959","41715","37962","155930","6035","27671","21017","156433","137487","155928","156434","155851","41715","157198","34323","155351","6028","144482","Lexical Decision Task","60","50271","62","yes","1024"
"2.696356389","0","1","pizz","non-word","96.82539682539682","96.82539682539682","812.1269841269841","812.1269841269841","black","no","legacy","legacy","legacy","0","uniform","1","undefined","undefined","undefined","1","f","0","0","0","0","62","0","0","0","62","0","58","62","58","0","58","3","62","0","62","Wed Feb 17 12:42:57 2021","The main experiment item","yes","Lexical_Decision_Task.osexp","C:/Users/ellie","no","Andale Mono","no","18","no","white","no","yes","576","legacy","58","58","3","C:/Users/ellie/subject-5209220.csv","legacy","Lentiform Loewenfeld","3.3.7","yes","yes","600bd7cfb6416f0113b04181","602110864497cf011d9c0822","0","f","NA","j","j","j","space","f","893","NA","3753","14979","6653","4363","893","2","legacy","1024","2","48000","-16","task","5209220","even","NA","35959","41715","37962","157780","6035","27671","21017","158284","137487","157779","158284","157706","41715","159177","34323","157206","6028","144482","Lexical Decision Task","61","51164","63","yes","1024"
"3.194328374","9.42","6","harm","word","96.875","96.875","808.078125","808.078125","black","no","legacy","legacy","legacy","0","uniform","1","undefined","undefined","undefined","1","j","0","0","0","0","63","0","0","0","63","0","59","63","59","0","59","3","63","0","63","Wed Feb 17 12:42:57 2021","The main experiment item","yes","Lexical_Decision_Task.osexp","C:/Users/ellie","no","Andale Mono","no","18","no","white","no","yes","576","legacy","59","59","3","C:/Users/ellie/subject-5209220.csv","legacy","Lentiform Loewenfeld","3.3.7","yes","yes","600bd7cfb6416f0113b04181","602110864497cf011d9c0822","0","j","NA","j","j","j","space","j","553","NA","3753","14979","6653","4363","553","2","legacy","1024","2","48000","-16","task","5209220","even","NA","35959","41715","37962","159760","6035","27671","21017","160263","137487","159759","160263","159686","41715","160817","34323","159186","6028","144482","Lexical Decision Task","62","51717","64","yes","1024"
"3.003891166","8.05","2","frog","word","96.92307692307692","96.92307692307692","803.6615384615385","803.6615384615385","black","no","legacy","legacy","legacy","0","uniform","1","undefined","undefined","undefined","1","j","0","0","0","0","64","0","0","0","64","0","60","64","60","0","60","3","64","0","64","Wed Feb 17 12:42:57 2021","The main experiment item","yes","Lexical_Decision_Task.osexp","C:/Users/ellie","no","Andale Mono","no","18","no","white","no","yes","576","legacy","60","60","3","C:/Users/ellie/subject-5209220.csv","legacy","Lentiform Loewenfeld","3.3.7","yes","yes","600bd7cfb6416f0113b04181","602110864497cf011d9c0822","0","j","NA","j","j","j","space","j","521","NA","3753","14979","6653","4363","521","2","legacy","1024","2","48000","-16","task","5209220","even","NA","35959","41715","37962","161396","6035","27671","21017","161899","137487","161394","161900","161323","41715","162422","34323","160823","6028","144482","Lexical Decision Task","63","52238","65","yes","1024"
"3.372543801","9.24","8","coat","word","96.96969696969697","96.96969696969697","799.2272727272727","799.2272727272727","black","no","legacy","legacy","legacy","0","uniform","1","undefined","undefined","undefined","1","j","0","0","0","0","65","0","0","0","65","0","61","65","61","0","61","3","65","0","65","Wed Feb 17 12:42:57 2021","The main experiment item","yes","Lexical_Decision_Task.osexp","C:/Users/ellie","no","Andale Mono","no","18","no","white","no","yes","576","legacy","61","61","3","C:/Users/ellie/subject-5209220.csv","legacy","Lentiform Loewenfeld","3.3.7","yes","yes","600bd7cfb6416f0113b04181","602110864497cf011d9c0822","0","j","NA","j","j","j","space","j","511","NA","3753","14979","6653","4363","511","2","legacy","1024","2","48000","-16","task","5209220","even","NA","35959","41715","37962","163006","6035","27671","21017","163509","137487","163005","163510","162931","41715","164022","34323","162431","6028","144482","Lexical Decision Task","64","52749","66","yes","1024"
"2.809559715","8.44","4","volt","word","97.01492537313433","97.01492537313433","796.1641791044776","796.1641791044776","black","no","legacy","legacy","legacy","0","uniform","1","undefined","undefined","undefined","1","j","0","0","0","0","66","0","0","0","66","0","62","66","62","0","62","3","66","0","66","Wed Feb 17 12:42:57 2021","The main experiment item","yes","Lexical_Decision_Task.osexp","C:/Users/ellie","no","Andale Mono","no","18","no","white","no","yes","576","legacy","62","62","3","C:/Users/ellie/subject-5209220.csv","legacy","Lentiform Loewenfeld","3.3.7","yes","yes","600bd7cfb6416f0113b04181","602110864497cf011d9c0822","0","j","NA","j","j","j","space","j","594","NA","3753","14979","6653","4363","594","2","legacy","1024","2","48000","-16","task","5209220","even","NA","35959","41715","37962","164607","6035","27671","21017","165110","137487","164606","165111","164531","41715","165706","34323","164031","6028","144482","Lexical Decision Task","65","53343","67","yes","1024"
"2.755364069","7.72","2","hoax","word","97.05882352941177","97.05882352941177","793.2205882352941","793.2205882352941","black","no","legacy","legacy","legacy","0","uniform","1","undefined","undefined","undefined","1","j","0","0","0","0","67","0","0","0","67","0","63","67","63","0","63","3","67","0","67","Wed Feb 17 12:42:57 2021","The main experiment item","yes","Lexical_Decision_Task.osexp","C:/Users/ellie","no","Andale Mono","no","18","no","white","no","yes","576","legacy","63","63","3","C:/Users/ellie/subject-5209220.csv","legacy","Lentiform Loewenfeld","3.3.7","yes","yes","600bd7cfb6416f0113b04181","602110864497cf011d9c0822","0","j","NA","j","j","j","space","j","596","NA","3753","14979","6653","4363","596","2","legacy","1024","2","48000","-16","task","5209220","even","NA","35959","41715","37962","166294","6035","27671","21017","166797","137487","166293","166798","166214","41715","167394","34323","165714","6028","144482","Lexical Decision Task","66","53939","68","yes","1024"
"2.895974732","6.65","5","sift","word","97.10144927536231","97.10144927536231","790.9710144927536","790.9710144927536","black","no","legacy","legacy","legacy","0","uniform","1","undefined","undefined","undefined","1","j","0","0","0","0","68","0","0","0","68","0","64","68","64","0","64","3","68","0","68","Wed Feb 17 12:42:57 2021","The main experiment item","yes","Lexical_Decision_Task.osexp","C:/Users/ellie","no","Andale Mono","no","18","no","white","no","yes","576","legacy","64","64","3","C:/Users/ellie/subject-5209220.csv","legacy","Lentiform Loewenfeld","3.3.7","yes","yes","600bd7cfb6416f0113b04181","602110864497cf011d9c0822","0","j","NA","j","j","j","space","j","638","NA","3753","14979","6653","4363","638","2","legacy","1024","2","48000","-16","task","5209220","even","NA","35959","41715","37962","167977","6035","27671","21017","168481","137487","167976","168481","167902","41715","169120","34323","167402","6028","144482","Lexical Decision Task","67","54577","69","yes","1024"
"2.966923697","5.4","2","fume","word","97.14285714285714","97.14285714285714","787.0428571428571","787.0428571428571","black","no","legacy","legacy","legacy","0","uniform","1","undefined","undefined","undefined","1","j","0","0","0","0","69","0","0","0","69","0","65","69","65","0","65","3","69","0","69","Wed Feb 17 12:42:57 2021","The main experiment item","yes","Lexical_Decision_Task.osexp","C:/Users/ellie","no","Andale Mono","no","18","no","white","no","yes","576","legacy","65","65","3","C:/Users/ellie/subject-5209220.csv","legacy","Lentiform Loewenfeld","3.3.7","yes","yes","600bd7cfb6416f0113b04181","602110864497cf011d9c0822","0","j","NA","j","j","j","space","j","516","NA","3753","14979","6653","4363","516","2","legacy","1024","2","48000","-16","task","5209220","even","NA","35959","41715","37962","169706","6035","27671","21017","170209","137487","169704","170210","169627","41715","170727","34323","169127","6028","144482","Lexical Decision Task","68","55093","70","yes","1024"
"2.668385917","5.48","4","twig","word","97.1830985915493","97.1830985915493","783.9154929577464","783.9154929577464","black","no","legacy","legacy","legacy","0","uniform","1","undefined","undefined","undefined","1","j","0","0","0","0","70","0","0","0","70","0","66","70","66","0","66","3","70","0","70","Wed Feb 17 12:42:57 2021","The main experiment item","yes","Lexical_Decision_Task.osexp","C:/Users/ellie","no","Andale Mono","no","18","no","white","no","yes","576","legacy","66","66","3","C:/Users/ellie/subject-5209220.csv","legacy","Lentiform Loewenfeld","3.3.7","yes","yes","600bd7cfb6416f0113b04181","602110864497cf011d9c0822","0","j","NA","j","j","j","space","j","565","NA","3753","14979","6653","4363","565","2","legacy","1024","2","48000","-16","task","5209220","even","NA","35959","41715","37962","171310","6035","27671","21017","171813","137487","171309","171814","171234","41715","172380","34323","170734","6028","144482","Lexical Decision Task","69","55658","71","yes","1024"
"2.972819734","0","4","scew","non-word","95.83333333333333","95.83333333333333","796.1527777777778","796.1527777777778","black","no","legacy","legacy","legacy","0","uniform","0","undefined","undefined","undefined","0","f","0","0","0","0","71","0","0","0","71","0","67","71","67","0","67","3","71","0","71","Wed Feb 17 12:42:57 2021","The main experiment item","yes","Lexical_Decision_Task.osexp","C:/Users/ellie","no","Andale Mono","no","18","no","white","no","yes","576","legacy","67","67","3","C:/Users/ellie/subject-5209220.csv","legacy","Lentiform Loewenfeld","3.3.7","yes","yes","600bd7cfb6416f0113b04181","602110864497cf011d9c0822","0","j","NA","j","j","j","space","j","1665","NA","3753","14979","6653","4363","1665","2","legacy","1024","2","48000","-16","task","5209220","even","NA","35959","41715","37962","172957","6035","27671","21017","173460","137487","172955","173461","172887","41715","175126","34323","172387","6028","144482","Lexical Decision Task","69","57323","72","yes","1024"
"3.460446784","0","5","dess","non-word","95.89041095890411","95.89041095890411","797.1232876712329","797.1232876712329","black","no","legacy","legacy","legacy","0","uniform","1","undefined","undefined","undefined","1","f","0","0","0","0","72","0","0","0","72","0","68","72","68","0","68","3","72","0","72","Wed Feb 17 12:42:57 2021","The main experiment item","yes","Lexical_Decision_Task.osexp","C:/Users/ellie","no","Andale Mono","no","18","no","white","no","yes","576","legacy","68","68","3","C:/Users/ellie/subject-5209220.csv","legacy","Lentiform Loewenfeld","3.3.7","yes","yes","600bd7cfb6416f0113b04181","602110864497cf011d9c0822","0","f","NA","j","j","j","space","f","867","NA","3753","14979","6653","4363","867","2","legacy","1024","2","48000","-16","task","5209220","even","NA","35959","41715","37962","176721","6035","27671","21017","177224","137487","176719","177224","176634","41715","178091","34323","172387","6028","175134","Lexical Decision Task","70","58190","73","yes","1024"
"2.821076612","0","4","lult","non-word","95.94594594594595","95.94594594594595","797","797","black","no","legacy","legacy","legacy","0","uniform","1","undefined","undefined","undefined","1","f","0","0","0","0","73","0","0","0","73","0","69","73","69","0","69","3","73","0","73","Wed Feb 17 12:42:57 2021","The main experiment item","yes","Lexical_Decision_Task.osexp","C:/Users/ellie","no","Andale Mono","no","18","no","white","no","yes","576","legacy","69","69","3","C:/Users/ellie/subject-5209220.csv","legacy","Lentiform Loewenfeld","3.3.7","yes","yes","600bd7cfb6416f0113b04181","602110864497cf011d9c0822","0","f","NA","j","j","j","space","f","788","NA","3753","14979","6653","4363","788","2","legacy","1024","2","48000","-16","task","5209220","even","NA","35959","41715","37962","178676","6035","27671","21017","179179","137487","178674","179180","178599","41715","179969","34323","178099","6028","175134","Lexical Decision Task","71","58978","74","yes","1024"
"2.8162413","0","5","nusk","non-word","96","96","797.0533333333333","797.0533333333333","black","no","legacy","legacy","legacy","0","uniform","1","undefined","undefined","undefined","1","f","0","0","0","0","74","0","0","0","74","0","70","74","70","0","70","3","74","0","74","Wed Feb 17 12:42:57 2021","The main experiment item","yes","Lexical_Decision_Task.osexp","C:/Users/ellie","no","Andale Mono","no","18","no","white","no","yes","576","legacy","70","70","3","C:/Users/ellie/subject-5209220.csv","legacy","Lentiform Loewenfeld","3.3.7","yes","yes","600bd7cfb6416f0113b04181","602110864497cf011d9c0822","0","f","NA","j","j","j","space","f","801","NA","3753","14979","6653","4363","801","2","legacy","1024","2","48000","-16","task","5209220","even","NA","35959","41715","37962","180547","6035","27671","21017","181050","137487","180545","181051","180476","41715","181854","34323","179976","6028","175134","Lexical Decision Task","72","59779","75","yes","1024"
"2.68604012","0","4","pumb","non-word","96.05263157894737","96.05263157894737","795.7368421052631","795.7368421052631","black","no","legacy","legacy","legacy","0","uniform","1","undefined","undefined","undefined","1","f","0","0","0","0","75","0","0","0","75","0","71","75","71","0","71","3","75","0","75","Wed Feb 17 12:42:57 2021","The main experiment item","yes","Lexical_Decision_Task.osexp","C:/Users/ellie","no","Andale Mono","no","18","no","white","no","yes","576","legacy","71","71","3","C:/Users/ellie/subject-5209220.csv","legacy","Lentiform Loewenfeld","3.3.7","yes","yes","600bd7cfb6416f0113b04181","602110864497cf011d9c0822","0","f","NA","j","j","j","space","f","697","NA","3753","14979","6653","4363","697","2","legacy","1024","2","48000","-16","task","5209220","even","NA","35959","41715","37962","182439","6035","27671","21017","182942","137487","182438","182942","182362","41715","183640","34323","181862","6028","175134","Lexical Decision Task","73","60476","76","yes","1024"
"3.133964479","0","8","graw","non-word","96.1038961038961","96.1038961038961","794.4805194805194","794.4805194805194","black","no","legacy","legacy","legacy","0","uniform","1","undefined","undefined","undefined","1","f","0","0","0","0","76","0","0","0","76","0","72","76","72","0","72","3","76","0","76","Wed Feb 17 12:42:57 2021","The main experiment item","yes","Lexical_Decision_Task.osexp","C:/Users/ellie","no","Andale Mono","no","18","no","white","no","yes","576","legacy","72","72","3","C:/Users/ellie/subject-5209220.csv","legacy","Lentiform Loewenfeld","3.3.7","yes","yes","600bd7cfb6416f0113b04181","602110864497cf011d9c0822","0","f","NA","j","j","j","space","f","699","NA","3753","14979","6653","4363","699","2","legacy","1024","2","48000","-16","task","5209220","even","NA","35959","41715","37962","184221","6035","27671","21017","184725","137487","184220","184725","184147","41715","185425","34323","183647","6028","175134","Lexical Decision Task","74","61175","77","yes","1024"
"3.082307743","9.68","8","camp","word","96.15384615384616","96.15384615384616","792.1666666666666","792.1666666666666","black","no","legacy","legacy","legacy","0","uniform","1","undefined","undefined","undefined","1","j","0","0","0","0","77","0","0","0","77","0","73","77","73","0","73","3","77","0","77","Wed Feb 17 12:42:57 2021","The main experiment item","yes","Lexical_Decision_Task.osexp","C:/Users/ellie","no","Andale Mono","no","18","no","white","no","yes","576","legacy","73","73","3","C:/Users/ellie/subject-5209220.csv","legacy","Lentiform Loewenfeld","3.3.7","yes","yes","600bd7cfb6416f0113b04181","602110864497cf011d9c0822","0","j","NA","j","j","j","space","j","614","NA","3753","14979","6653","4363","614","2","legacy","1024","2","48000","-16","task","5209220","even","NA","35959","41715","37962","186006","6035","27671","21017","186509","137487","186005","186509","185933","41715","187124","34323","185433","6028","175134","Lexical Decision Task","75","61789","78","yes","1024"
"2.858136002","0","4","phip","non-word","96.20253164556962","96.20253164556962","790.2278481012659","790.2278481012659","black","no","legacy","legacy","legacy","0","uniform","1","undefined","undefined","undefined","1","f","0","0","0","0","78","0","0","0","78","0","74","78","74","0","74","3","78","0","78","Wed Feb 17 12:42:57 2021","The main experiment item","yes","Lexical_Decision_Task.osexp","C:/Users/ellie","no","Andale Mono","no","18","no","white","no","yes","576","legacy","74","74","3","C:/Users/ellie/subject-5209220.csv","legacy","Lentiform Loewenfeld","3.3.7","yes","yes","600bd7cfb6416f0113b04181","602110864497cf011d9c0822","0","f","NA","j","j","j","space","f","639","NA","3753","14979","6653","4363","639","2","legacy","1024","2","48000","-16","task","5209220","even","NA","35959","41715","37962","187706","6035","27671","21017","188209","137487","187705","188210","187631","41715","188850","34323","187131","6028","175134","Lexical Decision Task","76","62428","79","yes","1024"
"2.803231716","5.26","3","kiln","word","95","95","787.8375","787.8375","black","no","legacy","legacy","legacy","0","uniform","0","undefined","undefined","undefined","0","j","0","0","0","0","79","0","0","0","79","0","75","79","75","0","75","3","79","0","79","Wed Feb 17 12:42:57 2021","The main experiment item","yes","Lexical_Decision_Task.osexp","C:/Users/ellie","no","Andale Mono","no","18","no","white","no","yes","576","legacy","75","75","3","C:/Users/ellie/subject-5209220.csv","legacy","Lentiform Loewenfeld","3.3.7","yes","yes","600bd7cfb6416f0113b04181","602110864497cf011d9c0822","0","f","NA","j","j","j","space","f","599","NA","3753","14979","6653","4363","599","2","legacy","1024","2","48000","-16","task","5209220","even","NA","35959","41715","37962","189431","6035","27671","21017","189934","137487","189429","189935","189358","41715","190534","34323","188858","6028","175134","Lexical Decision Task","76","63027","80","yes","1024"
"2.842815106","7.86","8","lump","word","95.06172839506173","95.06172839506173","785.5185185185185","785.5185185185185","black","no","legacy","legacy","legacy","0","uniform","1","undefined","undefined","undefined","1","j","0","0","0","0","80","0","0","0","80","0","76","80","76","0","76","3","80","0","80","Wed Feb 17 12:42:57 2021","The main experiment item","yes","Lexical_Decision_Task.osexp","C:/Users/ellie","no","Andale Mono","no","18","no","white","no","yes","576","legacy","76","76","3","C:/Users/ellie/subject-5209220.csv","legacy","Lentiform Loewenfeld","3.3.7","yes","yes","600bd7cfb6416f0113b04181","602110864497cf011d9c0822","0","j","NA","j","j","j","space","j","600","NA","3753","14979","6653","4363","600","2","legacy","1024","2","48000","-16","task","5209220","even","NA","35959","41715","37962","192119","6035","27671","21017","192623","137487","192118","192624","192043","41715","193225","34323","188858","6028","190542","Lexical Decision Task","77","63627","81","yes","1024"
"3.168890155","0","6","thet","non-word","95.1219512195122","95.1219512195122","783.5","783.5","black","no","legacy","legacy","legacy","0","uniform","1","undefined","undefined","undefined","1","f","0","0","0","0","81","0","0","0","81","0","77","81","77","0","77","3","81","0","81","Wed Feb 17 12:42:57 2021","The main experiment item","yes","Lexical_Decision_Task.osexp","C:/Users/ellie","no","Andale Mono","no","18","no","white","no","yes","576","legacy","77","77","3","C:/Users/ellie/subject-5209220.csv","legacy","Lentiform Loewenfeld","3.3.7","yes","yes","600bd7cfb6416f0113b04181","602110864497cf011d9c0822","0","f","NA","j","j","j","space","f","620","NA","3753","14979","6653","4363","620","2","legacy","1024","2","48000","-16","task","5209220","even","NA","35959","41715","37962","193810","6035","27671","21017","194314","137487","193808","194314","193732","41715","194935","34323","193232","6028","190542","Lexical Decision Task","78","64247","82","yes","1024"
"3.374137706","10.21","4","tree","word","95.18072289156626","95.18072289156626","780.8795180722891","780.8795180722891","black","no","legacy","legacy","legacy","0","uniform","1","undefined","undefined","undefined","1","j","0","0","0","0","82","0","0","0","82","0","78","82","78","0","78","3","82","0","82","Wed Feb 17 12:42:57 2021","The main experiment item","yes","Lexical_Decision_Task.osexp","C:/Users/ellie","no","Andale Mono","no","18","no","white","no","yes","576","legacy","78","78","3","C:/Users/ellie/subject-5209220.csv","legacy","Lentiform Loewenfeld","3.3.7","yes","yes","600bd7cfb6416f0113b04181","602110864497cf011d9c0822","0","j","NA","j","j","j","space","j","566","NA","3753","14979","6653","4363","566","2","legacy","1024","2","48000","-16","task","5209220","even","NA","35959","41715","37962","195519","6035","27671","21017","196022","137487","195518","196023","195442","41715","196590","34323","194942","6028","190542","Lexical Decision Task","79","64813","83","yes","1024"
"3.068433376","8.09","2","bulb","word","95.23809523809524","95.23809523809524","777.8690476190476","777.8690476190476","black","no","legacy","legacy","legacy","0","uniform","1","undefined","undefined","undefined","1","j","0","0","0","0","83","0","0","0","83","0","79","83","79","0","79","3","83","0","83","Wed Feb 17 12:42:57 2021","The main experiment item","yes","Lexical_Decision_Task.osexp","C:/Users/ellie","no","Andale Mono","no","18","no","white","no","yes","576","legacy","79","79","3","C:/Users/ellie/subject-5209220.csv","legacy","Lentiform Loewenfeld","3.3.7","yes","yes","600bd7cfb6416f0113b04181","602110864497cf011d9c0822","0","j","NA","j","j","j","space","j","528","NA","3753","14979","6653","4363","528","2","legacy","1024","2","48000","-16","task","5209220","even","NA","35959","41715","37962","197176","6035","27671","21017","197679","137487","197173","197680","197097","41715","198209","34323","196597","6028","190542","Lexical Decision Task","80","65341","84","yes","1024"
"3.529815197","0","3","lerm","non-word","95.29411764705883","95.29411764705883","779.4117647058823","779.4117647058823","black","no","legacy","legacy","legacy","0","uniform","1","undefined","undefined","undefined","1","f","0","0","0","0","84","0","0","0","84","0","80","84","80","0","80","3","84","0","84","Wed Feb 17 12:42:57 2021","The main experiment item","yes","Lexical_Decision_Task.osexp","C:/Users/ellie","no","Andale Mono","no","18","no","white","no","yes","576","legacy","80","80","3","C:/Users/ellie/subject-5209220.csv","legacy","Lentiform Loewenfeld","3.3.7","yes","yes","600bd7cfb6416f0113b04181","602110864497cf011d9c0822","0","f","NA","j","j","j","space","f","909","NA","3753","14979","6653","4363","909","2","legacy","1024","2","48000","-16","task","5209220","even","NA","35959","41715","37962","198792","6035","27671","21017","199296","137487","198791","199296","198716","41715","200206","34323","198216","6028","190542","Lexical Decision Task","81","66250","85","yes","1024"
"3.120135028","0","3","vals","non-word","95.34883720930233","95.34883720930233","778.3372093023256","778.3372093023256","black","no","legacy","legacy","legacy","0","uniform","1","undefined","undefined","undefined","1","f","0","0","0","0","85","0","0","0","85","0","81","85","81","0","81","3","85","0","85","Wed Feb 17 12:42:57 2021","The main experiment item","yes","Lexical_Decision_Task.osexp","C:/Users/ellie","no","Andale Mono","no","18","no","white","no","yes","576","legacy","81","81","3","C:/Users/ellie/subject-5209220.csv","legacy","Lentiform Loewenfeld","3.3.7","yes","yes","600bd7cfb6416f0113b04181","602110864497cf011d9c0822","0","f","NA","j","j","j","space","f","687","NA","3753","14979","6653","4363","687","2","legacy","1024","2","48000","-16","task","5209220","even","NA","35959","41715","37962","200791","6035","27671","21017","201295","137487","200790","201295","200714","41715","201983","34323","200214","6028","190542","Lexical Decision Task","82","66937","86","yes","1024"
"2.675164031","8.57","6","glue","word","95.40229885057471","95.40229885057471","774.8505747126437","774.8505747126437","black","no","legacy","legacy","legacy","0","uniform","1","undefined","undefined","undefined","1","j","0","0","0","0","86","0","0","0","86","0","82","86","82","0","82","3","86","0","86","Wed Feb 17 12:42:57 2021","The main experiment item","yes","Lexical_Decision_Task.osexp","C:/Users/ellie","no","Andale Mono","no","18","no","white","no","yes","576","legacy","82","82","3","C:/Users/ellie/subject-5209220.csv","legacy","Lentiform Loewenfeld","3.3.7","yes","yes","600bd7cfb6416f0113b04181","602110864497cf011d9c0822","0","j","NA","j","j","j","space","j","475","NA","3753","14979","6653","4363","475","2","legacy","1024","2","48000","-16","task","5209220","even","NA","35959","41715","37962","202569","6035","27671","21017","203072","137487","202568","203072","202490","41715","203548","34323","201990","6028","190542","Lexical Decision Task","83","67412","87","yes","1024"
"3.274543461","7.46","7","scar","word","95.45454545454545","95.45454545454545","773.4659090909091","773.4659090909091","black","no","legacy","legacy","legacy","0","uniform","1","undefined","undefined","undefined","1","j","0","0","0","0","87","0","0","0","87","0","83","87","83","0","83","3","87","0","87","Wed Feb 17 12:42:57 2021","The main experiment item","yes","Lexical_Decision_Task.osexp","C:/Users/ellie","no","Andale Mono","no","18","no","white","no","yes","576","legacy","83","83","3","C:/Users/ellie/subject-5209220.csv","legacy","Lentiform Loewenfeld","3.3.7","yes","yes","600bd7cfb6416f0113b04181","602110864497cf011d9c0822","0","j","NA","j","j","j","space","j","653","NA","3753","14979","6653","4363","653","2","legacy","1024","2","48000","-16","task","5209220","even","NA","35959","41715","37962","204131","6035","27671","21017","204634","137487","204130","204634","204055","41715","205288","34323","203555","6028","190542","Lexical Decision Task","84","68065","88","yes","1024"
"3.067193647","6.73","6","raft","word","95.50561797752809","95.50561797752809","771.370786516854","771.370786516854","black","no","legacy","legacy","legacy","0","uniform","1","undefined","undefined","undefined","1","j","0","0","0","0","88","0","0","0","88","0","84","88","84","0","84","3","88","0","88","Wed Feb 17 12:42:57 2021","The main experiment item","yes","Lexical_Decision_Task.osexp","C:/Users/ellie","no","Andale Mono","no","18","no","white","no","yes","576","legacy","84","84","3","C:/Users/ellie/subject-5209220.csv","legacy","Lentiform Loewenfeld","3.3.7","yes","yes","600bd7cfb6416f0113b04181","602110864497cf011d9c0822","0","j","NA","j","j","j","space","j","587","NA","3753","14979","6653","4363","587","2","legacy","1024","2","48000","-16","task","5209220","even","NA","35959","41715","37962","205875","6035","27671","21017","206379","137487","205874","206379","205796","41715","206967","34323","205296","6028","190542","Lexical Decision Task","85","68652","89","yes","1024"
"2.709837904","6.85","8","skim","word","95.55555555555556","95.55555555555556","768.1222222222223","768.1222222222223","black","no","legacy","legacy","legacy","0","uniform","1","undefined","undefined","undefined","1","j","0","0","0","0","89","0","0","0","89","0","85","89","85","0","85","3","89","0","89","Wed Feb 17 12:42:57 2021","The main experiment item","yes","Lexical_Decision_Task.osexp","C:/Users/ellie","no","Andale Mono","no","18","no","white","no","yes","576","legacy","85","85","3","C:/Users/ellie/subject-5209220.csv","legacy","Lentiform Loewenfeld","3.3.7","yes","yes","600bd7cfb6416f0113b04181","602110864497cf011d9c0822","0","j","NA","j","j","j","space","j","479","NA","3753","14979","6653","4363","479","2","legacy","1024","2","48000","-16","task","5209220","even","NA","35959","41715","37962","207550","6035","27671","21017","208053","137487","207548","208054","207474","41715","208534","34323","206974","6028","190542","Lexical Decision Task","86","69131","90","yes","1024"
"2.953276337","6.32","4","thaw","word","95.6043956043956","95.6043956043956","769.5604395604396","769.5604395604396","black","no","legacy","legacy","legacy","0","uniform","1","undefined","undefined","undefined","1","j","0","0","0","0","90","0","0","0","90","0","86","90","86","0","86","3","90","0","90","Wed Feb 17 12:42:57 2021","The main experiment item","yes","Lexical_Decision_Task.osexp","C:/Users/ellie","no","Andale Mono","no","18","no","white","no","yes","576","legacy","86","86","3","C:/Users/ellie/subject-5209220.csv","legacy","Lentiform Loewenfeld","3.3.7","yes","yes","600bd7cfb6416f0113b04181","602110864497cf011d9c0822","0","j","NA","j","j","j","space","j","899","NA","3753","14979","6653","4363","899","2","legacy","1024","2","48000","-16","task","5209220","even","NA","35959","41715","37962","209118","6035","27671","21017","209622","137487","209117","209622","209041","41715","210522","34323","208541","6028","190542","Lexical Decision Task","87","70030","91","yes","1024"
"3.353210739","0","9","reet","non-word","94.56521739130434","94.56521739130434","766.8913043478261","766.8913043478261","black","no","legacy","legacy","legacy","0","uniform","0","undefined","undefined","undefined","0","f","0","0","0","0","91","0","0","0","91","0","87","91","87","0","87","3","91","0","91","Wed Feb 17 12:42:57 2021","The main experiment item","yes","Lexical_Decision_Task.osexp","C:/Users/ellie","no","Andale Mono","no","18","no","white","no","yes","576","legacy","87","87","3","C:/Users/ellie/subject-5209220.csv","legacy","Lentiform Loewenfeld","3.3.7","yes","yes","600bd7cfb6416f0113b04181","602110864497cf011d9c0822","0","j","NA","j","j","j","space","j","524","NA","3753","14979","6653","4363","524","2","legacy","1024","2","48000","-16","task","5209220","even","NA","35959","41715","37962","211107","6035","27671","21017","211610","137487","211106","211611","211029","41715","212136","34323","210529","6028","190542","Lexical Decision Task","87","70554","92","yes","1024"
"3.274157849","0","8","leet","non-word","94.6236559139785","94.6236559139785","767.9677419354839","767.9677419354839","black","no","legacy","legacy","legacy","0","uniform","1","undefined","undefined","undefined","1","f","0","0","0","0","92","0","0","0","92","0","88","92","88","0","88","3","92","0","92","Wed Feb 17 12:42:57 2021","The main experiment item","yes","Lexical_Decision_Task.osexp","C:/Users/ellie","no","Andale Mono","no","18","no","white","no","yes","576","legacy","88","88","3","C:/Users/ellie/subject-5209220.csv","legacy","Lentiform Loewenfeld","3.3.7","yes","yes","600bd7cfb6416f0113b04181","602110864497cf011d9c0822","0","f","NA","j","j","j","space","f","867","NA","3753","14979","6653","4363","867","2","legacy","1024","2","48000","-16","task","5209220","even","NA","35959","41715","37962","213725","6035","27671","21017","214229","137487","213724","214229","213642","41715","215097","34323","210529","6028","212142","Lexical Decision Task","88","71421","93","yes","1024"
"3.374198258","0","8","vist","non-word","94.68085106382979","94.68085106382979","773.0106382978723","773.0106382978723","black","no","legacy","legacy","legacy","0","uniform","1","undefined","undefined","undefined","1","f","0","0","0","0","93","0","0","0","93","0","89","93","89","0","89","3","93","0","93","Wed Feb 17 12:42:57 2021","The main experiment item","yes","Lexical_Decision_Task.osexp","C:/Users/ellie","no","Andale Mono","no","18","no","white","no","yes","576","legacy","89","89","3","C:/Users/ellie/subject-5209220.csv","legacy","Lentiform Loewenfeld","3.3.7","yes","yes","600bd7cfb6416f0113b04181","602110864497cf011d9c0822","0","f","NA","j","j","j","space","f","1242","NA","3753","14979","6653","4363","1242","2","legacy","1024","2","48000","-16","task","5209220","even","NA","35959","41715","37962","215679","6035","27671","21017","216182","137487","215677","216183","215604","41715","217426","34323","215104","6028","212142","Lexical Decision Task","89","72663","94","yes","1024"
"3.307211407","6.07","7","honk","word","94.73684210526316","94.73684210526316","771.0105263157894","771.0105263157894","black","no","legacy","legacy","legacy","0","uniform","1","undefined","undefined","undefined","1","j","0","0","0","0","94","0","0","0","94","0","90","94","90","0","90","3","94","0","94","Wed Feb 17 12:42:57 2021","The main experiment item","yes","Lexical_Decision_Task.osexp","C:/Users/ellie","no","Andale Mono","no","18","no","white","no","yes","576","legacy","90","90","3","C:/Users/ellie/subject-5209220.csv","legacy","Lentiform Loewenfeld","3.3.7","yes","yes","600bd7cfb6416f0113b04181","602110864497cf011d9c0822","0","j","NA","j","j","j","space","j","583","NA","3753","14979","6653","4363","583","2","legacy","1024","2","48000","-16","task","5209220","even","NA","35959","41715","37962","218008","6035","27671","21017","218511","137487","218006","218512","217933","41715","219096","34323","217433","6028","212142","Lexical Decision Task","90","73246","95","yes","1024"
"2.819763221","0","2","durp","non-word","94.79166666666667","94.79166666666667","769.6041666666666","769.6041666666666","black","no","legacy","legacy","legacy","0","uniform","1","undefined","undefined","undefined","1","f","0","0","0","0","95","0","0","0","95","0","91","95","91","0","91","3","95","0","95","Wed Feb 17 12:42:57 2021","The main experiment item","yes","Lexical_Decision_Task.osexp","C:/Users/ellie","no","Andale Mono","no","18","no","white","no","yes","576","legacy","91","91","3","C:/Users/ellie/subject-5209220.csv","legacy","Lentiform Loewenfeld","3.3.7","yes","yes","600bd7cfb6416f0113b04181","602110864497cf011d9c0822","0","f","NA","j","j","j","space","f","636","NA","3753","14979","6653","4363","636","2","legacy","1024","2","48000","-16","task","5209220","even","NA","35959","41715","37962","219680","6035","27671","21017","220184","137487","219679","220184","219603","41715","220821","34323","219103","6028","212142","Lexical Decision Task","91","73882","96","yes","1024"
"2.698387659","6.66","7","skid","word","94.84536082474227","94.84536082474227","768.1443298969073","768.1443298969073","black","no","legacy","legacy","legacy","0","uniform","1","undefined","undefined","undefined","1","j","0","0","0","0","96","0","0","0","96","0","92","96","92","0","92","3","96","0","96","Wed Feb 17 12:42:57 2021","The main experiment item","yes","Lexical_Decision_Task.osexp","C:/Users/ellie","no","Andale Mono","no","18","no","white","no","yes","576","legacy","92","92","3","C:/Users/ellie/subject-5209220.csv","legacy","Lentiform Loewenfeld","3.3.7","yes","yes","600bd7cfb6416f0113b04181","602110864497cf011d9c0822","0","j","NA","j","j","j","space","j","628","NA","3753","14979","6653","4363","628","2","legacy","1024","2","48000","-16","task","5209220","even","NA","35959","41715","37962","221406","6035","27671","21017","221909","137487","221404","221910","221329","41715","222539","34323","220829","6028","212142","Lexical Decision Task","92","74510","97","yes","1024"
"2.594027722","9.08","8","skip","word","94.89795918367346","94.89795918367346","767.734693877551","767.734693877551","black","no","legacy","legacy","legacy","0","uniform","1","undefined","undefined","undefined","1","j","0","0","0","0","97","0","0","0","97","0","93","97","93","0","93","3","97","0","97","Wed Feb 17 12:42:57 2021","The main experiment item","yes","Lexical_Decision_Task.osexp","C:/Users/ellie","no","Andale Mono","no","18","no","white","no","yes","576","legacy","93","93","3","C:/Users/ellie/subject-5209220.csv","legacy","Lentiform Loewenfeld","3.3.7","yes","yes","600bd7cfb6416f0113b04181","602110864497cf011d9c0822","0","j","NA","j","j","j","space","j","728","NA","3753","14979","6653","4363","728","2","legacy","1024","2","48000","-16","task","5209220","even","NA","35959","41715","37962","223126","6035","27671","21017","223629","137487","223124","223630","223047","41715","224359","34323","222547","6028","212142","Lexical Decision Task","93","75238","98","yes","1024"
"2.843025032","0","9","pusk","non-word","94.94949494949495","94.94949494949495","767.5757575757576","767.5757575757576","black","no","legacy","legacy","legacy","0","uniform","1","undefined","undefined","undefined","1","f","0","0","0","0","98","0","0","0","98","0","94","98","94","0","94","3","98","0","98","Wed Feb 17 12:42:57 2021","The main experiment item","yes","Lexical_Decision_Task.osexp","C:/Users/ellie","no","Andale Mono","no","18","no","white","no","yes","576","legacy","94","94","3","C:/Users/ellie/subject-5209220.csv","legacy","Lentiform Loewenfeld","3.3.7","yes","yes","600bd7cfb6416f0113b04181","602110864497cf011d9c0822","0","f","NA","j","j","j","space","f","752","NA","3753","14979","6653","4363","752","2","legacy","1024","2","48000","-16","task","5209220","even","NA","35959","41715","37962","224942","6035","27671","21017","225445","137487","224940","225446","224866","41715","226199","34323","224365","6028","212142","Lexical Decision Task","94","75990","99","yes","1024"
"3.363486562","6.93","9","lush","word","95","95","765.25","765.25","black","no","legacy","legacy","legacy","0","uniform","1","undefined","undefined","undefined","1","j","0","0","0","0","99","0","0","0","99","0","95","99","95","0","95","3","99","0","99","Wed Feb 17 12:42:57 2021","The main experiment item","yes","Lexical_Decision_Task.osexp","C:/Users/ellie","no","Andale Mono","no","18","no","white","no","yes","576","legacy","95","95","3","C:/Users/ellie/subject-5209220.csv","legacy","Lentiform Loewenfeld","3.3.7","yes","yes","600bd7cfb6416f0113b04181","602110864497cf011d9c0822","0","j","NA","j","j","j","space","j","535","NA","3753","14979","6653","4363","535","2","legacy","1024","2","48000","-16","task","5209220","even","NA","35959","41715","37962","226780","6035","27671","21017","227283","137487","226778","227283","226706","41715","227820","34323","226206","6028","212142","Lexical Decision Task","95","76525","100","yes","1024"
"3.263399331","0","8","cour","non-word","95.04950495049505","95.04950495049505","767.8415841584158","767.8415841584158","black","no","legacy","legacy","legacy","0","uniform","1","undefined","undefined","undefined","1","f","0","0","0","0","100","0","0","0","100","0","96","100","96","0","96","3","100","0","100","Wed Feb 17 12:42:57 2021","The main experiment item","yes","Lexical_Decision_Task.osexp","C:/Users/ellie","no","Andale Mono","no","18","no","white","no","yes","576","legacy","96","96","3","C:/Users/ellie/subject-5209220.csv","legacy","Lentiform Loewenfeld","3.3.7","yes","yes","600bd7cfb6416f0113b04181","602110864497cf011d9c0822","0","f","NA","j","j","j","space","f","1027","NA","3753","14979","6653","4363","1027","2","legacy","1024","2","48000","-16","task","5209220","even","NA","35959","41715","37962","228401","6035","27671","21017","228904","137487","228399","228905","228327","41715","229933","34323","227827","6028","212142","Lexical Decision Task","96","77552","101","yes","1024"
"3.366547468","0","6","plat","non-word","95.09803921568627","95.09803921568627","771.3039215686274","771.3039215686274","black","no","legacy","legacy","legacy","0","uniform","1","undefined","undefined","undefined","1","f","0","0","0","0","101","0","0","0","101","0","97","101","97","0","97","3","101","0","101","Wed Feb 17 12:42:57 2021","The main experiment item","yes","Lexical_Decision_Task.osexp","C:/Users/ellie","no","Andale Mono","no","18","no","white","no","yes","576","legacy","97","97","3","C:/Users/ellie/subject-5209220.csv","legacy","Lentiform Loewenfeld","3.3.7","yes","yes","600bd7cfb6416f0113b04181","602110864497cf011d9c0822","0","f","NA","j","j","j","space","f","1121","NA","3753","14979","6653","4363","1121","2","legacy","1024","2","48000","-16","task","5209220","even","NA","35959","41715","37962","230517","6035","27671","21017","231020","137487","230516","231021","230440","41715","232143","34323","229940","6028","212142","Lexical Decision Task","97","78673","102","yes","1024"
"3.384413096","10.15","3","glad","word","95.14563106796116","95.14563106796116","769.4271844660194","769.4271844660194","black","no","legacy","legacy","legacy","0","uniform","1","undefined","undefined","undefined","1","j","0","0","0","0","102","0","0","0","102","0","98","102","98","0","98","3","102","0","102","Wed Feb 17 12:42:57 2021","The main experiment item","yes","Lexical_Decision_Task.osexp","C:/Users/ellie","no","Andale Mono","no","18","no","white","no","yes","576","legacy","98","98","3","C:/Users/ellie/subject-5209220.csv","legacy","Lentiform Loewenfeld","3.3.7","yes","yes","600bd7cfb6416f0113b04181","602110864497cf011d9c0822","0","j","NA","j","j","j","space","j","578","NA","3753","14979","6653","4363","578","2","legacy","1024","2","48000","-16","task","5209220","even","NA","35959","41715","37962","232723","6035","27671","21017","233226","137487","232721","233227","232650","41715","233806","34323","232150","6028","212142","Lexical Decision Task","98","79251","103","yes","1024"
"2.82129731","6.72","5","plum","word","95.1923076923077","95.1923076923077","769.1442307692307","769.1442307692307","black","no","legacy","legacy","legacy","0","uniform","1","undefined","undefined","undefined","1","j","0","0","0","0","103","0","0","0","103","0","99","103","99","0","99","3","103","0","103","Wed Feb 17 12:42:57 2021","The main experiment item","yes","Lexical_Decision_Task.osexp","C:/Users/ellie","no","Andale Mono","no","18","no","white","no","yes","576","legacy","99","99","3","C:/Users/ellie/subject-5209220.csv","legacy","Lentiform Loewenfeld","3.3.7","yes","yes","600bd7cfb6416f0113b04181","602110864497cf011d9c0822","0","j","NA","j","j","j","space","j","740","NA","3753","14979","6653","4363","740","2","legacy","1024","2","48000","-16","task","5209220","even","NA","35959","41715","37962","234391","6035","27671","21017","234895","137487","234390","234895","234313","41715","235636","34323","233813","6028","212142","Lexical Decision Task","99","79991","104","yes","1024"
"2.576725172","0","8","gowl","non-word","95.23809523809524","95.23809523809524","776.4666666666667","776.4666666666667","black","no","legacy","legacy","legacy","0","uniform","1","undefined","undefined","undefined","1","f","0","0","0","0","104","0","0","0","104","1","100","104","100","0","100","3","104","0","104","Wed Feb 17 12:42:57 2021","The main experiment item","yes","Lexical_Decision_Task.osexp","C:/Users/ellie","no","Andale Mono","no","18","no","white","no","yes","576","legacy","100","100","3","C:/Users/ellie/subject-5209220.csv","legacy","Lentiform Loewenfeld","3.3.7","yes","yes","600bd7cfb6416f0113b04181","602110864497cf011d9c0822","0","f","NA","j","j","j","space","f","1538","NA","3753","14979","6653","2985","1538","2","legacy","1024","2","48000","-16","task","5209220","even","NA","35959","41715","37962","239238","6035","27671","21017","239741","236191","239235","239742","236143","41715","241281","34323","235643","6028","212142","Lexical Decision Task","100","81529","105","yes","1024"
