"Log_BG","Log_Freq_HAL","Ortho_N","Stimulus","Type","acc","accuracy","average_response_time","avg_rt","background","bidi","canvas_backend","clock_backend","color_backend","compensation","coordinates","correct","correct_Experimental_intro","correct_Introduction","correct_Practice_intro","correct_experimenter_kb","correct_response","count_End_Of_Experiment","count_End_Of_Practice","count_Experimental_Loop","count_Experimental_intro","count_Fixation","count_Introduction","count_Practice_Loop","count_Practice_intro","count_Stimulus","count_block_break_feedback","count_experimental_sequence","count_experimenter_kb","count_increment_trial_count","count_init_trial_count","count_logger","count_practice_sequence","count_right","count_task","count_wrong","datetime","description","disable_garbage_collection","experiment_file","experiment_path","font_bold","font_family","font_italic","font_size","font_underline","foreground","form_clicks","fullscreen","height","keyboard_backend","live_row","live_row_Experimental_Loop","live_row_Practice_Loop","logfile","mouse_backend","opensesame_codename","opensesame_version","osf_always_upload_data","osf_always_upload_experiment","osf_datanode_id","osf_id","repeat_cycle","response","response_End_Of_Experiment","response_Experimental_intro","response_Introduction","response_Practice_intro","response_block_break_feedback","response_experimenter_kb","response_time","response_time_End_Of_Experiment","response_time_Experimental_intro","response_time_Introduction","response_time_Practice_intro","response_time_block_break_feedback","response_time_experimenter_kb","round_decimals","sampler_backend","sound_buf_size","sound_channels","sound_freq","sound_sample_size","start","subject_nr","subject_parity","time_End_Of_Experiment","time_End_Of_Practice","time_Experimental_Loop","time_Experimental_intro","time_Fixation","time_Introduction","time_Practice_Loop","time_Practice_intro","time_Stimulus","time_block_break_feedback","time_experimental_sequence","time_experimenter_kb","time_increment_trial_count","time_init_trial_count","time_logger","time_practice_sequence","time_right","time_task","time_wrong","title","total_correct","total_response_time","total_responses","uniform_coordinates","width"
"2.746890964","9.67","3","plug","word","100","100","992.8","992.8","black","no","legacy","legacy","legacy","0","uniform","1","undefined","undefined","undefined","1","j","0","0","0","0","4","0","0","0","4","NA","0","4","0","0","0","3","4","0","4","Fri Feb 19 12:08:06 2021","The main experiment item","yes","Lexical_Decision_Task.osexp","/Users/gracesimmons/Desktop","no","Andale Mono","no","18","no","white","no","yes","576","legacy","0","0","3","/Users/gracesimmons/Desktop/subject-5203833.csv","legacy","Lentiform Loewenfeld","3.3.7","yes","yes","600bd7cfb6416f0113b04181","602110864497cf011d9c0822","0","j","NA","space","space","space","NA","j","1014","NA","3282","8929","8345","NA","1014","2","legacy","1024","2","48000","-16","task","5203833","odd","NA","29694","34982","31699","35004","4154","21444","13096","35508","NA","35003","35508","NA","34982","36522","27562","29163","4146","NA","Lexical Decision Task","5","4964","5","yes","1024"
"2.95456409","0","4","taud","non-word","100","100","978","978","black","no","legacy","legacy","legacy","0","uniform","1","undefined","undefined","undefined","1","f","0","0","0","0","5","0","0","0","5","NA","1","5","1","0","1","3","5","0","5","Fri Feb 19 12:08:06 2021","The main experiment item","yes","Lexical_Decision_Task.osexp","/Users/gracesimmons/Desktop","no","Andale Mono","no","18","no","white","no","yes","576","legacy","1","1","3","/Users/gracesimmons/Desktop/subject-5203833.csv","legacy","Lentiform Loewenfeld","3.3.7","yes","yes","600bd7cfb6416f0113b04181","602110864497cf011d9c0822","0","f","NA","space","space","space","NA","f","904","NA","3282","8929","8345","NA","904","2","legacy","1024","2","48000","-16","task","5203833","odd","NA","29694","34982","31699","37095","4154","21444","13096","37598","NA","37092","37599","37028","34982","38503","27562","36528","4146","NA","Lexical Decision Task","6","5868","6","yes","1024"
"2.7084209","0","8","vump","non-word","100","100","959.4285714285714","959.4285714285714","black","no","legacy","legacy","legacy","0","uniform","1","undefined","undefined","undefined","1","f","0","0","0","0","6","0","0","0","6","NA","2","6","2","0","2","3","6","0","6","Fri Feb 19 12:08:06 2021","The main experiment item","yes","Lexical_Decision_Task.osexp","/Users/gracesimmons/Desktop","no","Andale Mono","no","18","no","white","no","yes","576","legacy","2","2","3","/Users/gracesimmons/Desktop/subject-5203833.csv","legacy","Lentiform Loewenfeld","3.3.7","yes","yes","600bd7cfb6416f0113b04181","602110864497cf011d9c0822","0","f","NA","space","space","space","NA","f","848","NA","3282","8929","8345","NA","848","2","legacy","1024","2","48000","-16","task","5203833","odd","NA","29694","34982","31699","39067","4154","21444","13096","39570","NA","39064","39570","39006","34982","40419","27562","38506","4146","NA","Lexical Decision Task","7","6716","7","yes","1024"
"3.076883066","0","8","mout","non-word","87.5","87.5","929.75","929.75","black","no","legacy","legacy","legacy","0","uniform","0","undefined","undefined","undefined","0","f","0","0","0","0","7","0","0","0","7","NA","3","7","3","0","3","3","7","0","7","Fri Feb 19 12:08:06 2021","The main experiment item","yes","Lexical_Decision_Task.osexp","/Users/gracesimmons/Desktop","no","Andale Mono","no","18","no","white","no","yes","576","legacy","3","3","3","/Users/gracesimmons/Desktop/subject-5203833.csv","legacy","Lentiform Loewenfeld","3.3.7","yes","yes","600bd7cfb6416f0113b04181","602110864497cf011d9c0822","0","j","NA","space","space","space","NA","j","722","NA","3282","8929","8345","NA","722","2","legacy","1024","2","48000","-16","task","5203833","odd","NA","29694","34982","31699","40983","4154","21444","13096","41487","NA","40981","41487","40922","34982","42210","27562","40422","4146","NA","Lexical Decision Task","7","7438","8","yes","1024"
"3.077974404","10.41","8","tool","word","88.88888888888889","88.88888888888889","891.6666666666666","891.6666666666666","black","no","legacy","legacy","legacy","0","uniform","1","undefined","undefined","undefined","1","j","0","0","0","0","8","0","0","0","8","NA","4","8","4","0","4","3","8","0","8","Fri Feb 19 12:08:06 2021","The main experiment item","yes","Lexical_Decision_Task.osexp","/Users/gracesimmons/Desktop","no","Andale Mono","no","18","no","white","no","yes","576","legacy","4","4","3","/Users/gracesimmons/Desktop/subject-5203833.csv","legacy","Lentiform Loewenfeld","3.3.7","yes","yes","600bd7cfb6416f0113b04181","602110864497cf011d9c0822","0","j","NA","space","space","space","NA","j","587","NA","3282","8929","8345","NA","587","2","legacy","1024","2","48000","-16","task","5203833","odd","NA","29694","34982","31699","43779","4154","21444","13096","44282","NA","43776","44282","43713","34982","44870","27562","40422","4146","42213","Lexical Decision Task","8","8025","9","yes","1024"
"2.892836167","10.01","5","soft","word","90","90","854.2","854.2","black","no","legacy","legacy","legacy","0","uniform","1","undefined","undefined","undefined","1","j","0","0","0","0","9","0","0","0","9","NA","5","9","5","0","5","3","9","0","9","Fri Feb 19 12:08:06 2021","The main experiment item","yes","Lexical_Decision_Task.osexp","/Users/gracesimmons/Desktop","no","Andale Mono","no","18","no","white","no","yes","576","legacy","5","5","3","/Users/gracesimmons/Desktop/subject-5203833.csv","legacy","Lentiform Loewenfeld","3.3.7","yes","yes","600bd7cfb6416f0113b04181","602110864497cf011d9c0822","0","j","NA","space","space","space","NA","j","517","NA","3282","8929","8345","NA","517","2","legacy","1024","2","48000","-16","task","5203833","odd","NA","29694","34982","31699","45434","4154","21444","13096","45937","NA","45432","45938","45373","34982","46455","27562","44873","4146","42213","Lexical Decision Task","9","8542","10","yes","1024"
"3.440331212","7.35","6","stew","word","90.9090909090909","90.9090909090909","859.5454545454545","859.5454545454545","black","no","legacy","legacy","legacy","0","uniform","1","undefined","undefined","undefined","1","j","0","0","0","0","10","0","0","0","10","NA","6","10","6","0","6","3","10","0","10","Fri Feb 19 12:08:06 2021","The main experiment item","yes","Lexical_Decision_Task.osexp","/Users/gracesimmons/Desktop","no","Andale Mono","no","18","no","white","no","yes","576","legacy","6","6","3","/Users/gracesimmons/Desktop/subject-5203833.csv","legacy","Lentiform Loewenfeld","3.3.7","yes","yes","600bd7cfb6416f0113b04181","602110864497cf011d9c0822","0","j","NA","space","space","space","NA","j","913","NA","3282","8929","8345","NA","913","2","legacy","1024","2","48000","-16","task","5203833","odd","NA","29694","34982","31699","47021","4154","21444","13096","47526","NA","47018","47527","46958","34982","48441","27562","46458","4146","42213","Lexical Decision Task","10","9455","11","yes","1024"
"2.898725182","0","7","turl","non-word","91.66666666666667","91.66666666666667","840.75","840.75","black","no","legacy","legacy","legacy","0","uniform","1","undefined","undefined","undefined","1","f","0","0","0","0","11","0","0","0","11","NA","7","11","7","0","7","3","11","0","11","Fri Feb 19 12:08:06 2021","The main experiment item","yes","Lexical_Decision_Task.osexp","/Users/gracesimmons/Desktop","no","Andale Mono","no","18","no","white","no","yes","576","legacy","7","7","3","/Users/gracesimmons/Desktop/subject-5203833.csv","legacy","Lentiform Loewenfeld","3.3.7","yes","yes","600bd7cfb6416f0113b04181","602110864497cf011d9c0822","0","f","NA","space","space","space","NA","f","634","NA","3282","8929","8345","NA","634","2","legacy","1024","2","48000","-16","task","5203833","odd","NA","29694","34982","31699","49005","4154","21444","13096","49508","NA","49003","49508","48944","34982","50143","27562","48443","4146","42213","Lexical Decision Task","11","10089","12","yes","1024"
"3.495914186","0","4","peng","non-word","84.61538461538461","84.61538461538461","819.6923076923077","819.6923076923077","black","no","legacy","legacy","legacy","0","uniform","0","undefined","undefined","undefined","0","f","0","0","0","0","12","0","0","0","12","NA","8","12","8","0","8","3","12","0","12","Fri Feb 19 12:08:06 2021","The main experiment item","yes","Lexical_Decision_Task.osexp","/Users/gracesimmons/Desktop","no","Andale Mono","no","18","no","white","no","yes","576","legacy","8","8","3","/Users/gracesimmons/Desktop/subject-5203833.csv","legacy","Lentiform Loewenfeld","3.3.7","yes","yes","600bd7cfb6416f0113b04181","602110864497cf011d9c0822","0","j","NA","space","space","space","NA","j","567","NA","3282","8929","8345","NA","567","2","legacy","1024","2","48000","-16","task","5203833","odd","NA","29694","34982","31699","50707","4154","21444","13096","51210","NA","50705","51210","50646","34982","51777","27562","50146","4146","42213","Lexical Decision Task","11","10656","13","yes","1024"
"3.149629599","0","2","cleb","non-word","85.71428571428571","85.71428571428571","890.8571428571429","890.8571428571429","black","no","legacy","legacy","legacy","0","uniform","1","undefined","undefined","undefined","1","f","0","0","0","0","13","0","0","0","13","NA","9","13","9","0","9","3","13","0","13","Fri Feb 19 12:08:06 2021","The main experiment item","yes","Lexical_Decision_Task.osexp","/Users/gracesimmons/Desktop","no","Andale Mono","no","18","no","white","no","yes","576","legacy","9","9","3","/Users/gracesimmons/Desktop/subject-5203833.csv","legacy","Lentiform Loewenfeld","3.3.7","yes","yes","600bd7cfb6416f0113b04181","602110864497cf011d9c0822","0","f","NA","space","space","space","NA","f","1816","NA","3282","8929","8345","NA","1816","2","legacy","1024","2","48000","-16","task","5203833","odd","NA","29694","34982","31699","53346","4154","21444","13096","53849","NA","53343","53849","53280","34982","55666","27562","50146","4146","51780","Lexical Decision Task","12","12472","14","yes","1024"
"2.983324025","9.56","2","debt","word","86.66666666666667","86.66666666666667","883.0666666666667","883.0666666666667","black","no","legacy","legacy","legacy","0","uniform","1","undefined","undefined","undefined","1","j","0","0","0","0","14","0","0","0","14","NA","10","14","10","0","10","3","14","0","14","Fri Feb 19 12:08:06 2021","The main experiment item","yes","Lexical_Decision_Task.osexp","/Users/gracesimmons/Desktop","no","Andale Mono","no","18","no","white","no","yes","576","legacy","10","10","3","/Users/gracesimmons/Desktop/subject-5203833.csv","legacy","Lentiform Loewenfeld","3.3.7","yes","yes","600bd7cfb6416f0113b04181","602110864497cf011d9c0822","0","j","NA","space","space","space","NA","j","774","NA","3282","8929","8345","NA","774","2","legacy","1024","2","48000","-16","task","5203833","odd","NA","29694","34982","31699","56232","4154","21444","13096","56735","NA","56229","56735","56169","34982","57510","27562","55669","4146","51780","Lexical Decision Task","13","13246","15","yes","1024"
"2.880623071","0","9","curp","non-word","87.5","87.5","873.875","873.875","black","no","legacy","legacy","legacy","0","uniform","1","undefined","undefined","undefined","1","f","0","0","0","0","15","0","0","0","15","NA","11","15","11","0","11","3","15","0","15","Fri Feb 19 12:08:06 2021","The main experiment item","yes","Lexical_Decision_Task.osexp","/Users/gracesimmons/Desktop","no","Andale Mono","no","18","no","white","no","yes","576","legacy","11","11","3","/Users/gracesimmons/Desktop/subject-5203833.csv","legacy","Lentiform Loewenfeld","3.3.7","yes","yes","600bd7cfb6416f0113b04181","602110864497cf011d9c0822","0","f","NA","space","space","space","NA","f","736","NA","3282","8929","8345","NA","736","2","legacy","1024","2","48000","-16","task","5203833","odd","NA","29694","34982","31699","58075","4154","21444","13096","58578","NA","58072","58578","58013","34982","59315","27562","57513","4146","51780","Lexical Decision Task","14","13982","16","yes","1024"
"2.6599162","0","2","saff","non-word","82.3529411764706","82.3529411764706","855.4117647058823","855.4117647058823","black","no","legacy","legacy","legacy","0","uniform","0","undefined","undefined","undefined","0","f","0","0","0","0","16","0","0","0","16","NA","12","16","12","0","12","3","16","0","16","Fri Feb 19 12:08:06 2021","The main experiment item","yes","Lexical_Decision_Task.osexp","/Users/gracesimmons/Desktop","no","Andale Mono","no","18","no","white","no","yes","576","legacy","12","12","3","/Users/gracesimmons/Desktop/subject-5203833.csv","legacy","Lentiform Loewenfeld","3.3.7","yes","yes","600bd7cfb6416f0113b04181","602110864497cf011d9c0822","0","j","NA","space","space","space","NA","j","560","NA","3282","8929","8345","NA","560","2","legacy","1024","2","48000","-16","task","5203833","odd","NA","29694","34982","31699","59869","4154","21444","13096","60372","NA","59867","60372","59819","34982","60932","27562","59319","4146","51780","Lexical Decision Task","14","14542","17","yes","1024"
"3.140404328","10.66","9","deep","word","83.33333333333333","83.33333333333333","853","853","black","no","legacy","legacy","legacy","0","uniform","1","undefined","undefined","undefined","1","j","0","0","0","0","17","0","0","0","17","NA","13","17","13","0","13","3","17","0","17","Fri Feb 19 12:08:06 2021","The main experiment item","yes","Lexical_Decision_Task.osexp","/Users/gracesimmons/Desktop","no","Andale Mono","no","18","no","white","no","yes","576","legacy","13","13","3","/Users/gracesimmons/Desktop/subject-5203833.csv","legacy","Lentiform Loewenfeld","3.3.7","yes","yes","600bd7cfb6416f0113b04181","602110864497cf011d9c0822","0","j","NA","space","space","space","NA","j","812","NA","3282","8929","8345","NA","812","2","legacy","1024","2","48000","-16","task","5203833","odd","NA","29694","34982","31699","62501","4154","21444","13096","63004","NA","62498","63004","62436","34982","63816","27562","59319","4146","60935","Lexical Decision Task","15","15354","18","yes","1024"
"3.363486562","6.93","9","lush","word","84.21052631578948","84.21052631578948","853.578947368421","853.578947368421","black","no","legacy","legacy","legacy","0","uniform","1","undefined","undefined","undefined","1","j","0","0","0","0","18","0","0","0","18","NA","14","18","14","0","14","3","18","0","18","Fri Feb 19 12:08:06 2021","The main experiment item","yes","Lexical_Decision_Task.osexp","/Users/gracesimmons/Desktop","no","Andale Mono","no","18","no","white","no","yes","576","legacy","14","14","3","/Users/gracesimmons/Desktop/subject-5203833.csv","legacy","Lentiform Loewenfeld","3.3.7","yes","yes","600bd7cfb6416f0113b04181","602110864497cf011d9c0822","0","j","NA","space","space","space","NA","j","864","NA","3282","8929","8345","NA","864","2","legacy","1024","2","48000","-16","task","5203833","odd","NA","29694","34982","31699","64381","4154","21444","13096","64884","NA","64378","64884","64319","34982","65749","27562","63819","4146","60935","Lexical Decision Task","16","16218","19","yes","1024"
"3.276537627","9.15","5","trap","word","85","85","841.8","841.8","black","no","legacy","legacy","legacy","0","uniform","1","undefined","undefined","undefined","1","j","0","0","0","0","19","0","0","0","19","NA","15","19","15","0","15","3","19","0","19","Fri Feb 19 12:08:06 2021","The main experiment item","yes","Lexical_Decision_Task.osexp","/Users/gracesimmons/Desktop","no","Andale Mono","no","18","no","white","no","yes","576","legacy","15","15","3","/Users/gracesimmons/Desktop/subject-5203833.csv","legacy","Lentiform Loewenfeld","3.3.7","yes","yes","600bd7cfb6416f0113b04181","602110864497cf011d9c0822","0","j","NA","space","space","space","NA","j","618","NA","3282","8929","8345","NA","618","2","legacy","1024","2","48000","-16","task","5203833","odd","NA","29694","34982","31699","66314","4154","21444","13096","66818","NA","66312","66818","66252","34982","67437","27562","65752","4146","60935","Lexical Decision Task","17","16836","20","yes","1024"
"3.208172527","10.27","7","deck","word","85.71428571428571","85.71428571428571","834.6666666666666","834.6666666666666","black","no","legacy","legacy","legacy","0","uniform","1","undefined","undefined","undefined","1","j","0","0","0","0","20","0","0","0","20","NA","16","20","16","0","16","3","20","0","20","Fri Feb 19 12:08:06 2021","The main experiment item","yes","Lexical_Decision_Task.osexp","/Users/gracesimmons/Desktop","no","Andale Mono","no","18","no","white","no","yes","576","legacy","16","16","3","/Users/gracesimmons/Desktop/subject-5203833.csv","legacy","Lentiform Loewenfeld","3.3.7","yes","yes","600bd7cfb6416f0113b04181","602110864497cf011d9c0822","0","j","NA","space","space","space","NA","j","692","NA","3282","8929","8345","NA","692","2","legacy","1024","2","48000","-16","task","5203833","odd","NA","29694","34982","31699","68002","4154","21444","13096","68505","NA","67999","68505","67940","34982","69197","27562","67440","4146","60935","Lexical Decision Task","18","17528","21","yes","1024"
"2.986323777","10.85","8","ship","word","86.36363636363636","86.36363636363636","825.5909090909091","825.5909090909091","black","no","legacy","legacy","legacy","0","uniform","1","undefined","undefined","undefined","1","j","0","0","0","0","21","0","0","0","21","NA","17","21","17","0","17","3","21","0","21","Fri Feb 19 12:08:06 2021","The main experiment item","yes","Lexical_Decision_Task.osexp","/Users/gracesimmons/Desktop","no","Andale Mono","no","18","no","white","no","yes","576","legacy","17","17","3","/Users/gracesimmons/Desktop/subject-5203833.csv","legacy","Lentiform Loewenfeld","3.3.7","yes","yes","600bd7cfb6416f0113b04181","602110864497cf011d9c0822","0","j","NA","space","space","space","NA","j","635","NA","3282","8929","8345","NA","635","2","legacy","1024","2","48000","-16","task","5203833","odd","NA","29694","34982","31699","69763","4154","21444","13096","70266","NA","69760","70266","69700","34982","70902","27562","69200","4146","60935","Lexical Decision Task","19","18163","22","yes","1024"
"3.043885998","0","9","gome","non-word","86.95652173913044","86.95652173913044","830.7391304347826","830.7391304347826","black","no","legacy","legacy","legacy","0","uniform","1","undefined","undefined","undefined","1","f","0","0","0","0","22","0","0","0","22","NA","18","22","18","0","18","3","22","0","22","Fri Feb 19 12:08:06 2021","The main experiment item","yes","Lexical_Decision_Task.osexp","/Users/gracesimmons/Desktop","no","Andale Mono","no","18","no","white","no","yes","576","legacy","18","18","3","/Users/gracesimmons/Desktop/subject-5203833.csv","legacy","Lentiform Loewenfeld","3.3.7","yes","yes","600bd7cfb6416f0113b04181","602110864497cf011d9c0822","0","f","NA","space","space","space","NA","f","944","NA","3282","8929","8345","NA","944","2","legacy","1024","2","48000","-16","task","5203833","odd","NA","29694","34982","31699","71468","4154","21444","13096","71971","NA","71465","71971","71405","34982","72916","27562","70905","4146","60935","Lexical Decision Task","20","19107","23","yes","1024"
"2.819763221","0","2","durp","non-word","87.5","87.5","833.0416666666666","833.0416666666666","black","no","legacy","legacy","legacy","0","uniform","1","undefined","undefined","undefined","1","f","0","0","0","0","23","0","0","0","23","NA","19","23","19","0","19","3","23","0","23","Fri Feb 19 12:08:06 2021","The main experiment item","yes","Lexical_Decision_Task.osexp","/Users/gracesimmons/Desktop","no","Andale Mono","no","18","no","white","no","yes","576","legacy","19","19","3","/Users/gracesimmons/Desktop/subject-5203833.csv","legacy","Lentiform Loewenfeld","3.3.7","yes","yes","600bd7cfb6416f0113b04181","602110864497cf011d9c0822","0","f","NA","space","space","space","NA","f","886","NA","3282","8929","8345","NA","886","2","legacy","1024","2","48000","-16","task","5203833","odd","NA","29694","34982","31699","73480","4154","21444","13096","73983","NA","73478","73983","73419","34982","74870","27562","72919","4146","60935","Lexical Decision Task","21","19993","24","yes","1024"
"3.252447662","9.67","9","boat","word","88","88","821.84","821.84","black","no","legacy","legacy","legacy","0","uniform","1","undefined","undefined","undefined","1","j","0","0","0","0","24","0","0","0","24","NA","20","24","20","0","20","3","24","0","24","Fri Feb 19 12:08:06 2021","The main experiment item","yes","Lexical_Decision_Task.osexp","/Users/gracesimmons/Desktop","no","Andale Mono","no","18","no","white","no","yes","576","legacy","20","20","3","/Users/gracesimmons/Desktop/subject-5203833.csv","legacy","Lentiform Loewenfeld","3.3.7","yes","yes","600bd7cfb6416f0113b04181","602110864497cf011d9c0822","0","j","NA","space","space","space","NA","j","553","NA","3282","8929","8345","NA","553","2","legacy","1024","2","48000","-16","task","5203833","odd","NA","29694","34982","31699","75435","4154","21444","13096","75938","NA","75432","75938","75373","34982","76492","27562","74873","4146","60935","Lexical Decision Task","22","20546","25","yes","1024"
"3.374198258","0","8","vist","non-word","84.61538461538461","84.61538461538461","809.3461538461538","809.3461538461538","black","no","legacy","legacy","legacy","0","uniform","0","undefined","undefined","undefined","0","f","0","0","0","0","25","0","0","0","25","NA","21","25","21","0","21","3","25","0","25","Fri Feb 19 12:08:06 2021","The main experiment item","yes","Lexical_Decision_Task.osexp","/Users/gracesimmons/Desktop","no","Andale Mono","no","18","no","white","no","yes","576","legacy","21","21","3","/Users/gracesimmons/Desktop/subject-5203833.csv","legacy","Lentiform Loewenfeld","3.3.7","yes","yes","600bd7cfb6416f0113b04181","602110864497cf011d9c0822","0","j","NA","space","space","space","NA","j","497","NA","3282","8929","8345","NA","497","2","legacy","1024","2","48000","-16","task","5203833","odd","NA","29694","34982","31699","77071","4154","21444","13096","77574","NA","77068","77574","76996","34982","78072","27562","76495","4146","60935","Lexical Decision Task","22","21043","26","yes","1024"
"3.2757719","0","5","slea","non-word","85.18518518518519","85.18518518518519","821.6296296296297","821.6296296296297","black","no","legacy","legacy","legacy","0","uniform","1","undefined","undefined","undefined","1","f","0","0","0","0","26","0","0","0","26","NA","22","26","22","0","22","3","26","0","26","Fri Feb 19 12:08:06 2021","The main experiment item","yes","Lexical_Decision_Task.osexp","/Users/gracesimmons/Desktop","no","Andale Mono","no","18","no","white","no","yes","576","legacy","22","22","3","/Users/gracesimmons/Desktop/subject-5203833.csv","legacy","Lentiform Loewenfeld","3.3.7","yes","yes","600bd7cfb6416f0113b04181","602110864497cf011d9c0822","0","f","NA","space","space","space","NA","f","1141","NA","3282","8929","8345","NA","1141","2","legacy","1024","2","48000","-16","task","5203833","odd","NA","29694","34982","31699","79653","4154","21444","13096","80156","NA","79649","80156","79575","34982","81298","27562","76495","4146","78075","Lexical Decision Task","23","22184","27","yes","1024"
"2.996511672","0","7","hoil","non-word","85.71428571428571","85.71428571428571","819.6785714285714","819.6785714285714","black","no","legacy","legacy","legacy","0","uniform","1","undefined","undefined","undefined","1","f","0","0","0","0","27","0","0","0","27","NA","23","27","23","0","23","3","27","0","27","Fri Feb 19 12:08:06 2021","The main experiment item","yes","Lexical_Decision_Task.osexp","/Users/gracesimmons/Desktop","no","Andale Mono","no","18","no","white","no","yes","576","legacy","23","23","3","/Users/gracesimmons/Desktop/subject-5203833.csv","legacy","Lentiform Loewenfeld","3.3.7","yes","yes","600bd7cfb6416f0113b04181","602110864497cf011d9c0822","0","f","NA","space","space","space","NA","f","767","NA","3282","8929","8345","NA","767","2","legacy","1024","2","48000","-16","task","5203833","odd","NA","29694","34982","31699","81864","4154","21444","13096","82367","NA","81861","82367","81803","34982","83135","27562","81303","4146","78075","Lexical Decision Task","24","22951","28","yes","1024"
"3.082307743","9.68","8","camp","word","86.20689655172414","86.20689655172414","827.3448275862069","827.3448275862069","black","no","legacy","legacy","legacy","0","uniform","1","undefined","undefined","undefined","1","j","0","0","0","0","28","0","0","0","28","NA","24","28","24","0","24","3","28","0","28","Fri Feb 19 12:08:06 2021","The main experiment item","yes","Lexical_Decision_Task.osexp","/Users/gracesimmons/Desktop","no","Andale Mono","no","18","no","white","no","yes","576","legacy","24","24","3","/Users/gracesimmons/Desktop/subject-5203833.csv","legacy","Lentiform Loewenfeld","3.3.7","yes","yes","600bd7cfb6416f0113b04181","602110864497cf011d9c0822","0","j","NA","space","space","space","NA","j","1042","NA","3282","8929","8345","NA","1042","2","legacy","1024","2","48000","-16","task","5203833","odd","NA","29694","34982","31699","83699","4154","21444","13096","84201","NA","83696","84201","83638","34982","85244","27562","83138","4146","78075","Lexical Decision Task","25","23993","29","yes","1024"
"3.003891166","8.05","2","frog","word","86.66666666666667","86.66666666666667","818.2333333333333","818.2333333333333","black","no","legacy","legacy","legacy","0","uniform","1","undefined","undefined","undefined","1","j","0","0","0","0","29","0","0","0","29","NA","25","29","25","0","25","3","29","0","29","Fri Feb 19 12:08:06 2021","The main experiment item","yes","Lexical_Decision_Task.osexp","/Users/gracesimmons/Desktop","no","Andale Mono","no","18","no","white","no","yes","576","legacy","25","25","3","/Users/gracesimmons/Desktop/subject-5203833.csv","legacy","Lentiform Loewenfeld","3.3.7","yes","yes","600bd7cfb6416f0113b04181","602110864497cf011d9c0822","0","j","NA","space","space","space","NA","j","554","NA","3282","8929","8345","NA","554","2","legacy","1024","2","48000","-16","task","5203833","odd","NA","29694","34982","31699","85808","4154","21444","13096","86313","NA","85805","86314","85747","34982","86869","27562","85247","4146","78075","Lexical Decision Task","26","24547","30","yes","1024"
"2.920123326","7.43","4","duel","word","83.87096774193549","83.87096774193549","814.3870967741935","814.3870967741935","black","no","legacy","legacy","legacy","0","uniform","0","undefined","undefined","undefined","0","j","0","0","0","0","30","0","0","0","30","NA","26","30","26","0","26","3","30","0","30","Fri Feb 19 12:08:06 2021","The main experiment item","yes","Lexical_Decision_Task.osexp","/Users/gracesimmons/Desktop","no","Andale Mono","no","18","no","white","no","yes","576","legacy","26","26","3","/Users/gracesimmons/Desktop/subject-5203833.csv","legacy","Lentiform Loewenfeld","3.3.7","yes","yes","600bd7cfb6416f0113b04181","602110864497cf011d9c0822","0","f","NA","space","space","space","NA","f","699","NA","3282","8929","8345","NA","699","2","legacy","1024","2","48000","-16","task","5203833","odd","NA","29694","34982","31699","87433","4154","21444","13096","87936","NA","87430","87936","87371","34982","88636","27562","86871","4146","78075","Lexical Decision Task","26","25246","31","yes","1024"
"2.966923697","5.4","2","fume","word","84.375","84.375","811.34375","811.34375","black","no","legacy","legacy","legacy","0","uniform","1","undefined","undefined","undefined","1","j","0","0","0","0","31","0","0","0","31","NA","27","31","27","0","27","3","31","0","31","Fri Feb 19 12:08:06 2021","The main experiment item","yes","Lexical_Decision_Task.osexp","/Users/gracesimmons/Desktop","no","Andale Mono","no","18","no","white","no","yes","576","legacy","27","27","3","/Users/gracesimmons/Desktop/subject-5203833.csv","legacy","Lentiform Loewenfeld","3.3.7","yes","yes","600bd7cfb6416f0113b04181","602110864497cf011d9c0822","0","j","NA","space","space","space","NA","j","717","NA","3282","8929","8345","NA","717","2","legacy","1024","2","48000","-16","task","5203833","odd","NA","29694","34982","31699","90204","4154","21444","13096","90707","NA","90201","90707","90139","34982","91424","27562","86871","4146","88639","Lexical Decision Task","27","25963","32","yes","1024"
"3.102203805","7.21","3","drip","word","84.84848484848484","84.84848484848484","807.1515151515151","807.1515151515151","black","no","legacy","legacy","legacy","0","uniform","1","undefined","undefined","undefined","1","j","0","0","0","0","32","0","0","0","32","NA","28","32","28","0","28","3","32","0","32","Fri Feb 19 12:08:06 2021","The main experiment item","yes","Lexical_Decision_Task.osexp","/Users/gracesimmons/Desktop","no","Andale Mono","no","18","no","white","no","yes","576","legacy","28","28","3","/Users/gracesimmons/Desktop/subject-5203833.csv","legacy","Lentiform Loewenfeld","3.3.7","yes","yes","600bd7cfb6416f0113b04181","602110864497cf011d9c0822","0","j","NA","space","space","space","NA","j","673","NA","3282","8929","8345","NA","673","2","legacy","1024","2","48000","-16","task","5203833","odd","NA","29694","34982","31699","91989","4154","21444","13096","92492","NA","91986","92492","91927","34982","93166","27562","91427","4146","88639","Lexical Decision Task","28","26636","33","yes","1024"
"3.431095062","5.74","9","perk","word","85.29411764705883","85.29411764705883","811.5588235294117","811.5588235294117","black","no","legacy","legacy","legacy","0","uniform","1","undefined","undefined","undefined","1","j","0","0","0","0","33","0","0","0","33","NA","29","33","29","0","29","3","33","0","33","Fri Feb 19 12:08:06 2021","The main experiment item","yes","Lexical_Decision_Task.osexp","/Users/gracesimmons/Desktop","no","Andale Mono","no","18","no","white","no","yes","576","legacy","29","29","3","/Users/gracesimmons/Desktop/subject-5203833.csv","legacy","Lentiform Loewenfeld","3.3.7","yes","yes","600bd7cfb6416f0113b04181","602110864497cf011d9c0822","0","j","NA","space","space","space","NA","j","957","NA","3282","8929","8345","NA","957","2","legacy","1024","2","48000","-16","task","5203833","odd","NA","29694","34982","31699","93731","4154","21444","13096","94236","NA","93728","94237","93670","34982","95195","27562","93169","4146","88639","Lexical Decision Task","29","27593","34","yes","1024"
"3.064581521","5.51","6","cask","word","82.85714285714286","82.85714285714286","808.9714285714285","808.9714285714285","black","no","legacy","legacy","legacy","0","uniform","0","undefined","undefined","undefined","0","j","0","0","0","0","34","0","0","0","34","NA","30","34","30","0","30","3","34","0","34","Fri Feb 19 12:08:06 2021","The main experiment item","yes","Lexical_Decision_Task.osexp","/Users/gracesimmons/Desktop","no","Andale Mono","no","18","no","white","no","yes","576","legacy","30","30","3","/Users/gracesimmons/Desktop/subject-5203833.csv","legacy","Lentiform Loewenfeld","3.3.7","yes","yes","600bd7cfb6416f0113b04181","602110864497cf011d9c0822","0","f","NA","space","space","space","NA","f","721","NA","3282","8929","8345","NA","721","2","legacy","1024","2","48000","-16","task","5203833","odd","NA","29694","34982","31699","95759","4154","21444","13096","96262","NA","95756","96262","95698","34982","96984","27562","95198","4146","88639","Lexical Decision Task","29","28314","35","yes","1024"
"3.225825991","0","7","talm","non-word","83.33333333333333","83.33333333333333","806.8333333333334","806.8333333333334","black","no","legacy","legacy","legacy","0","uniform","1","undefined","undefined","undefined","1","f","0","0","0","0","35","0","0","0","35","NA","31","35","31","0","31","3","35","0","35","Fri Feb 19 12:08:06 2021","The main experiment item","yes","Lexical_Decision_Task.osexp","/Users/gracesimmons/Desktop","no","Andale Mono","no","18","no","white","no","yes","576","legacy","31","31","3","/Users/gracesimmons/Desktop/subject-5203833.csv","legacy","Lentiform Loewenfeld","3.3.7","yes","yes","600bd7cfb6416f0113b04181","602110864497cf011d9c0822","0","f","NA","space","space","space","NA","f","732","NA","3282","8929","8345","NA","732","2","legacy","1024","2","48000","-16","task","5203833","odd","NA","29694","34982","31699","98552","4154","21444","13096","99055","NA","98549","99055","98487","34982","99787","27562","95198","4146","96987","Lexical Decision Task","30","29046","36","yes","1024"
"3.100255637","0","6","brax","non-word","83.78378378378379","83.78378378378379","807.5675675675676","807.5675675675676","black","no","legacy","legacy","legacy","0","uniform","1","undefined","undefined","undefined","1","f","0","0","0","0","36","0","0","0","36","NA","32","36","32","0","32","3","36","0","36","Fri Feb 19 12:08:06 2021","The main experiment item","yes","Lexical_Decision_Task.osexp","/Users/gracesimmons/Desktop","no","Andale Mono","no","18","no","white","no","yes","576","legacy","32","32","3","/Users/gracesimmons/Desktop/subject-5203833.csv","legacy","Lentiform Loewenfeld","3.3.7","yes","yes","600bd7cfb6416f0113b04181","602110864497cf011d9c0822","0","f","NA","space","space","space","NA","f","834","NA","3282","8929","8345","NA","834","2","legacy","1024","2","48000","-16","task","5203833","odd","NA","29694","34982","31699","100352","4154","21444","13096","100854","NA","100349","100854","100290","34982","101689","27562","99790","4146","96987","Lexical Decision Task","31","29880","37","yes","1024"
"3.230789326","5.38","5","prim","word","81.57894736842105","81.57894736842105","804.2105263157895","804.2105263157895","black","no","legacy","legacy","legacy","0","uniform","0","undefined","undefined","undefined","0","j","0","0","0","0","37","0","0","0","37","NA","33","37","33","0","33","3","37","0","37","Fri Feb 19 12:08:06 2021","The main experiment item","yes","Lexical_Decision_Task.osexp","/Users/gracesimmons/Desktop","no","Andale Mono","no","18","no","white","no","yes","576","legacy","33","33","3","/Users/gracesimmons/Desktop/subject-5203833.csv","legacy","Lentiform Loewenfeld","3.3.7","yes","yes","600bd7cfb6416f0113b04181","602110864497cf011d9c0822","0","f","NA","space","space","space","NA","f","680","NA","3282","8929","8345","NA","680","2","legacy","1024","2","48000","-16","task","5203833","odd","NA","29694","34982","31699","102265","4154","21444","13096","102769","NA","102262","102769","102192","34982","103450","27562","101692","4146","96987","Lexical Decision Task","31","30560","38","yes","1024"
"2.744553742","0","2","nawk","non-word","82.05128205128206","82.05128205128206","799.7435897435897","799.7435897435897","black","no","legacy","legacy","legacy","0","uniform","1","undefined","undefined","undefined","1","f","0","0","0","0","38","0","0","0","38","NA","34","38","34","0","34","3","38","0","38","Fri Feb 19 12:08:06 2021","The main experiment item","yes","Lexical_Decision_Task.osexp","/Users/gracesimmons/Desktop","no","Andale Mono","no","18","no","white","no","yes","576","legacy","34","34","3","/Users/gracesimmons/Desktop/subject-5203833.csv","legacy","Lentiform Loewenfeld","3.3.7","yes","yes","600bd7cfb6416f0113b04181","602110864497cf011d9c0822","0","f","NA","space","space","space","NA","f","630","NA","3282","8929","8345","NA","630","2","legacy","1024","2","48000","-16","task","5203833","odd","NA","29694","34982","31699","105032","4154","21444","13096","105535","NA","105028","105535","104953","34982","106166","27562","101692","4146","103453","Lexical Decision Task","32","31190","39","yes","1024"
"3.133964479","0","8","graw","non-word","80","80","809.1","809.1","black","no","legacy","legacy","legacy","0","uniform","0","undefined","undefined","undefined","0","f","0","0","0","0","39","0","0","0","39","NA","35","39","35","0","35","3","39","0","39","Fri Feb 19 12:08:06 2021","The main experiment item","yes","Lexical_Decision_Task.osexp","/Users/gracesimmons/Desktop","no","Andale Mono","no","18","no","white","no","yes","576","legacy","35","35","3","/Users/gracesimmons/Desktop/subject-5203833.csv","legacy","Lentiform Loewenfeld","3.3.7","yes","yes","600bd7cfb6416f0113b04181","602110864497cf011d9c0822","0","j","NA","space","space","space","NA","j","1174","NA","3282","8929","8345","NA","1174","2","legacy","1024","2","48000","-16","task","5203833","odd","NA","29694","34982","31699","106731","4154","21444","13096","107234","NA","106728","107234","106669","34982","108409","27562","106169","4146","103453","Lexical Decision Task","32","32364","40","yes","1024"
"3.397302518","7.01","2","knit","word","78.04878048780488","78.04878048780488","808.6829268292682","808.6829268292682","black","no","legacy","legacy","legacy","0","uniform","0","undefined","undefined","undefined","0","j","0","0","0","0","40","0","0","0","40","NA","36","40","36","0","36","3","40","0","40","Fri Feb 19 12:08:06 2021","The main experiment item","yes","Lexical_Decision_Task.osexp","/Users/gracesimmons/Desktop","no","Andale Mono","no","18","no","white","no","yes","576","legacy","36","36","3","/Users/gracesimmons/Desktop/subject-5203833.csv","legacy","Lentiform Loewenfeld","3.3.7","yes","yes","600bd7cfb6416f0113b04181","602110864497cf011d9c0822","0","f","NA","space","space","space","NA","f","792","NA","3282","8929","8345","NA","792","2","legacy","1024","2","48000","-16","task","5203833","odd","NA","29694","34982","31699","109977","4154","21444","13096","110480","NA","109974","110480","109912","34982","111272","27562","106169","4146","108412","Lexical Decision Task","32","33156","41","yes","1024"
"2.675164031","8.57","6","glue","word","78.57142857142857","78.57142857142857","802.452380952381","802.452380952381","black","no","legacy","legacy","legacy","0","uniform","1","undefined","undefined","undefined","1","j","0","0","0","0","41","0","0","0","41","NA","37","41","37","0","37","3","41","0","41","Fri Feb 19 12:08:06 2021","The main experiment item","yes","Lexical_Decision_Task.osexp","/Users/gracesimmons/Desktop","no","Andale Mono","no","18","no","white","no","yes","576","legacy","37","37","3","/Users/gracesimmons/Desktop/subject-5203833.csv","legacy","Lentiform Loewenfeld","3.3.7","yes","yes","600bd7cfb6416f0113b04181","602110864497cf011d9c0822","0","j","NA","space","space","space","NA","j","547","NA","3282","8929","8345","NA","547","2","legacy","1024","2","48000","-16","task","5203833","odd","NA","29694","34982","31699","112839","4154","21444","13096","113343","NA","112836","113343","112775","34982","113891","27562","106169","4146","111275","Lexical Decision Task","33","33703","42","yes","1024"
"2.6599162","0","6","flug","non-word","76.74418604651163","76.74418604651163","813.4883720930233","813.4883720930233","black","no","legacy","legacy","legacy","0","uniform","0","undefined","undefined","undefined","0","f","0","0","0","0","42","0","0","0","42","NA","38","42","38","0","38","3","42","0","42","Fri Feb 19 12:08:06 2021","The main experiment item","yes","Lexical_Decision_Task.osexp","/Users/gracesimmons/Desktop","no","Andale Mono","no","18","no","white","no","yes","576","legacy","38","38","3","/Users/gracesimmons/Desktop/subject-5203833.csv","legacy","Lentiform Loewenfeld","3.3.7","yes","yes","600bd7cfb6416f0113b04181","602110864497cf011d9c0822","0","j","NA","space","space","space","NA","j","1277","NA","3282","8929","8345","NA","1277","2","legacy","1024","2","48000","-16","task","5203833","odd","NA","29694","34982","31699","114455","4154","21444","13096","114958","NA","114452","114958","114394","34982","116236","27562","113894","4146","111275","Lexical Decision Task","33","34980","43","yes","1024"
"2.812467698","0","7","hafe","non-word","77.27272727272727","77.27272727272727","814.8636363636364","814.8636363636364","black","no","legacy","legacy","legacy","0","uniform","1","undefined","undefined","undefined","1","f","0","0","0","0","43","0","0","0","43","NA","39","43","39","0","39","3","43","0","43","Fri Feb 19 12:08:06 2021","The main experiment item","yes","Lexical_Decision_Task.osexp","/Users/gracesimmons/Desktop","no","Andale Mono","no","18","no","white","no","yes","576","legacy","39","39","3","/Users/gracesimmons/Desktop/subject-5203833.csv","legacy","Lentiform Loewenfeld","3.3.7","yes","yes","600bd7cfb6416f0113b04181","602110864497cf011d9c0822","0","f","NA","space","space","space","NA","f","874","NA","3282","8929","8345","NA","874","2","legacy","1024","2","48000","-16","task","5203833","odd","NA","29694","34982","31699","117804","4154","21444","13096","118307","NA","117801","118307","117739","34982","119181","27562","113894","4146","116239","Lexical Decision Task","34","35854","44","yes","1024"
"3.261341392","5.08","8","reek","word","75.55555555555556","75.55555555555556","812.2888888888889","812.2888888888889","black","no","legacy","legacy","legacy","0","uniform","0","undefined","undefined","undefined","0","j","0","0","0","0","44","0","0","0","44","NA","40","44","40","0","40","3","44","0","44","Fri Feb 19 12:08:06 2021","The main experiment item","yes","Lexical_Decision_Task.osexp","/Users/gracesimmons/Desktop","no","Andale Mono","no","18","no","white","no","yes","576","legacy","40","40","3","/Users/gracesimmons/Desktop/subject-5203833.csv","legacy","Lentiform Loewenfeld","3.3.7","yes","yes","600bd7cfb6416f0113b04181","602110864497cf011d9c0822","0","f","NA","space","space","space","NA","f","699","NA","3282","8929","8345","NA","699","2","legacy","1024","2","48000","-16","task","5203833","odd","NA","29694","34982","31699","119746","4154","21444","13096","120249","NA","119743","120249","119685","34982","120948","27562","119185","4146","116239","Lexical Decision Task","34","36553","45","yes","1024"
"3.165936429","0","7","leps","non-word","73.91304347826087","73.91304347826087","808.2173913043479","808.2173913043479","black","no","legacy","legacy","legacy","0","uniform","0","undefined","undefined","undefined","0","f","0","0","0","0","45","0","0","0","45","NA","41","45","41","0","41","3","45","0","45","Fri Feb 19 12:08:06 2021","The main experiment item","yes","Lexical_Decision_Task.osexp","/Users/gracesimmons/Desktop","no","Andale Mono","no","18","no","white","no","yes","576","legacy","41","41","3","/Users/gracesimmons/Desktop/subject-5203833.csv","legacy","Lentiform Loewenfeld","3.3.7","yes","yes","600bd7cfb6416f0113b04181","602110864497cf011d9c0822","0","j","NA","space","space","space","NA","j","625","NA","3282","8929","8345","NA","625","2","legacy","1024","2","48000","-16","task","5203833","odd","NA","29694","34982","31699","122516","4154","21444","13096","123019","NA","122513","123019","122451","34982","123644","27562","119185","4146","120951","Lexical Decision Task","34","37178","46","yes","1024"
"3.216517684","10.87","3","film","word","74.46808510638297","74.46808510638297","810.6382978723404","810.6382978723404","black","no","legacy","legacy","legacy","0","uniform","1","undefined","undefined","undefined","1","j","0","0","0","0","46","0","0","0","46","NA","42","46","42","0","42","3","46","0","46","Fri Feb 19 12:08:06 2021","The main experiment item","yes","Lexical_Decision_Task.osexp","/Users/gracesimmons/Desktop","no","Andale Mono","no","18","no","white","no","yes","576","legacy","42","42","3","/Users/gracesimmons/Desktop/subject-5203833.csv","legacy","Lentiform Loewenfeld","3.3.7","yes","yes","600bd7cfb6416f0113b04181","602110864497cf011d9c0822","0","j","NA","space","space","space","NA","j","922","NA","3282","8929","8345","NA","922","2","legacy","1024","2","48000","-16","task","5203833","odd","NA","29694","34982","31699","125212","4154","21444","13096","125715","NA","125209","125715","125147","34982","126637","27562","119185","4146","123647","Lexical Decision Task","35","38100","47","yes","1024"
"2.784379519","0","2","snaf","non-word","75","75","806.7708333333334","806.7708333333334","black","no","legacy","legacy","legacy","0","uniform","1","undefined","undefined","undefined","1","f","0","0","0","0","47","0","0","0","47","NA","43","47","43","0","43","3","47","0","47","Fri Feb 19 12:08:06 2021","The main experiment item","yes","Lexical_Decision_Task.osexp","/Users/gracesimmons/Desktop","no","Andale Mono","no","18","no","white","no","yes","576","legacy","43","43","3","/Users/gracesimmons/Desktop/subject-5203833.csv","legacy","Lentiform Loewenfeld","3.3.7","yes","yes","600bd7cfb6416f0113b04181","602110864497cf011d9c0822","0","f","NA","space","space","space","NA","f","625","NA","3282","8929","8345","NA","625","2","legacy","1024","2","48000","-16","task","5203833","odd","NA","29694","34982","31699","127202","4154","21444","13096","127705","NA","127199","127705","127141","34982","128331","27562","126641","4146","123647","Lexical Decision Task","36","38725","48","yes","1024"
"3.531734309","0","6","lerd","non-word","75.51020408163265","75.51020408163265","803.6122448979592","803.6122448979592","black","no","legacy","legacy","legacy","0","uniform","1","undefined","undefined","undefined","1","f","0","0","0","0","48","0","0","0","48","NA","44","48","44","0","44","3","48","0","48","Fri Feb 19 12:08:06 2021","The main experiment item","yes","Lexical_Decision_Task.osexp","/Users/gracesimmons/Desktop","no","Andale Mono","no","18","no","white","no","yes","576","legacy","44","44","3","/Users/gracesimmons/Desktop/subject-5203833.csv","legacy","Lentiform Loewenfeld","3.3.7","yes","yes","600bd7cfb6416f0113b04181","602110864497cf011d9c0822","0","f","NA","space","space","space","NA","f","652","NA","3282","8929","8345","NA","652","2","legacy","1024","2","48000","-16","task","5203833","odd","NA","29694","34982","31699","128905","4154","21444","13096","129408","NA","128902","129408","128834","34982","130060","27562","128334","4146","123647","Lexical Decision Task","37","39377","49","yes","1024"
"2.695770526","7.34","6","pawn","word","76","76","800.7","800.7","black","no","legacy","legacy","legacy","0","uniform","1","undefined","undefined","undefined","1","j","0","0","0","0","49","0","0","0","49","NA","45","49","45","0","45","3","49","0","49","Fri Feb 19 12:08:06 2021","The main experiment item","yes","Lexical_Decision_Task.osexp","/Users/gracesimmons/Desktop","no","Andale Mono","no","18","no","white","no","yes","576","legacy","45","45","3","/Users/gracesimmons/Desktop/subject-5203833.csv","legacy","Lentiform Loewenfeld","3.3.7","yes","yes","600bd7cfb6416f0113b04181","602110864497cf011d9c0822","0","j","NA","space","space","space","NA","j","658","NA","3282","8929","8345","NA","658","2","legacy","1024","2","48000","-16","task","5203833","odd","NA","29694","34982","31699","130625","4154","21444","13096","131128","NA","130622","131128","130563","34982","131787","27562","130063","4146","123647","Lexical Decision Task","38","40035","50","yes","1024"
"2.771097306","0","9","jold","non-word","76.47058823529412","76.47058823529412","800.0392156862745","800.0392156862745","black","no","legacy","legacy","legacy","0","uniform","1","undefined","undefined","undefined","1","f","0","0","0","0","50","0","0","0","50","NA","46","50","46","0","46","3","50","0","50","Fri Feb 19 12:08:06 2021","The main experiment item","yes","Lexical_Decision_Task.osexp","/Users/gracesimmons/Desktop","no","Andale Mono","no","18","no","white","no","yes","576","legacy","46","46","3","/Users/gracesimmons/Desktop/subject-5203833.csv","legacy","Lentiform Loewenfeld","3.3.7","yes","yes","600bd7cfb6416f0113b04181","602110864497cf011d9c0822","0","f","NA","space","space","space","NA","f","767","NA","3282","8929","8345","NA","767","2","legacy","1024","2","48000","-16","task","5203833","odd","NA","29694","34982","31699","132364","4154","21444","13096","132867","NA","132361","132867","132290","34982","133635","27562","131790","4146","123647","Lexical Decision Task","39","40802","51","yes","1024"
"3.443783828","7.65","3","verb","word","76.92307692307692","76.92307692307692","796.3461538461538","796.3461538461538","black","no","legacy","legacy","legacy","0","uniform","1","undefined","undefined","undefined","1","j","0","0","0","0","51","0","0","0","51","NA","47","51","47","0","47","3","51","0","51","Fri Feb 19 12:08:06 2021","The main experiment item","yes","Lexical_Decision_Task.osexp","/Users/gracesimmons/Desktop","no","Andale Mono","no","18","no","white","no","yes","576","legacy","47","47","3","/Users/gracesimmons/Desktop/subject-5203833.csv","legacy","Lentiform Loewenfeld","3.3.7","yes","yes","600bd7cfb6416f0113b04181","602110864497cf011d9c0822","0","j","NA","space","space","space","NA","j","608","NA","3282","8929","8345","NA","608","2","legacy","1024","2","48000","-16","task","5203833","odd","NA","29694","34982","31699","134200","4154","21444","13096","134703","NA","134197","134703","134138","34982","135312","27562","133638","4146","123647","Lexical Decision Task","40","41410","52","yes","1024"
"2.708989954","9.28","9","bowl","word","77.35849056603773","77.35849056603773","793.3018867924528","793.3018867924528","black","no","legacy","legacy","legacy","0","uniform","1","undefined","undefined","undefined","1","j","0","0","0","0","52","0","0","0","52","NA","48","52","48","0","48","3","52","0","52","Fri Feb 19 12:08:06 2021","The main experiment item","yes","Lexical_Decision_Task.osexp","/Users/gracesimmons/Desktop","no","Andale Mono","no","18","no","white","no","yes","576","legacy","48","48","3","/Users/gracesimmons/Desktop/subject-5203833.csv","legacy","Lentiform Loewenfeld","3.3.7","yes","yes","600bd7cfb6416f0113b04181","602110864497cf011d9c0822","0","j","NA","space","space","space","NA","j","635","NA","3282","8929","8345","NA","635","2","legacy","1024","2","48000","-16","task","5203833","odd","NA","29694","34982","31699","135876","4154","21444","13096","136379","NA","135873","136379","135815","34982","137015","27562","135315","4146","123647","Lexical Decision Task","41","42045","53","yes","1024"
"3.384413096","10.15","3","glad","word","77.77777777777777","77.77777777777777","788.8148148148148","788.8148148148148","black","no","legacy","legacy","legacy","0","uniform","1","undefined","undefined","undefined","1","j","0","0","0","0","53","0","0","0","53","NA","49","53","49","0","49","3","53","0","53","Fri Feb 19 12:08:06 2021","The main experiment item","yes","Lexical_Decision_Task.osexp","/Users/gracesimmons/Desktop","no","Andale Mono","no","18","no","white","no","yes","576","legacy","49","49","3","/Users/gracesimmons/Desktop/subject-5203833.csv","legacy","Lentiform Loewenfeld","3.3.7","yes","yes","600bd7cfb6416f0113b04181","602110864497cf011d9c0822","0","j","NA","space","space","space","NA","j","551","NA","3282","8929","8345","NA","551","2","legacy","1024","2","48000","-16","task","5203833","odd","NA","29694","34982","31699","137579","4154","21444","13096","138082","NA","137576","138082","137518","34982","138634","27562","137018","4146","123647","Lexical Decision Task","42","42596","54","yes","1024"
"2.693726949","5.08","3","swig","word","76.36363636363636","76.36363636363636","795.7636363636364","795.7636363636364","black","no","legacy","legacy","legacy","0","uniform","0","undefined","undefined","undefined","0","j","0","0","0","0","54","0","0","0","54","0","50","54","50","0","50","3","54","0","54","Fri Feb 19 12:08:06 2021","The main experiment item","yes","Lexical_Decision_Task.osexp","/Users/gracesimmons/Desktop","no","Andale Mono","no","18","no","white","no","yes","576","legacy","50","50","3","/Users/gracesimmons/Desktop/subject-5203833.csv","legacy","Lentiform Loewenfeld","3.3.7","yes","yes","600bd7cfb6416f0113b04181","602110864497cf011d9c0822","0","f","NA","space","space","space","space","f","1171","NA","3282","8929","8345","4395","1171","2","legacy","1024","2","48000","-16","task","5203833","odd","NA","29694","34982","31699","143607","4154","21444","13096","144111","139172","143606","144111","139137","34982","145283","27562","138637","4146","123647","Lexical Decision Task","42","43767","55","yes","1024"
"3.488597715","0","9","nain","non-word","76.78571428571429","76.78571428571429","793.5178571428571","793.5178571428571","black","no","legacy","legacy","legacy","0","uniform","1","undefined","undefined","undefined","1","f","0","0","0","0","55","0","0","0","55","0","51","55","51","0","51","3","55","0","55","Fri Feb 19 12:08:06 2021","The main experiment item","yes","Lexical_Decision_Task.osexp","/Users/gracesimmons/Desktop","no","Andale Mono","no","18","no","white","no","yes","576","legacy","51","51","3","/Users/gracesimmons/Desktop/subject-5203833.csv","legacy","Lentiform Loewenfeld","3.3.7","yes","yes","600bd7cfb6416f0113b04181","602110864497cf011d9c0822","0","f","NA","space","space","space","space","f","670","NA","3282","8929","8345","4395","670","2","legacy","1024","2","48000","-16","task","5203833","odd","NA","29694","34982","31699","146851","4154","21444","13096","147354","139172","146847","147355","146786","34982","148026","27562","138637","4146","145286","Lexical Decision Task","43","44437","56","yes","1024"
"2.664328519","0","4","plux","non-word","75.43859649122807","75.43859649122807","805.6140350877193","805.6140350877193","black","no","legacy","legacy","legacy","0","uniform","0","undefined","undefined","undefined","0","f","0","0","0","0","56","0","0","0","56","0","52","56","52","0","52","3","56","0","56","Fri Feb 19 12:08:06 2021","The main experiment item","yes","Lexical_Decision_Task.osexp","/Users/gracesimmons/Desktop","no","Andale Mono","no","18","no","white","no","yes","576","legacy","52","52","3","/Users/gracesimmons/Desktop/subject-5203833.csv","legacy","Lentiform Loewenfeld","3.3.7","yes","yes","600bd7cfb6416f0113b04181","602110864497cf011d9c0822","0","j","NA","space","space","space","space","j","1483","NA","3282","8929","8345","4395","1483","2","legacy","1024","2","48000","-16","task","5203833","odd","NA","29694","34982","31699","148591","4154","21444","13096","149094","139172","148589","149094","148529","34982","150578","27562","148029","4146","145286","Lexical Decision Task","43","45920","57","yes","1024"
"3.105055783","0","2","norp","non-word","75.86206896551724","75.86206896551724","803.6724137931035","803.6724137931035","black","no","legacy","legacy","legacy","0","uniform","1","undefined","undefined","undefined","1","f","0","0","0","0","57","0","0","0","57","0","53","57","53","0","53","3","57","0","57","Fri Feb 19 12:08:06 2021","The main experiment item","yes","Lexical_Decision_Task.osexp","/Users/gracesimmons/Desktop","no","Andale Mono","no","18","no","white","no","yes","576","legacy","53","53","3","/Users/gracesimmons/Desktop/subject-5203833.csv","legacy","Lentiform Loewenfeld","3.3.7","yes","yes","600bd7cfb6416f0113b04181","602110864497cf011d9c0822","0","f","NA","space","space","space","space","f","693","NA","3282","8929","8345","4395","693","2","legacy","1024","2","48000","-16","task","5203833","odd","NA","29694","34982","31699","152146","4154","21444","13096","152649","139172","152142","152649","152081","34982","153343","27562","148029","4146","150581","Lexical Decision Task","44","46613","58","yes","1024"
"3.460446784","0","5","dess","non-word","76.27118644067797","76.27118644067797","811","811","black","no","legacy","legacy","legacy","0","uniform","1","undefined","undefined","undefined","1","f","0","0","0","0","58","0","0","0","58","0","54","58","54","0","54","3","58","0","58","Fri Feb 19 12:08:06 2021","The main experiment item","yes","Lexical_Decision_Task.osexp","/Users/gracesimmons/Desktop","no","Andale Mono","no","18","no","white","no","yes","576","legacy","54","54","3","/Users/gracesimmons/Desktop/subject-5203833.csv","legacy","Lentiform Loewenfeld","3.3.7","yes","yes","600bd7cfb6416f0113b04181","602110864497cf011d9c0822","0","f","NA","space","space","space","space","f","1236","NA","3282","8929","8345","4395","1236","2","legacy","1024","2","48000","-16","task","5203833","odd","NA","29694","34982","31699","153908","4154","21444","13096","154411","139172","153905","154411","153846","34982","155648","27562","153346","4146","150581","Lexical Decision Task","45","47849","59","yes","1024"
"2.980911938","7.15","7","hoop","word","75","75","811.2833333333333","811.2833333333333","black","no","legacy","legacy","legacy","0","uniform","0","undefined","undefined","undefined","0","j","0","0","0","0","59","0","0","0","59","0","55","59","55","0","55","3","59","0","59","Fri Feb 19 12:08:06 2021","The main experiment item","yes","Lexical_Decision_Task.osexp","/Users/gracesimmons/Desktop","no","Andale Mono","no","18","no","white","no","yes","576","legacy","55","55","3","/Users/gracesimmons/Desktop/subject-5203833.csv","legacy","Lentiform Loewenfeld","3.3.7","yes","yes","600bd7cfb6416f0113b04181","602110864497cf011d9c0822","0","f","NA","space","space","space","space","f","828","NA","3282","8929","8345","4395","828","2","legacy","1024","2","48000","-16","task","5203833","odd","NA","29694","34982","31699","156214","4154","21444","13096","156717","139172","156211","156717","156151","34982","157546","27562","155651","4146","150581","Lexical Decision Task","45","48677","60","yes","1024"
"3.010582609","0","2","drod","non-word","75.40983606557377","75.40983606557377","809.8032786885246","809.8032786885246","black","no","legacy","legacy","legacy","0","uniform","1","undefined","undefined","undefined","1","f","0","0","0","0","60","0","0","0","60","0","56","60","56","0","56","3","60","0","60","Fri Feb 19 12:08:06 2021","The main experiment item","yes","Lexical_Decision_Task.osexp","/Users/gracesimmons/Desktop","no","Andale Mono","no","18","no","white","no","yes","576","legacy","56","56","3","/Users/gracesimmons/Desktop/subject-5203833.csv","legacy","Lentiform Loewenfeld","3.3.7","yes","yes","600bd7cfb6416f0113b04181","602110864497cf011d9c0822","0","f","NA","space","space","space","space","f","721","NA","3282","8929","8345","4395","721","2","legacy","1024","2","48000","-16","task","5203833","odd","NA","29694","34982","31699","159114","4154","21444","13096","159617","139172","159111","159618","159049","34982","160340","27562","155651","4146","157549","Lexical Decision Task","46","49398","61","yes","1024"
"2.924968096","0","4","phim","non-word","75.80645161290323","75.80645161290323","806.9677419354839","806.9677419354839","black","no","legacy","legacy","legacy","0","uniform","1","undefined","undefined","undefined","1","f","0","0","0","0","61","0","0","0","61","0","57","61","57","0","57","3","61","0","61","Fri Feb 19 12:08:06 2021","The main experiment item","yes","Lexical_Decision_Task.osexp","/Users/gracesimmons/Desktop","no","Andale Mono","no","18","no","white","no","yes","576","legacy","57","57","3","/Users/gracesimmons/Desktop/subject-5203833.csv","legacy","Lentiform Loewenfeld","3.3.7","yes","yes","600bd7cfb6416f0113b04181","602110864497cf011d9c0822","0","f","NA","space","space","space","space","f","634","NA","3282","8929","8345","4395","634","2","legacy","1024","2","48000","-16","task","5203833","odd","NA","29694","34982","31699","160904","4154","21444","13096","161407","139172","160901","161407","160843","34982","162042","27562","160343","4146","157549","Lexical Decision Task","47","50032","62","yes","1024"
"2.858136002","0","4","phip","non-word","76.19047619047619","76.19047619047619","802.8412698412699","802.8412698412699","black","no","legacy","legacy","legacy","0","uniform","1","undefined","undefined","undefined","1","f","0","0","0","0","62","0","0","0","62","0","58","62","58","0","58","3","62","0","62","Fri Feb 19 12:08:06 2021","The main experiment item","yes","Lexical_Decision_Task.osexp","/Users/gracesimmons/Desktop","no","Andale Mono","no","18","no","white","no","yes","576","legacy","58","58","3","/Users/gracesimmons/Desktop/subject-5203833.csv","legacy","Lentiform Loewenfeld","3.3.7","yes","yes","600bd7cfb6416f0113b04181","602110864497cf011d9c0822","0","f","NA","space","space","space","space","f","547","NA","3282","8929","8345","4395","547","2","legacy","1024","2","48000","-16","task","5203833","odd","NA","29694","34982","31699","162606","4154","21444","13096","163109","139172","162604","163109","162545","34982","163657","27562","162045","4146","157549","Lexical Decision Task","48","50579","63","yes","1024"
"3.259832699","0","9","flar","non-word","76.5625","76.5625","802.578125","802.578125","black","no","legacy","legacy","legacy","0","uniform","1","undefined","undefined","undefined","1","f","0","0","0","0","63","0","0","0","63","0","59","63","59","0","59","3","63","0","63","Fri Feb 19 12:08:06 2021","The main experiment item","yes","Lexical_Decision_Task.osexp","/Users/gracesimmons/Desktop","no","Andale Mono","no","18","no","white","no","yes","576","legacy","59","59","3","/Users/gracesimmons/Desktop/subject-5203833.csv","legacy","Lentiform Loewenfeld","3.3.7","yes","yes","600bd7cfb6416f0113b04181","602110864497cf011d9c0822","0","f","NA","space","space","space","space","f","786","NA","3282","8929","8345","4395","786","2","legacy","1024","2","48000","-16","task","5203833","odd","NA","29694","34982","31699","164222","4154","21444","13096","164725","139172","164219","164725","164160","34982","165512","27562","163660","4146","157549","Lexical Decision Task","49","51365","64","yes","1024"
"3.066077331","0","7","vorn","non-word","76.92307692307692","76.92307692307692","798.4769230769231","798.4769230769231","black","no","legacy","legacy","legacy","0","uniform","1","undefined","undefined","undefined","1","f","0","0","0","0","64","0","0","0","64","0","60","64","60","0","60","3","64","0","64","Fri Feb 19 12:08:06 2021","The main experiment item","yes","Lexical_Decision_Task.osexp","/Users/gracesimmons/Desktop","no","Andale Mono","no","18","no","white","no","yes","576","legacy","60","60","3","/Users/gracesimmons/Desktop/subject-5203833.csv","legacy","Lentiform Loewenfeld","3.3.7","yes","yes","600bd7cfb6416f0113b04181","602110864497cf011d9c0822","0","f","NA","space","space","space","space","f","536","NA","3282","8929","8345","4395","536","2","legacy","1024","2","48000","-16","task","5203833","odd","NA","29694","34982","31699","166077","4154","21444","13096","166580","139172","166074","166580","166015","34982","167117","27562","165515","4146","157549","Lexical Decision Task","50","51901","65","yes","1024"
"3.068433376","8.09","2","bulb","word","77.27272727272727","77.27272727272727","796.4090909090909","796.4090909090909","black","no","legacy","legacy","legacy","0","uniform","1","undefined","undefined","undefined","1","j","0","0","0","0","65","0","0","0","65","0","61","65","61","0","61","3","65","0","65","Fri Feb 19 12:08:06 2021","The main experiment item","yes","Lexical_Decision_Task.osexp","/Users/gracesimmons/Desktop","no","Andale Mono","no","18","no","white","no","yes","576","legacy","61","61","3","/Users/gracesimmons/Desktop/subject-5203833.csv","legacy","Lentiform Loewenfeld","3.3.7","yes","yes","600bd7cfb6416f0113b04181","602110864497cf011d9c0822","0","j","NA","space","space","space","space","j","662","NA","3282","8929","8345","4395","662","2","legacy","1024","2","48000","-16","task","5203833","odd","NA","29694","34982","31699","167682","4154","21444","13096","168185","139172","167680","168185","167620","34982","168847","27562","167120","4146","157549","Lexical Decision Task","51","52563","66","yes","1024"
"2.899092422","7.27","6","snag","word","77.61194029850746","77.61194029850746","826.0895522388059","826.0895522388059","black","no","legacy","legacy","legacy","0","uniform","1","undefined","undefined","undefined","1","j","0","0","0","0","66","0","0","0","66","0","62","66","62","0","62","3","66","0","66","Fri Feb 19 12:08:06 2021","The main experiment item","yes","Lexical_Decision_Task.osexp","/Users/gracesimmons/Desktop","no","Andale Mono","no","18","no","white","no","yes","576","legacy","62","62","3","/Users/gracesimmons/Desktop/subject-5203833.csv","legacy","Lentiform Loewenfeld","3.3.7","yes","yes","600bd7cfb6416f0113b04181","602110864497cf011d9c0822","0","j","NA","space","space","space","space","j","2785","NA","3282","8929","8345","4395","2785","2","legacy","1024","2","48000","-16","task","5203833","odd","NA","29694","34982","31699","169413","4154","21444","13096","169916","139172","169410","169916","169351","34982","172701","27562","168850","4146","157549","Lexical Decision Task","52","55348","67","yes","1024"
"2.868644438","10.52","4","town","word","77.94117647058823","77.94117647058823","821.2058823529412","821.2058823529412","black","no","legacy","legacy","legacy","0","uniform","1","undefined","undefined","undefined","1","j","0","0","0","0","67","0","0","0","67","0","63","67","63","0","63","3","67","0","67","Fri Feb 19 12:08:06 2021","The main experiment item","yes","Lexical_Decision_Task.osexp","/Users/gracesimmons/Desktop","no","Andale Mono","no","18","no","white","no","yes","576","legacy","63","63","3","/Users/gracesimmons/Desktop/subject-5203833.csv","legacy","Lentiform Loewenfeld","3.3.7","yes","yes","600bd7cfb6416f0113b04181","602110864497cf011d9c0822","0","j","NA","space","space","space","space","j","494","NA","3282","8929","8345","4395","494","2","legacy","1024","2","48000","-16","task","5203833","odd","NA","29694","34982","31699","173267","4154","21444","13096","173770","139172","173264","173770","173204","34982","174265","27562","172704","4146","157549","Lexical Decision Task","53","55842","68","yes","1024"
"2.907588697","8.91","9","mood","word","78.26086956521739","78.26086956521739","816.3913043478261","816.3913043478261","black","no","legacy","legacy","legacy","0","uniform","1","undefined","undefined","undefined","1","j","0","0","0","0","68","0","0","0","68","0","64","68","64","0","64","3","68","0","68","Fri Feb 19 12:08:06 2021","The main experiment item","yes","Lexical_Decision_Task.osexp","/Users/gracesimmons/Desktop","no","Andale Mono","no","18","no","white","no","yes","576","legacy","64","64","3","/Users/gracesimmons/Desktop/subject-5203833.csv","legacy","Lentiform Loewenfeld","3.3.7","yes","yes","600bd7cfb6416f0113b04181","602110864497cf011d9c0822","0","j","NA","space","space","space","space","j","489","NA","3282","8929","8345","4395","489","2","legacy","1024","2","48000","-16","task","5203833","odd","NA","29694","34982","31699","174829","4154","21444","13096","175332","139172","174826","175332","174767","34982","175822","27562","174267","4146","157549","Lexical Decision Task","54","56331","69","yes","1024"
"2.895974732","6.65","5","sift","word","78.57142857142857","78.57142857142857","828.4","828.4","black","no","legacy","legacy","legacy","0","uniform","1","undefined","undefined","undefined","1","j","0","0","0","0","69","0","0","0","69","0","65","69","65","0","65","3","69","0","69","Fri Feb 19 12:08:06 2021","The main experiment item","yes","Lexical_Decision_Task.osexp","/Users/gracesimmons/Desktop","no","Andale Mono","no","18","no","white","no","yes","576","legacy","65","65","3","/Users/gracesimmons/Desktop/subject-5203833.csv","legacy","Lentiform Loewenfeld","3.3.7","yes","yes","600bd7cfb6416f0113b04181","602110864497cf011d9c0822","0","j","NA","space","space","space","space","j","1657","NA","3282","8929","8345","4395","1657","2","legacy","1024","2","48000","-16","task","5203833","odd","NA","29694","34982","31699","176387","4154","21444","13096","176890","139172","176384","176890","176325","34982","178547","27562","175825","4146","157549","Lexical Decision Task","55","57988","70","yes","1024"
"3.195807436","0","6","stup","non-word","78.87323943661971","78.87323943661971","835.4084507042254","835.4084507042254","black","no","legacy","legacy","legacy","0","uniform","1","undefined","undefined","undefined","1","f","0","0","0","0","70","0","0","0","70","0","66","70","66","0","66","3","70","0","70","Fri Feb 19 12:08:06 2021","The main experiment item","yes","Lexical_Decision_Task.osexp","/Users/gracesimmons/Desktop","no","Andale Mono","no","18","no","white","no","yes","576","legacy","66","66","3","/Users/gracesimmons/Desktop/subject-5203833.csv","legacy","Lentiform Loewenfeld","3.3.7","yes","yes","600bd7cfb6416f0113b04181","602110864497cf011d9c0822","0","f","NA","space","space","space","space","f","1326","NA","3282","8929","8345","4395","1326","2","legacy","1024","2","48000","-16","task","5203833","odd","NA","29694","34982","31699","179112","4154","21444","13096","179615","139172","179110","179615","179050","34982","180942","27562","178550","4146","157549","Lexical Decision Task","56","59314","71","yes","1024"
"2.668385917","5.48","4","twig","word","79.16666666666667","79.16666666666667","836.6527777777778","836.6527777777778","black","no","legacy","legacy","legacy","0","uniform","1","undefined","undefined","undefined","1","j","0","0","0","0","71","0","0","0","71","0","67","71","67","0","67","3","71","0","71","Fri Feb 19 12:08:06 2021","The main experiment item","yes","Lexical_Decision_Task.osexp","/Users/gracesimmons/Desktop","no","Andale Mono","no","18","no","white","no","yes","576","legacy","67","67","3","/Users/gracesimmons/Desktop/subject-5203833.csv","legacy","Lentiform Loewenfeld","3.3.7","yes","yes","600bd7cfb6416f0113b04181","602110864497cf011d9c0822","0","j","NA","space","space","space","space","j","925","NA","3282","8929","8345","4395","925","2","legacy","1024","2","48000","-16","task","5203833","odd","NA","29694","34982","31699","181517","4154","21444","13096","182020","139172","181514","182021","181445","34982","182947","27562","180945","4146","157549","Lexical Decision Task","57","60239","72","yes","1024"
"3.29439347","8.6","9","wand","word","79.45205479452055","79.45205479452055","842.2328767123288","842.2328767123288","black","no","legacy","legacy","legacy","0","uniform","1","undefined","undefined","undefined","1","j","0","0","0","0","72","0","0","0","72","0","68","72","68","0","68","3","72","0","72","Fri Feb 19 12:08:06 2021","The main experiment item","yes","Lexical_Decision_Task.osexp","/Users/gracesimmons/Desktop","no","Andale Mono","no","18","no","white","no","yes","576","legacy","68","68","3","/Users/gracesimmons/Desktop/subject-5203833.csv","legacy","Lentiform Loewenfeld","3.3.7","yes","yes","600bd7cfb6416f0113b04181","602110864497cf011d9c0822","0","j","NA","space","space","space","space","j","1244","NA","3282","8929","8345","4395","1244","2","legacy","1024","2","48000","-16","task","5203833","odd","NA","29694","34982","31699","183512","4154","21444","13096","184015","139172","183509","184015","183450","34982","185260","27562","182950","4146","157549","Lexical Decision Task","58","61483","73","yes","1024"
"3.353210739","0","9","reet","non-word","78.37837837837837","78.37837837837837","840.2567567567568","840.2567567567568","black","no","legacy","legacy","legacy","0","uniform","0","undefined","undefined","undefined","0","f","0","0","0","0","73","0","0","0","73","0","69","73","69","0","69","3","73","0","73","Fri Feb 19 12:08:06 2021","The main experiment item","yes","Lexical_Decision_Task.osexp","/Users/gracesimmons/Desktop","no","Andale Mono","no","18","no","white","no","yes","576","legacy","69","69","3","/Users/gracesimmons/Desktop/subject-5203833.csv","legacy","Lentiform Loewenfeld","3.3.7","yes","yes","600bd7cfb6416f0113b04181","602110864497cf011d9c0822","0","j","NA","space","space","space","space","j","696","NA","3282","8929","8345","4395","696","2","legacy","1024","2","48000","-16","task","5203833","odd","NA","29694","34982","31699","185825","4154","21444","13096","186328","139172","185822","186328","185763","34982","187025","27562","185263","4146","157549","Lexical Decision Task","58","62179","74","yes","1024"
"2.696356389","0","1","pizz","non-word","78.66666666666667","78.66666666666667","841.2533333333333","841.2533333333333","black","no","legacy","legacy","legacy","0","uniform","1","undefined","undefined","undefined","1","f","0","0","0","0","74","0","0","0","74","0","70","74","70","0","70","3","74","0","74","Fri Feb 19 12:08:06 2021","The main experiment item","yes","Lexical_Decision_Task.osexp","/Users/gracesimmons/Desktop","no","Andale Mono","no","18","no","white","no","yes","576","legacy","70","70","3","/Users/gracesimmons/Desktop/subject-5203833.csv","legacy","Lentiform Loewenfeld","3.3.7","yes","yes","600bd7cfb6416f0113b04181","602110864497cf011d9c0822","0","f","NA","space","space","space","space","f","915","NA","3282","8929","8345","4395","915","2","legacy","1024","2","48000","-16","task","5203833","odd","NA","29694","34982","31699","188593","4154","21444","13096","189096","139172","188590","189096","188528","34982","190012","27562","185263","4146","187028","Lexical Decision Task","59","63094","75","yes","1024"
"2.64476673","0","5","moft","non-word","78.94736842105263","78.94736842105263","843.2763157894736","843.2763157894736","black","no","legacy","legacy","legacy","0","uniform","1","undefined","undefined","undefined","1","f","0","0","0","0","75","0","0","0","75","0","71","75","71","0","71","3","75","0","75","Fri Feb 19 12:08:06 2021","The main experiment item","yes","Lexical_Decision_Task.osexp","/Users/gracesimmons/Desktop","no","Andale Mono","no","18","no","white","no","yes","576","legacy","71","71","3","/Users/gracesimmons/Desktop/subject-5203833.csv","legacy","Lentiform Loewenfeld","3.3.7","yes","yes","600bd7cfb6416f0113b04181","602110864497cf011d9c0822","0","f","NA","space","space","space","space","f","995","NA","3282","8929","8345","4395","995","2","legacy","1024","2","48000","-16","task","5203833","odd","NA","29694","34982","31699","190577","4154","21444","13096","191080","139172","190574","191080","190515","34982","192076","27562","190015","4146","187028","Lexical Decision Task","60","64089","76","yes","1024"
"2.814027728","8.2","4","foam","word","79.22077922077922","79.22077922077922","840.5064935064935","840.5064935064935","black","no","legacy","legacy","legacy","0","uniform","1","undefined","undefined","undefined","1","j","0","0","0","0","76","0","0","0","76","0","72","76","72","0","72","3","76","0","76","Fri Feb 19 12:08:06 2021","The main experiment item","yes","Lexical_Decision_Task.osexp","/Users/gracesimmons/Desktop","no","Andale Mono","no","18","no","white","no","yes","576","legacy","72","72","3","/Users/gracesimmons/Desktop/subject-5203833.csv","legacy","Lentiform Loewenfeld","3.3.7","yes","yes","600bd7cfb6416f0113b04181","602110864497cf011d9c0822","0","j","NA","space","space","space","space","j","630","NA","3282","8929","8345","4395","630","2","legacy","1024","2","48000","-16","task","5203833","odd","NA","29694","34982","31699","192641","4154","21444","13096","193144","139172","192638","193144","192579","34982","193775","27562","192079","4146","187028","Lexical Decision Task","61","64719","77","yes","1024"
"3.208978517","10.33","4","fish","word","79.48717948717949","79.48717948717949","837","837","black","no","legacy","legacy","legacy","0","uniform","1","undefined","undefined","undefined","1","j","0","0","0","0","77","0","0","0","77","0","73","77","73","0","73","3","77","0","77","Fri Feb 19 12:08:06 2021","The main experiment item","yes","Lexical_Decision_Task.osexp","/Users/gracesimmons/Desktop","no","Andale Mono","no","18","no","white","no","yes","576","legacy","73","73","3","/Users/gracesimmons/Desktop/subject-5203833.csv","legacy","Lentiform Loewenfeld","3.3.7","yes","yes","600bd7cfb6416f0113b04181","602110864497cf011d9c0822","0","j","NA","space","space","space","space","j","567","NA","3282","8929","8345","4395","567","2","legacy","1024","2","48000","-16","task","5203833","odd","NA","29694","34982","31699","194339","4154","21444","13096","194843","139172","194337","194843","194278","34982","195410","27562","193778","4146","187028","Lexical Decision Task","62","65286","78","yes","1024"
"2.807758206","6.25","4","hurl","word","79.74683544303798","79.74683544303798","834.3037974683544","834.3037974683544","black","no","legacy","legacy","legacy","0","uniform","1","undefined","undefined","undefined","1","j","0","0","0","0","78","0","0","0","78","0","74","78","74","0","74","3","78","0","78","Fri Feb 19 12:08:06 2021","The main experiment item","yes","Lexical_Decision_Task.osexp","/Users/gracesimmons/Desktop","no","Andale Mono","no","18","no","white","no","yes","576","legacy","74","74","3","/Users/gracesimmons/Desktop/subject-5203833.csv","legacy","Lentiform Loewenfeld","3.3.7","yes","yes","600bd7cfb6416f0113b04181","602110864497cf011d9c0822","0","j","NA","space","space","space","space","j","624","NA","3282","8929","8345","4395","624","2","legacy","1024","2","48000","-16","task","5203833","odd","NA","29694","34982","31699","195976","4154","21444","13096","196479","139172","195973","196479","195913","34982","197104","27562","195413","4146","187028","Lexical Decision Task","63","65910","79","yes","1024"
"2.703007489","8.37","3","pulp","word","80","80","833.225","833.225","black","no","legacy","legacy","legacy","0","uniform","1","undefined","undefined","undefined","1","j","0","0","0","0","79","0","0","0","79","0","75","79","75","0","75","3","79","0","79","Fri Feb 19 12:08:06 2021","The main experiment item","yes","Lexical_Decision_Task.osexp","/Users/gracesimmons/Desktop","no","Andale Mono","no","18","no","white","no","yes","576","legacy","75","75","3","/Users/gracesimmons/Desktop/subject-5203833.csv","legacy","Lentiform Loewenfeld","3.3.7","yes","yes","600bd7cfb6416f0113b04181","602110864497cf011d9c0822","0","j","NA","space","space","space","space","j","748","NA","3282","8929","8345","4395","748","2","legacy","1024","2","48000","-16","task","5203833","odd","NA","29694","34982","31699","197669","4154","21444","13096","198172","139172","197666","198172","197607","34982","198921","27562","197107","4146","187028","Lexical Decision Task","64","66658","80","yes","1024"
"3.303771854","0","9","dath","non-word","80.24691358024691","80.24691358024691","831.8148148148148","831.8148148148148","black","no","legacy","legacy","legacy","0","uniform","1","undefined","undefined","undefined","1","f","0","0","0","0","80","0","0","0","80","0","76","80","76","0","76","3","80","0","80","Fri Feb 19 12:08:06 2021","The main experiment item","yes","Lexical_Decision_Task.osexp","/Users/gracesimmons/Desktop","no","Andale Mono","no","18","no","white","no","yes","576","legacy","76","76","3","/Users/gracesimmons/Desktop/subject-5203833.csv","legacy","Lentiform Loewenfeld","3.3.7","yes","yes","600bd7cfb6416f0113b04181","602110864497cf011d9c0822","0","f","NA","space","space","space","space","f","719","NA","3282","8929","8345","4395","719","2","legacy","1024","2","48000","-16","task","5203833","odd","NA","29694","34982","31699","199499","4154","21444","13096","200002","139172","199496","200002","199424","34982","200722","27562","198924","4146","187028","Lexical Decision Task","65","67377","81","yes","1024"
"2.809559715","8.44","4","volt","word","80.48780487804878","80.48780487804878","827.8170731707318","827.8170731707318","black","no","legacy","legacy","legacy","0","uniform","1","undefined","undefined","undefined","1","j","0","0","0","0","81","0","0","0","81","0","77","81","77","0","77","3","81","0","81","Fri Feb 19 12:08:06 2021","The main experiment item","yes","Lexical_Decision_Task.osexp","/Users/gracesimmons/Desktop","no","Andale Mono","no","18","no","white","no","yes","576","legacy","77","77","3","/Users/gracesimmons/Desktop/subject-5203833.csv","legacy","Lentiform Loewenfeld","3.3.7","yes","yes","600bd7cfb6416f0113b04181","602110864497cf011d9c0822","0","j","NA","space","space","space","space","j","504","NA","3282","8929","8345","4395","504","2","legacy","1024","2","48000","-16","task","5203833","odd","NA","29694","34982","31699","201287","4154","21444","13096","201790","139172","201285","201791","201225","34982","202296","27562","200725","4146","187028","Lexical Decision Task","66","67881","82","yes","1024"
"2.68604012","0","4","pumb","non-word","79.51807228915662","79.51807228915662","824.3373493975904","824.3373493975904","black","no","legacy","legacy","legacy","0","uniform","0","undefined","undefined","undefined","0","f","0","0","0","0","82","0","0","0","82","0","78","82","78","0","78","3","82","0","82","Fri Feb 19 12:08:06 2021","The main experiment item","yes","Lexical_Decision_Task.osexp","/Users/gracesimmons/Desktop","no","Andale Mono","no","18","no","white","no","yes","576","legacy","78","78","3","/Users/gracesimmons/Desktop/subject-5203833.csv","legacy","Lentiform Loewenfeld","3.3.7","yes","yes","600bd7cfb6416f0113b04181","602110864497cf011d9c0822","0","j","NA","space","space","space","space","j","539","NA","3282","8929","8345","4395","539","2","legacy","1024","2","48000","-16","task","5203833","odd","NA","29694","34982","31699","202862","4154","21444","13096","203365","139172","202859","203365","202799","34982","203905","27562","202299","4146","187028","Lexical Decision Task","66","68420","83","yes","1024"
"3.705778213","0","6","stin","non-word","79.76190476190476","79.76190476190476","821.25","821.25","black","no","legacy","legacy","legacy","0","uniform","1","undefined","undefined","undefined","1","f","0","0","0","0","83","0","0","0","83","0","79","83","79","0","79","3","83","0","83","Fri Feb 19 12:08:06 2021","The main experiment item","yes","Lexical_Decision_Task.osexp","/Users/gracesimmons/Desktop","no","Andale Mono","no","18","no","white","no","yes","576","legacy","79","79","3","/Users/gracesimmons/Desktop/subject-5203833.csv","legacy","Lentiform Loewenfeld","3.3.7","yes","yes","600bd7cfb6416f0113b04181","602110864497cf011d9c0822","0","f","NA","space","space","space","space","f","565","NA","3282","8929","8345","4395","565","2","legacy","1024","2","48000","-16","task","5203833","odd","NA","29694","34982","31699","205473","4154","21444","13096","205976","139172","205469","205976","205408","34982","206542","27562","202299","4146","203907","Lexical Decision Task","67","68985","84","yes","1024"
"3.062080345","0","6","tomp","non-word","80","80","824.0705882352942","824.0705882352942","black","no","legacy","legacy","legacy","0","uniform","1","undefined","undefined","undefined","1","f","0","0","0","0","84","0","0","0","84","0","80","84","80","0","80","3","84","0","84","Fri Feb 19 12:08:06 2021","The main experiment item","yes","Lexical_Decision_Task.osexp","/Users/gracesimmons/Desktop","no","Andale Mono","no","18","no","white","no","yes","576","legacy","80","80","3","/Users/gracesimmons/Desktop/subject-5203833.csv","legacy","Lentiform Loewenfeld","3.3.7","yes","yes","600bd7cfb6416f0113b04181","602110864497cf011d9c0822","0","f","NA","space","space","space","space","f","1061","NA","3282","8929","8345","4395","1061","2","legacy","1024","2","48000","-16","task","5203833","odd","NA","29694","34982","31699","207108","4154","21444","13096","207611","139172","207105","207611","207046","34982","208673","27562","206545","4146","203907","Lexical Decision Task","68","70046","85","yes","1024"
"2.709837904","6.85","8","skim","word","79.06976744186046","79.06976744186046","835.4418604651163","835.4418604651163","black","no","legacy","legacy","legacy","0","uniform","0","undefined","undefined","undefined","0","j","0","0","0","0","85","0","0","0","85","0","81","85","81","0","81","3","85","0","85","Fri Feb 19 12:08:06 2021","The main experiment item","yes","Lexical_Decision_Task.osexp","/Users/gracesimmons/Desktop","no","Andale Mono","no","18","no","white","no","yes","576","legacy","81","81","3","/Users/gracesimmons/Desktop/subject-5203833.csv","legacy","Lentiform Loewenfeld","3.3.7","yes","yes","600bd7cfb6416f0113b04181","602110864497cf011d9c0822","0","f","NA","space","space","space","space","f","1802","NA","3282","8929","8345","4395","1802","2","legacy","1024","2","48000","-16","task","5203833","odd","NA","29694","34982","31699","209238","4154","21444","13096","209741","139172","209235","209741","209176","34982","211544","27562","208676","4146","203907","Lexical Decision Task","68","71848","86","yes","1024"
"3.209246849","0","7","slem","non-word","79.3103448275862","79.3103448275862","834.4022988505748","834.4022988505748","black","no","legacy","legacy","legacy","0","uniform","1","undefined","undefined","undefined","1","f","0","0","0","0","86","0","0","0","86","0","82","86","82","0","82","3","86","0","86","Fri Feb 19 12:08:06 2021","The main experiment item","yes","Lexical_Decision_Task.osexp","/Users/gracesimmons/Desktop","no","Andale Mono","no","18","no","white","no","yes","576","legacy","82","82","3","/Users/gracesimmons/Desktop/subject-5203833.csv","legacy","Lentiform Loewenfeld","3.3.7","yes","yes","600bd7cfb6416f0113b04181","602110864497cf011d9c0822","0","f","NA","space","space","space","space","f","745","NA","3282","8929","8345","4395","745","2","legacy","1024","2","48000","-16","task","5203833","odd","NA","29694","34982","31699","213113","4154","21444","13096","213618","139172","213110","213619","213047","34982","214365","27562","208676","4146","211547","Lexical Decision Task","69","72593","87","yes","1024"
"3.299579929","0","2","flis","non-word","79.54545454545455","79.54545454545455","832.7045454545455","832.7045454545455","black","no","legacy","legacy","legacy","0","uniform","1","undefined","undefined","undefined","1","f","0","0","0","0","87","0","0","0","87","0","83","87","83","0","83","3","87","0","87","Fri Feb 19 12:08:06 2021","The main experiment item","yes","Lexical_Decision_Task.osexp","/Users/gracesimmons/Desktop","no","Andale Mono","no","18","no","white","no","yes","576","legacy","83","83","3","/Users/gracesimmons/Desktop/subject-5203833.csv","legacy","Lentiform Loewenfeld","3.3.7","yes","yes","600bd7cfb6416f0113b04181","602110864497cf011d9c0822","0","f","NA","space","space","space","space","f","685","NA","3282","8929","8345","4395","685","2","legacy","1024","2","48000","-16","task","5203833","odd","NA","29694","34982","31699","214931","4154","21444","13096","215434","139172","214928","215434","214868","34982","216119","27562","214368","4146","211547","Lexical Decision Task","70","73278","88","yes","1024"
"2.803231716","5.26","3","kiln","word","78.65168539325843","78.65168539325843","829.7191011235955","829.7191011235955","black","no","legacy","legacy","legacy","0","uniform","0","undefined","undefined","undefined","0","j","0","0","0","0","88","0","0","0","88","0","84","88","84","0","84","3","88","0","88","Fri Feb 19 12:08:06 2021","The main experiment item","yes","Lexical_Decision_Task.osexp","/Users/gracesimmons/Desktop","no","Andale Mono","no","18","no","white","no","yes","576","legacy","84","84","3","/Users/gracesimmons/Desktop/subject-5203833.csv","legacy","Lentiform Loewenfeld","3.3.7","yes","yes","600bd7cfb6416f0113b04181","602110864497cf011d9c0822","0","f","NA","space","space","space","space","f","567","NA","3282","8929","8345","4395","567","2","legacy","1024","2","48000","-16","task","5203833","odd","NA","29694","34982","31699","216686","4154","21444","13096","217189","139172","216683","217189","216623","34982","217757","27562","216122","4146","211547","Lexical Decision Task","70","73845","89","yes","1024"
"2.873320602","0","4","lurg","non-word","77.77777777777777","77.77777777777777","826.5333333333333","826.5333333333333","black","no","legacy","legacy","legacy","0","uniform","0","undefined","undefined","undefined","0","f","0","0","0","0","89","0","0","0","89","0","85","89","85","0","85","3","89","0","89","Fri Feb 19 12:08:06 2021","The main experiment item","yes","Lexical_Decision_Task.osexp","/Users/gracesimmons/Desktop","no","Andale Mono","no","18","no","white","no","yes","576","legacy","85","85","3","/Users/gracesimmons/Desktop/subject-5203833.csv","legacy","Lentiform Loewenfeld","3.3.7","yes","yes","600bd7cfb6416f0113b04181","602110864497cf011d9c0822","0","j","NA","space","space","space","space","j","543","NA","3282","8929","8345","4395","543","2","legacy","1024","2","48000","-16","task","5203833","odd","NA","29694","34982","31699","219326","4154","21444","13096","219829","139172","219323","219829","219260","34982","220373","27562","216122","4146","217760","Lexical Decision Task","70","74388","90","yes","1024"
"3.137775856","7.39","5","comb","word","78.02197802197803","78.02197802197803","824.967032967033","824.967032967033","black","no","legacy","legacy","legacy","0","uniform","1","undefined","undefined","undefined","1","j","0","0","0","0","90","0","0","0","90","0","86","90","86","0","86","3","90","0","90","Fri Feb 19 12:08:06 2021","The main experiment item","yes","Lexical_Decision_Task.osexp","/Users/gracesimmons/Desktop","no","Andale Mono","no","18","no","white","no","yes","576","legacy","86","86","3","/Users/gracesimmons/Desktop/subject-5203833.csv","legacy","Lentiform Loewenfeld","3.3.7","yes","yes","600bd7cfb6416f0113b04181","602110864497cf011d9c0822","0","j","NA","space","space","space","space","j","684","NA","3282","8929","8345","4395","684","2","legacy","1024","2","48000","-16","task","5203833","odd","NA","29694","34982","31699","221941","4154","21444","13096","222444","139172","221938","222445","221876","34982","223130","27562","216122","4146","220376","Lexical Decision Task","71","75072","91","yes","1024"
"3.282244367","0","6","fute","non-word","78.26086956521739","78.26086956521739","829.195652173913","829.195652173913","black","no","legacy","legacy","legacy","0","uniform","1","undefined","undefined","undefined","1","f","0","0","0","0","91","0","0","0","91","0","87","91","87","0","87","3","91","0","91","Fri Feb 19 12:08:06 2021","The main experiment item","yes","Lexical_Decision_Task.osexp","/Users/gracesimmons/Desktop","no","Andale Mono","no","18","no","white","no","yes","576","legacy","87","87","3","/Users/gracesimmons/Desktop/subject-5203833.csv","legacy","Lentiform Loewenfeld","3.3.7","yes","yes","600bd7cfb6416f0113b04181","602110864497cf011d9c0822","0","f","NA","space","space","space","space","f","1214","NA","3282","8929","8345","4395","1214","2","legacy","1024","2","48000","-16","task","5203833","odd","NA","29694","34982","31699","223695","4154","21444","13096","224198","139172","223692","224199","223633","34982","225414","27562","223133","4146","220376","Lexical Decision Task","72","76286","92","yes","1024"
"2.68604012","0","3","mulb","non-word","78.49462365591398","78.49462365591398","829.2903225806451","829.2903225806451","black","no","legacy","legacy","legacy","0","uniform","1","undefined","undefined","undefined","1","f","0","0","0","0","92","0","0","0","92","0","88","92","88","0","88","3","92","0","92","Fri Feb 19 12:08:06 2021","The main experiment item","yes","Lexical_Decision_Task.osexp","/Users/gracesimmons/Desktop","no","Andale Mono","no","18","no","white","no","yes","576","legacy","88","88","3","/Users/gracesimmons/Desktop/subject-5203833.csv","legacy","Lentiform Loewenfeld","3.3.7","yes","yes","600bd7cfb6416f0113b04181","602110864497cf011d9c0822","0","f","NA","space","space","space","space","f","838","NA","3282","8929","8345","4395","838","2","legacy","1024","2","48000","-16","task","5203833","odd","NA","29694","34982","31699","225979","4154","21444","13096","226482","139172","225976","226482","225917","34982","227321","27562","225417","4146","220376","Lexical Decision Task","73","77124","93","yes","1024"
"2.839898939","8.99","6","soap","word","78.72340425531915","78.72340425531915","825.6702127659574","825.6702127659574","black","no","legacy","legacy","legacy","0","uniform","1","undefined","undefined","undefined","1","j","0","0","0","0","93","0","0","0","93","0","89","93","89","0","89","3","93","0","93","Fri Feb 19 12:08:06 2021","The main experiment item","yes","Lexical_Decision_Task.osexp","/Users/gracesimmons/Desktop","no","Andale Mono","no","18","no","white","no","yes","576","legacy","89","89","3","/Users/gracesimmons/Desktop/subject-5203833.csv","legacy","Lentiform Loewenfeld","3.3.7","yes","yes","600bd7cfb6416f0113b04181","602110864497cf011d9c0822","0","j","NA","space","space","space","space","j","489","NA","3282","8929","8345","4395","489","2","legacy","1024","2","48000","-16","task","5203833","odd","NA","29694","34982","31699","227887","4154","21444","13096","228390","139172","227884","228390","227824","34982","228880","27562","227324","4146","220376","Lexical Decision Task","74","77613","94","yes","1024"
"2.842815106","7.86","8","lump","word","78.94736842105263","78.94736842105263","822.8210526315789","822.8210526315789","black","no","legacy","legacy","legacy","0","uniform","1","undefined","undefined","undefined","1","j","0","0","0","0","94","0","0","0","94","0","90","94","90","0","90","3","94","0","94","Fri Feb 19 12:08:06 2021","The main experiment item","yes","Lexical_Decision_Task.osexp","/Users/gracesimmons/Desktop","no","Andale Mono","no","18","no","white","no","yes","576","legacy","90","90","3","/Users/gracesimmons/Desktop/subject-5203833.csv","legacy","Lentiform Loewenfeld","3.3.7","yes","yes","600bd7cfb6416f0113b04181","602110864497cf011d9c0822","0","j","NA","space","space","space","space","j","555","NA","3282","8929","8345","4395","555","2","legacy","1024","2","48000","-16","task","5203833","odd","NA","29694","34982","31699","229445","4154","21444","13096","229948","139172","229442","229948","229383","34982","230504","27562","228883","4146","220376","Lexical Decision Task","75","78168","95","yes","1024"
"3.159867847","5.98","5","brim","word","79.16666666666667","79.16666666666667","827.8854166666666","827.8854166666666","black","no","legacy","legacy","legacy","0","uniform","1","undefined","undefined","undefined","1","j","0","0","0","0","95","0","0","0","95","0","91","95","91","0","91","3","95","0","95","Fri Feb 19 12:08:06 2021","The main experiment item","yes","Lexical_Decision_Task.osexp","/Users/gracesimmons/Desktop","no","Andale Mono","no","18","no","white","no","yes","576","legacy","91","91","3","/Users/gracesimmons/Desktop/subject-5203833.csv","legacy","Lentiform Loewenfeld","3.3.7","yes","yes","600bd7cfb6416f0113b04181","602110864497cf011d9c0822","0","j","NA","space","space","space","space","j","1309","NA","3282","8929","8345","4395","1309","2","legacy","1024","2","48000","-16","task","5203833","odd","NA","29694","34982","31699","231069","4154","21444","13096","231572","139172","231066","231572","231007","34982","232882","27562","230507","4146","220376","Lexical Decision Task","76","79477","96","yes","1024"
"3.039414119","0","9","meep","non-word","79.38144329896907","79.38144329896907","830.2268041237113","830.2268041237113","black","no","legacy","legacy","legacy","0","uniform","1","undefined","undefined","undefined","1","f","0","0","0","0","96","0","0","0","96","0","92","96","92","0","92","3","96","0","96","Fri Feb 19 12:08:06 2021","The main experiment item","yes","Lexical_Decision_Task.osexp","/Users/gracesimmons/Desktop","no","Andale Mono","no","18","no","white","no","yes","576","legacy","92","92","3","/Users/gracesimmons/Desktop/subject-5203833.csv","legacy","Lentiform Loewenfeld","3.3.7","yes","yes","600bd7cfb6416f0113b04181","602110864497cf011d9c0822","0","f","NA","space","space","space","space","f","1055","NA","3282","8929","8345","4395","1055","2","legacy","1024","2","48000","-16","task","5203833","odd","NA","29694","34982","31699","233446","4154","21444","13096","233949","139172","233443","233949","233385","34982","235004","27562","232885","4146","220376","Lexical Decision Task","77","80532","97","yes","1024"
"3.368162872","0","4","ferk","non-word","79.59183673469387","79.59183673469387","829.4897959183673","829.4897959183673","black","no","legacy","legacy","legacy","0","uniform","1","undefined","undefined","undefined","1","f","0","0","0","0","97","0","0","0","97","0","93","97","93","0","93","3","97","0","97","Fri Feb 19 12:08:06 2021","The main experiment item","yes","Lexical_Decision_Task.osexp","/Users/gracesimmons/Desktop","no","Andale Mono","no","18","no","white","no","yes","576","legacy","93","93","3","/Users/gracesimmons/Desktop/subject-5203833.csv","legacy","Lentiform Loewenfeld","3.3.7","yes","yes","600bd7cfb6416f0113b04181","602110864497cf011d9c0822","0","f","NA","space","space","space","space","f","758","NA","3282","8929","8345","4395","758","2","legacy","1024","2","48000","-16","task","5203833","odd","NA","29694","34982","31699","235582","4154","21444","13096","236085","139172","235579","236085","235507","34982","236844","27562","235007","4146","220376","Lexical Decision Task","78","81290","98","yes","1024"
"2.937852093","0","7","bamp","non-word","79.79797979797979","79.79797979797979","833.989898989899","833.989898989899","black","no","legacy","legacy","legacy","0","uniform","1","undefined","undefined","undefined","1","f","0","0","0","0","98","0","0","0","98","0","94","98","94","0","94","3","98","0","98","Fri Feb 19 12:08:06 2021","The main experiment item","yes","Lexical_Decision_Task.osexp","/Users/gracesimmons/Desktop","no","Andale Mono","no","18","no","white","no","yes","576","legacy","94","94","3","/Users/gracesimmons/Desktop/subject-5203833.csv","legacy","Lentiform Loewenfeld","3.3.7","yes","yes","600bd7cfb6416f0113b04181","602110864497cf011d9c0822","0","f","NA","space","space","space","space","f","1275","NA","3282","8929","8345","4395","1275","2","legacy","1024","2","48000","-16","task","5203833","odd","NA","29694","34982","31699","237409","4154","21444","13096","237912","139172","237406","237912","237348","34982","239188","27562","236848","4146","220376","Lexical Decision Task","79","82565","99","yes","1024"
"2.778633532","0","3","jurp","non-word","80","80","831.95","831.95","black","no","legacy","legacy","legacy","0","uniform","1","undefined","undefined","undefined","1","f","0","0","0","0","99","0","0","0","99","0","95","99","95","0","95","3","99","0","99","Fri Feb 19 12:08:06 2021","The main experiment item","yes","Lexical_Decision_Task.osexp","/Users/gracesimmons/Desktop","no","Andale Mono","no","18","no","white","no","yes","576","legacy","95","95","3","/Users/gracesimmons/Desktop/subject-5203833.csv","legacy","Lentiform Loewenfeld","3.3.7","yes","yes","600bd7cfb6416f0113b04181","602110864497cf011d9c0822","0","f","NA","space","space","space","space","f","630","NA","3282","8929","8345","4395","630","2","legacy","1024","2","48000","-16","task","5203833","odd","NA","29694","34982","31699","239754","4154","21444","13096","240257","139172","239751","240257","239692","34982","240888","27562","239192","4146","220376","Lexical Decision Task","80","83195","100","yes","1024"
