"Log_BG","Log_Freq_HAL","Ortho_N","Stimulus","Type","acc","accuracy","average_response_time","avg_rt","background","bidi","canvas_backend","clock_backend","color_backend","compensation","coordinates","correct","correct_Experimental_intro","correct_Introduction","correct_Practice_intro","correct_experimenter_kb","correct_response","count_End_Of_Experiment","count_End_Of_Practice","count_Experimental_Loop","count_Experimental_intro","count_Fixation","count_Introduction","count_Practice_Loop","count_Practice_intro","count_Stimulus","count_block_break_feedback","count_experimental_sequence","count_experimenter_kb","count_increment_trial_count","count_init_trial_count","count_logger","count_practice_sequence","count_right","count_task","count_wrong","datetime","description","disable_garbage_collection","experiment_file","experiment_path","font_bold","font_family","font_italic","font_size","font_underline","foreground","form_clicks","fullscreen","height","keyboard_backend","live_row","live_row_Experimental_Loop","live_row_Practice_Loop","logfile","mouse_backend","opensesame_codename","opensesame_version","osf_always_upload_data","osf_always_upload_experiment","osf_datanode_id","osf_id","repeat_cycle","response","response_End_Of_Experiment","response_Experimental_intro","response_Introduction","response_Practice_intro","response_block_break_feedback","response_experimenter_kb","response_time","response_time_End_Of_Experiment","response_time_Experimental_intro","response_time_Introduction","response_time_Practice_intro","response_time_block_break_feedback","response_time_experimenter_kb","round_decimals","sampler_backend","sound_buf_size","sound_channels","sound_freq","sound_sample_size","start","subject_nr","subject_parity","time_End_Of_Experiment","time_End_Of_Practice","time_Experimental_Loop","time_Experimental_intro","time_Fixation","time_Introduction","time_Practice_Loop","time_Practice_intro","time_Stimulus","time_block_break_feedback","time_experimental_sequence","time_experimenter_kb","time_increment_trial_count","time_init_trial_count","time_logger","time_practice_sequence","time_right","time_task","time_wrong","title","total_correct","total_response_time","total_responses","uniform_coordinates","width"
"2.980911938","7.15","7","hoop","word","100","100","912.2","912.2","black","no","legacy","legacy","legacy","0","uniform","1","undefined","undefined","undefined","1","j","0","0","0","0","4","0","0","0","4","NA","0","4","0","0","0","3","4","0","4","Thu Feb 18 14:42:14 2021","The main experiment item","yes","Lexical_Decision_Task.osexp","C:/Users/melbr/Desktop/CAL","no","Andale Mono","no","18","no","white","no","yes","576","legacy","0","0","3","C:/Users/melbr/Desktop/CAL/subject-5128672.csv","legacy","Lentiform Loewenfeld","3.3.7","yes","yes","600bd7cfb6416f0113b04181","602110864497cf011d9c0822","0","j","NA","j","space","space","NA","j","883","NA","2807","39565","4628","NA","883","2","legacy","1024","2","48000","-16","task","5128672","even","NA","56778","61589","58781","61631","4052","48249","43620","62133","NA","61630","62133","NA","61589","63017","55134","56234","4045","NA","Lexical Decision Task","5","4561","5","yes","1024"
"3.16326079","0","5","parg","non-word","100","100","878.1666666666666","878.1666666666666","black","no","legacy","legacy","legacy","0","uniform","1","undefined","undefined","undefined","1","f","0","0","0","0","5","0","0","0","5","NA","1","5","1","0","1","3","5","0","5","Thu Feb 18 14:42:14 2021","The main experiment item","yes","Lexical_Decision_Task.osexp","C:/Users/melbr/Desktop/CAL","no","Andale Mono","no","18","no","white","no","yes","576","legacy","1","1","3","C:/Users/melbr/Desktop/CAL/subject-5128672.csv","legacy","Lentiform Loewenfeld","3.3.7","yes","yes","600bd7cfb6416f0113b04181","602110864497cf011d9c0822","0","f","NA","j","space","space","NA","f","708","NA","2807","39565","4628","NA","708","2","legacy","1024","2","48000","-16","task","5128672","even","NA","56778","61589","58781","63622","4052","48249","43620","64123","NA","63621","64123","63541","61589","64831","55134","63041","4045","NA","Lexical Decision Task","6","5269","6","yes","1024"
"2.875447132","0","9","jelt","non-word","100","100","850.8571428571429","850.8571428571429","black","no","legacy","legacy","legacy","0","uniform","1","undefined","undefined","undefined","1","f","0","0","0","0","6","0","0","0","6","NA","2","6","2","0","2","3","6","0","6","Thu Feb 18 14:42:14 2021","The main experiment item","yes","Lexical_Decision_Task.osexp","C:/Users/melbr/Desktop/CAL","no","Andale Mono","no","18","no","white","no","yes","576","legacy","2","2","3","C:/Users/melbr/Desktop/CAL/subject-5128672.csv","legacy","Lentiform Loewenfeld","3.3.7","yes","yes","600bd7cfb6416f0113b04181","602110864497cf011d9c0822","0","f","NA","j","space","space","NA","f","687","NA","2807","39565","4628","NA","687","2","legacy","1024","2","48000","-16","task","5128672","even","NA","56778","61589","58781","65445","4052","48249","43620","65947","NA","65443","65947","65339","61589","66635","55134","64839","4045","NA","Lexical Decision Task","7","5956","7","yes","1024"
"3.174641193","0","3","ramb","non-word","100","100","837.625","837.625","black","no","legacy","legacy","legacy","0","uniform","1","undefined","undefined","undefined","1","f","0","0","0","0","7","0","0","0","7","NA","3","7","3","0","3","3","7","0","7","Thu Feb 18 14:42:14 2021","The main experiment item","yes","Lexical_Decision_Task.osexp","C:/Users/melbr/Desktop/CAL","no","Andale Mono","no","18","no","white","no","yes","576","legacy","3","3","3","C:/Users/melbr/Desktop/CAL/subject-5128672.csv","legacy","Lentiform Loewenfeld","3.3.7","yes","yes","600bd7cfb6416f0113b04181","602110864497cf011d9c0822","0","f","NA","j","space","space","NA","f","745","NA","2807","39565","4628","NA","745","2","legacy","1024","2","48000","-16","task","5128672","even","NA","56778","61589","58781","67275","4052","48249","43620","67779","NA","67273","67779","67141","61589","68525","55134","66641","4045","NA","Lexical Decision Task","8","6701","8","yes","1024"
"2.7084209","0","8","vump","non-word","100","100","818.3333333333334","818.3333333333334","black","no","legacy","legacy","legacy","0","uniform","1","undefined","undefined","undefined","1","f","0","0","0","0","8","0","0","0","8","NA","4","8","4","0","4","3","8","0","8","Thu Feb 18 14:42:14 2021","The main experiment item","yes","Lexical_Decision_Task.osexp","C:/Users/melbr/Desktop/CAL","no","Andale Mono","no","18","no","white","no","yes","576","legacy","4","4","3","C:/Users/melbr/Desktop/CAL/subject-5128672.csv","legacy","Lentiform Loewenfeld","3.3.7","yes","yes","600bd7cfb6416f0113b04181","602110864497cf011d9c0822","0","f","NA","j","space","space","NA","f","664","NA","2807","39565","4628","NA","664","2","legacy","1024","2","48000","-16","task","5128672","even","NA","56778","61589","58781","69126","4052","48249","43620","69629","NA","69125","69629","69030","61589","70294","55134","68530","4045","NA","Lexical Decision Task","9","7365","9","yes","1024"
"2.68604012","0","3","mulb","non-word","100","100","823","823","black","no","legacy","legacy","legacy","0","uniform","1","undefined","undefined","undefined","1","f","0","0","0","0","9","0","0","0","9","NA","5","9","5","0","5","3","9","0","9","Thu Feb 18 14:42:14 2021","The main experiment item","yes","Lexical_Decision_Task.osexp","C:/Users/melbr/Desktop/CAL","no","Andale Mono","no","18","no","white","no","yes","576","legacy","5","5","3","C:/Users/melbr/Desktop/CAL/subject-5128672.csv","legacy","Lentiform Loewenfeld","3.3.7","yes","yes","600bd7cfb6416f0113b04181","602110864497cf011d9c0822","0","f","NA","j","space","space","NA","f","865","NA","2807","39565","4628","NA","865","2","legacy","1024","2","48000","-16","task","5128672","even","NA","56778","61589","58781","70899","4052","48249","43620","71402","NA","70898","71403","70801","61589","72268","55134","70300","4045","NA","Lexical Decision Task","10","8230","10","yes","1024"
"3.134602053","0","8","jart","non-word","100","100","817.1818181818181","817.1818181818181","black","no","legacy","legacy","legacy","0","uniform","1","undefined","undefined","undefined","1","f","0","0","0","0","10","0","0","0","10","NA","6","10","6","0","6","3","10","0","10","Thu Feb 18 14:42:14 2021","The main experiment item","yes","Lexical_Decision_Task.osexp","C:/Users/melbr/Desktop/CAL","no","Andale Mono","no","18","no","white","no","yes","576","legacy","6","6","3","C:/Users/melbr/Desktop/CAL/subject-5128672.csv","legacy","Lentiform Loewenfeld","3.3.7","yes","yes","600bd7cfb6416f0113b04181","602110864497cf011d9c0822","0","f","NA","j","space","space","NA","f","759","NA","2807","39565","4628","NA","759","2","legacy","1024","2","48000","-16","task","5128672","even","NA","56778","61589","58781","72905","4052","48249","43620","73408","NA","72904","73409","72790","61589","74168","55134","72290","4045","NA","Lexical Decision Task","11","8989","11","yes","1024"
"3.282244367","0","6","fute","non-word","100","100","808.9166666666666","808.9166666666666","black","no","legacy","legacy","legacy","0","uniform","1","undefined","undefined","undefined","1","f","0","0","0","0","11","0","0","0","11","NA","7","11","7","0","7","3","11","0","11","Thu Feb 18 14:42:14 2021","The main experiment item","yes","Lexical_Decision_Task.osexp","C:/Users/melbr/Desktop/CAL","no","Andale Mono","no","18","no","white","no","yes","576","legacy","7","7","3","C:/Users/melbr/Desktop/CAL/subject-5128672.csv","legacy","Lentiform Loewenfeld","3.3.7","yes","yes","600bd7cfb6416f0113b04181","602110864497cf011d9c0822","0","f","NA","j","space","space","NA","f","718","NA","2807","39565","4628","NA","718","2","legacy","1024","2","48000","-16","task","5128672","even","NA","56778","61589","58781","74778","4052","48249","43620","75280","NA","74776","75280","74690","61589","75998","55134","74189","4045","NA","Lexical Decision Task","12","9707","12","yes","1024"
"2.843025032","0","9","pusk","non-word","100","100","802.3076923076923","802.3076923076923","black","no","legacy","legacy","legacy","0","uniform","1","undefined","undefined","undefined","1","f","0","0","0","0","12","0","0","0","12","NA","8","12","8","0","8","3","12","0","12","Thu Feb 18 14:42:14 2021","The main experiment item","yes","Lexical_Decision_Task.osexp","C:/Users/melbr/Desktop/CAL","no","Andale Mono","no","18","no","white","no","yes","576","legacy","8","8","3","C:/Users/melbr/Desktop/CAL/subject-5128672.csv","legacy","Lentiform Loewenfeld","3.3.7","yes","yes","600bd7cfb6416f0113b04181","602110864497cf011d9c0822","0","f","NA","j","space","space","NA","f","723","NA","2807","39565","4628","NA","723","2","legacy","1024","2","48000","-16","task","5128672","even","NA","56778","61589","58781","76619","4052","48249","43620","77121","NA","76617","77122","76520","61589","77846","55134","76020","4045","NA","Lexical Decision Task","13","10430","13","yes","1024"
"3.218535505","7.85","7","goat","word","100","100","788.7142857142857","788.7142857142857","black","no","legacy","legacy","legacy","0","uniform","1","undefined","undefined","undefined","1","j","0","0","0","0","13","0","0","0","13","NA","9","13","9","0","9","3","13","0","13","Thu Feb 18 14:42:14 2021","The main experiment item","yes","Lexical_Decision_Task.osexp","C:/Users/melbr/Desktop/CAL","no","Andale Mono","no","18","no","white","no","yes","576","legacy","9","9","3","C:/Users/melbr/Desktop/CAL/subject-5128672.csv","legacy","Lentiform Loewenfeld","3.3.7","yes","yes","600bd7cfb6416f0113b04181","602110864497cf011d9c0822","0","j","NA","j","space","space","NA","j","612","NA","2807","39565","4628","NA","612","2","legacy","1024","2","48000","-16","task","5128672","even","NA","56778","61589","58781","78425","4052","48249","43620","78927","NA","78423","78928","78366","61589","79541","55134","77866","4045","NA","Lexical Decision Task","14","11042","14","yes","1024"
"2.972357144","0","5","dasp","non-word","100","100","783.9333333333333","783.9333333333333","black","no","legacy","legacy","legacy","0","uniform","1","undefined","undefined","undefined","1","f","0","0","0","0","14","0","0","0","14","NA","10","14","10","0","10","3","14","0","14","Thu Feb 18 14:42:14 2021","The main experiment item","yes","Lexical_Decision_Task.osexp","C:/Users/melbr/Desktop/CAL","no","Andale Mono","no","18","no","white","no","yes","576","legacy","10","10","3","C:/Users/melbr/Desktop/CAL/subject-5128672.csv","legacy","Lentiform Loewenfeld","3.3.7","yes","yes","600bd7cfb6416f0113b04181","602110864497cf011d9c0822","0","f","NA","j","space","space","NA","f","717","NA","2807","39565","4628","NA","717","2","legacy","1024","2","48000","-16","task","5128672","even","NA","56778","61589","58781","80178","4052","48249","43620","80681","NA","80176","80681","80047","61589","81399","55134","79547","4045","NA","Lexical Decision Task","15","11759","15","yes","1024"
"3.039414119","0","9","meep","non-word","100","100","773.4375","773.4375","black","no","legacy","legacy","legacy","0","uniform","1","undefined","undefined","undefined","1","f","0","0","0","0","15","0","0","0","15","NA","11","15","11","0","11","3","15","0","15","Thu Feb 18 14:42:14 2021","The main experiment item","yes","Lexical_Decision_Task.osexp","C:/Users/melbr/Desktop/CAL","no","Andale Mono","no","18","no","white","no","yes","576","legacy","11","11","3","C:/Users/melbr/Desktop/CAL/subject-5128672.csv","legacy","Lentiform Loewenfeld","3.3.7","yes","yes","600bd7cfb6416f0113b04181","602110864497cf011d9c0822","0","f","NA","j","space","space","NA","f","616","NA","2807","39565","4628","NA","616","2","legacy","1024","2","48000","-16","task","5128672","even","NA","56778","61589","58781","82017","4052","48249","43620","82521","NA","82016","82521","81902","61589","83137","55134","81402","4045","NA","Lexical Decision Task","16","12375","16","yes","1024"
"2.668385917","5.48","4","twig","word","100","100","763.9411764705883","763.9411764705883","black","no","legacy","legacy","legacy","0","uniform","1","undefined","undefined","undefined","1","j","0","0","0","0","16","0","0","0","16","NA","12","16","12","0","12","3","16","0","16","Thu Feb 18 14:42:14 2021","The main experiment item","yes","Lexical_Decision_Task.osexp","C:/Users/melbr/Desktop/CAL","no","Andale Mono","no","18","no","white","no","yes","576","legacy","12","12","3","C:/Users/melbr/Desktop/CAL/subject-5128672.csv","legacy","Lentiform Loewenfeld","3.3.7","yes","yes","600bd7cfb6416f0113b04181","602110864497cf011d9c0822","0","j","NA","j","space","space","NA","j","612","NA","2807","39565","4628","NA","612","2","legacy","1024","2","48000","-16","task","5128672","even","NA","56778","61589","58781","83744","4052","48249","43620","84246","NA","83742","84246","83641","61589","84858","55134","83140","4045","NA","Lexical Decision Task","17","12987","17","yes","1024"
"2.778633532","0","3","jurp","non-word","100","100","755.5","755.5","black","no","legacy","legacy","legacy","0","uniform","1","undefined","undefined","undefined","1","f","0","0","0","0","17","0","0","0","17","NA","13","17","13","0","13","3","17","0","17","Thu Feb 18 14:42:14 2021","The main experiment item","yes","Lexical_Decision_Task.osexp","C:/Users/melbr/Desktop/CAL","no","Andale Mono","no","18","no","white","no","yes","576","legacy","13","13","3","C:/Users/melbr/Desktop/CAL/subject-5128672.csv","legacy","Lentiform Loewenfeld","3.3.7","yes","yes","600bd7cfb6416f0113b04181","602110864497cf011d9c0822","0","f","NA","j","space","space","NA","f","612","NA","2807","39565","4628","NA","612","2","legacy","1024","2","48000","-16","task","5128672","even","NA","56778","61589","58781","85471","4052","48249","43620","85973","NA","85469","85974","85379","61589","86586","55134","84879","4045","NA","Lexical Decision Task","18","13599","18","yes","1024"
"3.529815197","0","3","lerm","non-word","100","100","746.0526315789474","746.0526315789474","black","no","legacy","legacy","legacy","0","uniform","1","undefined","undefined","undefined","1","f","0","0","0","0","18","0","0","0","18","NA","14","18","14","0","14","3","18","0","18","Thu Feb 18 14:42:14 2021","The main experiment item","yes","Lexical_Decision_Task.osexp","C:/Users/melbr/Desktop/CAL","no","Andale Mono","no","18","no","white","no","yes","576","legacy","14","14","3","C:/Users/melbr/Desktop/CAL/subject-5128672.csv","legacy","Lentiform Loewenfeld","3.3.7","yes","yes","600bd7cfb6416f0113b04181","602110864497cf011d9c0822","0","f","NA","j","space","space","NA","f","576","NA","2807","39565","4628","NA","576","2","legacy","1024","2","48000","-16","task","5128672","even","NA","56778","61589","58781","87218","4052","48249","43620","87721","NA","87215","87721","87107","61589","88297","55134","86607","4045","NA","Lexical Decision Task","19","14175","19","yes","1024"
"2.980306438","0","7","slun","non-word","100","100","737.55","737.55","black","no","legacy","legacy","legacy","0","uniform","1","undefined","undefined","undefined","1","f","0","0","0","0","19","0","0","0","19","NA","15","19","15","0","15","3","19","0","19","Thu Feb 18 14:42:14 2021","The main experiment item","yes","Lexical_Decision_Task.osexp","C:/Users/melbr/Desktop/CAL","no","Andale Mono","no","18","no","white","no","yes","576","legacy","15","15","3","C:/Users/melbr/Desktop/CAL/subject-5128672.csv","legacy","Lentiform Loewenfeld","3.3.7","yes","yes","600bd7cfb6416f0113b04181","602110864497cf011d9c0822","0","f","NA","j","space","space","NA","f","576","NA","2807","39565","4628","NA","576","2","legacy","1024","2","48000","-16","task","5128672","even","NA","56778","61589","58781","88913","4052","48249","43620","89416","NA","88912","89416","88804","61589","89992","55134","88304","4045","NA","Lexical Decision Task","20","14751","20","yes","1024"
"3.29439347","8.6","9","wand","word","100","100","740.8095238095239","740.8095238095239","black","no","legacy","legacy","legacy","0","uniform","1","undefined","undefined","undefined","1","j","0","0","0","0","20","0","0","0","20","NA","16","20","16","0","16","3","20","0","20","Thu Feb 18 14:42:14 2021","The main experiment item","yes","Lexical_Decision_Task.osexp","C:/Users/melbr/Desktop/CAL","no","Andale Mono","no","18","no","white","no","yes","576","legacy","16","16","3","C:/Users/melbr/Desktop/CAL/subject-5128672.csv","legacy","Lentiform Loewenfeld","3.3.7","yes","yes","600bd7cfb6416f0113b04181","602110864497cf011d9c0822","0","j","NA","j","space","space","NA","j","806","NA","2807","39565","4628","NA","806","2","legacy","1024","2","48000","-16","task","5128672","even","NA","56778","61589","58781","90581","4052","48249","43620","91084","NA","90580","91085","90499","61589","91892","55134","89999","4045","NA","Lexical Decision Task","21","15557","21","yes","1024"
"3.028977705","0","7","frow","non-word","100","100","739.6363636363636","739.6363636363636","black","no","legacy","legacy","legacy","0","uniform","1","undefined","undefined","undefined","1","f","0","0","0","0","21","0","0","0","21","NA","17","21","17","0","17","3","21","0","21","Thu Feb 18 14:42:14 2021","The main experiment item","yes","Lexical_Decision_Task.osexp","C:/Users/melbr/Desktop/CAL","no","Andale Mono","no","18","no","white","no","yes","576","legacy","17","17","3","C:/Users/melbr/Desktop/CAL/subject-5128672.csv","legacy","Lentiform Loewenfeld","3.3.7","yes","yes","600bd7cfb6416f0113b04181","602110864497cf011d9c0822","0","f","NA","j","space","space","NA","f","715","NA","2807","39565","4628","NA","715","2","legacy","1024","2","48000","-16","task","5128672","even","NA","56778","61589","58781","92507","4052","48249","43620","93009","NA","92504","93009","92399","61589","93725","55134","91899","4045","NA","Lexical Decision Task","22","16272","22","yes","1024"
"2.799799878","0","4","ciff","non-word","100","100","746.1304347826087","746.1304347826087","black","no","legacy","legacy","legacy","0","uniform","1","undefined","undefined","undefined","1","f","0","0","0","0","22","0","0","0","22","NA","18","22","18","0","18","3","22","0","22","Thu Feb 18 14:42:14 2021","The main experiment item","yes","Lexical_Decision_Task.osexp","C:/Users/melbr/Desktop/CAL","no","Andale Mono","no","18","no","white","no","yes","576","legacy","18","18","3","C:/Users/melbr/Desktop/CAL/subject-5128672.csv","legacy","Lentiform Loewenfeld","3.3.7","yes","yes","600bd7cfb6416f0113b04181","602110864497cf011d9c0822","0","f","NA","j","space","space","NA","f","889","NA","2807","39565","4628","NA","889","2","legacy","1024","2","48000","-16","task","5128672","even","NA","56778","61589","58781","94349","4052","48249","43620","94853","NA","94347","94853","94246","61589","95743","55134","93746","4045","NA","Lexical Decision Task","23","17161","23","yes","1024"
"3.259832699","0","9","flar","non-word","100","100","740.8333333333334","740.8333333333334","black","no","legacy","legacy","legacy","0","uniform","1","undefined","undefined","undefined","1","f","0","0","0","0","23","0","0","0","23","NA","19","23","19","0","19","3","23","0","23","Thu Feb 18 14:42:14 2021","The main experiment item","yes","Lexical_Decision_Task.osexp","C:/Users/melbr/Desktop/CAL","no","Andale Mono","no","18","no","white","no","yes","576","legacy","19","19","3","C:/Users/melbr/Desktop/CAL/subject-5128672.csv","legacy","Lentiform Loewenfeld","3.3.7","yes","yes","600bd7cfb6416f0113b04181","602110864497cf011d9c0822","0","f","NA","j","space","space","NA","f","619","NA","2807","39565","4628","NA","619","2","legacy","1024","2","48000","-16","task","5128672","even","NA","56778","61589","58781","96360","4052","48249","43620","96862","NA","96357","96863","96249","61589","97482","55134","95749","4045","NA","Lexical Decision Task","24","17780","24","yes","1024"
"3.257359335","8","6","brew","word","100","100","741.68","741.68","black","no","legacy","legacy","legacy","0","uniform","1","undefined","undefined","undefined","1","j","0","0","0","0","24","0","0","0","24","NA","20","24","20","0","20","3","24","0","24","Thu Feb 18 14:42:14 2021","The main experiment item","yes","Lexical_Decision_Task.osexp","C:/Users/melbr/Desktop/CAL","no","Andale Mono","no","18","no","white","no","yes","576","legacy","20","20","3","C:/Users/melbr/Desktop/CAL/subject-5128672.csv","legacy","Lentiform Loewenfeld","3.3.7","yes","yes","600bd7cfb6416f0113b04181","602110864497cf011d9c0822","0","j","NA","j","space","space","NA","j","762","NA","2807","39565","4628","NA","762","2","legacy","1024","2","48000","-16","task","5128672","even","NA","56778","61589","58781","98090","4052","48249","43620","98592","NA","98089","98592","98004","61589","99356","55134","97504","4045","NA","Lexical Decision Task","25","18542","25","yes","1024"
"2.708989954","9.28","9","bowl","word","100","100","746.0769230769231","746.0769230769231","black","no","legacy","legacy","legacy","0","uniform","1","undefined","undefined","undefined","1","j","0","0","0","0","25","0","0","0","25","NA","21","25","21","0","21","3","25","0","25","Thu Feb 18 14:42:14 2021","The main experiment item","yes","Lexical_Decision_Task.osexp","C:/Users/melbr/Desktop/CAL","no","Andale Mono","no","18","no","white","no","yes","576","legacy","21","21","3","C:/Users/melbr/Desktop/CAL/subject-5128672.csv","legacy","Lentiform Loewenfeld","3.3.7","yes","yes","600bd7cfb6416f0113b04181","602110864497cf011d9c0822","0","j","NA","j","space","space","NA","j","856","NA","2807","39565","4628","NA","856","2","legacy","1024","2","48000","-16","task","5128672","even","NA","56778","61589","58781","99987","4052","48249","43620","100489","NA","99984","100489","99877","61589","101346","55134","99376","4045","NA","Lexical Decision Task","26","19398","26","yes","1024"
"2.728085817","10.02","9","bike","word","100","100","749.4074074074074","749.4074074074074","black","no","legacy","legacy","legacy","0","uniform","1","undefined","undefined","undefined","1","j","0","0","0","0","26","0","0","0","26","NA","22","26","22","0","22","3","26","0","26","Thu Feb 18 14:42:14 2021","The main experiment item","yes","Lexical_Decision_Task.osexp","C:/Users/melbr/Desktop/CAL","no","Andale Mono","no","18","no","white","no","yes","576","legacy","22","22","3","C:/Users/melbr/Desktop/CAL/subject-5128672.csv","legacy","Lentiform Loewenfeld","3.3.7","yes","yes","600bd7cfb6416f0113b04181","602110864497cf011d9c0822","0","j","NA","j","space","space","NA","j","836","NA","2807","39565","4628","NA","836","2","legacy","1024","2","48000","-16","task","5128672","even","NA","56778","61589","58781","101967","4052","48249","43620","102470","NA","101965","102470","101867","61589","103307","55134","101367","4045","NA","Lexical Decision Task","27","20234","27","yes","1024"
"3.488597715","0","9","nain","non-word","100","100","746.4285714285714","746.4285714285714","black","no","legacy","legacy","legacy","0","uniform","1","undefined","undefined","undefined","1","f","0","0","0","0","27","0","0","0","27","NA","23","27","23","0","23","3","27","0","27","Thu Feb 18 14:42:14 2021","The main experiment item","yes","Lexical_Decision_Task.osexp","C:/Users/melbr/Desktop/CAL","no","Andale Mono","no","18","no","white","no","yes","576","legacy","23","23","3","C:/Users/melbr/Desktop/CAL/subject-5128672.csv","legacy","Lentiform Loewenfeld","3.3.7","yes","yes","600bd7cfb6416f0113b04181","602110864497cf011d9c0822","0","f","NA","j","space","space","NA","f","666","NA","2807","39565","4628","NA","666","2","legacy","1024","2","48000","-16","task","5128672","even","NA","56778","61589","58781","103894","4052","48249","43620","104397","NA","103892","104397","103813","61589","105063","55134","103313","4045","NA","Lexical Decision Task","28","20900","28","yes","1024"
"3.1430148","7.92","8","bald","word","100","100","742.3103448275862","742.3103448275862","black","no","legacy","legacy","legacy","0","uniform","1","undefined","undefined","undefined","1","j","0","0","0","0","28","0","0","0","28","NA","24","28","24","0","24","3","28","0","28","Thu Feb 18 14:42:14 2021","The main experiment item","yes","Lexical_Decision_Task.osexp","C:/Users/melbr/Desktop/CAL","no","Andale Mono","no","18","no","white","no","yes","576","legacy","24","24","3","C:/Users/melbr/Desktop/CAL/subject-5128672.csv","legacy","Lentiform Loewenfeld","3.3.7","yes","yes","600bd7cfb6416f0113b04181","602110864497cf011d9c0822","0","j","NA","j","space","space","NA","j","627","NA","2807","39565","4628","NA","627","2","legacy","1024","2","48000","-16","task","5128672","even","NA","56778","61589","58781","105703","4052","48249","43620","106206","NA","105700","106206","105570","61589","106834","55134","105070","4045","NA","Lexical Decision Task","29","21527","29","yes","1024"
"3.149629599","0","2","cleb","non-word","100","100","771.2333333333333","771.2333333333333","black","no","legacy","legacy","legacy","0","uniform","1","undefined","undefined","undefined","1","f","0","0","0","0","29","0","0","0","29","NA","25","29","25","0","25","3","29","0","29","Thu Feb 18 14:42:14 2021","The main experiment item","yes","Lexical_Decision_Task.osexp","C:/Users/melbr/Desktop/CAL","no","Andale Mono","no","18","no","white","no","yes","576","legacy","25","25","3","C:/Users/melbr/Desktop/CAL/subject-5128672.csv","legacy","Lentiform Loewenfeld","3.3.7","yes","yes","600bd7cfb6416f0113b04181","602110864497cf011d9c0822","0","f","NA","j","space","space","NA","f","1610","NA","2807","39565","4628","NA","1610","2","legacy","1024","2","48000","-16","task","5128672","even","NA","56778","61589","58781","107442","4052","48249","43620","107944","NA","107440","107944","107354","61589","109556","55134","106854","4045","NA","Lexical Decision Task","30","23137","30","yes","1024"
"2.937852093","0","7","bamp","non-word","100","100","778.1290322580645","778.1290322580645","black","no","legacy","legacy","legacy","0","uniform","1","undefined","undefined","undefined","1","f","0","0","0","0","30","0","0","0","30","NA","26","30","26","0","26","3","30","0","30","Thu Feb 18 14:42:14 2021","The main experiment item","yes","Lexical_Decision_Task.osexp","C:/Users/melbr/Desktop/CAL","no","Andale Mono","no","18","no","white","no","yes","576","legacy","26","26","3","C:/Users/melbr/Desktop/CAL/subject-5128672.csv","legacy","Lentiform Loewenfeld","3.3.7","yes","yes","600bd7cfb6416f0113b04181","602110864497cf011d9c0822","0","f","NA","j","space","space","NA","f","985","NA","2807","39565","4628","NA","985","2","legacy","1024","2","48000","-16","task","5128672","even","NA","56778","61589","58781","110186","4052","48249","43620","110688","NA","110185","110688","110076","61589","111674","55134","109576","4045","NA","Lexical Decision Task","31","24122","31","yes","1024"
"2.990042563","6.64","9","plow","word","100","100","776.34375","776.34375","black","no","legacy","legacy","legacy","0","uniform","1","undefined","undefined","undefined","1","j","0","0","0","0","31","0","0","0","31","NA","27","31","27","0","27","3","31","0","31","Thu Feb 18 14:42:14 2021","The main experiment item","yes","Lexical_Decision_Task.osexp","C:/Users/melbr/Desktop/CAL","no","Andale Mono","no","18","no","white","no","yes","576","legacy","27","27","3","C:/Users/melbr/Desktop/CAL/subject-5128672.csv","legacy","Lentiform Loewenfeld","3.3.7","yes","yes","600bd7cfb6416f0113b04181","602110864497cf011d9c0822","0","j","NA","j","space","space","NA","j","721","NA","2807","39565","4628","NA","721","2","legacy","1024","2","48000","-16","task","5128672","even","NA","56778","61589","58781","112306","4052","48249","43620","112807","NA","112304","112808","112194","61589","113530","55134","111694","4045","NA","Lexical Decision Task","32","24843","32","yes","1024"
"2.746890964","9.67","3","plug","word","100","100","775.9090909090909","775.9090909090909","black","no","legacy","legacy","legacy","0","uniform","1","undefined","undefined","undefined","1","j","0","0","0","0","32","0","0","0","32","NA","28","32","28","0","28","3","32","0","32","Thu Feb 18 14:42:14 2021","The main experiment item","yes","Lexical_Decision_Task.osexp","C:/Users/melbr/Desktop/CAL","no","Andale Mono","no","18","no","white","no","yes","576","legacy","28","28","3","C:/Users/melbr/Desktop/CAL/subject-5128672.csv","legacy","Lentiform Loewenfeld","3.3.7","yes","yes","600bd7cfb6416f0113b04181","602110864497cf011d9c0822","0","j","NA","j","space","space","NA","j","762","NA","2807","39565","4628","NA","762","2","legacy","1024","2","48000","-16","task","5128672","even","NA","56778","61589","58781","114166","4052","48249","43620","114669","NA","114163","114669","114050","61589","115432","55134","113550","4045","NA","Lexical Decision Task","33","25605","33","yes","1024"
"3.209246849","0","7","slem","non-word","100","100","787.6764705882352","787.6764705882352","black","no","legacy","legacy","legacy","0","uniform","1","undefined","undefined","undefined","1","f","0","0","0","0","33","0","0","0","33","NA","29","33","29","0","29","3","33","0","33","Thu Feb 18 14:42:14 2021","The main experiment item","yes","Lexical_Decision_Task.osexp","C:/Users/melbr/Desktop/CAL","no","Andale Mono","no","18","no","white","no","yes","576","legacy","29","29","3","C:/Users/melbr/Desktop/CAL/subject-5128672.csv","legacy","Lentiform Loewenfeld","3.3.7","yes","yes","600bd7cfb6416f0113b04181","602110864497cf011d9c0822","0","f","NA","j","space","space","NA","f","1176","NA","2807","39565","4628","NA","1176","2","legacy","1024","2","48000","-16","task","5128672","even","NA","56778","61589","58781","116215","4052","48249","43620","116718","NA","116214","116718","116105","61589","117895","55134","115605","4045","NA","Lexical Decision Task","34","26781","34","yes","1024"
"3.311895072","0","9","gung","non-word","100","100","784.2571428571429","784.2571428571429","black","no","legacy","legacy","legacy","0","uniform","1","undefined","undefined","undefined","1","f","0","0","0","0","34","0","0","0","34","NA","30","34","30","0","30","3","34","0","34","Thu Feb 18 14:42:14 2021","The main experiment item","yes","Lexical_Decision_Task.osexp","C:/Users/melbr/Desktop/CAL","no","Andale Mono","no","18","no","white","no","yes","576","legacy","30","30","3","C:/Users/melbr/Desktop/CAL/subject-5128672.csv","legacy","Lentiform Loewenfeld","3.3.7","yes","yes","600bd7cfb6416f0113b04181","602110864497cf011d9c0822","0","f","NA","j","space","space","NA","f","668","NA","2807","39565","4628","NA","668","2","legacy","1024","2","48000","-16","task","5128672","even","NA","56778","61589","58781","118488","4052","48249","43620","118990","NA","118486","118990","118402","61589","119658","55134","117902","4045","NA","Lexical Decision Task","35","27449","35","yes","1024"
"2.95456409","0","4","taud","non-word","100","100","777.6388888888889","777.6388888888889","black","no","legacy","legacy","legacy","0","uniform","1","undefined","undefined","undefined","1","f","0","0","0","0","35","0","0","0","35","NA","31","35","31","0","31","3","35","0","35","Thu Feb 18 14:42:14 2021","The main experiment item","yes","Lexical_Decision_Task.osexp","C:/Users/melbr/Desktop/CAL","no","Andale Mono","no","18","no","white","no","yes","576","legacy","31","31","3","C:/Users/melbr/Desktop/CAL/subject-5128672.csv","legacy","Lentiform Loewenfeld","3.3.7","yes","yes","600bd7cfb6416f0113b04181","602110864497cf011d9c0822","0","f","NA","j","space","space","NA","f","546","NA","2807","39565","4628","NA","546","2","legacy","1024","2","48000","-16","task","5128672","even","NA","56778","61589","58781","120230","4052","48249","43620","120733","NA","120229","120733","120164","61589","121280","55134","119664","4045","NA","Lexical Decision Task","36","27995","36","yes","1024"
"2.693726949","5.08","3","swig","word","97.29729729729729","97.29729729729729","773.4324324324324","773.4324324324324","black","no","legacy","legacy","legacy","0","uniform","0","undefined","undefined","undefined","0","j","0","0","0","0","36","0","0","0","36","NA","32","36","32","0","32","3","36","0","36","Thu Feb 18 14:42:14 2021","The main experiment item","yes","Lexical_Decision_Task.osexp","C:/Users/melbr/Desktop/CAL","no","Andale Mono","no","18","no","white","no","yes","576","legacy","32","32","3","C:/Users/melbr/Desktop/CAL/subject-5128672.csv","legacy","Lentiform Loewenfeld","3.3.7","yes","yes","600bd7cfb6416f0113b04181","602110864497cf011d9c0822","0","f","NA","j","space","space","NA","f","622","NA","2807","39565","4628","NA","622","2","legacy","1024","2","48000","-16","task","5128672","even","NA","56778","61589","58781","121891","4052","48249","43620","122394","NA","121889","122394","121787","61589","123017","55134","121287","4045","NA","Lexical Decision Task","36","28617","37","yes","1024"
"3.302475237","0","7","leel","non-word","97.36842105263158","97.36842105263158","771.5526315789474","771.5526315789474","black","no","legacy","legacy","legacy","0","uniform","1","undefined","undefined","undefined","1","f","0","0","0","0","37","0","0","0","37","NA","33","37","33","0","33","3","37","0","37","Thu Feb 18 14:42:14 2021","The main experiment item","yes","Lexical_Decision_Task.osexp","C:/Users/melbr/Desktop/CAL","no","Andale Mono","no","18","no","white","no","yes","576","legacy","33","33","3","C:/Users/melbr/Desktop/CAL/subject-5128672.csv","legacy","Lentiform Loewenfeld","3.3.7","yes","yes","600bd7cfb6416f0113b04181","602110864497cf011d9c0822","0","f","NA","j","space","space","NA","f","702","NA","2807","39565","4628","NA","702","2","legacy","1024","2","48000","-16","task","5128672","even","NA","56778","61589","58781","124671","4052","48249","43620","125174","NA","124668","125174","124538","61589","125877","55134","121287","4045","123038","Lexical Decision Task","37","29319","38","yes","1024"
"2.794720352","0","9","koot","non-word","97.43589743589743","97.43589743589743","767.2051282051282","767.2051282051282","black","no","legacy","legacy","legacy","0","uniform","1","undefined","undefined","undefined","1","f","0","0","0","0","38","0","0","0","38","NA","34","38","34","0","34","3","38","0","38","Thu Feb 18 14:42:14 2021","The main experiment item","yes","Lexical_Decision_Task.osexp","C:/Users/melbr/Desktop/CAL","no","Andale Mono","no","18","no","white","no","yes","576","legacy","34","34","3","C:/Users/melbr/Desktop/CAL/subject-5128672.csv","legacy","Lentiform Loewenfeld","3.3.7","yes","yes","600bd7cfb6416f0113b04181","602110864497cf011d9c0822","0","f","NA","j","space","space","NA","f","602","NA","2807","39565","4628","NA","602","2","legacy","1024","2","48000","-16","task","5128672","even","NA","56778","61589","58781","126476","4052","48249","43620","126979","NA","126475","126979","126384","61589","127581","55134","125883","4045","123038","Lexical Decision Task","38","29921","39","yes","1024"
"3.049218023","7.4","9","robe","word","97.5","97.5","776.675","776.675","black","no","legacy","legacy","legacy","0","uniform","1","undefined","undefined","undefined","1","j","0","0","0","0","39","0","0","0","39","NA","35","39","35","0","35","3","39","0","39","Thu Feb 18 14:42:14 2021","The main experiment item","yes","Lexical_Decision_Task.osexp","C:/Users/melbr/Desktop/CAL","no","Andale Mono","no","18","no","white","no","yes","576","legacy","35","35","3","C:/Users/melbr/Desktop/CAL/subject-5128672.csv","legacy","Lentiform Loewenfeld","3.3.7","yes","yes","600bd7cfb6416f0113b04181","602110864497cf011d9c0822","0","j","NA","j","space","space","NA","j","1146","NA","2807","39565","4628","NA","1146","2","legacy","1024","2","48000","-16","task","5128672","even","NA","56778","61589","58781","128204","4052","48249","43620","128707","NA","128202","128707","128103","61589","129854","55134","127602","4045","123038","Lexical Decision Task","39","31067","40","yes","1024"
"3.195807436","0","6","stup","non-word","97.5609756097561","97.5609756097561","778.1219512195122","778.1219512195122","black","no","legacy","legacy","legacy","0","uniform","1","undefined","undefined","undefined","1","f","0","0","0","0","40","0","0","0","40","NA","36","40","36","0","36","3","40","0","40","Thu Feb 18 14:42:14 2021","The main experiment item","yes","Lexical_Decision_Task.osexp","C:/Users/melbr/Desktop/CAL","no","Andale Mono","no","18","no","white","no","yes","576","legacy","36","36","3","C:/Users/melbr/Desktop/CAL/subject-5128672.csv","legacy","Lentiform Loewenfeld","3.3.7","yes","yes","600bd7cfb6416f0113b04181","602110864497cf011d9c0822","0","f","NA","j","space","space","NA","f","836","NA","2807","39565","4628","NA","836","2","legacy","1024","2","48000","-16","task","5128672","even","NA","56778","61589","58781","130465","4052","48249","43620","130966","NA","130464","130966","130360","61589","131803","55134","129860","4045","123038","Lexical Decision Task","40","31903","41","yes","1024"
"2.803231716","5.26","3","kiln","word","95.23809523809524","95.23809523809524","776.4285714285714","776.4285714285714","black","no","legacy","legacy","legacy","0","uniform","0","undefined","undefined","undefined","0","j","0","0","0","0","41","0","0","0","41","NA","37","41","37","0","37","3","41","0","41","Thu Feb 18 14:42:14 2021","The main experiment item","yes","Lexical_Decision_Task.osexp","C:/Users/melbr/Desktop/CAL","no","Andale Mono","no","18","no","white","no","yes","576","legacy","37","37","3","C:/Users/melbr/Desktop/CAL/subject-5128672.csv","legacy","Lentiform Loewenfeld","3.3.7","yes","yes","600bd7cfb6416f0113b04181","602110864497cf011d9c0822","0","f","NA","j","space","space","NA","f","707","NA","2807","39565","4628","NA","707","2","legacy","1024","2","48000","-16","task","5128672","even","NA","56778","61589","58781","132397","4052","48249","43620","132898","NA","132396","132898","132310","61589","133606","55134","131809","4045","123038","Lexical Decision Task","40","32610","42","yes","1024"
"2.713490543","0","3","feps","non-word","95.34883720930233","95.34883720930233","775.6511627906976","775.6511627906976","black","no","legacy","legacy","legacy","0","uniform","1","undefined","undefined","undefined","1","f","0","0","0","0","42","0","0","0","42","NA","38","42","38","0","38","3","42","0","42","Thu Feb 18 14:42:14 2021","The main experiment item","yes","Lexical_Decision_Task.osexp","C:/Users/melbr/Desktop/CAL","no","Andale Mono","no","18","no","white","no","yes","576","legacy","38","38","3","C:/Users/melbr/Desktop/CAL/subject-5128672.csv","legacy","Lentiform Loewenfeld","3.3.7","yes","yes","600bd7cfb6416f0113b04181","602110864497cf011d9c0822","0","f","NA","j","space","space","NA","f","743","NA","2807","39565","4628","NA","743","2","legacy","1024","2","48000","-16","task","5128672","even","NA","56778","61589","58781","135232","4052","48249","43620","135734","NA","135230","135734","135112","61589","136478","55134","131809","4045","133612","Lexical Decision Task","41","33353","43","yes","1024"
"3.031812271","6.52","3","gulp","word","95.45454545454545","95.45454545454545","772.1363636363636","772.1363636363636","black","no","legacy","legacy","legacy","0","uniform","1","undefined","undefined","undefined","1","j","0","0","0","0","43","0","0","0","43","NA","39","43","39","0","39","3","43","0","43","Thu Feb 18 14:42:14 2021","The main experiment item","yes","Lexical_Decision_Task.osexp","C:/Users/melbr/Desktop/CAL","no","Andale Mono","no","18","no","white","no","yes","576","legacy","39","39","3","C:/Users/melbr/Desktop/CAL/subject-5128672.csv","legacy","Lentiform Loewenfeld","3.3.7","yes","yes","600bd7cfb6416f0113b04181","602110864497cf011d9c0822","0","j","NA","j","space","space","NA","j","621","NA","2807","39565","4628","NA","621","2","legacy","1024","2","48000","-16","task","5128672","even","NA","56778","61589","58781","137095","4052","48249","43620","137599","NA","137094","137599","136986","61589","138221","55134","136485","4045","133612","Lexical Decision Task","42","33974","44","yes","1024"
"3.037294994","8.64","7","roof","word","95.55555555555556","95.55555555555556","767.9555555555555","767.9555555555555","black","no","legacy","legacy","legacy","0","uniform","1","undefined","undefined","undefined","1","j","0","0","0","0","44","0","0","0","44","NA","40","44","40","0","40","3","44","0","44","Thu Feb 18 14:42:14 2021","The main experiment item","yes","Lexical_Decision_Task.osexp","C:/Users/melbr/Desktop/CAL","no","Andale Mono","no","18","no","white","no","yes","576","legacy","40","40","3","C:/Users/melbr/Desktop/CAL/subject-5128672.csv","legacy","Lentiform Loewenfeld","3.3.7","yes","yes","600bd7cfb6416f0113b04181","602110864497cf011d9c0822","0","j","NA","j","space","space","NA","j","584","NA","2807","39565","4628","NA","584","2","legacy","1024","2","48000","-16","task","5128672","even","NA","56778","61589","58781","138802","4052","48249","43620","139305","NA","138800","139305","138744","61589","139889","55134","138243","4045","133612","Lexical Decision Task","43","34558","45","yes","1024"
"3.153001286","8.7","5","palm","word","95.65217391304348","95.65217391304348","765.3260869565217","765.3260869565217","black","no","legacy","legacy","legacy","0","uniform","1","undefined","undefined","undefined","1","j","0","0","0","0","45","0","0","0","45","NA","41","45","41","0","41","3","45","0","45","Thu Feb 18 14:42:14 2021","The main experiment item","yes","Lexical_Decision_Task.osexp","C:/Users/melbr/Desktop/CAL","no","Andale Mono","no","18","no","white","no","yes","576","legacy","41","41","3","C:/Users/melbr/Desktop/CAL/subject-5128672.csv","legacy","Lentiform Loewenfeld","3.3.7","yes","yes","600bd7cfb6416f0113b04181","602110864497cf011d9c0822","0","j","NA","j","space","space","NA","j","647","NA","2807","39565","4628","NA","647","2","legacy","1024","2","48000","-16","task","5128672","even","NA","56778","61589","58781","140517","4052","48249","43620","141020","NA","140515","141020","140396","61589","141668","55134","139896","4045","133612","Lexical Decision Task","44","35205","46","yes","1024"
"2.839898939","8.99","6","soap","word","95.74468085106383","95.74468085106383","759.9574468085107","759.9574468085107","black","no","legacy","legacy","legacy","0","uniform","1","undefined","undefined","undefined","1","j","0","0","0","0","46","0","0","0","46","NA","42","46","42","0","42","3","46","0","46","Thu Feb 18 14:42:14 2021","The main experiment item","yes","Lexical_Decision_Task.osexp","C:/Users/melbr/Desktop/CAL","no","Andale Mono","no","18","no","white","no","yes","576","legacy","42","42","3","C:/Users/melbr/Desktop/CAL/subject-5128672.csv","legacy","Lentiform Loewenfeld","3.3.7","yes","yes","600bd7cfb6416f0113b04181","602110864497cf011d9c0822","0","j","NA","j","space","space","NA","j","513","NA","2807","39565","4628","NA","513","2","legacy","1024","2","48000","-16","task","5128672","even","NA","56778","61589","58781","142289","4052","48249","43620","142792","NA","142288","142792","142174","61589","143306","55134","141674","4045","133612","Lexical Decision Task","45","35718","47","yes","1024"
"2.873320602","0","4","lurg","non-word","95.83333333333333","95.83333333333333","755.4583333333334","755.4583333333334","black","no","legacy","legacy","legacy","0","uniform","1","undefined","undefined","undefined","1","f","0","0","0","0","47","0","0","0","47","NA","43","47","43","0","43","3","47","0","47","Thu Feb 18 14:42:14 2021","The main experiment item","yes","Lexical_Decision_Task.osexp","C:/Users/melbr/Desktop/CAL","no","Andale Mono","no","18","no","white","no","yes","576","legacy","43","43","3","C:/Users/melbr/Desktop/CAL/subject-5128672.csv","legacy","Lentiform Loewenfeld","3.3.7","yes","yes","600bd7cfb6416f0113b04181","602110864497cf011d9c0822","0","f","NA","j","space","space","NA","f","544","NA","2807","39565","4628","NA","544","2","legacy","1024","2","48000","-16","task","5128672","even","NA","56778","61589","58781","143955","4052","48249","43620","144458","NA","143953","144458","143826","61589","145003","55134","143326","4045","133612","Lexical Decision Task","46","36262","48","yes","1024"
"3.316948329","0","1","besc","non-word","95.91836734693878","95.91836734693878","753.530612244898","753.530612244898","black","no","legacy","legacy","legacy","0","uniform","1","undefined","undefined","undefined","1","f","0","0","0","0","48","0","0","0","48","NA","44","48","44","0","44","3","48","0","48","Thu Feb 18 14:42:14 2021","The main experiment item","yes","Lexical_Decision_Task.osexp","C:/Users/melbr/Desktop/CAL","no","Andale Mono","no","18","no","white","no","yes","576","legacy","44","44","3","C:/Users/melbr/Desktop/CAL/subject-5128672.csv","legacy","Lentiform Loewenfeld","3.3.7","yes","yes","600bd7cfb6416f0113b04181","602110864497cf011d9c0822","0","f","NA","j","space","space","NA","f","661","NA","2807","39565","4628","NA","661","2","legacy","1024","2","48000","-16","task","5128672","even","NA","56778","61589","58781","145630","4052","48249","43620","146132","NA","145627","146132","145510","61589","146794","55134","145010","4045","133612","Lexical Decision Task","47","36923","49","yes","1024"
"2.793790385","5.67","9","swab","word","96","96","752.12","752.12","black","no","legacy","legacy","legacy","0","uniform","1","undefined","undefined","undefined","1","j","0","0","0","0","49","0","0","0","49","NA","45","49","45","0","45","3","49","0","49","Thu Feb 18 14:42:14 2021","The main experiment item","yes","Lexical_Decision_Task.osexp","C:/Users/melbr/Desktop/CAL","no","Andale Mono","no","18","no","white","no","yes","576","legacy","45","45","3","C:/Users/melbr/Desktop/CAL/subject-5128672.csv","legacy","Lentiform Loewenfeld","3.3.7","yes","yes","600bd7cfb6416f0113b04181","602110864497cf011d9c0822","0","j","NA","j","space","space","NA","j","683","NA","2807","39565","4628","NA","683","2","legacy","1024","2","48000","-16","task","5128672","even","NA","56778","61589","58781","147423","4052","48249","43620","147925","NA","147420","147926","147300","61589","148610","55134","146800","4045","133612","Lexical Decision Task","48","37606","50","yes","1024"
"2.986323777","10.85","8","ship","word","96.07843137254902","96.07843137254902","750.4509803921569","750.4509803921569","black","no","legacy","legacy","legacy","0","uniform","1","undefined","undefined","undefined","1","j","0","0","0","0","50","0","0","0","50","NA","46","50","46","0","46","3","50","0","50","Thu Feb 18 14:42:14 2021","The main experiment item","yes","Lexical_Decision_Task.osexp","C:/Users/melbr/Desktop/CAL","no","Andale Mono","no","18","no","white","no","yes","576","legacy","46","46","3","C:/Users/melbr/Desktop/CAL/subject-5128672.csv","legacy","Lentiform Loewenfeld","3.3.7","yes","yes","600bd7cfb6416f0113b04181","602110864497cf011d9c0822","0","j","NA","j","space","space","NA","j","667","NA","2807","39565","4628","NA","667","2","legacy","1024","2","48000","-16","task","5128672","even","NA","56778","61589","58781","149212","4052","48249","43620","149713","NA","149211","149713","149116","61589","150380","55134","148616","4045","133612","Lexical Decision Task","49","38273","51","yes","1024"
"2.616654026","9.37","5","gift","word","96.15384615384616","96.15384615384616","748.9615384615385","748.9615384615385","black","no","legacy","legacy","legacy","0","uniform","1","undefined","undefined","undefined","1","j","0","0","0","0","51","0","0","0","51","NA","47","51","47","0","47","3","51","0","51","Thu Feb 18 14:42:14 2021","The main experiment item","yes","Lexical_Decision_Task.osexp","C:/Users/melbr/Desktop/CAL","no","Andale Mono","no","18","no","white","no","yes","576","legacy","47","47","3","C:/Users/melbr/Desktop/CAL/subject-5128672.csv","legacy","Lentiform Loewenfeld","3.3.7","yes","yes","600bd7cfb6416f0113b04181","602110864497cf011d9c0822","0","j","NA","j","space","space","NA","j","673","NA","2807","39565","4628","NA","673","2","legacy","1024","2","48000","-16","task","5128672","even","NA","56778","61589","58781","150984","4052","48249","43620","151486","NA","150982","151486","150883","61589","152160","55134","150383","4045","133612","Lexical Decision Task","50","38946","52","yes","1024"
"3.133964479","0","8","graw","non-word","96.22641509433963","96.22641509433963","751.377358490566","751.377358490566","black","no","legacy","legacy","legacy","0","uniform","1","undefined","undefined","undefined","1","f","0","0","0","0","52","0","0","0","52","NA","48","52","48","0","48","3","52","0","52","Thu Feb 18 14:42:14 2021","The main experiment item","yes","Lexical_Decision_Task.osexp","C:/Users/melbr/Desktop/CAL","no","Andale Mono","no","18","no","white","no","yes","576","legacy","48","48","3","C:/Users/melbr/Desktop/CAL/subject-5128672.csv","legacy","Lentiform Loewenfeld","3.3.7","yes","yes","600bd7cfb6416f0113b04181","602110864497cf011d9c0822","0","f","NA","j","space","space","NA","f","877","NA","2807","39565","4628","NA","877","2","legacy","1024","2","48000","-16","task","5128672","even","NA","56778","61589","58781","152789","4052","48249","43620","153292","NA","152788","153292","152667","61589","154169","55134","152167","4045","133612","Lexical Decision Task","51","39823","53","yes","1024"
"3.091901331","0","9","nipe","non-word","96.29629629629629","96.29629629629629","751.5","751.5","black","no","legacy","legacy","legacy","0","uniform","1","undefined","undefined","undefined","1","f","0","0","0","0","53","0","0","0","53","NA","49","53","49","0","49","3","53","0","53","Thu Feb 18 14:42:14 2021","The main experiment item","yes","Lexical_Decision_Task.osexp","C:/Users/melbr/Desktop/CAL","no","Andale Mono","no","18","no","white","no","yes","576","legacy","49","49","3","C:/Users/melbr/Desktop/CAL/subject-5128672.csv","legacy","Lentiform Loewenfeld","3.3.7","yes","yes","600bd7cfb6416f0113b04181","602110864497cf011d9c0822","0","f","NA","j","space","space","NA","f","758","NA","2807","39565","4628","NA","758","2","legacy","1024","2","48000","-16","task","5128672","even","NA","56778","61589","58781","154749","4052","48249","43620","155251","NA","154748","155251","154676","61589","156010","55134","154176","4045","133612","Lexical Decision Task","52","40581","54","yes","1024"
"2.880623071","0","9","curp","non-word","96.36363636363636","96.36363636363636","753.6363636363636","753.6363636363636","black","no","legacy","legacy","legacy","0","uniform","1","undefined","undefined","undefined","1","f","0","0","0","0","54","0","0","0","54","0","50","54","50","0","50","3","54","0","54","Thu Feb 18 14:42:14 2021","The main experiment item","yes","Lexical_Decision_Task.osexp","C:/Users/melbr/Desktop/CAL","no","Andale Mono","no","18","no","white","no","yes","576","legacy","50","50","3","C:/Users/melbr/Desktop/CAL/subject-5128672.csv","legacy","Lentiform Loewenfeld","3.3.7","yes","yes","600bd7cfb6416f0113b04181","602110864497cf011d9c0822","0","f","NA","j","space","space","space","f","869","NA","2807","39565","4628","4422","869","2","legacy","1024","2","48000","-16","task","5128672","even","NA","56778","61589","58781","161074","4052","48249","43620","161577","156592","161072","161577","156512","61589","162447","55134","156012","4045","133612","Lexical Decision Task","53","41450","55","yes","1024"
"2.814027728","8.2","4","foam","word","96.42857142857143","96.42857142857143","751.7321428571429","751.7321428571429","black","no","legacy","legacy","legacy","0","uniform","1","undefined","undefined","undefined","1","j","0","0","0","0","55","0","0","0","55","0","51","55","51","0","51","3","55","0","55","Thu Feb 18 14:42:14 2021","The main experiment item","yes","Lexical_Decision_Task.osexp","C:/Users/melbr/Desktop/CAL","no","Andale Mono","no","18","no","white","no","yes","576","legacy","51","51","3","C:/Users/melbr/Desktop/CAL/subject-5128672.csv","legacy","Lentiform Loewenfeld","3.3.7","yes","yes","600bd7cfb6416f0113b04181","602110864497cf011d9c0822","0","j","NA","j","space","space","space","j","647","NA","2807","39565","4628","4422","647","2","legacy","1024","2","48000","-16","task","5128672","even","NA","56778","61589","58781","163063","4052","48249","43620","163565","156592","163061","163565","162968","61589","164213","55134","162468","4045","133612","Lexical Decision Task","54","42097","56","yes","1024"
"3.197740804","6.74","3","ache","word","96.49122807017544","96.49122807017544","759.6315789473684","759.6315789473684","black","no","legacy","legacy","legacy","0","uniform","1","undefined","undefined","undefined","1","j","0","0","0","0","56","0","0","0","56","0","52","56","52","0","52","3","56","0","56","Thu Feb 18 14:42:14 2021","The main experiment item","yes","Lexical_Decision_Task.osexp","C:/Users/melbr/Desktop/CAL","no","Andale Mono","no","18","no","white","no","yes","576","legacy","52","52","3","C:/Users/melbr/Desktop/CAL/subject-5128672.csv","legacy","Lentiform Loewenfeld","3.3.7","yes","yes","600bd7cfb6416f0113b04181","602110864497cf011d9c0822","0","j","NA","j","space","space","space","j","1202","NA","2807","39565","4628","4422","1202","2","legacy","1024","2","48000","-16","task","5128672","even","NA","56778","61589","58781","164800","4052","48249","43620","165303","156592","164798","165303","164720","61589","166506","55134","164219","4045","133612","Lexical Decision Task","55","43299","57","yes","1024"
"2.839268497","0","8","maft","non-word","96.55172413793103","96.55172413793103","756.5862068965517","756.5862068965517","black","no","legacy","legacy","legacy","0","uniform","1","undefined","undefined","undefined","1","f","0","0","0","0","57","0","0","0","57","0","53","57","53","0","53","3","57","0","57","Thu Feb 18 14:42:14 2021","The main experiment item","yes","Lexical_Decision_Task.osexp","C:/Users/melbr/Desktop/CAL","no","Andale Mono","no","18","no","white","no","yes","576","legacy","53","53","3","C:/Users/melbr/Desktop/CAL/subject-5128672.csv","legacy","Lentiform Loewenfeld","3.3.7","yes","yes","600bd7cfb6416f0113b04181","602110864497cf011d9c0822","0","f","NA","j","space","space","space","f","583","NA","2807","39565","4628","4422","583","2","legacy","1024","2","48000","-16","task","5128672","even","NA","56778","61589","58781","167091","4052","48249","43620","167593","156592","167090","167593","167013","61589","168177","55134","166513","4045","133612","Lexical Decision Task","56","43882","58","yes","1024"
"2.80048796","0","8","pife","non-word","96.61016949152543","96.61016949152543","755.9661016949152","755.9661016949152","black","no","legacy","legacy","legacy","0","uniform","1","undefined","undefined","undefined","1","f","0","0","0","0","58","0","0","0","58","0","54","58","54","0","54","3","58","0","58","Thu Feb 18 14:42:14 2021","The main experiment item","yes","Lexical_Decision_Task.osexp","C:/Users/melbr/Desktop/CAL","no","Andale Mono","no","18","no","white","no","yes","576","legacy","54","54","3","C:/Users/melbr/Desktop/CAL/subject-5128672.csv","legacy","Lentiform Loewenfeld","3.3.7","yes","yes","600bd7cfb6416f0113b04181","602110864497cf011d9c0822","0","f","NA","j","space","space","space","f","720","NA","2807","39565","4628","4422","720","2","legacy","1024","2","48000","-16","task","5128672","even","NA","56778","61589","58781","168759","4052","48249","43620","169262","156592","168757","169263","168698","61589","169984","55134","168198","4045","133612","Lexical Decision Task","57","44602","59","yes","1024"
"3.208978517","10.33","4","fish","word","96.66666666666667","96.66666666666667","753.7166666666667","753.7166666666667","black","no","legacy","legacy","legacy","0","uniform","1","undefined","undefined","undefined","1","j","0","0","0","0","59","0","0","0","59","0","55","59","55","0","55","3","59","0","59","Thu Feb 18 14:42:14 2021","The main experiment item","yes","Lexical_Decision_Task.osexp","C:/Users/melbr/Desktop/CAL","no","Andale Mono","no","18","no","white","no","yes","576","legacy","55","55","3","C:/Users/melbr/Desktop/CAL/subject-5128672.csv","legacy","Lentiform Loewenfeld","3.3.7","yes","yes","600bd7cfb6416f0113b04181","602110864497cf011d9c0822","0","j","NA","j","space","space","space","j","621","NA","2807","39565","4628","4422","621","2","legacy","1024","2","48000","-16","task","5128672","even","NA","56778","61589","58781","170576","4052","48249","43620","171078","156592","170574","171078","170491","61589","171700","55134","169991","4045","133612","Lexical Decision Task","58","45223","60","yes","1024"
"3.090140555","5.81","8","pout","word","96.72131147540983","96.72131147540983","752.9672131147541","752.9672131147541","black","no","legacy","legacy","legacy","0","uniform","1","undefined","undefined","undefined","1","j","0","0","0","0","60","0","0","0","60","0","56","60","56","0","56","3","60","0","60","Thu Feb 18 14:42:14 2021","The main experiment item","yes","Lexical_Decision_Task.osexp","C:/Users/melbr/Desktop/CAL","no","Andale Mono","no","18","no","white","no","yes","576","legacy","56","56","3","C:/Users/melbr/Desktop/CAL/subject-5128672.csv","legacy","Lentiform Loewenfeld","3.3.7","yes","yes","600bd7cfb6416f0113b04181","602110864497cf011d9c0822","0","j","NA","j","space","space","space","j","708","NA","2807","39565","4628","4422","708","2","legacy","1024","2","48000","-16","task","5128672","even","NA","56778","61589","58781","172330","4052","48249","43620","172833","156592","172328","172833","172206","61589","173542","55134","171706","4045","133612","Lexical Decision Task","59","45931","61","yes","1024"
"3.353210739","0","9","reet","non-word","96.7741935483871","96.7741935483871","750.1451612903226","750.1451612903226","black","no","legacy","legacy","legacy","0","uniform","1","undefined","undefined","undefined","1","f","0","0","0","0","61","0","0","0","61","0","57","61","57","0","57","3","61","0","61","Thu Feb 18 14:42:14 2021","The main experiment item","yes","Lexical_Decision_Task.osexp","C:/Users/melbr/Desktop/CAL","no","Andale Mono","no","18","no","white","no","yes","576","legacy","57","57","3","C:/Users/melbr/Desktop/CAL/subject-5128672.csv","legacy","Lentiform Loewenfeld","3.3.7","yes","yes","600bd7cfb6416f0113b04181","602110864497cf011d9c0822","0","f","NA","j","space","space","space","f","578","NA","2807","39565","4628","4422","578","2","legacy","1024","2","48000","-16","task","5128672","even","NA","56778","61589","58781","174124","4052","48249","43620","174628","156592","174123","174628","174063","61589","175208","55134","173563","4045","133612","Lexical Decision Task","60","46509","62","yes","1024"
"2.819763221","0","2","durp","non-word","96.82539682539682","96.82539682539682","759.9206349206349","759.9206349206349","black","no","legacy","legacy","legacy","0","uniform","1","undefined","undefined","undefined","1","f","0","0","0","0","62","0","0","0","62","0","58","62","58","0","58","3","62","0","62","Thu Feb 18 14:42:14 2021","The main experiment item","yes","Lexical_Decision_Task.osexp","C:/Users/melbr/Desktop/CAL","no","Andale Mono","no","18","no","white","no","yes","576","legacy","58","58","3","C:/Users/melbr/Desktop/CAL/subject-5128672.csv","legacy","Lentiform Loewenfeld","3.3.7","yes","yes","600bd7cfb6416f0113b04181","602110864497cf011d9c0822","0","f","NA","j","space","space","space","f","1366","NA","2807","39565","4628","4422","1366","2","legacy","1024","2","48000","-16","task","5128672","even","NA","56778","61589","58781","175859","4052","48249","43620","176361","156592","175857","176361","175764","61589","177728","55134","175264","4045","133612","Lexical Decision Task","61","47875","63","yes","1024"
"2.952953801","0","8","clax","non-word","96.875","96.875","756.640625","756.640625","black","no","legacy","legacy","legacy","0","uniform","1","undefined","undefined","undefined","1","f","0","0","0","0","63","0","0","0","63","0","59","63","59","0","59","3","63","0","63","Thu Feb 18 14:42:14 2021","The main experiment item","yes","Lexical_Decision_Task.osexp","C:/Users/melbr/Desktop/CAL","no","Andale Mono","no","18","no","white","no","yes","576","legacy","59","59","3","C:/Users/melbr/Desktop/CAL/subject-5128672.csv","legacy","Lentiform Loewenfeld","3.3.7","yes","yes","600bd7cfb6416f0113b04181","602110864497cf011d9c0822","0","f","NA","j","space","space","space","f","550","NA","2807","39565","4628","4422","550","2","legacy","1024","2","48000","-16","task","5128672","even","NA","56778","61589","58781","178349","4052","48249","43620","178851","156592","178348","178851","178231","61589","179402","55134","177731","4045","133612","Lexical Decision Task","62","48425","64","yes","1024"
"2.813801082","5.47","7","nook","word","95.38461538461539","95.38461538461539","757.0923076923077","757.0923076923077","black","no","legacy","legacy","legacy","0","uniform","0","undefined","undefined","undefined","0","j","0","0","0","0","64","0","0","0","64","0","60","64","60","0","60","3","64","0","64","Thu Feb 18 14:42:14 2021","The main experiment item","yes","Lexical_Decision_Task.osexp","C:/Users/melbr/Desktop/CAL","no","Andale Mono","no","18","no","white","no","yes","576","legacy","60","60","3","C:/Users/melbr/Desktop/CAL/subject-5128672.csv","legacy","Lentiform Loewenfeld","3.3.7","yes","yes","600bd7cfb6416f0113b04181","602110864497cf011d9c0822","0","f","NA","j","space","space","space","f","786","NA","2807","39565","4628","4422","786","2","legacy","1024","2","48000","-16","task","5128672","even","NA","56778","61589","58781","180023","4052","48249","43620","180525","156592","180021","180526","179908","61589","181313","55134","179408","4045","133612","Lexical Decision Task","62","49211","65","yes","1024"
"3.121778632","0","9","sark","non-word","95.45454545454545","95.45454545454545","757.8484848484849","757.8484848484849","black","no","legacy","legacy","legacy","0","uniform","1","undefined","undefined","undefined","1","f","0","0","0","0","65","0","0","0","65","0","61","65","61","0","61","3","65","0","65","Thu Feb 18 14:42:14 2021","The main experiment item","yes","Lexical_Decision_Task.osexp","C:/Users/melbr/Desktop/CAL","no","Andale Mono","no","18","no","white","no","yes","576","legacy","61","61","3","C:/Users/melbr/Desktop/CAL/subject-5128672.csv","legacy","Lentiform Loewenfeld","3.3.7","yes","yes","600bd7cfb6416f0113b04181","602110864497cf011d9c0822","0","f","NA","j","space","space","space","f","807","NA","2807","39565","4628","4422","807","2","legacy","1024","2","48000","-16","task","5128672","even","NA","56778","61589","58781","182934","4052","48249","43620","183436","156592","182933","183437","182816","61589","184245","55134","179408","4045","181316","Lexical Decision Task","63","50018","66","yes","1024"
"3.378276681","6.39","8","bran","word","95.5223880597015","95.5223880597015","757.4328358208955","757.4328358208955","black","no","legacy","legacy","legacy","0","uniform","1","undefined","undefined","undefined","1","j","0","0","0","0","66","0","0","0","66","0","62","66","62","0","62","3","66","0","66","Thu Feb 18 14:42:14 2021","The main experiment item","yes","Lexical_Decision_Task.osexp","C:/Users/melbr/Desktop/CAL","no","Andale Mono","no","18","no","white","no","yes","576","legacy","62","62","3","C:/Users/melbr/Desktop/CAL/subject-5128672.csv","legacy","Lentiform Loewenfeld","3.3.7","yes","yes","600bd7cfb6416f0113b04181","602110864497cf011d9c0822","0","j","NA","j","space","space","space","j","730","NA","2807","39565","4628","4422","730","2","legacy","1024","2","48000","-16","task","5128672","even","NA","56778","61589","58781","184861","4052","48249","43620","185363","156592","184859","185364","184752","61589","186095","55134","184252","4045","181316","Lexical Decision Task","64","50748","67","yes","1024"
"3.100255637","0","6","brax","non-word","95.58823529411765","95.58823529411765","755.4117647058823","755.4117647058823","black","no","legacy","legacy","legacy","0","uniform","1","undefined","undefined","undefined","1","f","0","0","0","0","67","0","0","0","67","0","63","67","63","0","63","3","67","0","67","Thu Feb 18 14:42:14 2021","The main experiment item","yes","Lexical_Decision_Task.osexp","C:/Users/melbr/Desktop/CAL","no","Andale Mono","no","18","no","white","no","yes","576","legacy","63","63","3","C:/Users/melbr/Desktop/CAL/subject-5128672.csv","legacy","Lentiform Loewenfeld","3.3.7","yes","yes","600bd7cfb6416f0113b04181","602110864497cf011d9c0822","0","f","NA","j","space","space","space","f","620","NA","2807","39565","4628","4422","620","2","legacy","1024","2","48000","-16","task","5128672","even","NA","56778","61589","58781","186718","4052","48249","43620","187221","156592","186715","187221","186617","61589","187842","55134","186116","4045","181316","Lexical Decision Task","65","51368","68","yes","1024"
"2.714888338","0","3","brug","non-word","95.65217391304348","95.65217391304348","754.1449275362319","754.1449275362319","black","no","legacy","legacy","legacy","0","uniform","1","undefined","undefined","undefined","1","f","0","0","0","0","68","0","0","0","68","0","64","68","64","0","64","3","68","0","68","Thu Feb 18 14:42:14 2021","The main experiment item","yes","Lexical_Decision_Task.osexp","C:/Users/melbr/Desktop/CAL","no","Andale Mono","no","18","no","white","no","yes","576","legacy","64","64","3","C:/Users/melbr/Desktop/CAL/subject-5128672.csv","legacy","Lentiform Loewenfeld","3.3.7","yes","yes","600bd7cfb6416f0113b04181","602110864497cf011d9c0822","0","f","NA","j","space","space","space","f","668","NA","2807","39565","4628","4422","668","2","legacy","1024","2","48000","-16","task","5128672","even","NA","56778","61589","58781","188482","4052","48249","43620","188985","156592","188481","188985","188349","61589","189654","55134","187849","4045","181316","Lexical Decision Task","66","52036","69","yes","1024"
"3.263399331","0","8","cour","non-word","95.71428571428571","95.71428571428571","751.3857142857142","751.3857142857142","black","no","legacy","legacy","legacy","0","uniform","1","undefined","undefined","undefined","1","f","0","0","0","0","69","0","0","0","69","0","65","69","65","0","65","3","69","0","69","Thu Feb 18 14:42:14 2021","The main experiment item","yes","Lexical_Decision_Task.osexp","C:/Users/melbr/Desktop/CAL","no","Andale Mono","no","18","no","white","no","yes","576","legacy","65","65","3","C:/Users/melbr/Desktop/CAL/subject-5128672.csv","legacy","Lentiform Loewenfeld","3.3.7","yes","yes","600bd7cfb6416f0113b04181","602110864497cf011d9c0822","0","f","NA","j","space","space","space","f","561","NA","2807","39565","4628","4422","561","2","legacy","1024","2","48000","-16","task","5128672","even","NA","56778","61589","58781","190268","4052","48249","43620","190771","156592","190267","190771","190178","61589","191333","55134","189678","4045","181316","Lexical Decision Task","67","52597","70","yes","1024"
"2.703007489","8.37","3","pulp","word","95.77464788732394","95.77464788732394","750.1971830985915","750.1971830985915","black","no","legacy","legacy","legacy","0","uniform","1","undefined","undefined","undefined","1","j","0","0","0","0","70","0","0","0","70","0","66","70","66","0","66","3","70","0","70","Thu Feb 18 14:42:14 2021","The main experiment item","yes","Lexical_Decision_Task.osexp","C:/Users/melbr/Desktop/CAL","no","Andale Mono","no","18","no","white","no","yes","576","legacy","66","66","3","C:/Users/melbr/Desktop/CAL/subject-5128672.csv","legacy","Lentiform Loewenfeld","3.3.7","yes","yes","600bd7cfb6416f0113b04181","602110864497cf011d9c0822","0","j","NA","j","space","space","space","j","667","NA","2807","39565","4628","4422","667","2","legacy","1024","2","48000","-16","task","5128672","even","NA","56778","61589","58781","191955","4052","48249","43620","192458","156592","191953","192458","191836","61589","193126","55134","191336","4045","181316","Lexical Decision Task","68","53264","71","yes","1024"
"3.368162872","0","4","ferk","non-word","95.83333333333333","95.83333333333333","749.3055555555555","749.3055555555555","black","no","legacy","legacy","legacy","0","uniform","1","undefined","undefined","undefined","1","f","0","0","0","0","71","0","0","0","71","0","67","71","67","0","67","3","71","0","71","Thu Feb 18 14:42:14 2021","The main experiment item","yes","Lexical_Decision_Task.osexp","C:/Users/melbr/Desktop/CAL","no","Andale Mono","no","18","no","white","no","yes","576","legacy","67","67","3","C:/Users/melbr/Desktop/CAL/subject-5128672.csv","legacy","Lentiform Loewenfeld","3.3.7","yes","yes","600bd7cfb6416f0113b04181","602110864497cf011d9c0822","0","f","NA","j","space","space","space","f","686","NA","2807","39565","4628","4422","686","2","legacy","1024","2","48000","-16","task","5128672","even","NA","56778","61589","58781","193745","4052","48249","43620","194248","156592","193744","194248","193646","61589","194935","55134","193146","4045","181316","Lexical Decision Task","69","53950","72","yes","1024"
"3.066077331","0","7","vorn","non-word","95.89041095890411","95.89041095890411","747.3698630136986","747.3698630136986","black","no","legacy","legacy","legacy","0","uniform","1","undefined","undefined","undefined","1","f","0","0","0","0","72","0","0","0","72","0","68","72","68","0","68","3","72","0","72","Thu Feb 18 14:42:14 2021","The main experiment item","yes","Lexical_Decision_Task.osexp","C:/Users/melbr/Desktop/CAL","no","Andale Mono","no","18","no","white","no","yes","576","legacy","68","68","3","C:/Users/melbr/Desktop/CAL/subject-5128672.csv","legacy","Lentiform Loewenfeld","3.3.7","yes","yes","600bd7cfb6416f0113b04181","602110864497cf011d9c0822","0","f","NA","j","space","space","space","f","608","NA","2807","39565","4628","4422","608","2","legacy","1024","2","48000","-16","task","5128672","even","NA","56778","61589","58781","195562","4052","48249","43620","196064","156592","195560","196064","195456","61589","196674","55134","194956","4045","181316","Lexical Decision Task","70","54558","73","yes","1024"
"2.755364069","7.72","2","hoax","word","94.5945945945946","94.5945945945946","748.8918918918919","748.8918918918919","black","no","legacy","legacy","legacy","0","uniform","0","undefined","undefined","undefined","0","j","0","0","0","0","73","0","0","0","73","0","69","73","69","0","69","3","73","0","73","Thu Feb 18 14:42:14 2021","The main experiment item","yes","Lexical_Decision_Task.osexp","C:/Users/melbr/Desktop/CAL","no","Andale Mono","no","18","no","white","no","yes","576","legacy","69","69","3","C:/Users/melbr/Desktop/CAL/subject-5128672.csv","legacy","Lentiform Loewenfeld","3.3.7","yes","yes","600bd7cfb6416f0113b04181","602110864497cf011d9c0822","0","f","NA","j","space","space","space","f","860","NA","2807","39565","4628","4422","860","2","legacy","1024","2","48000","-16","task","5128672","even","NA","56778","61589","58781","197250","4052","48249","43620","197753","156592","197249","197753","197181","61589","198614","55134","196681","4045","181316","Lexical Decision Task","70","55418","74","yes","1024"
"2.893578687","8.69","3","surf","word","94.66666666666667","94.66666666666667","748.4666666666667","748.4666666666667","black","no","legacy","legacy","legacy","0","uniform","1","undefined","undefined","undefined","1","j","0","0","0","0","74","0","0","0","74","0","70","74","70","0","70","3","74","0","74","Thu Feb 18 14:42:14 2021","The main experiment item","yes","Lexical_Decision_Task.osexp","C:/Users/melbr/Desktop/CAL","no","Andale Mono","no","18","no","white","no","yes","576","legacy","70","70","3","C:/Users/melbr/Desktop/CAL/subject-5128672.csv","legacy","Lentiform Loewenfeld","3.3.7","yes","yes","600bd7cfb6416f0113b04181","602110864497cf011d9c0822","0","j","NA","j","space","space","space","j","717","NA","2807","39565","4628","4422","717","2","legacy","1024","2","48000","-16","task","5128672","even","NA","56778","61589","58781","200219","4052","48249","43620","200721","156592","200218","200721","200136","61589","201439","55134","196681","4045","198636","Lexical Decision Task","71","56135","75","yes","1024"
"3.216517684","10.87","3","film","word","94.73684210526316","94.73684210526316","747.8026315789474","747.8026315789474","black","no","legacy","legacy","legacy","0","uniform","1","undefined","undefined","undefined","1","j","0","0","0","0","75","0","0","0","75","0","71","75","71","0","71","3","75","0","75","Thu Feb 18 14:42:14 2021","The main experiment item","yes","Lexical_Decision_Task.osexp","C:/Users/melbr/Desktop/CAL","no","Andale Mono","no","18","no","white","no","yes","576","legacy","71","71","3","C:/Users/melbr/Desktop/CAL/subject-5128672.csv","legacy","Lentiform Loewenfeld","3.3.7","yes","yes","600bd7cfb6416f0113b04181","602110864497cf011d9c0822","0","j","NA","j","space","space","space","j","698","NA","2807","39565","4628","4422","698","2","legacy","1024","2","48000","-16","task","5128672","even","NA","56778","61589","58781","202073","4052","48249","43620","202576","156592","202071","202577","201942","61589","203275","55134","201442","4045","198636","Lexical Decision Task","72","56833","76","yes","1024"
"3.384413096","10.15","3","glad","word","94.8051948051948","94.8051948051948","747.3116883116883","747.3116883116883","black","no","legacy","legacy","legacy","0","uniform","1","undefined","undefined","undefined","1","j","0","0","0","0","76","0","0","0","76","0","72","76","72","0","72","3","76","0","76","Thu Feb 18 14:42:14 2021","The main experiment item","yes","Lexical_Decision_Task.osexp","C:/Users/melbr/Desktop/CAL","no","Andale Mono","no","18","no","white","no","yes","576","legacy","72","72","3","C:/Users/melbr/Desktop/CAL/subject-5128672.csv","legacy","Lentiform Loewenfeld","3.3.7","yes","yes","600bd7cfb6416f0113b04181","602110864497cf011d9c0822","0","j","NA","j","space","space","space","j","710","NA","2807","39565","4628","4422","710","2","legacy","1024","2","48000","-16","task","5128672","even","NA","56778","61589","58781","203862","4052","48249","43620","204365","156592","203861","204365","203782","61589","205076","55134","203282","4045","198636","Lexical Decision Task","73","57543","77","yes","1024"
"3.082307743","9.68","8","camp","word","94.87179487179488","94.87179487179488","744.2564102564103","744.2564102564103","black","no","legacy","legacy","legacy","0","uniform","1","undefined","undefined","undefined","1","j","0","0","0","0","77","0","0","0","77","0","73","77","73","0","73","3","77","0","77","Thu Feb 18 14:42:14 2021","The main experiment item","yes","Lexical_Decision_Task.osexp","C:/Users/melbr/Desktop/CAL","no","Andale Mono","no","18","no","white","no","yes","576","legacy","73","73","3","C:/Users/melbr/Desktop/CAL/subject-5128672.csv","legacy","Lentiform Loewenfeld","3.3.7","yes","yes","600bd7cfb6416f0113b04181","602110864497cf011d9c0822","0","j","NA","j","space","space","space","j","509","NA","2807","39565","4628","4422","509","2","legacy","1024","2","48000","-16","task","5128672","even","NA","56778","61589","58781","205684","4052","48249","43620","206187","156592","205682","206187","205580","61589","206697","55134","205080","4045","198636","Lexical Decision Task","74","58052","78","yes","1024"
"3.159867847","5.98","5","brim","word","93.67088607594937","93.67088607594937","743.4303797468355","743.4303797468355","black","no","legacy","legacy","legacy","0","uniform","0","undefined","undefined","undefined","0","j","0","0","0","0","78","0","0","0","78","0","74","78","74","0","74","3","78","0","78","Thu Feb 18 14:42:14 2021","The main experiment item","yes","Lexical_Decision_Task.osexp","C:/Users/melbr/Desktop/CAL","no","Andale Mono","no","18","no","white","no","yes","576","legacy","74","74","3","C:/Users/melbr/Desktop/CAL/subject-5128672.csv","legacy","Lentiform Loewenfeld","3.3.7","yes","yes","600bd7cfb6416f0113b04181","602110864497cf011d9c0822","0","f","NA","j","space","space","space","f","679","NA","2807","39565","4628","4422","679","2","legacy","1024","2","48000","-16","task","5128672","even","NA","56778","61589","58781","207337","4052","48249","43620","207840","156592","207335","207840","207203","61589","208521","55134","206702","4045","198636","Lexical Decision Task","74","58731","79","yes","1024"
"3.276537627","9.15","5","trap","word","93.75","93.75","744.3375","744.3375","black","no","legacy","legacy","legacy","0","uniform","1","undefined","undefined","undefined","1","j","0","0","0","0","79","0","0","0","79","0","75","79","75","0","75","3","79","0","79","Thu Feb 18 14:42:14 2021","The main experiment item","yes","Lexical_Decision_Task.osexp","C:/Users/melbr/Desktop/CAL","no","Andale Mono","no","18","no","white","no","yes","576","legacy","75","75","3","C:/Users/melbr/Desktop/CAL/subject-5128672.csv","legacy","Lentiform Loewenfeld","3.3.7","yes","yes","600bd7cfb6416f0113b04181","602110864497cf011d9c0822","0","j","NA","j","space","space","space","j","816","NA","2807","39565","4628","4422","816","2","legacy","1024","2","48000","-16","task","5128672","even","NA","56778","61589","58781","210167","4052","48249","43620","210670","156592","210164","210671","210027","61589","211488","55134","206702","4045","208527","Lexical Decision Task","75","59547","80","yes","1024"
"2.897810299","0","5","glur","non-word","93.82716049382717","93.82716049382717","765.716049382716","765.716049382716","black","no","legacy","legacy","legacy","0","uniform","1","undefined","undefined","undefined","1","f","0","0","0","0","80","0","0","0","80","0","76","80","76","0","76","3","80","0","80","Thu Feb 18 14:42:14 2021","The main experiment item","yes","Lexical_Decision_Task.osexp","C:/Users/melbr/Desktop/CAL","no","Andale Mono","no","18","no","white","no","yes","576","legacy","76","76","3","C:/Users/melbr/Desktop/CAL/subject-5128672.csv","legacy","Lentiform Loewenfeld","3.3.7","yes","yes","600bd7cfb6416f0113b04181","602110864497cf011d9c0822","0","f","NA","j","space","space","space","f","2476","NA","2807","39565","4628","4422","2476","2","legacy","1024","2","48000","-16","task","5128672","even","NA","56778","61589","58781","212097","4052","48249","43620","212599","156592","212094","212599","211994","61589","215076","55134","211494","4045","208527","Lexical Decision Task","76","62023","81","yes","1024"
"3.062080345","0","6","tomp","non-word","93.90243902439025","93.90243902439025","763.609756097561","763.609756097561","black","no","legacy","legacy","legacy","0","uniform","1","undefined","undefined","undefined","1","f","0","0","0","0","81","0","0","0","81","0","77","81","77","0","77","3","81","0","81","Thu Feb 18 14:42:14 2021","The main experiment item","yes","Lexical_Decision_Task.osexp","C:/Users/melbr/Desktop/CAL","no","Andale Mono","no","18","no","white","no","yes","576","legacy","77","77","3","C:/Users/melbr/Desktop/CAL/subject-5128672.csv","legacy","Lentiform Loewenfeld","3.3.7","yes","yes","600bd7cfb6416f0113b04181","602110864497cf011d9c0822","0","f","NA","j","space","space","space","f","593","NA","2807","39565","4628","4422","593","2","legacy","1024","2","48000","-16","task","5128672","even","NA","56778","61589","58781","215674","4052","48249","43620","216176","156592","215672","216176","215582","61589","216770","55134","215082","4045","208527","Lexical Decision Task","77","62616","82","yes","1024"
"3.137775856","7.39","5","comb","word","93.97590361445783","93.97590361445783","763.2168674698795","763.2168674698795","black","no","legacy","legacy","legacy","0","uniform","1","undefined","undefined","undefined","1","j","0","0","0","0","82","0","0","0","82","0","78","82","78","0","78","3","82","0","82","Thu Feb 18 14:42:14 2021","The main experiment item","yes","Lexical_Decision_Task.osexp","C:/Users/melbr/Desktop/CAL","no","Andale Mono","no","18","no","white","no","yes","576","legacy","78","78","3","C:/Users/melbr/Desktop/CAL/subject-5128672.csv","legacy","Lentiform Loewenfeld","3.3.7","yes","yes","600bd7cfb6416f0113b04181","602110864497cf011d9c0822","0","j","NA","j","space","space","space","j","731","NA","2807","39565","4628","4422","731","2","legacy","1024","2","48000","-16","task","5128672","even","NA","56778","61589","58781","217374","4052","48249","43620","217877","156592","217372","217877","217277","61589","218609","55134","216777","4045","208527","Lexical Decision Task","78","63347","83","yes","1024"
"2.68604012","0","4","pumb","non-word","92.85714285714286","92.85714285714286","768.3690476190476","768.3690476190476","black","no","legacy","legacy","legacy","0","uniform","0","undefined","undefined","undefined","0","f","0","0","0","0","83","0","0","0","83","0","79","83","79","0","79","3","83","0","83","Thu Feb 18 14:42:14 2021","The main experiment item","yes","Lexical_Decision_Task.osexp","C:/Users/melbr/Desktop/CAL","no","Andale Mono","no","18","no","white","no","yes","576","legacy","79","79","3","C:/Users/melbr/Desktop/CAL/subject-5128672.csv","legacy","Lentiform Loewenfeld","3.3.7","yes","yes","600bd7cfb6416f0113b04181","602110864497cf011d9c0822","0","j","NA","j","space","space","space","j","1196","NA","2807","39565","4628","4422","1196","2","legacy","1024","2","48000","-16","task","5128672","even","NA","56778","61589","58781","219262","4052","48249","43620","219764","156592","219259","219764","219130","61589","220961","55134","218630","4045","208527","Lexical Decision Task","78","64543","84","yes","1024"
"2.8162413","0","5","nusk","non-word","92.94117647058823","92.94117647058823","765.8","765.8","black","no","legacy","legacy","legacy","0","uniform","1","undefined","undefined","undefined","1","f","0","0","0","0","84","0","0","0","84","0","80","84","80","0","80","3","84","0","84","Thu Feb 18 14:42:14 2021","The main experiment item","yes","Lexical_Decision_Task.osexp","C:/Users/melbr/Desktop/CAL","no","Andale Mono","no","18","no","white","no","yes","576","legacy","80","80","3","C:/Users/melbr/Desktop/CAL/subject-5128672.csv","legacy","Lentiform Loewenfeld","3.3.7","yes","yes","600bd7cfb6416f0113b04181","602110864497cf011d9c0822","0","f","NA","j","space","space","space","f","550","NA","2807","39565","4628","4422","550","2","legacy","1024","2","48000","-16","task","5128672","even","NA","56778","61589","58781","222579","4052","48249","43620","223082","156592","222577","223082","222482","61589","223633","55134","218630","4045","220982","Lexical Decision Task","79","65093","85","yes","1024"
"3.269668578","0","7","trag","non-word","93.02325581395348","93.02325581395348","763.6976744186046","763.6976744186046","black","no","legacy","legacy","legacy","0","uniform","1","undefined","undefined","undefined","1","f","0","0","0","0","85","0","0","0","85","0","81","85","81","0","81","3","85","0","85","Thu Feb 18 14:42:14 2021","The main experiment item","yes","Lexical_Decision_Task.osexp","C:/Users/melbr/Desktop/CAL","no","Andale Mono","no","18","no","white","no","yes","576","legacy","81","81","3","C:/Users/melbr/Desktop/CAL/subject-5128672.csv","legacy","Lentiform Loewenfeld","3.3.7","yes","yes","600bd7cfb6416f0113b04181","602110864497cf011d9c0822","0","f","NA","j","space","space","space","f","585","NA","2807","39565","4628","4422","585","2","legacy","1024","2","48000","-16","task","5128672","even","NA","56778","61589","58781","224259","4052","48249","43620","224760","156592","224257","224760","224140","61589","225346","55134","223640","4045","220982","Lexical Decision Task","80","65678","86","yes","1024"
"3.20871002","7.15","8","cram","word","91.95402298850574","91.95402298850574","761.2183908045977","761.2183908045977","black","no","legacy","legacy","legacy","0","uniform","0","undefined","undefined","undefined","0","j","0","0","0","0","86","0","0","0","86","0","82","86","82","0","82","3","86","0","86","Thu Feb 18 14:42:14 2021","The main experiment item","yes","Lexical_Decision_Task.osexp","C:/Users/melbr/Desktop/CAL","no","Andale Mono","no","18","no","white","no","yes","576","legacy","82","82","3","C:/Users/melbr/Desktop/CAL/subject-5128672.csv","legacy","Lentiform Loewenfeld","3.3.7","yes","yes","600bd7cfb6416f0113b04181","602110864497cf011d9c0822","0","f","NA","j","space","space","space","f","548","NA","2807","39565","4628","4422","548","2","legacy","1024","2","48000","-16","task","5128672","even","NA","56778","61589","58781","225967","4052","48249","43620","226470","156592","225966","226470","225853","61589","227019","55134","225353","4045","220982","Lexical Decision Task","80","66226","87","yes","1024"
"3.307211407","6.07","7","honk","word","92.04545454545455","92.04545454545455","759.7272727272727","759.7272727272727","black","no","legacy","legacy","legacy","0","uniform","1","undefined","undefined","undefined","1","j","0","0","0","0","87","0","0","0","87","0","83","87","83","0","83","3","87","0","87","Thu Feb 18 14:42:14 2021","The main experiment item","yes","Lexical_Decision_Task.osexp","C:/Users/melbr/Desktop/CAL","no","Andale Mono","no","18","no","white","no","yes","576","legacy","83","83","3","C:/Users/melbr/Desktop/CAL/subject-5128672.csv","legacy","Lentiform Loewenfeld","3.3.7","yes","yes","600bd7cfb6416f0113b04181","602110864497cf011d9c0822","0","j","NA","j","space","space","space","j","630","NA","2807","39565","4628","4422","630","2","legacy","1024","2","48000","-16","task","5128672","even","NA","56778","61589","58781","228679","4052","48249","43620","229182","156592","228677","229182","228540","61589","229813","55134","225353","4045","227040","Lexical Decision Task","81","66856","88","yes","1024"
"2.966923697","5.4","2","fume","word","92.13483146067416","92.13483146067416","758.3370786516854","758.3370786516854","black","no","legacy","legacy","legacy","0","uniform","1","undefined","undefined","undefined","1","j","0","0","0","0","88","0","0","0","88","0","84","88","84","0","84","3","88","0","88","Thu Feb 18 14:42:14 2021","The main experiment item","yes","Lexical_Decision_Task.osexp","C:/Users/melbr/Desktop/CAL","no","Andale Mono","no","18","no","white","no","yes","576","legacy","84","84","3","C:/Users/melbr/Desktop/CAL/subject-5128672.csv","legacy","Lentiform Loewenfeld","3.3.7","yes","yes","600bd7cfb6416f0113b04181","602110864497cf011d9c0822","0","j","NA","j","space","space","space","j","636","NA","2807","39565","4628","4422","636","2","legacy","1024","2","48000","-16","task","5128672","even","NA","56778","61589","58781","230465","4052","48249","43620","230968","156592","230462","230968","230334","61589","231606","55134","229834","4045","227040","Lexical Decision Task","82","67492","89","yes","1024"
"2.675164031","8.57","6","glue","word","92.22222222222223","92.22222222222223","756.7111111111111","756.7111111111111","black","no","legacy","legacy","legacy","0","uniform","1","undefined","undefined","undefined","1","j","0","0","0","0","89","0","0","0","89","0","85","89","85","0","85","3","89","0","89","Thu Feb 18 14:42:14 2021","The main experiment item","yes","Lexical_Decision_Task.osexp","C:/Users/melbr/Desktop/CAL","no","Andale Mono","no","18","no","white","no","yes","576","legacy","85","85","3","C:/Users/melbr/Desktop/CAL/subject-5128672.csv","legacy","Lentiform Loewenfeld","3.3.7","yes","yes","600bd7cfb6416f0113b04181","602110864497cf011d9c0822","0","j","NA","j","space","space","space","j","612","NA","2807","39565","4628","4422","612","2","legacy","1024","2","48000","-16","task","5128672","even","NA","56778","61589","58781","232229","4052","48249","43620","232732","156592","232227","232732","232111","61589","233345","55134","231611","4045","227040","Lexical Decision Task","83","68104","90","yes","1024"
"2.868644438","10.52","4","town","word","92.3076923076923","92.3076923076923","753.9230769230769","753.9230769230769","black","no","legacy","legacy","legacy","0","uniform","1","undefined","undefined","undefined","1","j","0","0","0","0","90","0","0","0","90","0","86","90","86","0","86","3","90","0","90","Thu Feb 18 14:42:14 2021","The main experiment item","yes","Lexical_Decision_Task.osexp","C:/Users/melbr/Desktop/CAL","no","Andale Mono","no","18","no","white","no","yes","576","legacy","86","86","3","C:/Users/melbr/Desktop/CAL/subject-5128672.csv","legacy","Lentiform Loewenfeld","3.3.7","yes","yes","600bd7cfb6416f0113b04181","602110864497cf011d9c0822","0","j","NA","j","space","space","space","j","503","NA","2807","39565","4628","4422","503","2","legacy","1024","2","48000","-16","task","5128672","even","NA","56778","61589","58781","233917","4052","48249","43620","234419","156592","233916","234419","233852","61589","234923","55134","233352","4045","227040","Lexical Decision Task","84","68607","91","yes","1024"
"3.495914186","0","4","peng","non-word","91.30434782608695","91.30434782608695","752.5108695652174","752.5108695652174","black","no","legacy","legacy","legacy","0","uniform","0","undefined","undefined","undefined","0","f","0","0","0","0","91","0","0","0","91","0","87","91","87","0","87","3","91","0","91","Thu Feb 18 14:42:14 2021","The main experiment item","yes","Lexical_Decision_Task.osexp","C:/Users/melbr/Desktop/CAL","no","Andale Mono","no","18","no","white","no","yes","576","legacy","87","87","3","C:/Users/melbr/Desktop/CAL/subject-5128672.csv","legacy","Lentiform Loewenfeld","3.3.7","yes","yes","600bd7cfb6416f0113b04181","602110864497cf011d9c0822","0","j","NA","j","space","space","space","j","624","NA","2807","39565","4628","4422","624","2","legacy","1024","2","48000","-16","task","5128672","even","NA","56778","61589","58781","235554","4052","48249","43620","236057","156592","235552","236057","235430","61589","236682","55134","234930","4045","227040","Lexical Decision Task","84","69231","92","yes","1024"
"2.845304797","0","6","buct","non-word","91.39784946236558","91.39784946236558","753.7096774193549","753.7096774193549","black","no","legacy","legacy","legacy","0","uniform","1","undefined","undefined","undefined","1","f","0","0","0","0","92","0","0","0","92","0","88","92","88","0","88","3","92","0","92","Thu Feb 18 14:42:14 2021","The main experiment item","yes","Lexical_Decision_Task.osexp","C:/Users/melbr/Desktop/CAL","no","Andale Mono","no","18","no","white","no","yes","576","legacy","88","88","3","C:/Users/melbr/Desktop/CAL/subject-5128672.csv","legacy","Lentiform Loewenfeld","3.3.7","yes","yes","600bd7cfb6416f0113b04181","602110864497cf011d9c0822","0","f","NA","j","space","space","space","f","864","NA","2807","39565","4628","4422","864","2","legacy","1024","2","48000","-16","task","5128672","even","NA","56778","61589","58781","238334","4052","48249","43620","238837","156592","238332","238837","238189","61589","239702","55134","234930","4045","236689","Lexical Decision Task","85","70095","93","yes","1024"
"3.274157849","0","8","leet","non-word","91.48936170212765","91.48936170212765","752.9893617021277","752.9893617021277","black","no","legacy","legacy","legacy","0","uniform","1","undefined","undefined","undefined","1","f","0","0","0","0","93","0","0","0","93","0","89","93","89","0","89","3","93","0","93","Thu Feb 18 14:42:14 2021","The main experiment item","yes","Lexical_Decision_Task.osexp","C:/Users/melbr/Desktop/CAL","no","Andale Mono","no","18","no","white","no","yes","576","legacy","89","89","3","C:/Users/melbr/Desktop/CAL/subject-5128672.csv","legacy","Lentiform Loewenfeld","3.3.7","yes","yes","600bd7cfb6416f0113b04181","602110864497cf011d9c0822","0","f","NA","j","space","space","space","f","686","NA","2807","39565","4628","4422","686","2","legacy","1024","2","48000","-16","task","5128672","even","NA","56778","61589","58781","240327","4052","48249","43620","240829","156592","240324","240829","240209","61589","241516","55134","239709","4045","236689","Lexical Decision Task","86","70781","94","yes","1024"
"2.898725182","0","7","turl","non-word","91.57894736842105","91.57894736842105","751.6210526315789","751.6210526315789","black","no","legacy","legacy","legacy","0","uniform","1","undefined","undefined","undefined","1","f","0","0","0","0","94","0","0","0","94","0","90","94","90","0","90","3","94","0","94","Thu Feb 18 14:42:14 2021","The main experiment item","yes","Lexical_Decision_Task.osexp","C:/Users/melbr/Desktop/CAL","no","Andale Mono","no","18","no","white","no","yes","576","legacy","90","90","3","C:/Users/melbr/Desktop/CAL/subject-5128672.csv","legacy","Lentiform Loewenfeld","3.3.7","yes","yes","600bd7cfb6416f0113b04181","602110864497cf011d9c0822","0","f","NA","j","space","space","space","f","623","NA","2807","39565","4628","4422","623","2","legacy","1024","2","48000","-16","task","5128672","even","NA","56778","61589","58781","242107","4052","48249","43620","242609","156592","242105","242609","242037","61589","243233","55134","241537","4045","236689","Lexical Decision Task","87","71404","95","yes","1024"
"2.698387659","6.66","7","skid","word","91.66666666666667","91.66666666666667","750.9583333333334","750.9583333333334","black","no","legacy","legacy","legacy","0","uniform","1","undefined","undefined","undefined","1","j","0","0","0","0","95","0","0","0","95","0","91","95","91","0","91","3","95","0","95","Thu Feb 18 14:42:14 2021","The main experiment item","yes","Lexical_Decision_Task.osexp","C:/Users/melbr/Desktop/CAL","no","Andale Mono","no","18","no","white","no","yes","576","legacy","91","91","3","C:/Users/melbr/Desktop/CAL/subject-5128672.csv","legacy","Lentiform Loewenfeld","3.3.7","yes","yes","600bd7cfb6416f0113b04181","602110864497cf011d9c0822","0","j","NA","j","space","space","space","j","688","NA","2807","39565","4628","4422","688","2","legacy","1024","2","48000","-16","task","5128672","even","NA","56778","61589","58781","243885","4052","48249","43620","244387","156592","243882","244388","243754","61589","245076","55134","243254","4045","236689","Lexical Decision Task","88","72092","96","yes","1024"
"3.145920145","8.51","8","flew","word","91.75257731958763","91.75257731958763","749.8659793814433","749.8659793814433","black","no","legacy","legacy","legacy","0","uniform","1","undefined","undefined","undefined","1","j","0","0","0","0","96","0","0","0","96","0","92","96","92","0","92","3","96","0","96","Thu Feb 18 14:42:14 2021","The main experiment item","yes","Lexical_Decision_Task.osexp","C:/Users/melbr/Desktop/CAL","no","Andale Mono","no","18","no","white","no","yes","576","legacy","92","92","3","C:/Users/melbr/Desktop/CAL/subject-5128672.csv","legacy","Lentiform Loewenfeld","3.3.7","yes","yes","600bd7cfb6416f0113b04181","602110864497cf011d9c0822","0","j","NA","j","space","space","space","j","645","NA","2807","39565","4628","4422","645","2","legacy","1024","2","48000","-16","task","5128672","even","NA","56778","61589","58781","245691","4052","48249","43620","246191","156592","245689","246191","245583","61589","246837","55134","245083","4045","236689","Lexical Decision Task","89","72737","97","yes","1024"
"2.86332286","6.71","2","feud","word","91.83673469387755","91.83673469387755","747.9387755102041","747.9387755102041","black","no","legacy","legacy","legacy","0","uniform","1","undefined","undefined","undefined","1","j","0","0","0","0","97","0","0","0","97","0","93","97","93","0","93","3","97","0","97","Thu Feb 18 14:42:14 2021","The main experiment item","yes","Lexical_Decision_Task.osexp","C:/Users/melbr/Desktop/CAL","no","Andale Mono","no","18","no","white","no","yes","576","legacy","93","93","3","C:/Users/melbr/Desktop/CAL/subject-5128672.csv","legacy","Lentiform Loewenfeld","3.3.7","yes","yes","600bd7cfb6416f0113b04181","602110864497cf011d9c0822","0","j","NA","j","space","space","space","j","561","NA","2807","39565","4628","4422","561","2","legacy","1024","2","48000","-16","task","5128672","even","NA","56778","61589","58781","247464","4052","48249","43620","247967","156592","247462","247967","247344","61589","248529","55134","246844","4045","236689","Lexical Decision Task","90","73298","98","yes","1024"
"3.077974404","10.41","8","tool","word","91.91919191919192","91.91919191919192","746.4848484848485","746.4848484848485","black","no","legacy","legacy","legacy","0","uniform","1","undefined","undefined","undefined","1","j","0","0","0","0","98","0","0","0","98","0","94","98","94","0","94","3","98","0","98","Thu Feb 18 14:42:14 2021","The main experiment item","yes","Lexical_Decision_Task.osexp","C:/Users/melbr/Desktop/CAL","no","Andale Mono","no","18","no","white","no","yes","576","legacy","94","94","3","C:/Users/melbr/Desktop/CAL/subject-5128672.csv","legacy","Lentiform Loewenfeld","3.3.7","yes","yes","600bd7cfb6416f0113b04181","602110864497cf011d9c0822","0","j","NA","j","space","space","space","j","604","NA","2807","39565","4628","4422","604","2","legacy","1024","2","48000","-16","task","5128672","even","NA","56778","61589","58781","249156","4052","48249","43620","249658","156592","249153","249658","249035","61589","250263","55134","248535","4045","236689","Lexical Decision Task","91","73902","99","yes","1024"
"2.664328519","0","4","plux","non-word","92","92","747.63","747.63","black","no","legacy","legacy","legacy","0","uniform","1","undefined","undefined","undefined","1","f","0","0","0","0","99","0","0","0","99","0","95","99","95","0","95","3","99","0","99","Thu Feb 18 14:42:14 2021","The main experiment item","yes","Lexical_Decision_Task.osexp","C:/Users/melbr/Desktop/CAL","no","Andale Mono","no","18","no","white","no","yes","576","legacy","95","95","3","C:/Users/melbr/Desktop/CAL/subject-5128672.csv","legacy","Lentiform Loewenfeld","3.3.7","yes","yes","600bd7cfb6416f0113b04181","602110864497cf011d9c0822","0","f","NA","j","space","space","space","f","861","NA","2807","39565","4628","4422","861","2","legacy","1024","2","48000","-16","task","5128672","even","NA","56778","61589","58781","250904","4052","48249","43620","251407","156592","250902","251407","250770","61589","252269","55134","250270","4045","236689","Lexical Decision Task","92","74763","100","yes","1024"
"2.884795364","0","6","flob","non-word","91.08910891089108","91.08910891089108","745.4356435643564","745.4356435643564","black","no","legacy","legacy","legacy","0","uniform","0","undefined","undefined","undefined","0","f","0","0","0","0","100","0","0","0","100","0","96","100","96","0","96","3","100","0","100","Thu Feb 18 14:42:14 2021","The main experiment item","yes","Lexical_Decision_Task.osexp","C:/Users/melbr/Desktop/CAL","no","Andale Mono","no","18","no","white","no","yes","576","legacy","96","96","3","C:/Users/melbr/Desktop/CAL/subject-5128672.csv","legacy","Lentiform Loewenfeld","3.3.7","yes","yes","600bd7cfb6416f0113b04181","602110864497cf011d9c0822","0","j","NA","j","space","space","space","j","526","NA","2807","39565","4628","4422","526","2","legacy","1024","2","48000","-16","task","5128672","even","NA","56778","61589","58781","252914","4052","48249","43620","253416","156592","252911","253417","252790","61589","253944","55134","252290","4045","236689","Lexical Decision Task","92","75289","101","yes","1024"
