"Log_BG","Log_Freq_HAL","Ortho_N","Stimulus","Type","acc","accuracy","average_response_time","avg_rt","background","bidi","canvas_backend","clock_backend","color_backend","compensation","coordinates","correct","correct_Experimental_intro","correct_Introduction","correct_Practice_intro","correct_experimenter_kb","correct_response","count_End_Of_Experiment","count_End_Of_Practice","count_Experimental_Loop","count_Experimental_intro","count_Fixation","count_Introduction","count_Practice_Loop","count_Practice_intro","count_Stimulus","count_block_break_feedback","count_experimental_sequence","count_experimenter_kb","count_increment_trial_count","count_init_trial_count","count_logger","count_practice_sequence","count_right","count_task","count_wrong","datetime","description","disable_garbage_collection","experiment_file","experiment_path","font_bold","font_family","font_italic","font_size","font_underline","foreground","form_clicks","fullscreen","height","keyboard_backend","live_row","live_row_Experimental_Loop","live_row_Practice_Loop","logfile","mouse_backend","opensesame_codename","opensesame_version","osf_always_upload_data","osf_always_upload_experiment","osf_datanode_id","osf_id","repeat_cycle","response","response_End_Of_Experiment","response_Experimental_intro","response_Introduction","response_Practice_intro","response_block_break_feedback","response_experimenter_kb","response_time","response_time_End_Of_Experiment","response_time_Experimental_intro","response_time_Introduction","response_time_Practice_intro","response_time_block_break_feedback","response_time_experimenter_kb","round_decimals","sampler_backend","sound_buf_size","sound_channels","sound_freq","sound_sample_size","start","subject_nr","subject_parity","time_End_Of_Experiment","time_End_Of_Practice","time_Experimental_Loop","time_Experimental_intro","time_Fixation","time_Introduction","time_Practice_Loop","time_Practice_intro","time_Stimulus","time_block_break_feedback","time_experimental_sequence","time_experimenter_kb","time_increment_trial_count","time_init_trial_count","time_logger","time_practice_sequence","time_right","time_task","time_wrong","title","total_correct","total_response_time","total_responses","uniform_coordinates","width"
"3.119255889","6.63","2","itch","word","100","100","743.6","743.6","black","no","legacy","legacy","legacy","0","uniform","1","undefined","undefined","undefined","1","j","0","0","0","0","4","0","0","0","4","NA","0","4","0","0","0","3","4","0","4","Wed Feb 17 14:15:55 2021","The main experiment item","yes","Lexical_Decision_Task.osexp","E:/Uni/Y 2 -  C o g  a n d  L a n g/Assignment","no","Andale Mono","no","18","no","white","no","yes","576","legacy","0","0","3","E:/Uni/Y 2 -  C o g  a n d  L a n g/Assignment/subject-5206907.csv","legacy","Lentiform Loewenfeld","3.3.7","yes","yes","600bd7cfb6416f0113b04181","602110864497cf011d9c0822","0","j","NA","space","space","space","NA","j","661","NA","5174","12449","6872","NA","661","2","legacy","1024","2","48000","-16","task","5206907","odd","NA","31241","38418","33242","38452","4554","23879","17006","38953","NA","38451","38953","NA","38418","39614","29574","30722","4546","NA","Lexical Decision Task","5","3718","5","yes","1024"
"2.799799878","0","4","ciff","non-word","100","100","794.8333333333334","794.8333333333334","black","no","legacy","legacy","legacy","0","uniform","1","undefined","undefined","undefined","1","f","0","0","0","0","5","0","0","0","5","NA","1","5","1","0","1","3","5","0","5","Wed Feb 17 14:15:55 2021","The main experiment item","yes","Lexical_Decision_Task.osexp","E:/Uni/Y 2 -  C o g  a n d  L a n g/Assignment","no","Andale Mono","no","18","no","white","no","yes","576","legacy","1","1","3","E:/Uni/Y 2 -  C o g  a n d  L a n g/Assignment/subject-5206907.csv","legacy","Lentiform Loewenfeld","3.3.7","yes","yes","600bd7cfb6416f0113b04181","602110864497cf011d9c0822","0","f","NA","space","space","space","NA","f","1051","NA","5174","12449","6872","NA","1051","2","legacy","1024","2","48000","-16","task","5206907","odd","NA","31241","38418","33242","40194","4554","23879","17006","40695","NA","40192","40696","40135","38418","41748","29574","39635","4546","NA","Lexical Decision Task","6","4769","6","yes","1024"
"3.529815197","0","3","lerm","non-word","100","100","794.8571428571429","794.8571428571429","black","no","legacy","legacy","legacy","0","uniform","1","undefined","undefined","undefined","1","f","0","0","0","0","6","0","0","0","6","NA","2","6","2","0","2","3","6","0","6","Wed Feb 17 14:15:55 2021","The main experiment item","yes","Lexical_Decision_Task.osexp","E:/Uni/Y 2 -  C o g  a n d  L a n g/Assignment","no","Andale Mono","no","18","no","white","no","yes","576","legacy","2","2","3","E:/Uni/Y 2 -  C o g  a n d  L a n g/Assignment/subject-5206907.csv","legacy","Lentiform Loewenfeld","3.3.7","yes","yes","600bd7cfb6416f0113b04181","602110864497cf011d9c0822","0","f","NA","space","space","space","NA","f","795","NA","5174","12449","6872","NA","795","2","legacy","1024","2","48000","-16","task","5206907","odd","NA","31241","38418","33242","42307","4554","23879","17006","42808","NA","42306","42809","42258","38418","43606","29574","41758","4546","NA","Lexical Decision Task","7","5564","7","yes","1024"
"3.091901331","0","9","nipe","non-word","100","100","805.875","805.875","black","no","legacy","legacy","legacy","0","uniform","1","undefined","undefined","undefined","1","f","0","0","0","0","7","0","0","0","7","NA","3","7","3","0","3","3","7","0","7","Wed Feb 17 14:15:55 2021","The main experiment item","yes","Lexical_Decision_Task.osexp","E:/Uni/Y 2 -  C o g  a n d  L a n g/Assignment","no","Andale Mono","no","18","no","white","no","yes","576","legacy","3","3","3","E:/Uni/Y 2 -  C o g  a n d  L a n g/Assignment/subject-5206907.csv","legacy","Lentiform Loewenfeld","3.3.7","yes","yes","600bd7cfb6416f0113b04181","602110864497cf011d9c0822","0","f","NA","space","space","space","NA","f","883","NA","5174","12449","6872","NA","883","2","legacy","1024","2","48000","-16","task","5206907","odd","NA","31241","38418","33242","44164","4554","23879","17006","44665","NA","44162","44665","44117","38418","45549","29574","43617","4546","NA","Lexical Decision Task","8","6447","8","yes","1024"
"2.68604012","0","3","mulb","non-word","100","100","790.5555555555555","790.5555555555555","black","no","legacy","legacy","legacy","0","uniform","1","undefined","undefined","undefined","1","f","0","0","0","0","8","0","0","0","8","NA","4","8","4","0","4","3","8","0","8","Wed Feb 17 14:15:55 2021","The main experiment item","yes","Lexical_Decision_Task.osexp","E:/Uni/Y 2 -  C o g  a n d  L a n g/Assignment","no","Andale Mono","no","18","no","white","no","yes","576","legacy","4","4","3","E:/Uni/Y 2 -  C o g  a n d  L a n g/Assignment/subject-5206907.csv","legacy","Lentiform Loewenfeld","3.3.7","yes","yes","600bd7cfb6416f0113b04181","602110864497cf011d9c0822","0","f","NA","space","space","space","NA","f","668","NA","5174","12449","6872","NA","668","2","legacy","1024","2","48000","-16","task","5206907","odd","NA","31241","38418","33242","46108","4554","23879","17006","46609","NA","46106","46609","46060","38418","47278","29574","45560","4546","NA","Lexical Decision Task","9","7115","9","yes","1024"
"3.363486562","6.93","9","lush","word","100","100","764.1","764.1","black","no","legacy","legacy","legacy","0","uniform","1","undefined","undefined","undefined","1","j","0","0","0","0","9","0","0","0","9","NA","5","9","5","0","5","3","9","0","9","Wed Feb 17 14:15:55 2021","The main experiment item","yes","Lexical_Decision_Task.osexp","E:/Uni/Y 2 -  C o g  a n d  L a n g/Assignment","no","Andale Mono","no","18","no","white","no","yes","576","legacy","5","5","3","E:/Uni/Y 2 -  C o g  a n d  L a n g/Assignment/subject-5206907.csv","legacy","Lentiform Loewenfeld","3.3.7","yes","yes","600bd7cfb6416f0113b04181","602110864497cf011d9c0822","0","j","NA","space","space","space","NA","j","526","NA","5174","12449","6872","NA","526","2","legacy","1024","2","48000","-16","task","5206907","odd","NA","31241","38418","33242","47836","4554","23879","17006","48338","NA","47834","48338","47789","38418","48864","29574","47289","4546","NA","Lexical Decision Task","10","7641","10","yes","1024"
"2.842815106","7.86","8","lump","word","100","100","763.0909090909091","763.0909090909091","black","no","legacy","legacy","legacy","0","uniform","1","undefined","undefined","undefined","1","j","0","0","0","0","10","0","0","0","10","NA","6","10","6","0","6","3","10","0","10","Wed Feb 17 14:15:55 2021","The main experiment item","yes","Lexical_Decision_Task.osexp","E:/Uni/Y 2 -  C o g  a n d  L a n g/Assignment","no","Andale Mono","no","18","no","white","no","yes","576","legacy","6","6","3","E:/Uni/Y 2 -  C o g  a n d  L a n g/Assignment/subject-5206907.csv","legacy","Lentiform Loewenfeld","3.3.7","yes","yes","600bd7cfb6416f0113b04181","602110864497cf011d9c0822","0","j","NA","space","space","space","NA","j","753","NA","5174","12449","6872","NA","753","2","legacy","1024","2","48000","-16","task","5206907","odd","NA","31241","38418","33242","49423","4554","23879","17006","49924","NA","49422","49924","49377","38418","50678","29574","48877","4546","NA","Lexical Decision Task","11","8394","11","yes","1024"
"3.077974404","10.41","8","tool","word","100","100","741.8333333333334","741.8333333333334","black","no","legacy","legacy","legacy","0","uniform","1","undefined","undefined","undefined","1","j","0","0","0","0","11","0","0","0","11","NA","7","11","7","0","7","3","11","0","11","Wed Feb 17 14:15:55 2021","The main experiment item","yes","Lexical_Decision_Task.osexp","E:/Uni/Y 2 -  C o g  a n d  L a n g/Assignment","no","Andale Mono","no","18","no","white","no","yes","576","legacy","7","7","3","E:/Uni/Y 2 -  C o g  a n d  L a n g/Assignment/subject-5206907.csv","legacy","Lentiform Loewenfeld","3.3.7","yes","yes","600bd7cfb6416f0113b04181","602110864497cf011d9c0822","0","j","NA","space","space","space","NA","j","508","NA","5174","12449","6872","NA","508","2","legacy","1024","2","48000","-16","task","5206907","odd","NA","31241","38418","33242","51235","4554","23879","17006","51736","NA","51234","51736","51188","38418","52245","29574","50688","4546","NA","Lexical Decision Task","12","8902","12","yes","1024"
"3.168890155","0","6","thet","non-word","100","100","747.5384615384615","747.5384615384615","black","no","legacy","legacy","legacy","0","uniform","1","undefined","undefined","undefined","1","f","0","0","0","0","12","0","0","0","12","NA","8","12","8","0","8","3","12","0","12","Wed Feb 17 14:15:55 2021","The main experiment item","yes","Lexical_Decision_Task.osexp","E:/Uni/Y 2 -  C o g  a n d  L a n g/Assignment","no","Andale Mono","no","18","no","white","no","yes","576","legacy","8","8","3","E:/Uni/Y 2 -  C o g  a n d  L a n g/Assignment/subject-5206907.csv","legacy","Lentiform Loewenfeld","3.3.7","yes","yes","600bd7cfb6416f0113b04181","602110864497cf011d9c0822","0","f","NA","space","space","space","NA","f","816","NA","5174","12449","6872","NA","816","2","legacy","1024","2","48000","-16","task","5206907","odd","NA","31241","38418","33242","52802","4554","23879","17006","53304","NA","52800","53304","52756","38418","54120","29574","52256","4546","NA","Lexical Decision Task","13","9718","13","yes","1024"
"2.794720352","0","9","koot","non-word","100","100","743.0714285714286","743.0714285714286","black","no","legacy","legacy","legacy","0","uniform","1","undefined","undefined","undefined","1","f","0","0","0","0","13","0","0","0","13","NA","9","13","9","0","9","3","13","0","13","Wed Feb 17 14:15:55 2021","The main experiment item","yes","Lexical_Decision_Task.osexp","E:/Uni/Y 2 -  C o g  a n d  L a n g/Assignment","no","Andale Mono","no","18","no","white","no","yes","576","legacy","9","9","3","E:/Uni/Y 2 -  C o g  a n d  L a n g/Assignment/subject-5206907.csv","legacy","Lentiform Loewenfeld","3.3.7","yes","yes","600bd7cfb6416f0113b04181","602110864497cf011d9c0822","0","f","NA","space","space","space","NA","f","685","NA","5174","12449","6872","NA","685","2","legacy","1024","2","48000","-16","task","5206907","odd","NA","31241","38418","33242","54680","4554","23879","17006","55181","NA","54678","55181","54631","38418","55867","29574","54131","4546","NA","Lexical Decision Task","14","10403","14","yes","1024"
"2.952953801","0","8","clax","non-word","100","100","736.3333333333334","736.3333333333334","black","no","legacy","legacy","legacy","0","uniform","1","undefined","undefined","undefined","1","f","0","0","0","0","14","0","0","0","14","NA","10","14","10","0","10","3","14","0","14","Wed Feb 17 14:15:55 2021","The main experiment item","yes","Lexical_Decision_Task.osexp","E:/Uni/Y 2 -  C o g  a n d  L a n g/Assignment","no","Andale Mono","no","18","no","white","no","yes","576","legacy","10","10","3","E:/Uni/Y 2 -  C o g  a n d  L a n g/Assignment/subject-5206907.csv","legacy","Lentiform Loewenfeld","3.3.7","yes","yes","600bd7cfb6416f0113b04181","602110864497cf011d9c0822","0","f","NA","space","space","space","NA","f","642","NA","5174","12449","6872","NA","642","2","legacy","1024","2","48000","-16","task","5206907","odd","NA","31241","38418","33242","56424","4554","23879","17006","56925","NA","56422","56925","56377","38418","57568","29574","55877","4546","NA","Lexical Decision Task","15","11045","15","yes","1024"
"2.705007959","6.01","4","wept","word","100","100","732.25","732.25","black","no","legacy","legacy","legacy","0","uniform","1","undefined","undefined","undefined","1","j","0","0","0","0","15","0","0","0","15","NA","11","15","11","0","11","3","15","0","15","Wed Feb 17 14:15:55 2021","The main experiment item","yes","Lexical_Decision_Task.osexp","E:/Uni/Y 2 -  C o g  a n d  L a n g/Assignment","no","Andale Mono","no","18","no","white","no","yes","576","legacy","11","11","3","E:/Uni/Y 2 -  C o g  a n d  L a n g/Assignment/subject-5206907.csv","legacy","Lentiform Loewenfeld","3.3.7","yes","yes","600bd7cfb6416f0113b04181","602110864497cf011d9c0822","0","j","NA","space","space","space","NA","j","671","NA","5174","12449","6872","NA","671","2","legacy","1024","2","48000","-16","task","5206907","odd","NA","31241","38418","33242","58126","4554","23879","17006","58627","NA","58124","58627","58080","38418","59299","29574","57580","4546","NA","Lexical Decision Task","16","11716","16","yes","1024"
"3.067070856","9.39","3","loud","word","100","100","719.3529411764706","719.3529411764706","black","no","legacy","legacy","legacy","0","uniform","1","undefined","undefined","undefined","1","j","0","0","0","0","16","0","0","0","16","NA","12","16","12","0","12","3","16","0","16","Wed Feb 17 14:15:55 2021","The main experiment item","yes","Lexical_Decision_Task.osexp","E:/Uni/Y 2 -  C o g  a n d  L a n g/Assignment","no","Andale Mono","no","18","no","white","no","yes","576","legacy","12","12","3","E:/Uni/Y 2 -  C o g  a n d  L a n g/Assignment/subject-5206907.csv","legacy","Lentiform Loewenfeld","3.3.7","yes","yes","600bd7cfb6416f0113b04181","602110864497cf011d9c0822","0","j","NA","space","space","space","NA","j","513","NA","5174","12449","6872","NA","513","2","legacy","1024","2","48000","-16","task","5206907","odd","NA","31241","38418","33242","59880","4554","23879","17006","60382","NA","59878","60382","59833","38418","60896","29574","59333","4546","NA","Lexical Decision Task","17","12229","17","yes","1024"
"2.875447132","0","9","jelt","non-word","100","100","728.2222222222222","728.2222222222222","black","no","legacy","legacy","legacy","0","uniform","1","undefined","undefined","undefined","1","f","0","0","0","0","17","0","0","0","17","NA","13","17","13","0","13","3","17","0","17","Wed Feb 17 14:15:55 2021","The main experiment item","yes","Lexical_Decision_Task.osexp","E:/Uni/Y 2 -  C o g  a n d  L a n g/Assignment","no","Andale Mono","no","18","no","white","no","yes","576","legacy","13","13","3","E:/Uni/Y 2 -  C o g  a n d  L a n g/Assignment/subject-5206907.csv","legacy","Lentiform Loewenfeld","3.3.7","yes","yes","600bd7cfb6416f0113b04181","602110864497cf011d9c0822","0","f","NA","space","space","space","NA","f","879","NA","5174","12449","6872","NA","879","2","legacy","1024","2","48000","-16","task","5206907","odd","NA","31241","38418","33242","61454","4554","23879","17006","61955","NA","61452","61956","61406","38418","62837","29574","60906","4546","NA","Lexical Decision Task","18","13108","18","yes","1024"
"2.703007489","8.37","3","pulp","word","94.73684210526316","94.73684210526316","735.8421052631579","735.8421052631579","black","no","legacy","legacy","legacy","0","uniform","0","undefined","undefined","undefined","0","j","0","0","0","0","18","0","0","0","18","NA","14","18","14","0","14","3","18","0","18","Wed Feb 17 14:15:55 2021","The main experiment item","yes","Lexical_Decision_Task.osexp","E:/Uni/Y 2 -  C o g  a n d  L a n g/Assignment","no","Andale Mono","no","18","no","white","no","yes","576","legacy","14","14","3","E:/Uni/Y 2 -  C o g  a n d  L a n g/Assignment/subject-5206907.csv","legacy","Lentiform Loewenfeld","3.3.7","yes","yes","600bd7cfb6416f0113b04181","602110864497cf011d9c0822","0","f","NA","space","space","space","NA","f","873","NA","5174","12449","6872","NA","873","2","legacy","1024","2","48000","-16","task","5206907","odd","NA","31241","38418","33242","63396","4554","23879","17006","63898","NA","63395","63898","63350","38418","64772","29574","62850","4546","NA","Lexical Decision Task","18","13981","19","yes","1024"
"2.807758206","6.25","4","hurl","word","95","95","732.2","732.2","black","no","legacy","legacy","legacy","0","uniform","1","undefined","undefined","undefined","1","j","0","0","0","0","19","0","0","0","19","NA","15","19","15","0","15","3","19","0","19","Wed Feb 17 14:15:55 2021","The main experiment item","yes","Lexical_Decision_Task.osexp","E:/Uni/Y 2 -  C o g  a n d  L a n g/Assignment","no","Andale Mono","no","18","no","white","no","yes","576","legacy","15","15","3","E:/Uni/Y 2 -  C o g  a n d  L a n g/Assignment/subject-5206907.csv","legacy","Lentiform Loewenfeld","3.3.7","yes","yes","600bd7cfb6416f0113b04181","602110864497cf011d9c0822","0","j","NA","space","space","space","NA","j","663","NA","5174","12449","6872","NA","663","2","legacy","1024","2","48000","-16","task","5206907","odd","NA","31241","38418","33242","66334","4554","23879","17006","66835","NA","66333","66835","66286","38418","67499","29574","62850","4546","64786","Lexical Decision Task","19","14644","20","yes","1024"
"3.131833513","7.66","4","limb","word","95.23809523809524","95.23809523809524","721.6190476190476","721.6190476190476","black","no","legacy","legacy","legacy","0","uniform","1","undefined","undefined","undefined","1","j","0","0","0","0","20","0","0","0","20","NA","16","20","16","0","16","3","20","0","20","Wed Feb 17 14:15:55 2021","The main experiment item","yes","Lexical_Decision_Task.osexp","E:/Uni/Y 2 -  C o g  a n d  L a n g/Assignment","no","Andale Mono","no","18","no","white","no","yes","576","legacy","16","16","3","E:/Uni/Y 2 -  C o g  a n d  L a n g/Assignment/subject-5206907.csv","legacy","Lentiform Loewenfeld","3.3.7","yes","yes","600bd7cfb6416f0113b04181","602110864497cf011d9c0822","0","j","NA","space","space","space","NA","j","510","NA","5174","12449","6872","NA","510","2","legacy","1024","2","48000","-16","task","5206907","odd","NA","31241","38418","33242","68054","4554","23879","17006","68555","NA","68053","68555","68009","38418","69066","29574","67509","4546","64786","Lexical Decision Task","20","15154","21","yes","1024"
"3.20871002","7.15","8","cram","word","95.45454545454545","95.45454545454545","714","714","black","no","legacy","legacy","legacy","0","uniform","1","undefined","undefined","undefined","1","j","0","0","0","0","21","0","0","0","21","NA","17","21","17","0","17","3","21","0","21","Wed Feb 17 14:15:55 2021","The main experiment item","yes","Lexical_Decision_Task.osexp","E:/Uni/Y 2 -  C o g  a n d  L a n g/Assignment","no","Andale Mono","no","18","no","white","no","yes","576","legacy","17","17","3","E:/Uni/Y 2 -  C o g  a n d  L a n g/Assignment/subject-5206907.csv","legacy","Lentiform Loewenfeld","3.3.7","yes","yes","600bd7cfb6416f0113b04181","602110864497cf011d9c0822","0","j","NA","space","space","space","NA","j","554","NA","5174","12449","6872","NA","554","2","legacy","1024","2","48000","-16","task","5206907","odd","NA","31241","38418","33242","69624","4554","23879","17006","70125","NA","69623","70125","69578","38418","70680","29574","69078","4546","64786","Lexical Decision Task","21","15708","22","yes","1024"
"2.803231716","5.26","3","kiln","word","91.30434782608695","91.30434782608695","714.0434782608696","714.0434782608696","black","no","legacy","legacy","legacy","0","uniform","0","undefined","undefined","undefined","0","j","0","0","0","0","22","0","0","0","22","NA","18","22","18","0","18","3","22","0","22","Wed Feb 17 14:15:55 2021","The main experiment item","yes","Lexical_Decision_Task.osexp","E:/Uni/Y 2 -  C o g  a n d  L a n g/Assignment","no","Andale Mono","no","18","no","white","no","yes","576","legacy","18","18","3","E:/Uni/Y 2 -  C o g  a n d  L a n g/Assignment/subject-5206907.csv","legacy","Lentiform Loewenfeld","3.3.7","yes","yes","600bd7cfb6416f0113b04181","602110864497cf011d9c0822","0","f","NA","space","space","space","NA","f","715","NA","5174","12449","6872","NA","715","2","legacy","1024","2","48000","-16","task","5206907","odd","NA","31241","38418","33242","71237","4554","23879","17006","71738","NA","71235","71738","71191","38418","72454","29574","70691","4546","64786","Lexical Decision Task","21","16423","23","yes","1024"
"2.839898939","8.99","6","soap","word","91.66666666666667","91.66666666666667","706.7083333333334","706.7083333333334","black","no","legacy","legacy","legacy","0","uniform","1","undefined","undefined","undefined","1","j","0","0","0","0","23","0","0","0","23","NA","19","23","19","0","19","3","23","0","23","Wed Feb 17 14:15:55 2021","The main experiment item","yes","Lexical_Decision_Task.osexp","E:/Uni/Y 2 -  C o g  a n d  L a n g/Assignment","no","Andale Mono","no","18","no","white","no","yes","576","legacy","19","19","3","E:/Uni/Y 2 -  C o g  a n d  L a n g/Assignment/subject-5206907.csv","legacy","Lentiform Loewenfeld","3.3.7","yes","yes","600bd7cfb6416f0113b04181","602110864497cf011d9c0822","0","j","NA","space","space","space","NA","j","538","NA","5174","12449","6872","NA","538","2","legacy","1024","2","48000","-16","task","5206907","odd","NA","31241","38418","33242","74013","4554","23879","17006","74514","NA","74011","74514","73965","38418","75053","29574","70691","4546","72465","Lexical Decision Task","22","16961","24","yes","1024"
"3.347850856","10.51","2","rich","word","92","92","701.32","701.32","black","no","legacy","legacy","legacy","0","uniform","1","undefined","undefined","undefined","1","j","0","0","0","0","24","0","0","0","24","NA","20","24","20","0","20","3","24","0","24","Wed Feb 17 14:15:55 2021","The main experiment item","yes","Lexical_Decision_Task.osexp","E:/Uni/Y 2 -  C o g  a n d  L a n g/Assignment","no","Andale Mono","no","18","no","white","no","yes","576","legacy","20","20","3","E:/Uni/Y 2 -  C o g  a n d  L a n g/Assignment/subject-5206907.csv","legacy","Lentiform Loewenfeld","3.3.7","yes","yes","600bd7cfb6416f0113b04181","602110864497cf011d9c0822","0","j","NA","space","space","space","NA","j","572","NA","5174","12449","6872","NA","572","2","legacy","1024","2","48000","-16","task","5206907","odd","NA","31241","38418","33242","75609","4554","23879","17006","76110","NA","75608","76110","75564","38418","76683","29574","75064","4546","72465","Lexical Decision Task","23","17533","25","yes","1024"
"2.9737419","7.69","7","claw","word","92.3076923076923","92.3076923076923","696","696","black","no","legacy","legacy","legacy","0","uniform","1","undefined","undefined","undefined","1","j","0","0","0","0","25","0","0","0","25","NA","21","25","21","0","21","3","25","0","25","Wed Feb 17 14:15:55 2021","The main experiment item","yes","Lexical_Decision_Task.osexp","E:/Uni/Y 2 -  C o g  a n d  L a n g/Assignment","no","Andale Mono","no","18","no","white","no","yes","576","legacy","21","21","3","E:/Uni/Y 2 -  C o g  a n d  L a n g/Assignment/subject-5206907.csv","legacy","Lentiform Loewenfeld","3.3.7","yes","yes","600bd7cfb6416f0113b04181","602110864497cf011d9c0822","0","j","NA","space","space","space","NA","j","563","NA","5174","12449","6872","NA","563","2","legacy","1024","2","48000","-16","task","5206907","odd","NA","31241","38418","33242","77241","4554","23879","17006","77742","NA","77240","77742","77194","38418","78306","29574","76694","4546","72465","Lexical Decision Task","24","18096","26","yes","1024"
"2.693726949","5.08","3","swig","word","92.5925925925926","92.5925925925926","693.6296296296297","693.6296296296297","black","no","legacy","legacy","legacy","0","uniform","1","undefined","undefined","undefined","1","j","0","0","0","0","26","0","0","0","26","NA","22","26","22","0","22","3","26","0","26","Wed Feb 17 14:15:55 2021","The main experiment item","yes","Lexical_Decision_Task.osexp","E:/Uni/Y 2 -  C o g  a n d  L a n g/Assignment","no","Andale Mono","no","18","no","white","no","yes","576","legacy","22","22","3","E:/Uni/Y 2 -  C o g  a n d  L a n g/Assignment/subject-5206907.csv","legacy","Lentiform Loewenfeld","3.3.7","yes","yes","600bd7cfb6416f0113b04181","602110864497cf011d9c0822","0","j","NA","space","space","space","NA","j","632","NA","5174","12449","6872","NA","632","2","legacy","1024","2","48000","-16","task","5206907","odd","NA","31241","38418","33242","78865","4554","23879","17006","79366","NA","78863","79366","78819","38418","80000","29574","78319","4546","72465","Lexical Decision Task","25","18728","27","yes","1024"
"3.495914186","0","4","peng","non-word","89.28571428571429","89.28571428571429","683.2857142857143","683.2857142857143","black","no","legacy","legacy","legacy","0","uniform","0","undefined","undefined","undefined","0","f","0","0","0","0","27","0","0","0","27","NA","23","27","23","0","23","3","27","0","27","Wed Feb 17 14:15:55 2021","The main experiment item","yes","Lexical_Decision_Task.osexp","E:/Uni/Y 2 -  C o g  a n d  L a n g/Assignment","no","Andale Mono","no","18","no","white","no","yes","576","legacy","23","23","3","E:/Uni/Y 2 -  C o g  a n d  L a n g/Assignment/subject-5206907.csv","legacy","Lentiform Loewenfeld","3.3.7","yes","yes","600bd7cfb6416f0113b04181","602110864497cf011d9c0822","0","j","NA","space","space","space","NA","j","404","NA","5174","12449","6872","NA","404","2","legacy","1024","2","48000","-16","task","5206907","odd","NA","31241","38418","33242","80556","4554","23879","17006","81058","NA","80555","81058","80510","38418","81464","29574","80010","4546","72465","Lexical Decision Task","25","19132","28","yes","1024"
"3.132473155","0","4","glim","non-word","86.20689655172414","86.20689655172414","680.3793103448276","680.3793103448276","black","no","legacy","legacy","legacy","0","uniform","0","undefined","undefined","undefined","0","f","0","0","0","0","28","0","0","0","28","NA","24","28","24","0","24","3","28","0","28","Wed Feb 17 14:15:55 2021","The main experiment item","yes","Lexical_Decision_Task.osexp","E:/Uni/Y 2 -  C o g  a n d  L a n g/Assignment","no","Andale Mono","no","18","no","white","no","yes","576","legacy","24","24","3","E:/Uni/Y 2 -  C o g  a n d  L a n g/Assignment/subject-5206907.csv","legacy","Lentiform Loewenfeld","3.3.7","yes","yes","600bd7cfb6416f0113b04181","602110864497cf011d9c0822","0","j","NA","space","space","space","NA","j","599","NA","5174","12449","6872","NA","599","2","legacy","1024","2","48000","-16","task","5206907","odd","NA","31241","38418","33242","83018","4554","23879","17006","83519","NA","83017","83519","82970","38418","84119","29574","80010","4546","81470","Lexical Decision Task","25","19731","29","yes","1024"
"3.488597715","0","9","nain","non-word","86.66666666666667","86.66666666666667","683.4666666666667","683.4666666666667","black","no","legacy","legacy","legacy","0","uniform","1","undefined","undefined","undefined","1","f","0","0","0","0","29","0","0","0","29","NA","25","29","25","0","25","3","29","0","29","Wed Feb 17 14:15:55 2021","The main experiment item","yes","Lexical_Decision_Task.osexp","E:/Uni/Y 2 -  C o g  a n d  L a n g/Assignment","no","Andale Mono","no","18","no","white","no","yes","576","legacy","25","25","3","E:/Uni/Y 2 -  C o g  a n d  L a n g/Assignment/subject-5206907.csv","legacy","Lentiform Loewenfeld","3.3.7","yes","yes","600bd7cfb6416f0113b04181","602110864497cf011d9c0822","0","f","NA","space","space","space","NA","f","773","NA","5174","12449","6872","NA","773","2","legacy","1024","2","48000","-16","task","5206907","odd","NA","31241","38418","33242","85678","4554","23879","17006","86179","NA","85676","86179","85630","38418","86953","29574","80010","4546","84130","Lexical Decision Task","26","20504","30","yes","1024"
"3.257359335","8","6","brew","word","87.09677419354838","87.09677419354838","682.5806451612904","682.5806451612904","black","no","legacy","legacy","legacy","0","uniform","1","undefined","undefined","undefined","1","j","0","0","0","0","30","0","0","0","30","NA","26","30","26","0","26","3","30","0","30","Wed Feb 17 14:15:55 2021","The main experiment item","yes","Lexical_Decision_Task.osexp","E:/Uni/Y 2 -  C o g  a n d  L a n g/Assignment","no","Andale Mono","no","18","no","white","no","yes","576","legacy","26","26","3","E:/Uni/Y 2 -  C o g  a n d  L a n g/Assignment/subject-5206907.csv","legacy","Lentiform Loewenfeld","3.3.7","yes","yes","600bd7cfb6416f0113b04181","602110864497cf011d9c0822","0","j","NA","space","space","space","NA","j","656","NA","5174","12449","6872","NA","656","2","legacy","1024","2","48000","-16","task","5206907","odd","NA","31241","38418","33242","87517","4554","23879","17006","88018","NA","87516","88018","87467","38418","88677","29574","86967","4546","84130","Lexical Decision Task","27","21160","31","yes","1024"
"2.706148589","0","4","hube","non-word","87.5","87.5","681","681","black","no","legacy","legacy","legacy","0","uniform","1","undefined","undefined","undefined","1","f","0","0","0","0","31","0","0","0","31","NA","27","31","27","0","27","3","31","0","31","Wed Feb 17 14:15:55 2021","The main experiment item","yes","Lexical_Decision_Task.osexp","E:/Uni/Y 2 -  C o g  a n d  L a n g/Assignment","no","Andale Mono","no","18","no","white","no","yes","576","legacy","27","27","3","E:/Uni/Y 2 -  C o g  a n d  L a n g/Assignment/subject-5206907.csv","legacy","Lentiform Loewenfeld","3.3.7","yes","yes","600bd7cfb6416f0113b04181","602110864497cf011d9c0822","0","f","NA","space","space","space","NA","f","632","NA","5174","12449","6872","NA","632","2","legacy","1024","2","48000","-16","task","5206907","odd","NA","31241","38418","33242","89234","4554","23879","17006","89735","NA","89233","89735","89188","38418","90368","29574","88688","4546","84130","Lexical Decision Task","28","21792","32","yes","1024"
"2.838639236","0","4","furg","non-word","87.87878787878788","87.87878787878788","676.9090909090909","676.9090909090909","black","no","legacy","legacy","legacy","0","uniform","1","undefined","undefined","undefined","1","f","0","0","0","0","32","0","0","0","32","NA","28","32","28","0","28","3","32","0","32","Wed Feb 17 14:15:55 2021","The main experiment item","yes","Lexical_Decision_Task.osexp","E:/Uni/Y 2 -  C o g  a n d  L a n g/Assignment","no","Andale Mono","no","18","no","white","no","yes","576","legacy","28","28","3","E:/Uni/Y 2 -  C o g  a n d  L a n g/Assignment/subject-5206907.csv","legacy","Lentiform Loewenfeld","3.3.7","yes","yes","600bd7cfb6416f0113b04181","602110864497cf011d9c0822","0","f","NA","space","space","space","NA","f","546","NA","5174","12449","6872","NA","546","2","legacy","1024","2","48000","-16","task","5206907","odd","NA","31241","38418","33242","90928","4554","23879","17006","91429","NA","90925","91429","90880","38418","91975","29574","90379","4546","84130","Lexical Decision Task","29","22338","33","yes","1024"
"3.282244367","0","6","fute","non-word","88.23529411764706","88.23529411764706","673.3235294117648","673.3235294117648","black","no","legacy","legacy","legacy","0","uniform","1","undefined","undefined","undefined","1","f","0","0","0","0","33","0","0","0","33","NA","29","33","29","0","29","3","33","0","33","Wed Feb 17 14:15:55 2021","The main experiment item","yes","Lexical_Decision_Task.osexp","E:/Uni/Y 2 -  C o g  a n d  L a n g/Assignment","no","Andale Mono","no","18","no","white","no","yes","576","legacy","29","29","3","E:/Uni/Y 2 -  C o g  a n d  L a n g/Assignment/subject-5206907.csv","legacy","Lentiform Loewenfeld","3.3.7","yes","yes","600bd7cfb6416f0113b04181","602110864497cf011d9c0822","0","f","NA","space","space","space","NA","f","555","NA","5174","12449","6872","NA","555","2","legacy","1024","2","48000","-16","task","5206907","odd","NA","31241","38418","33242","92531","4554","23879","17006","93032","NA","92530","93032","92486","38418","93589","29574","91986","4546","84130","Lexical Decision Task","30","22893","34","yes","1024"
"3.028977705","0","7","frow","non-word","85.71428571428571","85.71428571428571","675.8571428571429","675.8571428571429","black","no","legacy","legacy","legacy","0","uniform","0","undefined","undefined","undefined","0","f","0","0","0","0","34","0","0","0","34","NA","30","34","30","0","30","3","34","0","34","Wed Feb 17 14:15:55 2021","The main experiment item","yes","Lexical_Decision_Task.osexp","E:/Uni/Y 2 -  C o g  a n d  L a n g/Assignment","no","Andale Mono","no","18","no","white","no","yes","576","legacy","30","30","3","E:/Uni/Y 2 -  C o g  a n d  L a n g/Assignment/subject-5206907.csv","legacy","Lentiform Loewenfeld","3.3.7","yes","yes","600bd7cfb6416f0113b04181","602110864497cf011d9c0822","0","j","NA","space","space","space","NA","j","762","NA","5174","12449","6872","NA","762","2","legacy","1024","2","48000","-16","task","5206907","odd","NA","31241","38418","33242","94147","4554","23879","17006","94649","NA","94146","94649","94101","38418","95412","29574","93601","4546","84130","Lexical Decision Task","30","23655","35","yes","1024"
"2.616654026","9.37","5","gift","word","83.33333333333333","83.33333333333333","673.1388888888889","673.1388888888889","black","no","legacy","legacy","legacy","0","uniform","0","undefined","undefined","undefined","0","j","0","0","0","0","35","0","0","0","35","NA","31","35","31","0","31","3","35","0","35","Wed Feb 17 14:15:55 2021","The main experiment item","yes","Lexical_Decision_Task.osexp","E:/Uni/Y 2 -  C o g  a n d  L a n g/Assignment","no","Andale Mono","no","18","no","white","no","yes","576","legacy","31","31","3","E:/Uni/Y 2 -  C o g  a n d  L a n g/Assignment/subject-5206907.csv","legacy","Lentiform Loewenfeld","3.3.7","yes","yes","600bd7cfb6416f0113b04181","602110864497cf011d9c0822","0","f","NA","space","space","space","NA","f","578","NA","5174","12449","6872","NA","578","2","legacy","1024","2","48000","-16","task","5206907","odd","NA","31241","38418","33242","96973","4554","23879","17006","97474","NA","96971","97474","96923","38418","98053","29574","93601","4546","95423","Lexical Decision Task","30","24233","36","yes","1024"
"2.884795364","0","6","flob","non-word","83.78378378378379","83.78378378378379","678.2702702702703","678.2702702702703","black","no","legacy","legacy","legacy","0","uniform","1","undefined","undefined","undefined","1","f","0","0","0","0","36","0","0","0","36","NA","32","36","32","0","32","3","36","0","36","Wed Feb 17 14:15:55 2021","The main experiment item","yes","Lexical_Decision_Task.osexp","E:/Uni/Y 2 -  C o g  a n d  L a n g/Assignment","no","Andale Mono","no","18","no","white","no","yes","576","legacy","32","32","3","E:/Uni/Y 2 -  C o g  a n d  L a n g/Assignment/subject-5206907.csv","legacy","Lentiform Loewenfeld","3.3.7","yes","yes","600bd7cfb6416f0113b04181","602110864497cf011d9c0822","0","f","NA","space","space","space","NA","f","863","NA","5174","12449","6872","NA","863","2","legacy","1024","2","48000","-16","task","5206907","odd","NA","31241","38418","33242","99613","4554","23879","17006","100114","NA","99612","100114","99563","38418","100978","29574","93601","4546","98063","Lexical Decision Task","31","25096","37","yes","1024"
"3.137775856","7.39","5","comb","word","84.21052631578948","84.21052631578948","677.7631578947369","677.7631578947369","black","no","legacy","legacy","legacy","0","uniform","1","undefined","undefined","undefined","1","j","0","0","0","0","37","0","0","0","37","NA","33","37","33","0","33","3","37","0","37","Wed Feb 17 14:15:55 2021","The main experiment item","yes","Lexical_Decision_Task.osexp","E:/Uni/Y 2 -  C o g  a n d  L a n g/Assignment","no","Andale Mono","no","18","no","white","no","yes","576","legacy","33","33","3","E:/Uni/Y 2 -  C o g  a n d  L a n g/Assignment/subject-5206907.csv","legacy","Lentiform Loewenfeld","3.3.7","yes","yes","600bd7cfb6416f0113b04181","602110864497cf011d9c0822","0","j","NA","space","space","space","NA","j","659","NA","5174","12449","6872","NA","659","2","legacy","1024","2","48000","-16","task","5206907","odd","NA","31241","38418","33242","101536","4554","23879","17006","102037","NA","101535","102037","101488","38418","102697","29574","100988","4546","98063","Lexical Decision Task","32","25755","38","yes","1024"
"3.208172527","10.27","7","deck","word","84.61538461538461","84.61538461538461","673.9230769230769","673.9230769230769","black","no","legacy","legacy","legacy","0","uniform","1","undefined","undefined","undefined","1","j","0","0","0","0","38","0","0","0","38","NA","34","38","34","0","34","3","38","0","38","Wed Feb 17 14:15:55 2021","The main experiment item","yes","Lexical_Decision_Task.osexp","E:/Uni/Y 2 -  C o g  a n d  L a n g/Assignment","no","Andale Mono","no","18","no","white","no","yes","576","legacy","34","34","3","E:/Uni/Y 2 -  C o g  a n d  L a n g/Assignment/subject-5206907.csv","legacy","Lentiform Loewenfeld","3.3.7","yes","yes","600bd7cfb6416f0113b04181","602110864497cf011d9c0822","0","j","NA","space","space","space","NA","j","528","NA","5174","12449","6872","NA","528","2","legacy","1024","2","48000","-16","task","5206907","odd","NA","31241","38418","33242","103256","4554","23879","17006","103757","NA","103255","103757","103208","38418","104285","29574","102708","4546","98063","Lexical Decision Task","33","26283","39","yes","1024"
"2.809559715","8.44","4","volt","word","85","85","676","676","black","no","legacy","legacy","legacy","0","uniform","1","undefined","undefined","undefined","1","j","0","0","0","0","39","0","0","0","39","NA","35","39","35","0","35","3","39","0","39","Wed Feb 17 14:15:55 2021","The main experiment item","yes","Lexical_Decision_Task.osexp","E:/Uni/Y 2 -  C o g  a n d  L a n g/Assignment","no","Andale Mono","no","18","no","white","no","yes","576","legacy","35","35","3","E:/Uni/Y 2 -  C o g  a n d  L a n g/Assignment/subject-5206907.csv","legacy","Lentiform Loewenfeld","3.3.7","yes","yes","600bd7cfb6416f0113b04181","602110864497cf011d9c0822","0","j","NA","space","space","space","NA","j","757","NA","5174","12449","6872","NA","757","2","legacy","1024","2","48000","-16","task","5206907","odd","NA","31241","38418","33242","104843","4554","23879","17006","105344","NA","104841","105344","104796","38418","106103","29574","104296","4546","98063","Lexical Decision Task","34","27040","40","yes","1024"
"2.858136002","0","4","phip","non-word","85.36585365853658","85.36585365853658","677.219512195122","677.219512195122","black","no","legacy","legacy","legacy","0","uniform","1","undefined","undefined","undefined","1","f","0","0","0","0","40","0","0","0","40","NA","36","40","36","0","36","3","40","0","40","Wed Feb 17 14:15:55 2021","The main experiment item","yes","Lexical_Decision_Task.osexp","E:/Uni/Y 2 -  C o g  a n d  L a n g/Assignment","no","Andale Mono","no","18","no","white","no","yes","576","legacy","36","36","3","E:/Uni/Y 2 -  C o g  a n d  L a n g/Assignment/subject-5206907.csv","legacy","Lentiform Loewenfeld","3.3.7","yes","yes","600bd7cfb6416f0113b04181","602110864497cf011d9c0822","0","f","NA","space","space","space","NA","f","726","NA","5174","12449","6872","NA","726","2","legacy","1024","2","48000","-16","task","5206907","odd","NA","31241","38418","33242","106661","4554","23879","17006","107162","NA","106659","107162","106614","38418","107889","29574","106114","4546","98063","Lexical Decision Task","35","27766","41","yes","1024"
"3.094121596","0","8","fode","non-word","83.33333333333333","83.33333333333333","673.2857142857143","673.2857142857143","black","no","legacy","legacy","legacy","0","uniform","0","undefined","undefined","undefined","0","f","0","0","0","0","41","0","0","0","41","NA","37","41","37","0","37","3","41","0","41","Wed Feb 17 14:15:55 2021","The main experiment item","yes","Lexical_Decision_Task.osexp","E:/Uni/Y 2 -  C o g  a n d  L a n g/Assignment","no","Andale Mono","no","18","no","white","no","yes","576","legacy","37","37","3","E:/Uni/Y 2 -  C o g  a n d  L a n g/Assignment/subject-5206907.csv","legacy","Lentiform Loewenfeld","3.3.7","yes","yes","600bd7cfb6416f0113b04181","602110864497cf011d9c0822","0","j","NA","space","space","space","NA","j","512","NA","5174","12449","6872","NA","512","2","legacy","1024","2","48000","-16","task","5206907","odd","NA","31241","38418","33242","108451","4554","23879","17006","108952","NA","108450","108952","108401","38418","109465","29574","107901","4546","98063","Lexical Decision Task","35","28278","42","yes","1024"
"3.039414119","0","9","meep","non-word","83.72093023255815","83.72093023255815","680.8139534883721","680.8139534883721","black","no","legacy","legacy","legacy","0","uniform","1","undefined","undefined","undefined","1","f","0","0","0","0","42","0","0","0","42","NA","38","42","38","0","38","3","42","0","42","Wed Feb 17 14:15:55 2021","The main experiment item","yes","Lexical_Decision_Task.osexp","E:/Uni/Y 2 -  C o g  a n d  L a n g/Assignment","no","Andale Mono","no","18","no","white","no","yes","576","legacy","38","38","3","E:/Uni/Y 2 -  C o g  a n d  L a n g/Assignment/subject-5206907.csv","legacy","Lentiform Loewenfeld","3.3.7","yes","yes","600bd7cfb6416f0113b04181","602110864497cf011d9c0822","0","f","NA","space","space","space","NA","f","997","NA","5174","12449","6872","NA","997","2","legacy","1024","2","48000","-16","task","5206907","odd","NA","31241","38418","33242","111026","4554","23879","17006","111528","NA","111024","111528","110977","38418","112526","29574","107901","4546","109477","Lexical Decision Task","36","29275","43","yes","1024"
"2.6599162","0","6","flug","non-word","84.0909090909091","84.0909090909091","681.5227272727273","681.5227272727273","black","no","legacy","legacy","legacy","0","uniform","1","undefined","undefined","undefined","1","f","0","0","0","0","43","0","0","0","43","NA","39","43","39","0","39","3","43","0","43","Wed Feb 17 14:15:55 2021","The main experiment item","yes","Lexical_Decision_Task.osexp","E:/Uni/Y 2 -  C o g  a n d  L a n g/Assignment","no","Andale Mono","no","18","no","white","no","yes","576","legacy","39","39","3","E:/Uni/Y 2 -  C o g  a n d  L a n g/Assignment/subject-5206907.csv","legacy","Lentiform Loewenfeld","3.3.7","yes","yes","600bd7cfb6416f0113b04181","602110864497cf011d9c0822","0","f","NA","space","space","space","NA","f","712","NA","5174","12449","6872","NA","712","2","legacy","1024","2","48000","-16","task","5206907","odd","NA","31241","38418","33242","113090","4554","23879","17006","113591","NA","113089","113591","113037","38418","114305","29574","112537","4546","109477","Lexical Decision Task","37","29987","44","yes","1024"
"3.216517684","10.87","3","film","word","84.44444444444444","84.44444444444444","680.3333333333334","680.3333333333334","black","no","legacy","legacy","legacy","0","uniform","1","undefined","undefined","undefined","1","j","0","0","0","0","44","0","0","0","44","NA","40","44","40","0","40","3","44","0","44","Wed Feb 17 14:15:55 2021","The main experiment item","yes","Lexical_Decision_Task.osexp","E:/Uni/Y 2 -  C o g  a n d  L a n g/Assignment","no","Andale Mono","no","18","no","white","no","yes","576","legacy","40","40","3","E:/Uni/Y 2 -  C o g  a n d  L a n g/Assignment/subject-5206907.csv","legacy","Lentiform Loewenfeld","3.3.7","yes","yes","600bd7cfb6416f0113b04181","602110864497cf011d9c0822","0","j","NA","space","space","space","NA","j","628","NA","5174","12449","6872","NA","628","2","legacy","1024","2","48000","-16","task","5206907","odd","NA","31241","38418","33242","114863","4554","23879","17006","115364","NA","114861","115364","114817","38418","115993","29574","114316","4546","109477","Lexical Decision Task","38","30615","45","yes","1024"
"2.675164031","8.57","6","glue","word","84.78260869565217","84.78260869565217","676.8913043478261","676.8913043478261","black","no","legacy","legacy","legacy","0","uniform","1","undefined","undefined","undefined","1","j","0","0","0","0","45","0","0","0","45","NA","41","45","41","0","41","3","45","0","45","Wed Feb 17 14:15:55 2021","The main experiment item","yes","Lexical_Decision_Task.osexp","E:/Uni/Y 2 -  C o g  a n d  L a n g/Assignment","no","Andale Mono","no","18","no","white","no","yes","576","legacy","41","41","3","E:/Uni/Y 2 -  C o g  a n d  L a n g/Assignment/subject-5206907.csv","legacy","Lentiform Loewenfeld","3.3.7","yes","yes","600bd7cfb6416f0113b04181","602110864497cf011d9c0822","0","j","NA","space","space","space","NA","j","522","NA","5174","12449","6872","NA","522","2","legacy","1024","2","48000","-16","task","5206907","odd","NA","31241","38418","33242","116572","4554","23879","17006","117073","NA","116571","117073","116526","38418","117596","29574","116026","4546","109477","Lexical Decision Task","39","31137","46","yes","1024"
"3.145920145","8.51","8","flew","word","85.1063829787234","85.1063829787234","675.063829787234","675.063829787234","black","no","legacy","legacy","legacy","0","uniform","1","undefined","undefined","undefined","1","j","0","0","0","0","46","0","0","0","46","NA","42","46","42","0","42","3","46","0","46","Wed Feb 17 14:15:55 2021","The main experiment item","yes","Lexical_Decision_Task.osexp","E:/Uni/Y 2 -  C o g  a n d  L a n g/Assignment","no","Andale Mono","no","18","no","white","no","yes","576","legacy","42","42","3","E:/Uni/Y 2 -  C o g  a n d  L a n g/Assignment/subject-5206907.csv","legacy","Lentiform Loewenfeld","3.3.7","yes","yes","600bd7cfb6416f0113b04181","602110864497cf011d9c0822","0","j","NA","space","space","space","NA","j","591","NA","5174","12449","6872","NA","591","2","legacy","1024","2","48000","-16","task","5206907","odd","NA","31241","38418","33242","118152","4554","23879","17006","118653","NA","118152","118653","118107","38418","119245","29574","117607","4546","109477","Lexical Decision Task","40","31728","47","yes","1024"
"2.981215883","10.66","5","hair","word","85.41666666666667","85.41666666666667","673.3958333333334","673.3958333333334","black","no","legacy","legacy","legacy","0","uniform","1","undefined","undefined","undefined","1","j","0","0","0","0","47","0","0","0","47","NA","43","47","43","0","43","3","47","0","47","Wed Feb 17 14:15:55 2021","The main experiment item","yes","Lexical_Decision_Task.osexp","E:/Uni/Y 2 -  C o g  a n d  L a n g/Assignment","no","Andale Mono","no","18","no","white","no","yes","576","legacy","43","43","3","E:/Uni/Y 2 -  C o g  a n d  L a n g/Assignment/subject-5206907.csv","legacy","Lentiform Loewenfeld","3.3.7","yes","yes","600bd7cfb6416f0113b04181","602110864497cf011d9c0822","0","j","NA","space","space","space","NA","j","595","NA","5174","12449","6872","NA","595","2","legacy","1024","2","48000","-16","task","5206907","odd","NA","31241","38418","33242","119801","4554","23879","17006","120302","NA","119800","120302","119756","38418","120898","29574","119256","4546","109477","Lexical Decision Task","41","32323","48","yes","1024"
"3.366547468","0","6","plat","non-word","85.71428571428571","85.71428571428571","676.795918367347","676.795918367347","black","no","legacy","legacy","legacy","0","uniform","1","undefined","undefined","undefined","1","f","0","0","0","0","48","0","0","0","48","NA","44","48","44","0","44","3","48","0","48","Wed Feb 17 14:15:55 2021","The main experiment item","yes","Lexical_Decision_Task.osexp","E:/Uni/Y 2 -  C o g  a n d  L a n g/Assignment","no","Andale Mono","no","18","no","white","no","yes","576","legacy","44","44","3","E:/Uni/Y 2 -  C o g  a n d  L a n g/Assignment/subject-5206907.csv","legacy","Lentiform Loewenfeld","3.3.7","yes","yes","600bd7cfb6416f0113b04181","602110864497cf011d9c0822","0","f","NA","space","space","space","NA","f","840","NA","5174","12449","6872","NA","840","2","legacy","1024","2","48000","-16","task","5206907","odd","NA","31241","38418","33242","121456","4554","23879","17006","121957","NA","121454","121957","121408","38418","122797","29574","120908","4546","109477","Lexical Decision Task","42","33163","49","yes","1024"
"2.980911938","7.15","7","hoop","word","86","86","673.9","673.9","black","no","legacy","legacy","legacy","0","uniform","1","undefined","undefined","undefined","1","j","0","0","0","0","49","0","0","0","49","NA","45","49","45","0","45","3","49","0","49","Wed Feb 17 14:15:55 2021","The main experiment item","yes","Lexical_Decision_Task.osexp","E:/Uni/Y 2 -  C o g  a n d  L a n g/Assignment","no","Andale Mono","no","18","no","white","no","yes","576","legacy","45","45","3","E:/Uni/Y 2 -  C o g  a n d  L a n g/Assignment/subject-5206907.csv","legacy","Lentiform Loewenfeld","3.3.7","yes","yes","600bd7cfb6416f0113b04181","602110864497cf011d9c0822","0","j","NA","space","space","space","NA","j","532","NA","5174","12449","6872","NA","532","2","legacy","1024","2","48000","-16","task","5206907","odd","NA","31241","38418","33242","123356","4554","23879","17006","123857","NA","123355","123857","123310","38418","124390","29574","122810","4546","109477","Lexical Decision Task","43","33695","50","yes","1024"
"3.440331212","7.35","6","stew","word","86.27450980392157","86.27450980392157","672.4901960784314","672.4901960784314","black","no","legacy","legacy","legacy","0","uniform","1","undefined","undefined","undefined","1","j","0","0","0","0","50","0","0","0","50","NA","46","50","46","0","46","3","50","0","50","Wed Feb 17 14:15:55 2021","The main experiment item","yes","Lexical_Decision_Task.osexp","E:/Uni/Y 2 -  C o g  a n d  L a n g/Assignment","no","Andale Mono","no","18","no","white","no","yes","576","legacy","46","46","3","E:/Uni/Y 2 -  C o g  a n d  L a n g/Assignment/subject-5206907.csv","legacy","Lentiform Loewenfeld","3.3.7","yes","yes","600bd7cfb6416f0113b04181","602110864497cf011d9c0822","0","j","NA","space","space","space","NA","j","602","NA","5174","12449","6872","NA","602","2","legacy","1024","2","48000","-16","task","5206907","odd","NA","31241","38418","33242","124946","4554","23879","17006","125447","NA","124945","125447","124900","38418","126051","29574","124400","4546","109477","Lexical Decision Task","44","34297","51","yes","1024"
"2.8162413","0","5","nusk","non-word","86.53846153846153","86.53846153846153","671.3653846153846","671.3653846153846","black","no","legacy","legacy","legacy","0","uniform","1","undefined","undefined","undefined","1","f","0","0","0","0","51","0","0","0","51","NA","47","51","47","0","47","3","51","0","51","Wed Feb 17 14:15:55 2021","The main experiment item","yes","Lexical_Decision_Task.osexp","E:/Uni/Y 2 -  C o g  a n d  L a n g/Assignment","no","Andale Mono","no","18","no","white","no","yes","576","legacy","47","47","3","E:/Uni/Y 2 -  C o g  a n d  L a n g/Assignment/subject-5206907.csv","legacy","Lentiform Loewenfeld","3.3.7","yes","yes","600bd7cfb6416f0113b04181","602110864497cf011d9c0822","0","f","NA","space","space","space","NA","f","614","NA","5174","12449","6872","NA","614","2","legacy","1024","2","48000","-16","task","5206907","odd","NA","31241","38418","33242","126608","4554","23879","17006","127109","NA","126607","127109","126562","38418","127724","29574","126062","4546","109477","Lexical Decision Task","45","34911","52","yes","1024"
"2.980306438","0","7","slun","non-word","86.79245283018868","86.79245283018868","669.7358490566038","669.7358490566038","black","no","legacy","legacy","legacy","0","uniform","1","undefined","undefined","undefined","1","f","0","0","0","0","52","0","0","0","52","NA","48","52","48","0","48","3","52","0","52","Wed Feb 17 14:15:55 2021","The main experiment item","yes","Lexical_Decision_Task.osexp","E:/Uni/Y 2 -  C o g  a n d  L a n g/Assignment","no","Andale Mono","no","18","no","white","no","yes","576","legacy","48","48","3","E:/Uni/Y 2 -  C o g  a n d  L a n g/Assignment/subject-5206907.csv","legacy","Lentiform Loewenfeld","3.3.7","yes","yes","600bd7cfb6416f0113b04181","602110864497cf011d9c0822","0","f","NA","space","space","space","NA","f","585","NA","5174","12449","6872","NA","585","2","legacy","1024","2","48000","-16","task","5206907","odd","NA","31241","38418","33242","128282","4554","23879","17006","128783","NA","128281","128783","128235","38418","129370","29574","127735","4546","109477","Lexical Decision Task","46","35496","53","yes","1024"
"3.195807436","0","6","stup","non-word","87.03703703703704","87.03703703703704","672.5555555555555","672.5555555555555","black","no","legacy","legacy","legacy","0","uniform","1","undefined","undefined","undefined","1","f","0","0","0","0","53","0","0","0","53","NA","49","53","49","0","49","3","53","0","53","Wed Feb 17 14:15:55 2021","The main experiment item","yes","Lexical_Decision_Task.osexp","E:/Uni/Y 2 -  C o g  a n d  L a n g/Assignment","no","Andale Mono","no","18","no","white","no","yes","576","legacy","49","49","3","E:/Uni/Y 2 -  C o g  a n d  L a n g/Assignment/subject-5206907.csv","legacy","Lentiform Loewenfeld","3.3.7","yes","yes","600bd7cfb6416f0113b04181","602110864497cf011d9c0822","0","f","NA","space","space","space","NA","f","822","NA","5174","12449","6872","NA","822","2","legacy","1024","2","48000","-16","task","5206907","odd","NA","31241","38418","33242","129925","4554","23879","17006","130426","NA","129924","130426","129880","38418","131249","29574","129380","4546","109477","Lexical Decision Task","47","36318","54","yes","1024"
"2.708989954","9.28","9","bowl","word","87.27272727272727","87.27272727272727","672.2","672.2","black","no","legacy","legacy","legacy","0","uniform","1","undefined","undefined","undefined","1","j","0","0","0","0","54","0","0","0","54","0","50","54","50","0","50","3","54","0","54","Wed Feb 17 14:15:55 2021","The main experiment item","yes","Lexical_Decision_Task.osexp","E:/Uni/Y 2 -  C o g  a n d  L a n g/Assignment","no","Andale Mono","no","18","no","white","no","yes","576","legacy","50","50","3","E:/Uni/Y 2 -  C o g  a n d  L a n g/Assignment/subject-5206907.csv","legacy","Lentiform Loewenfeld","3.3.7","yes","yes","600bd7cfb6416f0113b04181","602110864497cf011d9c0822","0","j","NA","space","space","space","space","j","653","NA","5174","12449","6872","4879","653","2","legacy","1024","2","48000","-16","task","5206907","odd","NA","31241","38418","33242","136723","4554","23879","17006","137224","131797","136721","137224","131759","38418","137878","29574","131259","4546","109477","Lexical Decision Task","48","36971","55","yes","1024"
"2.898725182","0","7","turl","non-word","87.5","87.5","672.1964285714286","672.1964285714286","black","no","legacy","legacy","legacy","0","uniform","1","undefined","undefined","undefined","1","f","0","0","0","0","55","0","0","0","55","0","51","55","51","0","51","3","55","0","55","Wed Feb 17 14:15:55 2021","The main experiment item","yes","Lexical_Decision_Task.osexp","E:/Uni/Y 2 -  C o g  a n d  L a n g/Assignment","no","Andale Mono","no","18","no","white","no","yes","576","legacy","51","51","3","E:/Uni/Y 2 -  C o g  a n d  L a n g/Assignment/subject-5206907.csv","legacy","Lentiform Loewenfeld","3.3.7","yes","yes","600bd7cfb6416f0113b04181","602110864497cf011d9c0822","0","f","NA","space","space","space","space","f","672","NA","5174","12449","6872","4879","672","2","legacy","1024","2","48000","-16","task","5206907","odd","NA","31241","38418","33242","138436","4554","23879","17006","138938","131797","138435","138938","138390","38418","139610","29574","137890","4546","109477","Lexical Decision Task","49","37643","56","yes","1024"
"3.082307743","9.68","8","camp","word","87.71929824561404","87.71929824561404","669.9298245614035","669.9298245614035","black","no","legacy","legacy","legacy","0","uniform","1","undefined","undefined","undefined","1","j","0","0","0","0","56","0","0","0","56","0","52","56","52","0","52","3","56","0","56","Wed Feb 17 14:15:55 2021","The main experiment item","yes","Lexical_Decision_Task.osexp","E:/Uni/Y 2 -  C o g  a n d  L a n g/Assignment","no","Andale Mono","no","18","no","white","no","yes","576","legacy","52","52","3","E:/Uni/Y 2 -  C o g  a n d  L a n g/Assignment/subject-5206907.csv","legacy","Lentiform Loewenfeld","3.3.7","yes","yes","600bd7cfb6416f0113b04181","602110864497cf011d9c0822","0","j","NA","space","space","space","space","j","543","NA","5174","12449","6872","4879","543","2","legacy","1024","2","48000","-16","task","5206907","odd","NA","31241","38418","33242","140176","4554","23879","17006","140677","131797","140174","140677","140122","38418","141221","29574","139622","4546","109477","Lexical Decision Task","50","38186","57","yes","1024"
"3.230789326","5.38","5","prim","word","86.20689655172414","86.20689655172414","674.9827586206897","674.9827586206897","black","no","legacy","legacy","legacy","0","uniform","0","undefined","undefined","undefined","0","j","0","0","0","0","57","0","0","0","57","0","53","57","53","0","53","3","57","0","57","Wed Feb 17 14:15:55 2021","The main experiment item","yes","Lexical_Decision_Task.osexp","E:/Uni/Y 2 -  C o g  a n d  L a n g/Assignment","no","Andale Mono","no","18","no","white","no","yes","576","legacy","53","53","3","E:/Uni/Y 2 -  C o g  a n d  L a n g/Assignment/subject-5206907.csv","legacy","Lentiform Loewenfeld","3.3.7","yes","yes","600bd7cfb6416f0113b04181","602110864497cf011d9c0822","0","f","NA","space","space","space","space","f","963","NA","5174","12449","6872","4879","963","2","legacy","1024","2","48000","-16","task","5206907","odd","NA","31241","38418","33242","141781","4554","23879","17006","142282","131797","141779","142282","141734","38418","143247","29574","141234","4546","109477","Lexical Decision Task","50","39149","58","yes","1024"
"3.105055783","0","2","norp","non-word","86.44067796610169","86.44067796610169","674.5932203389831","674.5932203389831","black","no","legacy","legacy","legacy","0","uniform","1","undefined","undefined","undefined","1","f","0","0","0","0","58","0","0","0","58","0","54","58","54","0","54","3","58","0","58","Wed Feb 17 14:15:55 2021","The main experiment item","yes","Lexical_Decision_Task.osexp","E:/Uni/Y 2 -  C o g  a n d  L a n g/Assignment","no","Andale Mono","no","18","no","white","no","yes","576","legacy","54","54","3","E:/Uni/Y 2 -  C o g  a n d  L a n g/Assignment/subject-5206907.csv","legacy","Lentiform Loewenfeld","3.3.7","yes","yes","600bd7cfb6416f0113b04181","602110864497cf011d9c0822","0","f","NA","space","space","space","space","f","652","NA","5174","12449","6872","4879","652","2","legacy","1024","2","48000","-16","task","5206907","odd","NA","31241","38418","33242","144809","4554","23879","17006","145310","131797","144807","145310","144759","38418","145963","29574","141234","4546","143259","Lexical Decision Task","51","39801","59","yes","1024"
"3.481012421","8.34","5","teen","word","86.66666666666667","86.66666666666667","672.7333333333333","672.7333333333333","black","no","legacy","legacy","legacy","0","uniform","1","undefined","undefined","undefined","1","j","0","0","0","0","59","0","0","0","59","0","55","59","55","0","55","3","59","0","59","Wed Feb 17 14:15:55 2021","The main experiment item","yes","Lexical_Decision_Task.osexp","E:/Uni/Y 2 -  C o g  a n d  L a n g/Assignment","no","Andale Mono","no","18","no","white","no","yes","576","legacy","55","55","3","E:/Uni/Y 2 -  C o g  a n d  L a n g/Assignment/subject-5206907.csv","legacy","Lentiform Loewenfeld","3.3.7","yes","yes","600bd7cfb6416f0113b04181","602110864497cf011d9c0822","0","j","NA","space","space","space","space","j","563","NA","5174","12449","6872","4879","563","2","legacy","1024","2","48000","-16","task","5206907","odd","NA","31241","38418","33242","146520","4554","23879","17006","147022","131797","146518","147022","146474","38418","147587","29574","145974","4546","143259","Lexical Decision Task","52","40364","60","yes","1024"
"3.372543801","9.24","8","coat","word","86.88524590163935","86.88524590163935","671.7704918032787","671.7704918032787","black","no","legacy","legacy","legacy","0","uniform","1","undefined","undefined","undefined","1","j","0","0","0","0","60","0","0","0","60","0","56","60","56","0","56","3","60","0","60","Wed Feb 17 14:15:55 2021","The main experiment item","yes","Lexical_Decision_Task.osexp","E:/Uni/Y 2 -  C o g  a n d  L a n g/Assignment","no","Andale Mono","no","18","no","white","no","yes","576","legacy","56","56","3","E:/Uni/Y 2 -  C o g  a n d  L a n g/Assignment/subject-5206907.csv","legacy","Lentiform Loewenfeld","3.3.7","yes","yes","600bd7cfb6416f0113b04181","602110864497cf011d9c0822","0","j","NA","space","space","space","space","j","614","NA","5174","12449","6872","4879","614","2","legacy","1024","2","48000","-16","task","5206907","odd","NA","31241","38418","33242","148143","4554","23879","17006","148645","131797","148142","148645","148097","38418","149261","29574","147597","4546","143259","Lexical Decision Task","53","40978","61","yes","1024"
"2.714888338","0","3","brug","non-word","87.09677419354838","87.09677419354838","673.741935483871","673.741935483871","black","no","legacy","legacy","legacy","0","uniform","1","undefined","undefined","undefined","1","f","0","0","0","0","61","0","0","0","61","0","57","61","57","0","57","3","61","0","61","Wed Feb 17 14:15:55 2021","The main experiment item","yes","Lexical_Decision_Task.osexp","E:/Uni/Y 2 -  C o g  a n d  L a n g/Assignment","no","Andale Mono","no","18","no","white","no","yes","576","legacy","57","57","3","E:/Uni/Y 2 -  C o g  a n d  L a n g/Assignment/subject-5206907.csv","legacy","Lentiform Loewenfeld","3.3.7","yes","yes","600bd7cfb6416f0113b04181","602110864497cf011d9c0822","0","f","NA","space","space","space","space","f","794","NA","5174","12449","6872","4879","794","2","legacy","1024","2","48000","-16","task","5206907","odd","NA","31241","38418","33242","149816","4554","23879","17006","150317","131797","149815","150317","149771","38418","151113","29574","149271","4546","143259","Lexical Decision Task","54","41772","62","yes","1024"
"2.69019608","9.01","2","myth","word","87.3015873015873","87.3015873015873","673.2698412698413","673.2698412698413","black","no","legacy","legacy","legacy","0","uniform","1","undefined","undefined","undefined","1","j","0","0","0","0","62","0","0","0","62","0","58","62","58","0","58","3","62","0","62","Wed Feb 17 14:15:55 2021","The main experiment item","yes","Lexical_Decision_Task.osexp","E:/Uni/Y 2 -  C o g  a n d  L a n g/Assignment","no","Andale Mono","no","18","no","white","no","yes","576","legacy","58","58","3","E:/Uni/Y 2 -  C o g  a n d  L a n g/Assignment/subject-5206907.csv","legacy","Lentiform Loewenfeld","3.3.7","yes","yes","600bd7cfb6416f0113b04181","602110864497cf011d9c0822","0","j","NA","space","space","space","space","j","644","NA","5174","12449","6872","4879","644","2","legacy","1024","2","48000","-16","task","5206907","odd","NA","31241","38418","33242","151674","4554","23879","17006","152175","131797","151673","152175","151624","38418","152820","29574","151123","4546","143259","Lexical Decision Task","55","42416","63","yes","1024"
"3.2757719","0","5","slea","non-word","87.5","87.5","676.453125","676.453125","black","no","legacy","legacy","legacy","0","uniform","1","undefined","undefined","undefined","1","f","0","0","0","0","63","0","0","0","63","0","59","63","59","0","59","3","63","0","63","Wed Feb 17 14:15:55 2021","The main experiment item","yes","Lexical_Decision_Task.osexp","E:/Uni/Y 2 -  C o g  a n d  L a n g/Assignment","no","Andale Mono","no","18","no","white","no","yes","576","legacy","59","59","3","E:/Uni/Y 2 -  C o g  a n d  L a n g/Assignment/subject-5206907.csv","legacy","Lentiform Loewenfeld","3.3.7","yes","yes","600bd7cfb6416f0113b04181","602110864497cf011d9c0822","0","f","NA","space","space","space","space","f","877","NA","5174","12449","6872","4879","877","2","legacy","1024","2","48000","-16","task","5206907","odd","NA","31241","38418","33242","153377","4554","23879","17006","153878","131797","153376","153878","153330","38418","154757","29574","152830","4546","143259","Lexical Decision Task","56","43293","64","yes","1024"
"3.22685757","9.99","7","roll","word","87.6923076923077","87.6923076923077","674.4615384615385","674.4615384615385","black","no","legacy","legacy","legacy","0","uniform","1","undefined","undefined","undefined","1","j","0","0","0","0","64","0","0","0","64","0","60","64","60","0","60","3","64","0","64","Wed Feb 17 14:15:55 2021","The main experiment item","yes","Lexical_Decision_Task.osexp","E:/Uni/Y 2 -  C o g  a n d  L a n g/Assignment","no","Andale Mono","no","18","no","white","no","yes","576","legacy","60","60","3","E:/Uni/Y 2 -  C o g  a n d  L a n g/Assignment/subject-5206907.csv","legacy","Lentiform Loewenfeld","3.3.7","yes","yes","600bd7cfb6416f0113b04181","602110864497cf011d9c0822","0","j","NA","space","space","space","space","j","547","NA","5174","12449","6872","4879","547","2","legacy","1024","2","48000","-16","task","5206907","odd","NA","31241","38418","33242","155314","4554","23879","17006","155815","131797","155313","155815","155267","38418","156363","29574","154767","4546","143259","Lexical Decision Task","57","43840","65","yes","1024"
"2.793790385","5.67","9","swab","word","87.87878787878788","87.87878787878788","672.469696969697","672.469696969697","black","no","legacy","legacy","legacy","0","uniform","1","undefined","undefined","undefined","1","j","0","0","0","0","65","0","0","0","65","0","61","65","61","0","61","3","65","0","65","Wed Feb 17 14:15:55 2021","The main experiment item","yes","Lexical_Decision_Task.osexp","E:/Uni/Y 2 -  C o g  a n d  L a n g/Assignment","no","Andale Mono","no","18","no","white","no","yes","576","legacy","61","61","3","E:/Uni/Y 2 -  C o g  a n d  L a n g/Assignment/subject-5206907.csv","legacy","Lentiform Loewenfeld","3.3.7","yes","yes","600bd7cfb6416f0113b04181","602110864497cf011d9c0822","0","j","NA","space","space","space","space","j","543","NA","5174","12449","6872","4879","543","2","legacy","1024","2","48000","-16","task","5206907","odd","NA","31241","38418","33242","156921","4554","23879","17006","157423","131797","156919","157423","156875","38418","157967","29574","156375","4546","143259","Lexical Decision Task","58","44383","66","yes","1024"
"2.924968096","0","4","phim","non-word","88.05970149253731","88.05970149253731","671.6417910447761","671.6417910447761","black","no","legacy","legacy","legacy","0","uniform","1","undefined","undefined","undefined","1","f","0","0","0","0","66","0","0","0","66","0","62","66","62","0","62","3","66","0","66","Wed Feb 17 14:15:55 2021","The main experiment item","yes","Lexical_Decision_Task.osexp","E:/Uni/Y 2 -  C o g  a n d  L a n g/Assignment","no","Andale Mono","no","18","no","white","no","yes","576","legacy","62","62","3","E:/Uni/Y 2 -  C o g  a n d  L a n g/Assignment/subject-5206907.csv","legacy","Lentiform Loewenfeld","3.3.7","yes","yes","600bd7cfb6416f0113b04181","602110864497cf011d9c0822","0","f","NA","space","space","space","space","f","617","NA","5174","12449","6872","4879","617","2","legacy","1024","2","48000","-16","task","5206907","odd","NA","31241","38418","33242","158523","4554","23879","17006","159024","131797","158521","159024","158477","38418","159642","29574","157977","4546","143259","Lexical Decision Task","59","45000","67","yes","1024"
"3.121778632","0","9","sark","non-word","88.23529411764706","88.23529411764706","672.3970588235294","672.3970588235294","black","no","legacy","legacy","legacy","0","uniform","1","undefined","undefined","undefined","1","f","0","0","0","0","67","0","0","0","67","0","63","67","63","0","63","3","67","0","67","Wed Feb 17 14:15:55 2021","The main experiment item","yes","Lexical_Decision_Task.osexp","E:/Uni/Y 2 -  C o g  a n d  L a n g/Assignment","no","Andale Mono","no","18","no","white","no","yes","576","legacy","63","63","3","E:/Uni/Y 2 -  C o g  a n d  L a n g/Assignment/subject-5206907.csv","legacy","Lentiform Loewenfeld","3.3.7","yes","yes","600bd7cfb6416f0113b04181","602110864497cf011d9c0822","0","f","NA","space","space","space","space","f","723","NA","5174","12449","6872","4879","723","2","legacy","1024","2","48000","-16","task","5206907","odd","NA","31241","38418","33242","160199","4554","23879","17006","160700","131797","160197","160700","160154","38418","161424","29574","159654","4546","143259","Lexical Decision Task","60","45723","68","yes","1024"
"3.531734309","0","6","lerd","non-word","88.40579710144928","88.40579710144928","672.3478260869565","672.3478260869565","black","no","legacy","legacy","legacy","0","uniform","1","undefined","undefined","undefined","1","f","0","0","0","0","68","0","0","0","68","0","64","68","64","0","64","3","68","0","68","Wed Feb 17 14:15:55 2021","The main experiment item","yes","Lexical_Decision_Task.osexp","E:/Uni/Y 2 -  C o g  a n d  L a n g/Assignment","no","Andale Mono","no","18","no","white","no","yes","576","legacy","64","64","3","E:/Uni/Y 2 -  C o g  a n d  L a n g/Assignment/subject-5206907.csv","legacy","Lentiform Loewenfeld","3.3.7","yes","yes","600bd7cfb6416f0113b04181","602110864497cf011d9c0822","0","f","NA","space","space","space","space","f","669","NA","5174","12449","6872","4879","669","2","legacy","1024","2","48000","-16","task","5206907","odd","NA","31241","38418","33242","161983","4554","23879","17006","162484","131797","161982","162484","161936","38418","163155","29574","161436","4546","143259","Lexical Decision Task","61","46392","69","yes","1024"
"3.031812271","6.52","3","gulp","word","88.57142857142857","88.57142857142857","671.6","671.6","black","no","legacy","legacy","legacy","0","uniform","1","undefined","undefined","undefined","1","j","0","0","0","0","69","0","0","0","69","0","65","69","65","0","65","3","69","0","69","Wed Feb 17 14:15:55 2021","The main experiment item","yes","Lexical_Decision_Task.osexp","E:/Uni/Y 2 -  C o g  a n d  L a n g/Assignment","no","Andale Mono","no","18","no","white","no","yes","576","legacy","65","65","3","E:/Uni/Y 2 -  C o g  a n d  L a n g/Assignment/subject-5206907.csv","legacy","Lentiform Loewenfeld","3.3.7","yes","yes","600bd7cfb6416f0113b04181","602110864497cf011d9c0822","0","j","NA","space","space","space","space","j","620","NA","5174","12449","6872","4879","620","2","legacy","1024","2","48000","-16","task","5206907","odd","NA","31241","38418","33242","163712","4554","23879","17006","164213","131797","163710","164213","163666","38418","164835","29574","163166","4546","143259","Lexical Decision Task","62","47012","70","yes","1024"
"3.307211407","6.07","7","honk","word","88.73239436619718","88.73239436619718","670.4647887323944","670.4647887323944","black","no","legacy","legacy","legacy","0","uniform","1","undefined","undefined","undefined","1","j","0","0","0","0","70","0","0","0","70","0","66","70","66","0","66","3","70","0","70","Wed Feb 17 14:15:55 2021","The main experiment item","yes","Lexical_Decision_Task.osexp","E:/Uni/Y 2 -  C o g  a n d  L a n g/Assignment","no","Andale Mono","no","18","no","white","no","yes","576","legacy","66","66","3","E:/Uni/Y 2 -  C o g  a n d  L a n g/Assignment/subject-5206907.csv","legacy","Lentiform Loewenfeld","3.3.7","yes","yes","600bd7cfb6416f0113b04181","602110864497cf011d9c0822","0","j","NA","space","space","space","space","j","591","NA","5174","12449","6872","4879","591","2","legacy","1024","2","48000","-16","task","5206907","odd","NA","31241","38418","33242","165391","4554","23879","17006","165892","131797","165389","165892","165345","38418","166484","29574","164845","4546","143259","Lexical Decision Task","63","47603","71","yes","1024"
"3.149629599","0","2","cleb","non-word","88.88888888888889","88.88888888888889","671.625","671.625","black","no","legacy","legacy","legacy","0","uniform","1","undefined","undefined","undefined","1","f","0","0","0","0","71","0","0","0","71","0","67","71","67","0","67","3","71","0","71","Wed Feb 17 14:15:55 2021","The main experiment item","yes","Lexical_Decision_Task.osexp","E:/Uni/Y 2 -  C o g  a n d  L a n g/Assignment","no","Andale Mono","no","18","no","white","no","yes","576","legacy","67","67","3","E:/Uni/Y 2 -  C o g  a n d  L a n g/Assignment/subject-5206907.csv","legacy","Lentiform Loewenfeld","3.3.7","yes","yes","600bd7cfb6416f0113b04181","602110864497cf011d9c0822","0","f","NA","space","space","space","space","f","754","NA","5174","12449","6872","4879","754","2","legacy","1024","2","48000","-16","task","5206907","odd","NA","31241","38418","33242","167041","4554","23879","17006","167542","131797","167040","167542","166996","38418","168297","29574","166495","4546","143259","Lexical Decision Task","64","48357","72","yes","1024"
"2.979548375","8.71","4","soup","word","89.04109589041096","89.04109589041096","670.3561643835617","670.3561643835617","black","no","legacy","legacy","legacy","0","uniform","1","undefined","undefined","undefined","1","j","0","0","0","0","72","0","0","0","72","0","68","72","68","0","68","3","72","0","72","Wed Feb 17 14:15:55 2021","The main experiment item","yes","Lexical_Decision_Task.osexp","E:/Uni/Y 2 -  C o g  a n d  L a n g/Assignment","no","Andale Mono","no","18","no","white","no","yes","576","legacy","68","68","3","E:/Uni/Y 2 -  C o g  a n d  L a n g/Assignment/subject-5206907.csv","legacy","Lentiform Loewenfeld","3.3.7","yes","yes","600bd7cfb6416f0113b04181","602110864497cf011d9c0822","0","j","NA","space","space","space","space","j","579","NA","5174","12449","6872","4879","579","2","legacy","1024","2","48000","-16","task","5206907","odd","NA","31241","38418","33242","168854","4554","23879","17006","169355","131797","168852","169355","168807","38418","169936","29574","168307","4546","143259","Lexical Decision Task","65","48936","73","yes","1024"
"3.460446784","0","5","dess","non-word","87.83783783783784","87.83783783783784","668.2432432432432","668.2432432432432","black","no","legacy","legacy","legacy","0","uniform","0","undefined","undefined","undefined","0","f","0","0","0","0","73","0","0","0","73","0","69","73","69","0","69","3","73","0","73","Wed Feb 17 14:15:55 2021","The main experiment item","yes","Lexical_Decision_Task.osexp","E:/Uni/Y 2 -  C o g  a n d  L a n g/Assignment","no","Andale Mono","no","18","no","white","no","yes","576","legacy","69","69","3","E:/Uni/Y 2 -  C o g  a n d  L a n g/Assignment/subject-5206907.csv","legacy","Lentiform Loewenfeld","3.3.7","yes","yes","600bd7cfb6416f0113b04181","602110864497cf011d9c0822","0","j","NA","space","space","space","space","j","514","NA","5174","12449","6872","4879","514","2","legacy","1024","2","48000","-16","task","5206907","odd","NA","31241","38418","33242","170516","4554","23879","17006","171017","131797","170514","171017","170470","38418","171533","29574","169970","4546","143259","Lexical Decision Task","65","49450","74","yes","1024"
"2.996511672","0","7","hoil","non-word","88","88","672.1866666666666","672.1866666666666","black","no","legacy","legacy","legacy","0","uniform","1","undefined","undefined","undefined","1","f","0","0","0","0","74","0","0","0","74","0","70","74","70","0","70","3","74","0","74","Wed Feb 17 14:15:55 2021","The main experiment item","yes","Lexical_Decision_Task.osexp","E:/Uni/Y 2 -  C o g  a n d  L a n g/Assignment","no","Andale Mono","no","18","no","white","no","yes","576","legacy","70","70","3","E:/Uni/Y 2 -  C o g  a n d  L a n g/Assignment/subject-5206907.csv","legacy","Lentiform Loewenfeld","3.3.7","yes","yes","600bd7cfb6416f0113b04181","602110864497cf011d9c0822","0","f","NA","space","space","space","space","f","964","NA","5174","12449","6872","4879","964","2","legacy","1024","2","48000","-16","task","5206907","odd","NA","31241","38418","33242","173092","4554","23879","17006","173593","131797","173091","173593","173044","38418","174559","29574","169970","4546","171544","Lexical Decision Task","66","50414","75","yes","1024"
"2.755364069","7.72","2","hoax","word","88.15789473684211","88.15789473684211","672.0921052631579","672.0921052631579","black","no","legacy","legacy","legacy","0","uniform","1","undefined","undefined","undefined","1","j","0","0","0","0","75","0","0","0","75","0","71","75","71","0","71","3","75","0","75","Wed Feb 17 14:15:55 2021","The main experiment item","yes","Lexical_Decision_Task.osexp","E:/Uni/Y 2 -  C o g  a n d  L a n g/Assignment","no","Andale Mono","no","18","no","white","no","yes","576","legacy","71","71","3","E:/Uni/Y 2 -  C o g  a n d  L a n g/Assignment/subject-5206907.csv","legacy","Lentiform Loewenfeld","3.3.7","yes","yes","600bd7cfb6416f0113b04181","602110864497cf011d9c0822","0","j","NA","space","space","space","space","j","665","NA","5174","12449","6872","4879","665","2","legacy","1024","2","48000","-16","task","5206907","odd","NA","31241","38418","33242","175117","4554","23879","17006","175618","131797","175116","175619","175071","38418","176286","29574","174571","4546","171544","Lexical Decision Task","67","51079","76","yes","1024"
"3.382617311","0","4","pret","non-word","88.31168831168831","88.31168831168831","673.7272727272727","673.7272727272727","black","no","legacy","legacy","legacy","0","uniform","1","undefined","undefined","undefined","1","f","0","0","0","0","76","0","0","0","76","0","72","76","72","0","72","3","76","0","76","Wed Feb 17 14:15:55 2021","The main experiment item","yes","Lexical_Decision_Task.osexp","E:/Uni/Y 2 -  C o g  a n d  L a n g/Assignment","no","Andale Mono","no","18","no","white","no","yes","576","legacy","72","72","3","E:/Uni/Y 2 -  C o g  a n d  L a n g/Assignment/subject-5206907.csv","legacy","Lentiform Loewenfeld","3.3.7","yes","yes","600bd7cfb6416f0113b04181","602110864497cf011d9c0822","0","f","NA","space","space","space","space","f","798","NA","5174","12449","6872","4879","798","2","legacy","1024","2","48000","-16","task","5206907","odd","NA","31241","38418","33242","176842","4554","23879","17006","177343","131797","176841","177343","176796","38418","178143","29574","176296","4546","171544","Lexical Decision Task","68","51877","77","yes","1024"
"3.194328374","9.42","6","harm","word","88.46153846153847","88.46153846153847","672.7435897435897","672.7435897435897","black","no","legacy","legacy","legacy","0","uniform","1","undefined","undefined","undefined","1","j","0","0","0","0","77","0","0","0","77","0","73","77","73","0","73","3","77","0","77","Wed Feb 17 14:15:55 2021","The main experiment item","yes","Lexical_Decision_Task.osexp","E:/Uni/Y 2 -  C o g  a n d  L a n g/Assignment","no","Andale Mono","no","18","no","white","no","yes","576","legacy","73","73","3","E:/Uni/Y 2 -  C o g  a n d  L a n g/Assignment/subject-5206907.csv","legacy","Lentiform Loewenfeld","3.3.7","yes","yes","600bd7cfb6416f0113b04181","602110864497cf011d9c0822","0","j","NA","space","space","space","space","j","597","NA","5174","12449","6872","4879","597","2","legacy","1024","2","48000","-16","task","5206907","odd","NA","31241","38418","33242","178700","4554","23879","17006","179201","131797","178698","179201","178654","38418","179800","29574","178154","4546","171544","Lexical Decision Task","69","52474","78","yes","1024"
"2.695770526","7.34","6","pawn","word","88.60759493670886","88.60759493670886","673.2151898734177","673.2151898734177","black","no","legacy","legacy","legacy","0","uniform","1","undefined","undefined","undefined","1","j","0","0","0","0","78","0","0","0","78","0","74","78","74","0","74","3","78","0","78","Wed Feb 17 14:15:55 2021","The main experiment item","yes","Lexical_Decision_Task.osexp","E:/Uni/Y 2 -  C o g  a n d  L a n g/Assignment","no","Andale Mono","no","18","no","white","no","yes","576","legacy","74","74","3","E:/Uni/Y 2 -  C o g  a n d  L a n g/Assignment/subject-5206907.csv","legacy","Lentiform Loewenfeld","3.3.7","yes","yes","600bd7cfb6416f0113b04181","602110864497cf011d9c0822","0","j","NA","space","space","space","space","j","710","NA","5174","12449","6872","4879","710","2","legacy","1024","2","48000","-16","task","5206907","odd","NA","31241","38418","33242","180356","4554","23879","17006","180857","131797","180354","180857","180310","38418","181568","29574","179810","4546","171544","Lexical Decision Task","70","53184","79","yes","1024"
"3.259832699","0","9","flar","non-word","88.75","88.75","674.725","674.725","black","no","legacy","legacy","legacy","0","uniform","1","undefined","undefined","undefined","1","f","0","0","0","0","79","0","0","0","79","0","75","79","75","0","75","3","79","0","79","Wed Feb 17 14:15:55 2021","The main experiment item","yes","Lexical_Decision_Task.osexp","E:/Uni/Y 2 -  C o g  a n d  L a n g/Assignment","no","Andale Mono","no","18","no","white","no","yes","576","legacy","75","75","3","E:/Uni/Y 2 -  C o g  a n d  L a n g/Assignment/subject-5206907.csv","legacy","Lentiform Loewenfeld","3.3.7","yes","yes","600bd7cfb6416f0113b04181","602110864497cf011d9c0822","0","f","NA","space","space","space","space","f","794","NA","5174","12449","6872","4879","794","2","legacy","1024","2","48000","-16","task","5206907","odd","NA","31241","38418","33242","182125","4554","23879","17006","182626","131797","182124","182626","182079","38418","183421","29574","181579","4546","171544","Lexical Decision Task","71","53978","80","yes","1024"
"3.153104174","10.89","6","door","word","88.88888888888889","88.88888888888889","672.2098765432099","672.2098765432099","black","no","legacy","legacy","legacy","0","uniform","1","undefined","undefined","undefined","1","j","0","0","0","0","80","0","0","0","80","0","76","80","76","0","76","3","80","0","80","Wed Feb 17 14:15:55 2021","The main experiment item","yes","Lexical_Decision_Task.osexp","E:/Uni/Y 2 -  C o g  a n d  L a n g/Assignment","no","Andale Mono","no","18","no","white","no","yes","576","legacy","76","76","3","E:/Uni/Y 2 -  C o g  a n d  L a n g/Assignment/subject-5206907.csv","legacy","Lentiform Loewenfeld","3.3.7","yes","yes","600bd7cfb6416f0113b04181","602110864497cf011d9c0822","0","j","NA","space","space","space","space","j","471","NA","5174","12449","6872","4879","471","2","legacy","1024","2","48000","-16","task","5206907","odd","NA","31241","38418","33242","183981","4554","23879","17006","184483","131797","183980","184483","183935","38418","184955","29574","183435","4546","171544","Lexical Decision Task","72","54449","81","yes","1024"
"2.880623071","0","9","curp","non-word","89.02439024390245","89.02439024390245","673.609756097561","673.609756097561","black","no","legacy","legacy","legacy","0","uniform","1","undefined","undefined","undefined","1","f","0","0","0","0","81","0","0","0","81","0","77","81","77","0","77","3","81","0","81","Wed Feb 17 14:15:55 2021","The main experiment item","yes","Lexical_Decision_Task.osexp","E:/Uni/Y 2 -  C o g  a n d  L a n g/Assignment","no","Andale Mono","no","18","no","white","no","yes","576","legacy","77","77","3","E:/Uni/Y 2 -  C o g  a n d  L a n g/Assignment/subject-5206907.csv","legacy","Lentiform Loewenfeld","3.3.7","yes","yes","600bd7cfb6416f0113b04181","602110864497cf011d9c0822","0","f","NA","space","space","space","space","f","787","NA","5174","12449","6872","4879","787","2","legacy","1024","2","48000","-16","task","5206907","odd","NA","31241","38418","33242","185511","4554","23879","17006","186012","131797","185509","186012","185465","38418","186800","29574","184965","4546","171544","Lexical Decision Task","73","55236","82","yes","1024"
"3.311895072","0","9","gung","non-word","89.1566265060241","89.1566265060241","675.7349397590361","675.7349397590361","black","no","legacy","legacy","legacy","0","uniform","1","undefined","undefined","undefined","1","f","0","0","0","0","82","0","0","0","82","0","78","82","78","0","78","3","82","0","82","Wed Feb 17 14:15:55 2021","The main experiment item","yes","Lexical_Decision_Task.osexp","E:/Uni/Y 2 -  C o g  a n d  L a n g/Assignment","no","Andale Mono","no","18","no","white","no","yes","576","legacy","78","78","3","E:/Uni/Y 2 -  C o g  a n d  L a n g/Assignment/subject-5206907.csv","legacy","Lentiform Loewenfeld","3.3.7","yes","yes","600bd7cfb6416f0113b04181","602110864497cf011d9c0822","0","f","NA","space","space","space","space","f","850","NA","5174","12449","6872","4879","850","2","legacy","1024","2","48000","-16","task","5206907","odd","NA","31241","38418","33242","187358","4554","23879","17006","187859","131797","187357","187859","187313","38418","188710","29574","186810","4546","171544","Lexical Decision Task","74","56086","83","yes","1024"
"2.953276337","6.32","4","thaw","word","89.28571428571429","89.28571428571429","678.0357142857143","678.0357142857143","black","no","legacy","legacy","legacy","0","uniform","1","undefined","undefined","undefined","1","j","0","0","0","0","83","0","0","0","83","0","79","83","79","0","79","3","83","0","83","Wed Feb 17 14:15:55 2021","The main experiment item","yes","Lexical_Decision_Task.osexp","E:/Uni/Y 2 -  C o g  a n d  L a n g/Assignment","no","Andale Mono","no","18","no","white","no","yes","576","legacy","79","79","3","E:/Uni/Y 2 -  C o g  a n d  L a n g/Assignment/subject-5206907.csv","legacy","Lentiform Loewenfeld","3.3.7","yes","yes","600bd7cfb6416f0113b04181","602110864497cf011d9c0822","0","j","NA","space","space","space","space","j","869","NA","5174","12449","6872","4879","869","2","legacy","1024","2","48000","-16","task","5206907","odd","NA","31241","38418","33242","189266","4554","23879","17006","189767","131797","189265","189767","189221","38418","190637","29574","188721","4546","171544","Lexical Decision Task","75","56955","84","yes","1024"
"3.431095062","5.74","9","perk","word","89.41176470588235","89.41176470588235","679.2823529411764","679.2823529411764","black","no","legacy","legacy","legacy","0","uniform","1","undefined","undefined","undefined","1","j","0","0","0","0","84","0","0","0","84","0","80","84","80","0","80","3","84","0","84","Wed Feb 17 14:15:55 2021","The main experiment item","yes","Lexical_Decision_Task.osexp","E:/Uni/Y 2 -  C o g  a n d  L a n g/Assignment","no","Andale Mono","no","18","no","white","no","yes","576","legacy","80","80","3","E:/Uni/Y 2 -  C o g  a n d  L a n g/Assignment/subject-5206907.csv","legacy","Lentiform Loewenfeld","3.3.7","yes","yes","600bd7cfb6416f0113b04181","602110864497cf011d9c0822","0","j","NA","space","space","space","space","j","784","NA","5174","12449","6872","4879","784","2","legacy","1024","2","48000","-16","task","5206907","odd","NA","31241","38418","33242","191192","4554","23879","17006","191693","131797","191190","191693","191147","38418","192478","29574","190647","4546","171544","Lexical Decision Task","76","57739","85","yes","1024"
"3.261341392","5.08","8","reek","word","89.53488372093024","89.53488372093024","679.8953488372093","679.8953488372093","black","no","legacy","legacy","legacy","0","uniform","1","undefined","undefined","undefined","1","j","0","0","0","0","85","0","0","0","85","0","81","85","81","0","81","3","85","0","85","Wed Feb 17 14:15:55 2021","The main experiment item","yes","Lexical_Decision_Task.osexp","E:/Uni/Y 2 -  C o g  a n d  L a n g/Assignment","no","Andale Mono","no","18","no","white","no","yes","576","legacy","81","81","3","E:/Uni/Y 2 -  C o g  a n d  L a n g/Assignment/subject-5206907.csv","legacy","Lentiform Loewenfeld","3.3.7","yes","yes","600bd7cfb6416f0113b04181","602110864497cf011d9c0822","0","j","NA","space","space","space","space","j","732","NA","5174","12449","6872","4879","732","2","legacy","1024","2","48000","-16","task","5206907","odd","NA","31241","38418","33242","193034","4554","23879","17006","193536","131797","193032","193536","192988","38418","194269","29574","192488","4546","171544","Lexical Decision Task","77","58471","86","yes","1024"
"3.064581521","5.51","6","cask","word","89.65517241379311","89.65517241379311","680.6436781609195","680.6436781609195","black","no","legacy","legacy","legacy","0","uniform","1","undefined","undefined","undefined","1","j","0","0","0","0","86","0","0","0","86","0","82","86","82","0","82","3","86","0","86","Wed Feb 17 14:15:55 2021","The main experiment item","yes","Lexical_Decision_Task.osexp","E:/Uni/Y 2 -  C o g  a n d  L a n g/Assignment","no","Andale Mono","no","18","no","white","no","yes","576","legacy","82","82","3","E:/Uni/Y 2 -  C o g  a n d  L a n g/Assignment/subject-5206907.csv","legacy","Lentiform Loewenfeld","3.3.7","yes","yes","600bd7cfb6416f0113b04181","602110864497cf011d9c0822","0","j","NA","space","space","space","space","j","745","NA","5174","12449","6872","4879","745","2","legacy","1024","2","48000","-16","task","5206907","odd","NA","31241","38418","33242","194827","4554","23879","17006","195327","131797","194826","195327","194781","38418","196073","29574","194280","4546","171544","Lexical Decision Task","78","59216","87","yes","1024"
"2.892836167","10.01","5","soft","word","89.77272727272727","89.77272727272727","679.1931818181819","679.1931818181819","black","no","legacy","legacy","legacy","0","uniform","1","undefined","undefined","undefined","1","j","0","0","0","0","87","0","0","0","87","0","83","87","83","0","83","3","87","0","87","Wed Feb 17 14:15:55 2021","The main experiment item","yes","Lexical_Decision_Task.osexp","E:/Uni/Y 2 -  C o g  a n d  L a n g/Assignment","no","Andale Mono","no","18","no","white","no","yes","576","legacy","83","83","3","E:/Uni/Y 2 -  C o g  a n d  L a n g/Assignment/subject-5206907.csv","legacy","Lentiform Loewenfeld","3.3.7","yes","yes","600bd7cfb6416f0113b04181","602110864497cf011d9c0822","0","j","NA","space","space","space","space","j","553","NA","5174","12449","6872","4879","553","2","legacy","1024","2","48000","-16","task","5206907","odd","NA","31241","38418","33242","196631","4554","23879","17006","197132","131797","196629","197132","196585","38418","197686","29574","196085","4546","171544","Lexical Decision Task","79","59769","88","yes","1024"
"2.67699827","0","6","hulf","non-word","89.88764044943821","89.88764044943821","684.8202247191011","684.8202247191011","black","no","legacy","legacy","legacy","0","uniform","1","undefined","undefined","undefined","1","f","0","0","0","0","88","0","0","0","88","0","84","88","84","0","84","3","88","0","88","Wed Feb 17 14:15:55 2021","The main experiment item","yes","Lexical_Decision_Task.osexp","E:/Uni/Y 2 -  C o g  a n d  L a n g/Assignment","no","Andale Mono","no","18","no","white","no","yes","576","legacy","84","84","3","E:/Uni/Y 2 -  C o g  a n d  L a n g/Assignment/subject-5206907.csv","legacy","Lentiform Loewenfeld","3.3.7","yes","yes","600bd7cfb6416f0113b04181","602110864497cf011d9c0822","0","f","NA","space","space","space","space","f","1180","NA","5174","12449","6872","4879","1180","2","legacy","1024","2","48000","-16","task","5206907","odd","NA","31241","38418","33242","198245","4554","23879","17006","198746","131797","198244","198746","198198","38418","199928","29574","197698","4546","171544","Lexical Decision Task","80","60949","89","yes","1024"
"3.140404328","10.66","9","deep","word","90","90","683.1222222222223","683.1222222222223","black","no","legacy","legacy","legacy","0","uniform","1","undefined","undefined","undefined","1","j","0","0","0","0","89","0","0","0","89","0","85","89","85","0","85","3","89","0","89","Wed Feb 17 14:15:55 2021","The main experiment item","yes","Lexical_Decision_Task.osexp","E:/Uni/Y 2 -  C o g  a n d  L a n g/Assignment","no","Andale Mono","no","18","no","white","no","yes","576","legacy","85","85","3","E:/Uni/Y 2 -  C o g  a n d  L a n g/Assignment/subject-5206907.csv","legacy","Lentiform Loewenfeld","3.3.7","yes","yes","600bd7cfb6416f0113b04181","602110864497cf011d9c0822","0","j","NA","space","space","space","space","j","532","NA","5174","12449","6872","4879","532","2","legacy","1024","2","48000","-16","task","5206907","odd","NA","31241","38418","33242","200485","4554","23879","17006","200986","131797","200484","200987","200438","38418","201520","29574","199938","4546","171544","Lexical Decision Task","81","61481","90","yes","1024"
"3.120025233","0","2","nyst","non-word","90.10989010989012","90.10989010989012","684.978021978022","684.978021978022","black","no","legacy","legacy","legacy","0","uniform","1","undefined","undefined","undefined","1","f","0","0","0","0","90","0","0","0","90","0","86","90","86","0","86","3","90","0","90","Wed Feb 17 14:15:55 2021","The main experiment item","yes","Lexical_Decision_Task.osexp","E:/Uni/Y 2 -  C o g  a n d  L a n g/Assignment","no","Andale Mono","no","18","no","white","no","yes","576","legacy","86","86","3","E:/Uni/Y 2 -  C o g  a n d  L a n g/Assignment/subject-5206907.csv","legacy","Lentiform Loewenfeld","3.3.7","yes","yes","600bd7cfb6416f0113b04181","602110864497cf011d9c0822","0","f","NA","space","space","space","space","f","852","NA","5174","12449","6872","4879","852","2","legacy","1024","2","48000","-16","task","5206907","odd","NA","31241","38418","33242","202076","4554","23879","17006","202577","131797","202075","202577","202031","38418","203430","29574","201531","4546","171544","Lexical Decision Task","82","62333","91","yes","1024"
"3.003891166","8.05","2","frog","word","90.21739130434783","90.21739130434783","683.75","683.75","black","no","legacy","legacy","legacy","0","uniform","1","undefined","undefined","undefined","1","j","0","0","0","0","91","0","0","0","91","0","87","91","87","0","87","3","91","0","91","Wed Feb 17 14:15:55 2021","The main experiment item","yes","Lexical_Decision_Task.osexp","E:/Uni/Y 2 -  C o g  a n d  L a n g/Assignment","no","Andale Mono","no","18","no","white","no","yes","576","legacy","87","87","3","E:/Uni/Y 2 -  C o g  a n d  L a n g/Assignment/subject-5206907.csv","legacy","Lentiform Loewenfeld","3.3.7","yes","yes","600bd7cfb6416f0113b04181","602110864497cf011d9c0822","0","j","NA","space","space","space","space","j","572","NA","5174","12449","6872","4879","572","2","legacy","1024","2","48000","-16","task","5206907","odd","NA","31241","38418","33242","203986","4554","23879","17006","204487","131797","203985","204487","203941","38418","205060","29574","203441","4546","171544","Lexical Decision Task","83","62905","92","yes","1024"
"2.709837904","6.85","8","skim","word","90.3225806451613","90.3225806451613","681.9784946236559","681.9784946236559","black","no","legacy","legacy","legacy","0","uniform","1","undefined","undefined","undefined","1","j","0","0","0","0","92","0","0","0","92","0","88","92","88","0","88","3","92","0","92","Wed Feb 17 14:15:55 2021","The main experiment item","yes","Lexical_Decision_Task.osexp","E:/Uni/Y 2 -  C o g  a n d  L a n g/Assignment","no","Andale Mono","no","18","no","white","no","yes","576","legacy","88","88","3","E:/Uni/Y 2 -  C o g  a n d  L a n g/Assignment/subject-5206907.csv","legacy","Lentiform Loewenfeld","3.3.7","yes","yes","600bd7cfb6416f0113b04181","602110864497cf011d9c0822","0","j","NA","space","space","space","space","j","519","NA","5174","12449","6872","4879","519","2","legacy","1024","2","48000","-16","task","5206907","odd","NA","31241","38418","33242","205621","4554","23879","17006","206122","131797","205619","206122","205570","38418","206642","29574","205070","4546","171544","Lexical Decision Task","84","63424","93","yes","1024"
"3.374137706","10.21","4","tree","word","90.42553191489361","90.42553191489361","682.2127659574468","682.2127659574468","black","no","legacy","legacy","legacy","0","uniform","1","undefined","undefined","undefined","1","j","0","0","0","0","93","0","0","0","93","0","89","93","89","0","89","3","93","0","93","Wed Feb 17 14:15:55 2021","The main experiment item","yes","Lexical_Decision_Task.osexp","E:/Uni/Y 2 -  C o g  a n d  L a n g/Assignment","no","Andale Mono","no","18","no","white","no","yes","576","legacy","89","89","3","E:/Uni/Y 2 -  C o g  a n d  L a n g/Assignment/subject-5206907.csv","legacy","Lentiform Loewenfeld","3.3.7","yes","yes","600bd7cfb6416f0113b04181","602110864497cf011d9c0822","0","j","NA","space","space","space","space","j","704","NA","5174","12449","6872","4879","704","2","legacy","1024","2","48000","-16","task","5206907","odd","NA","31241","38418","33242","207198","4554","23879","17006","207699","131797","207196","207699","207153","38418","208404","29574","206653","4546","171544","Lexical Decision Task","85","64128","94","yes","1024"
"2.695481676","0","7","goke","non-word","90.52631578947368","90.52631578947368","684","684","black","no","legacy","legacy","legacy","0","uniform","1","undefined","undefined","undefined","1","f","0","0","0","0","94","0","0","0","94","0","90","94","90","0","90","3","94","0","94","Wed Feb 17 14:15:55 2021","The main experiment item","yes","Lexical_Decision_Task.osexp","E:/Uni/Y 2 -  C o g  a n d  L a n g/Assignment","no","Andale Mono","no","18","no","white","no","yes","576","legacy","90","90","3","E:/Uni/Y 2 -  C o g  a n d  L a n g/Assignment/subject-5206907.csv","legacy","Lentiform Loewenfeld","3.3.7","yes","yes","600bd7cfb6416f0113b04181","602110864497cf011d9c0822","0","f","NA","space","space","space","space","f","852","NA","5174","12449","6872","4879","852","2","legacy","1024","2","48000","-16","task","5206907","odd","NA","31241","38418","33242","208959","4554","23879","17006","209460","131797","208958","209460","208914","38418","210314","29574","208414","4546","171544","Lexical Decision Task","86","64980","95","yes","1024"
"3.492014979","0","9","yine","non-word","90.625","90.625","685.53125","685.53125","black","no","legacy","legacy","legacy","0","uniform","1","undefined","undefined","undefined","1","f","0","0","0","0","95","0","0","0","95","0","91","95","91","0","91","3","95","0","95","Wed Feb 17 14:15:55 2021","The main experiment item","yes","Lexical_Decision_Task.osexp","E:/Uni/Y 2 -  C o g  a n d  L a n g/Assignment","no","Andale Mono","no","18","no","white","no","yes","576","legacy","91","91","3","E:/Uni/Y 2 -  C o g  a n d  L a n g/Assignment/subject-5206907.csv","legacy","Lentiform Loewenfeld","3.3.7","yes","yes","600bd7cfb6416f0113b04181","602110864497cf011d9c0822","0","f","NA","space","space","space","space","f","831","NA","5174","12449","6872","4879","831","2","legacy","1024","2","48000","-16","task","5206907","odd","NA","31241","38418","33242","210870","4554","23879","17006","211371","131797","210869","211371","210825","38418","212204","29574","210325","4546","171544","Lexical Decision Task","87","65811","96","yes","1024"
"3.397302518","7.01","2","knit","word","90.72164948453609","90.72164948453609","685.8144329896908","685.8144329896908","black","no","legacy","legacy","legacy","0","uniform","1","undefined","undefined","undefined","1","j","0","0","0","0","96","0","0","0","96","0","92","96","92","0","92","3","96","0","96","Wed Feb 17 14:15:55 2021","The main experiment item","yes","Lexical_Decision_Task.osexp","E:/Uni/Y 2 -  C o g  a n d  L a n g/Assignment","no","Andale Mono","no","18","no","white","no","yes","576","legacy","92","92","3","E:/Uni/Y 2 -  C o g  a n d  L a n g/Assignment/subject-5206907.csv","legacy","Lentiform Loewenfeld","3.3.7","yes","yes","600bd7cfb6416f0113b04181","602110864497cf011d9c0822","0","j","NA","space","space","space","space","j","713","NA","5174","12449","6872","4879","713","2","legacy","1024","2","48000","-16","task","5206907","odd","NA","31241","38418","33242","212763","4554","23879","17006","213264","131797","212761","213264","212716","38418","213979","29574","212216","4546","171544","Lexical Decision Task","88","66524","97","yes","1024"
