"Log_BG","Log_Freq_HAL","Ortho_N","Stimulus","Type","acc","accuracy","average_response_time","avg_rt","background","bidi","canvas_backend","clock_backend","color_backend","compensation","coordinates","correct","correct_Experimental_intro","correct_Introduction","correct_Practice_intro","correct_experimenter_kb","correct_response","count_End_Of_Experiment","count_End_Of_Practice","count_Experimental_Loop","count_Experimental_intro","count_Fixation","count_Introduction","count_Practice_Loop","count_Practice_intro","count_Stimulus","count_block_break_feedback","count_experimental_sequence","count_experimenter_kb","count_increment_trial_count","count_init_trial_count","count_logger","count_practice_sequence","count_right","count_task","count_wrong","datetime","description","disable_garbage_collection","experiment_file","experiment_path","font_bold","font_family","font_italic","font_size","font_underline","foreground","form_clicks","fullscreen","height","keyboard_backend","live_row","live_row_Experimental_Loop","live_row_Practice_Loop","logfile","mouse_backend","opensesame_codename","opensesame_version","osf_always_upload_data","osf_always_upload_experiment","osf_datanode_id","osf_id","repeat_cycle","response","response_End_Of_Experiment","response_Experimental_intro","response_Introduction","response_Practice_intro","response_block_break_feedback","response_experimenter_kb","response_time","response_time_End_Of_Experiment","response_time_Experimental_intro","response_time_Introduction","response_time_Practice_intro","response_time_block_break_feedback","response_time_experimenter_kb","round_decimals","sampler_backend","sound_buf_size","sound_channels","sound_freq","sound_sample_size","start","subject_nr","subject_parity","time_End_Of_Experiment","time_End_Of_Practice","time_Experimental_Loop","time_Experimental_intro","time_Fixation","time_Introduction","time_Practice_Loop","time_Practice_intro","time_Stimulus","time_block_break_feedback","time_experimental_sequence","time_experimenter_kb","time_increment_trial_count","time_init_trial_count","time_logger","time_practice_sequence","time_right","time_task","time_wrong","title","total_correct","total_response_time","total_responses","uniform_coordinates","width"
"3.2757719","0","5","slea","non-word","100","100","760.8","760.8","black","no","legacy","legacy","legacy","0","uniform","1","undefined","undefined","undefined","1","f","0","0","0","0","4","0","0","0","4","NA","0","4","0","0","0","3","4","0","4","Thu Feb 18 16:52:02 2021","The main experiment item","yes","Lexical_Decision_Task.osexp","C:/Users/memmz","no","Andale Mono","no","18","no","white","no","yes","576","legacy","0","0","3","C:/Users/memmz/subject-5211269.csv","legacy","Lentiform Loewenfeld","3.3.7","yes","yes","600bd7cfb6416f0113b04181","602110864497cf011d9c0822","0","f","NA","space","space","space","NA","f","802","NA","2349","24766","6376","NA","802","2","legacy","1024","2","48000","-16","task","5211269","odd","NA","42258","46613","44263","46669","3640","34786","28409","47172","NA","46667","47173","NA","46613","47976","40694","41729","3636","NA","Lexical Decision Task","5","3804","5","yes","1024"
"2.892836167","10.01","5","soft","word","100","100","724","724","black","no","legacy","legacy","legacy","0","uniform","1","undefined","undefined","undefined","1","j","0","0","0","0","5","0","0","0","5","NA","1","5","1","0","1","3","5","0","5","Thu Feb 18 16:52:02 2021","The main experiment item","yes","Lexical_Decision_Task.osexp","C:/Users/memmz","no","Andale Mono","no","18","no","white","no","yes","576","legacy","1","1","3","C:/Users/memmz/subject-5211269.csv","legacy","Lentiform Loewenfeld","3.3.7","yes","yes","600bd7cfb6416f0113b04181","602110864497cf011d9c0822","0","j","NA","space","space","space","NA","j","540","NA","2349","24766","6376","NA","540","2","legacy","1024","2","48000","-16","task","5211269","odd","NA","42258","46613","44263","48653","3640","34786","28409","49157","NA","48650","49159","48487","46613","49700","40694","47987","3636","NA","Lexical Decision Task","6","4344","6","yes","1024"
"3.248054965","7.86","5","glow","word","100","100","709.4285714285714","709.4285714285714","black","no","legacy","legacy","legacy","0","uniform","1","undefined","undefined","undefined","1","j","0","0","0","0","6","0","0","0","6","NA","2","6","2","0","2","3","6","0","6","Thu Feb 18 16:52:02 2021","The main experiment item","yes","Lexical_Decision_Task.osexp","C:/Users/memmz","no","Andale Mono","no","18","no","white","no","yes","576","legacy","2","2","3","C:/Users/memmz/subject-5211269.csv","legacy","Lentiform Loewenfeld","3.3.7","yes","yes","600bd7cfb6416f0113b04181","602110864497cf011d9c0822","0","j","NA","space","space","space","NA","j","622","NA","2349","24766","6376","NA","622","2","legacy","1024","2","48000","-16","task","5211269","odd","NA","42258","46613","44263","50327","3640","34786","28409","50831","NA","50325","50832","50206","46613","51455","40694","49706","3636","NA","Lexical Decision Task","7","4966","7","yes","1024"
"3.378276681","6.39","8","bran","word","87.5","87.5","693","693","black","no","legacy","legacy","legacy","0","uniform","0","undefined","undefined","undefined","0","j","0","0","0","0","7","0","0","0","7","NA","3","7","3","0","3","3","7","0","7","Thu Feb 18 16:52:02 2021","The main experiment item","yes","Lexical_Decision_Task.osexp","C:/Users/memmz","no","Andale Mono","no","18","no","white","no","yes","576","legacy","3","3","3","C:/Users/memmz/subject-5211269.csv","legacy","Lentiform Loewenfeld","3.3.7","yes","yes","600bd7cfb6416f0113b04181","602110864497cf011d9c0822","0","f","NA","space","space","space","NA","f","578","NA","2349","24766","6376","NA","578","2","legacy","1024","2","48000","-16","task","5211269","odd","NA","42258","46613","44263","52085","3640","34786","28409","52588","NA","52083","52589","51961","46613","53168","40694","51461","3636","NA","Lexical Decision Task","7","5544","8","yes","1024"
"3.531734309","0","6","lerd","non-word","88.88888888888889","88.88888888888889","702.3333333333334","702.3333333333334","black","no","legacy","legacy","legacy","0","uniform","1","undefined","undefined","undefined","1","f","0","0","0","0","8","0","0","0","8","NA","4","8","4","0","4","3","8","0","8","Thu Feb 18 16:52:02 2021","The main experiment item","yes","Lexical_Decision_Task.osexp","C:/Users/memmz","no","Andale Mono","no","18","no","white","no","yes","576","legacy","4","4","3","C:/Users/memmz/subject-5211269.csv","legacy","Lentiform Loewenfeld","3.3.7","yes","yes","600bd7cfb6416f0113b04181","602110864497cf011d9c0822","0","f","NA","space","space","space","NA","f","777","NA","2349","24766","6376","NA","777","2","legacy","1024","2","48000","-16","task","5211269","odd","NA","42258","46613","44263","54820","3640","34786","28409","55324","NA","54818","55324","54676","46613","56102","40694","51461","3636","53176","Lexical Decision Task","8","6321","9","yes","1024"
"3.368162872","0","4","ferk","non-word","90","90","732.5","732.5","black","no","legacy","legacy","legacy","0","uniform","1","undefined","undefined","undefined","1","f","0","0","0","0","9","0","0","0","9","NA","5","9","5","0","5","3","9","0","9","Thu Feb 18 16:52:02 2021","The main experiment item","yes","Lexical_Decision_Task.osexp","C:/Users/memmz","no","Andale Mono","no","18","no","white","no","yes","576","legacy","5","5","3","C:/Users/memmz/subject-5211269.csv","legacy","Lentiform Loewenfeld","3.3.7","yes","yes","600bd7cfb6416f0113b04181","602110864497cf011d9c0822","0","f","NA","space","space","space","NA","f","1004","NA","2349","24766","6376","NA","1004","2","legacy","1024","2","48000","-16","task","5211269","odd","NA","42258","46613","44263","56750","3640","34786","28409","57251","NA","56748","57251","56609","46613","58255","40694","56109","3636","53176","Lexical Decision Task","9","7325","10","yes","1024"
"3.443783828","7.65","3","verb","word","90.9090909090909","90.9090909090909","709.1818181818181","709.1818181818181","black","no","legacy","legacy","legacy","0","uniform","1","undefined","undefined","undefined","1","j","0","0","0","0","10","0","0","0","10","NA","6","10","6","0","6","3","10","0","10","Thu Feb 18 16:52:02 2021","The main experiment item","yes","Lexical_Decision_Task.osexp","C:/Users/memmz","no","Andale Mono","no","18","no","white","no","yes","576","legacy","6","6","3","C:/Users/memmz/subject-5211269.csv","legacy","Lentiform Loewenfeld","3.3.7","yes","yes","600bd7cfb6416f0113b04181","602110864497cf011d9c0822","0","j","NA","space","space","space","NA","j","476","NA","2349","24766","6376","NA","476","2","legacy","1024","2","48000","-16","task","5211269","odd","NA","42258","46613","44263","58891","3640","34786","28409","59394","NA","58889","59394","58764","46613","59871","40694","58264","3636","53176","Lexical Decision Task","10","7801","11","yes","1024"
"2.744553742","0","2","nawk","non-word","91.66666666666667","91.66666666666667","704.5","704.5","black","no","legacy","legacy","legacy","0","uniform","1","undefined","undefined","undefined","1","f","0","0","0","0","11","0","0","0","11","NA","7","11","7","0","7","3","11","0","11","Thu Feb 18 16:52:02 2021","The main experiment item","yes","Lexical_Decision_Task.osexp","C:/Users/memmz","no","Andale Mono","no","18","no","white","no","yes","576","legacy","7","7","3","C:/Users/memmz/subject-5211269.csv","legacy","Lentiform Loewenfeld","3.3.7","yes","yes","600bd7cfb6416f0113b04181","602110864497cf011d9c0822","0","f","NA","space","space","space","NA","f","653","NA","2349","24766","6376","NA","653","2","legacy","1024","2","48000","-16","task","5211269","odd","NA","42258","46613","44263","60516","3640","34786","28409","61020","NA","60513","61020","60377","46613","61674","40694","59877","3636","53176","Lexical Decision Task","11","8454","12","yes","1024"
"2.799799878","0","4","ciff","non-word","84.61538461538461","84.61538461538461","698.6153846153846","698.6153846153846","black","no","legacy","legacy","legacy","0","uniform","0","undefined","undefined","undefined","0","f","0","0","0","0","12","0","0","0","12","NA","8","12","8","0","8","3","12","0","12","Thu Feb 18 16:52:02 2021","The main experiment item","yes","Lexical_Decision_Task.osexp","C:/Users/memmz","no","Andale Mono","no","18","no","white","no","yes","576","legacy","8","8","3","C:/Users/memmz/subject-5211269.csv","legacy","Lentiform Loewenfeld","3.3.7","yes","yes","600bd7cfb6416f0113b04181","602110864497cf011d9c0822","0","j","NA","space","space","space","NA","j","628","NA","2349","24766","6376","NA","628","2","legacy","1024","2","48000","-16","task","5211269","odd","NA","42258","46613","44263","62323","3640","34786","28409","62826","NA","62320","62827","62182","46613","63455","40694","61682","3636","53176","Lexical Decision Task","11","9082","13","yes","1024"
"3.081107167","0","6","chot","non-word","85.71428571428571","85.71428571428571","708.9285714285714","708.9285714285714","black","no","legacy","legacy","legacy","0","uniform","1","undefined","undefined","undefined","1","f","0","0","0","0","13","0","0","0","13","NA","9","13","9","0","9","3","13","0","13","Thu Feb 18 16:52:02 2021","The main experiment item","yes","Lexical_Decision_Task.osexp","C:/Users/memmz","no","Andale Mono","no","18","no","white","no","yes","576","legacy","9","9","3","C:/Users/memmz/subject-5211269.csv","legacy","Lentiform Loewenfeld","3.3.7","yes","yes","600bd7cfb6416f0113b04181","602110864497cf011d9c0822","0","f","NA","space","space","space","NA","f","843","NA","2349","24766","6376","NA","843","2","legacy","1024","2","48000","-16","task","5211269","odd","NA","42258","46613","44263","65054","3640","34786","28409","65557","NA","65052","65558","64961","46613","66401","40694","61682","3636","63461","Lexical Decision Task","12","9925","14","yes","1024"
"2.812467698","0","7","hafe","non-word","86.66666666666667","86.66666666666667","712.8666666666667","712.8666666666667","black","no","legacy","legacy","legacy","0","uniform","1","undefined","undefined","undefined","1","f","0","0","0","0","14","0","0","0","14","NA","10","14","10","0","10","3","14","0","14","Thu Feb 18 16:52:02 2021","The main experiment item","yes","Lexical_Decision_Task.osexp","C:/Users/memmz","no","Andale Mono","no","18","no","white","no","yes","576","legacy","10","10","3","C:/Users/memmz/subject-5211269.csv","legacy","Lentiform Loewenfeld","3.3.7","yes","yes","600bd7cfb6416f0113b04181","602110864497cf011d9c0822","0","f","NA","space","space","space","NA","f","768","NA","2349","24766","6376","NA","768","2","legacy","1024","2","48000","-16","task","5211269","odd","NA","42258","46613","44263","67090","3640","34786","28409","67594","NA","67087","67594","66908","46613","68363","40694","66408","3636","63461","Lexical Decision Task","13","10693","15","yes","1024"
"3.049218023","7.4","9","robe","word","87.5","87.5","709.9375","709.9375","black","no","legacy","legacy","legacy","0","uniform","1","undefined","undefined","undefined","1","j","0","0","0","0","15","0","0","0","15","NA","11","15","11","0","11","3","15","0","15","Thu Feb 18 16:52:02 2021","The main experiment item","yes","Lexical_Decision_Task.osexp","C:/Users/memmz","no","Andale Mono","no","18","no","white","no","yes","576","legacy","11","11","3","C:/Users/memmz/subject-5211269.csv","legacy","Lentiform Loewenfeld","3.3.7","yes","yes","600bd7cfb6416f0113b04181","602110864497cf011d9c0822","0","j","NA","space","space","space","NA","j","666","NA","2349","24766","6376","NA","666","2","legacy","1024","2","48000","-16","task","5211269","odd","NA","42258","46613","44263","69048","3640","34786","28409","69551","NA","69046","69552","68871","46613","70219","40694","68371","3636","63461","Lexical Decision Task","14","11359","16","yes","1024"
"2.696644658","5.78","2","yolk","word","82.3529411764706","82.3529411764706","713.4117647058823","713.4117647058823","black","no","legacy","legacy","legacy","0","uniform","0","undefined","undefined","undefined","0","j","0","0","0","0","16","0","0","0","16","NA","12","16","12","0","12","3","16","0","16","Thu Feb 18 16:52:02 2021","The main experiment item","yes","Lexical_Decision_Task.osexp","C:/Users/memmz","no","Andale Mono","no","18","no","white","no","yes","576","legacy","12","12","3","C:/Users/memmz/subject-5211269.csv","legacy","Lentiform Loewenfeld","3.3.7","yes","yes","600bd7cfb6416f0113b04181","602110864497cf011d9c0822","0","f","NA","space","space","space","NA","f","769","NA","2349","24766","6376","NA","769","2","legacy","1024","2","48000","-16","task","5211269","odd","NA","42258","46613","44263","70857","3640","34786","28409","71360","NA","70855","71361","70725","46613","72130","40694","70225","3636","63461","Lexical Decision Task","14","12128","17","yes","1024"
"3.22685757","9.99","7","roll","word","83.33333333333333","83.33333333333333","708.1666666666666","708.1666666666666","black","no","legacy","legacy","legacy","0","uniform","1","undefined","undefined","undefined","1","j","0","0","0","0","17","0","0","0","17","NA","13","17","13","0","13","3","17","0","17","Thu Feb 18 16:52:02 2021","The main experiment item","yes","Lexical_Decision_Task.osexp","C:/Users/memmz","no","Andale Mono","no","18","no","white","no","yes","576","legacy","13","13","3","C:/Users/memmz/subject-5211269.csv","legacy","Lentiform Loewenfeld","3.3.7","yes","yes","600bd7cfb6416f0113b04181","602110864497cf011d9c0822","0","j","NA","space","space","space","NA","j","619","NA","2349","24766","6376","NA","619","2","legacy","1024","2","48000","-16","task","5211269","odd","NA","42258","46613","44263","73824","3640","34786","28409","74328","NA","73819","74328","73638","46613","74947","40694","70225","3636","72138","Lexical Decision Task","15","12747","18","yes","1024"
"3.1430148","7.92","8","bald","word","78.94736842105263","78.94736842105263","727.7368421052631","727.7368421052631","black","no","legacy","legacy","legacy","0","uniform","0","undefined","undefined","undefined","0","j","0","0","0","0","18","0","0","0","18","NA","14","18","14","0","14","3","18","0","18","Thu Feb 18 16:52:02 2021","The main experiment item","yes","Lexical_Decision_Task.osexp","C:/Users/memmz","no","Andale Mono","no","18","no","white","no","yes","576","legacy","14","14","3","C:/Users/memmz/subject-5211269.csv","legacy","Lentiform Loewenfeld","3.3.7","yes","yes","600bd7cfb6416f0113b04181","602110864497cf011d9c0822","0","f","NA","space","space","space","NA","f","1080","NA","2349","24766","6376","NA","1080","2","legacy","1024","2","48000","-16","task","5211269","odd","NA","42258","46613","44263","75601","3640","34786","28409","76104","NA","75599","76105","75454","46613","77185","40694","74954","3636","72138","Lexical Decision Task","15","13827","19","yes","1024"
"3.347850856","10.51","2","rich","word","80","80","720.25","720.25","black","no","legacy","legacy","legacy","0","uniform","1","undefined","undefined","undefined","1","j","0","0","0","0","19","0","0","0","19","NA","15","19","15","0","15","3","19","0","19","Thu Feb 18 16:52:02 2021","The main experiment item","yes","Lexical_Decision_Task.osexp","C:/Users/memmz","no","Andale Mono","no","18","no","white","no","yes","576","legacy","15","15","3","C:/Users/memmz/subject-5211269.csv","legacy","Lentiform Loewenfeld","3.3.7","yes","yes","600bd7cfb6416f0113b04181","602110864497cf011d9c0822","0","j","NA","space","space","space","NA","j","578","NA","2349","24766","6376","NA","578","2","legacy","1024","2","48000","-16","task","5211269","odd","NA","42258","46613","44263","78822","3640","34786","28409","79326","NA","78820","79326","78691","46613","79905","40694","74954","3636","77191","Lexical Decision Task","16","14405","20","yes","1024"
"3.481012421","8.34","5","teen","word","80.95238095238095","80.95238095238095","719.2857142857143","719.2857142857143","black","no","legacy","legacy","legacy","0","uniform","1","undefined","undefined","undefined","1","j","0","0","0","0","20","0","0","0","20","NA","16","20","16","0","16","3","20","0","20","Thu Feb 18 16:52:02 2021","The main experiment item","yes","Lexical_Decision_Task.osexp","C:/Users/memmz","no","Andale Mono","no","18","no","white","no","yes","576","legacy","16","16","3","C:/Users/memmz/subject-5211269.csv","legacy","Lentiform Loewenfeld","3.3.7","yes","yes","600bd7cfb6416f0113b04181","602110864497cf011d9c0822","0","j","NA","space","space","space","NA","j","700","NA","2349","24766","6376","NA","700","2","legacy","1024","2","48000","-16","task","5211269","odd","NA","42258","46613","44263","80553","3640","34786","28409","81056","NA","80550","81057","80413","46613","81758","40694","79913","3636","77191","Lexical Decision Task","17","15105","21","yes","1024"
"2.990042563","6.64","9","plow","word","77.27272727272727","77.27272727272727","717.1818181818181","717.1818181818181","black","no","legacy","legacy","legacy","0","uniform","0","undefined","undefined","undefined","0","j","0","0","0","0","21","0","0","0","21","NA","17","21","17","0","17","3","21","0","21","Thu Feb 18 16:52:02 2021","The main experiment item","yes","Lexical_Decision_Task.osexp","C:/Users/memmz","no","Andale Mono","no","18","no","white","no","yes","576","legacy","17","17","3","C:/Users/memmz/subject-5211269.csv","legacy","Lentiform Loewenfeld","3.3.7","yes","yes","600bd7cfb6416f0113b04181","602110864497cf011d9c0822","0","f","NA","space","space","space","NA","f","673","NA","2349","24766","6376","NA","673","2","legacy","1024","2","48000","-16","task","5211269","odd","NA","42258","46613","44263","82425","3640","34786","28409","82929","NA","82422","82929","82266","46613","83603","40694","81765","3636","77191","Lexical Decision Task","17","15778","22","yes","1024"
"3.168400243","9.12","6","horn","word","78.26086956521739","78.26086956521739","719.6086956521739","719.6086956521739","black","no","legacy","legacy","legacy","0","uniform","1","undefined","undefined","undefined","1","j","0","0","0","0","22","0","0","0","22","NA","18","22","18","0","18","3","22","0","22","Thu Feb 18 16:52:02 2021","The main experiment item","yes","Lexical_Decision_Task.osexp","C:/Users/memmz","no","Andale Mono","no","18","no","white","no","yes","576","legacy","18","18","3","C:/Users/memmz/subject-5211269.csv","legacy","Lentiform Loewenfeld","3.3.7","yes","yes","600bd7cfb6416f0113b04181","602110864497cf011d9c0822","0","j","NA","space","space","space","NA","j","773","NA","2349","24766","6376","NA","773","2","legacy","1024","2","48000","-16","task","5211269","odd","NA","42258","46613","44263","85272","3640","34786","28409","85775","NA","85270","85775","85110","46613","86548","40694","81765","3636","83610","Lexical Decision Task","18","16551","23","yes","1024"
"2.875447132","0","9","jelt","non-word","79.16666666666667","79.16666666666667","738.625","738.625","black","no","legacy","legacy","legacy","0","uniform","1","undefined","undefined","undefined","1","f","0","0","0","0","23","0","0","0","23","NA","19","23","19","0","19","3","23","0","23","Thu Feb 18 16:52:02 2021","The main experiment item","yes","Lexical_Decision_Task.osexp","C:/Users/memmz","no","Andale Mono","no","18","no","white","no","yes","576","legacy","19","19","3","C:/Users/memmz/subject-5211269.csv","legacy","Lentiform Loewenfeld","3.3.7","yes","yes","600bd7cfb6416f0113b04181","602110864497cf011d9c0822","0","f","NA","space","space","space","NA","f","1176","NA","2349","24766","6376","NA","1176","2","legacy","1024","2","48000","-16","task","5211269","odd","NA","42258","46613","44263","87235","3640","34786","28409","87738","NA","87232","87739","87056","46613","88916","40694","86556","3636","83610","Lexical Decision Task","19","17727","24","yes","1024"
"3.131833513","7.66","4","limb","word","80","80","729.12","729.12","black","no","legacy","legacy","legacy","0","uniform","1","undefined","undefined","undefined","1","j","0","0","0","0","24","0","0","0","24","NA","20","24","20","0","20","3","24","0","24","Thu Feb 18 16:52:02 2021","The main experiment item","yes","Lexical_Decision_Task.osexp","C:/Users/memmz","no","Andale Mono","no","18","no","white","no","yes","576","legacy","20","20","3","C:/Users/memmz/subject-5211269.csv","legacy","Lentiform Loewenfeld","3.3.7","yes","yes","600bd7cfb6416f0113b04181","602110864497cf011d9c0822","0","j","NA","space","space","space","NA","j","501","NA","2349","24766","6376","NA","501","2","legacy","1024","2","48000","-16","task","5211269","odd","NA","42258","46613","44263","89545","3640","34786","28409","90050","NA","89543","90050","89427","46613","90551","40694","88926","3636","83610","Lexical Decision Task","20","18228","25","yes","1024"
"3.299579929","0","2","flis","non-word","80.76923076923077","80.76923076923077","725.9615384615385","725.9615384615385","black","no","legacy","legacy","legacy","0","uniform","1","undefined","undefined","undefined","1","f","0","0","0","0","25","0","0","0","25","NA","21","25","21","0","21","3","25","0","25","Thu Feb 18 16:52:02 2021","The main experiment item","yes","Lexical_Decision_Task.osexp","C:/Users/memmz","no","Andale Mono","no","18","no","white","no","yes","576","legacy","21","21","3","C:/Users/memmz/subject-5211269.csv","legacy","Lentiform Loewenfeld","3.3.7","yes","yes","600bd7cfb6416f0113b04181","602110864497cf011d9c0822","0","f","NA","space","space","space","NA","f","647","NA","2349","24766","6376","NA","647","2","legacy","1024","2","48000","-16","task","5211269","odd","NA","42258","46613","44263","91190","3640","34786","28409","91693","NA","91188","91693","91059","46613","92341","40694","90559","3636","83610","Lexical Decision Task","21","18875","26","yes","1024"
"2.69019608","9.01","2","myth","word","81.48148148148148","81.48148148148148","718.0370370370371","718.0370370370371","black","no","legacy","legacy","legacy","0","uniform","1","undefined","undefined","undefined","1","j","0","0","0","0","26","0","0","0","26","NA","22","26","22","0","22","3","26","0","26","Thu Feb 18 16:52:02 2021","The main experiment item","yes","Lexical_Decision_Task.osexp","C:/Users/memmz","no","Andale Mono","no","18","no","white","no","yes","576","legacy","22","22","3","C:/Users/memmz/subject-5211269.csv","legacy","Lentiform Loewenfeld","3.3.7","yes","yes","600bd7cfb6416f0113b04181","602110864497cf011d9c0822","0","j","NA","space","space","space","NA","j","512","NA","2349","24766","6376","NA","512","2","legacy","1024","2","48000","-16","task","5211269","odd","NA","42258","46613","44263","93025","3640","34786","28409","93528","NA","93023","93529","92847","46613","94042","40694","92346","3636","83610","Lexical Decision Task","22","19387","27","yes","1024"
"3.252447662","9.67","9","boat","word","82.14285714285714","82.14285714285714","710.25","710.25","black","no","legacy","legacy","legacy","0","uniform","1","undefined","undefined","undefined","1","j","0","0","0","0","27","0","0","0","27","NA","23","27","23","0","23","3","27","0","27","Thu Feb 18 16:52:02 2021","The main experiment item","yes","Lexical_Decision_Task.osexp","C:/Users/memmz","no","Andale Mono","no","18","no","white","no","yes","576","legacy","23","23","3","C:/Users/memmz/subject-5211269.csv","legacy","Lentiform Loewenfeld","3.3.7","yes","yes","600bd7cfb6416f0113b04181","602110864497cf011d9c0822","0","j","NA","space","space","space","NA","j","500","NA","2349","24766","6376","NA","500","2","legacy","1024","2","48000","-16","task","5211269","odd","NA","42258","46613","44263","94676","3640","34786","28409","95181","NA","94674","95181","94550","46613","95682","40694","94050","3636","83610","Lexical Decision Task","23","19887","28","yes","1024"
"2.7084209","0","8","vump","non-word","82.75862068965517","82.75862068965517","710.3793103448276","710.3793103448276","black","no","legacy","legacy","legacy","0","uniform","1","undefined","undefined","undefined","1","f","0","0","0","0","28","0","0","0","28","NA","24","28","24","0","24","3","28","0","28","Thu Feb 18 16:52:02 2021","The main experiment item","yes","Lexical_Decision_Task.osexp","C:/Users/memmz","no","Andale Mono","no","18","no","white","no","yes","576","legacy","24","24","3","C:/Users/memmz/subject-5211269.csv","legacy","Lentiform Loewenfeld","3.3.7","yes","yes","600bd7cfb6416f0113b04181","602110864497cf011d9c0822","0","f","NA","space","space","space","NA","f","714","NA","2349","24766","6376","NA","714","2","legacy","1024","2","48000","-16","task","5211269","odd","NA","42258","46613","44263","96265","3640","34786","28409","96770","NA","96263","96770","96192","46613","97484","40694","95691","3636","83610","Lexical Decision Task","24","20601","29","yes","1024"
"2.67699827","0","6","hulf","non-word","83.33333333333333","83.33333333333333","716.8333333333334","716.8333333333334","black","no","legacy","legacy","legacy","0","uniform","1","undefined","undefined","undefined","1","f","0","0","0","0","29","0","0","0","29","NA","25","29","25","0","25","3","29","0","29","Thu Feb 18 16:52:02 2021","The main experiment item","yes","Lexical_Decision_Task.osexp","C:/Users/memmz","no","Andale Mono","no","18","no","white","no","yes","576","legacy","25","25","3","C:/Users/memmz/subject-5211269.csv","legacy","Lentiform Loewenfeld","3.3.7","yes","yes","600bd7cfb6416f0113b04181","602110864497cf011d9c0822","0","f","NA","space","space","space","NA","f","904","NA","2349","24766","6376","NA","904","2","legacy","1024","2","48000","-16","task","5211269","odd","NA","42258","46613","44263","98126","3640","34786","28409","98628","NA","98121","98628","97992","46613","99534","40694","97492","3636","83610","Lexical Decision Task","25","21505","30","yes","1024"
"3.372543801","9.24","8","coat","word","83.87096774193549","83.87096774193549","706.8387096774194","706.8387096774194","black","no","legacy","legacy","legacy","0","uniform","1","undefined","undefined","undefined","1","j","0","0","0","0","30","0","0","0","30","NA","26","30","26","0","26","3","30","0","30","Thu Feb 18 16:52:02 2021","The main experiment item","yes","Lexical_Decision_Task.osexp","C:/Users/memmz","no","Andale Mono","no","18","no","white","no","yes","576","legacy","26","26","3","C:/Users/memmz/subject-5211269.csv","legacy","Lentiform Loewenfeld","3.3.7","yes","yes","600bd7cfb6416f0113b04181","602110864497cf011d9c0822","0","j","NA","space","space","space","NA","j","407","NA","2349","24766","6376","NA","407","2","legacy","1024","2","48000","-16","task","5211269","odd","NA","42258","46613","44263","100130","3640","34786","28409","100632","NA","100127","100632","100040","46613","101040","40694","99540","3636","83610","Lexical Decision Task","26","21912","31","yes","1024"
"3.374198258","0","8","vist","non-word","84.375","84.375","708.3125","708.3125","black","no","legacy","legacy","legacy","0","uniform","1","undefined","undefined","undefined","1","f","0","0","0","0","31","0","0","0","31","NA","27","31","27","0","27","3","31","0","31","Thu Feb 18 16:52:02 2021","The main experiment item","yes","Lexical_Decision_Task.osexp","C:/Users/memmz","no","Andale Mono","no","18","no","white","no","yes","576","legacy","27","27","3","C:/Users/memmz/subject-5211269.csv","legacy","Lentiform Loewenfeld","3.3.7","yes","yes","600bd7cfb6416f0113b04181","602110864497cf011d9c0822","0","f","NA","space","space","space","NA","f","754","NA","2349","24766","6376","NA","754","2","legacy","1024","2","48000","-16","task","5211269","odd","NA","42258","46613","44263","101724","3640","34786","28409","102228","NA","101719","102229","101553","46613","102984","40694","101052","3636","83610","Lexical Decision Task","27","22666","32","yes","1024"
"2.803231716","5.26","3","kiln","word","81.81818181818181","81.81818181818181","707.5454545454545","707.5454545454545","black","no","legacy","legacy","legacy","0","uniform","0","undefined","undefined","undefined","0","j","0","0","0","0","32","0","0","0","32","NA","28","32","28","0","28","3","32","0","32","Thu Feb 18 16:52:02 2021","The main experiment item","yes","Lexical_Decision_Task.osexp","C:/Users/memmz","no","Andale Mono","no","18","no","white","no","yes","576","legacy","28","28","3","C:/Users/memmz/subject-5211269.csv","legacy","Lentiform Loewenfeld","3.3.7","yes","yes","600bd7cfb6416f0113b04181","602110864497cf011d9c0822","0","f","NA","space","space","space","NA","f","683","NA","2349","24766","6376","NA","683","2","legacy","1024","2","48000","-16","task","5211269","odd","NA","42258","46613","44263","103569","3640","34786","28409","104072","NA","103566","104073","103491","46613","104758","40694","102991","3636","83610","Lexical Decision Task","27","23349","33","yes","1024"
"2.986323777","10.85","8","ship","word","82.3529411764706","82.3529411764706","699.4411764705883","699.4411764705883","black","no","legacy","legacy","legacy","0","uniform","1","undefined","undefined","undefined","1","j","0","0","0","0","33","0","0","0","33","NA","29","33","29","0","29","3","33","0","33","Thu Feb 18 16:52:02 2021","The main experiment item","yes","Lexical_Decision_Task.osexp","C:/Users/memmz","no","Andale Mono","no","18","no","white","no","yes","576","legacy","29","29","3","C:/Users/memmz/subject-5211269.csv","legacy","Lentiform Loewenfeld","3.3.7","yes","yes","600bd7cfb6416f0113b04181","602110864497cf011d9c0822","0","j","NA","space","space","space","NA","j","432","NA","2349","24766","6376","NA","432","2","legacy","1024","2","48000","-16","task","5211269","odd","NA","42258","46613","44263","106472","3640","34786","28409","106975","NA","106467","106975","106269","46613","107408","40694","102991","3636","104769","Lexical Decision Task","28","23781","34","yes","1024"
"2.709837904","6.85","8","skim","word","80","80","699.0285714285715","699.0285714285715","black","no","legacy","legacy","legacy","0","uniform","0","undefined","undefined","undefined","0","j","0","0","0","0","34","0","0","0","34","NA","30","34","30","0","30","3","34","0","34","Thu Feb 18 16:52:02 2021","The main experiment item","yes","Lexical_Decision_Task.osexp","C:/Users/memmz","no","Andale Mono","no","18","no","white","no","yes","576","legacy","30","30","3","C:/Users/memmz/subject-5211269.csv","legacy","Lentiform Loewenfeld","3.3.7","yes","yes","600bd7cfb6416f0113b04181","602110864497cf011d9c0822","0","f","NA","space","space","space","NA","f","685","NA","2349","24766","6376","NA","685","2","legacy","1024","2","48000","-16","task","5211269","odd","NA","42258","46613","44263","108040","3640","34786","28409","108544","NA","108038","108544","107918","46613","109230","40694","107417","3636","104769","Lexical Decision Task","28","24466","35","yes","1024"
"3.460446784","0","5","dess","non-word","80.55555555555556","80.55555555555556","703.5277777777778","703.5277777777778","black","no","legacy","legacy","legacy","0","uniform","1","undefined","undefined","undefined","1","f","0","0","0","0","35","0","0","0","35","NA","31","35","31","0","31","3","35","0","35","Thu Feb 18 16:52:02 2021","The main experiment item","yes","Lexical_Decision_Task.osexp","C:/Users/memmz","no","Andale Mono","no","18","no","white","no","yes","576","legacy","31","31","3","C:/Users/memmz/subject-5211269.csv","legacy","Lentiform Loewenfeld","3.3.7","yes","yes","600bd7cfb6416f0113b04181","602110864497cf011d9c0822","0","f","NA","space","space","space","NA","f","861","NA","2349","24766","6376","NA","861","2","legacy","1024","2","48000","-16","task","5211269","odd","NA","42258","46613","44263","110950","3640","34786","28409","111453","NA","110945","111454","110737","46613","112316","40694","107417","3636","109237","Lexical Decision Task","29","25327","36","yes","1024"
"2.809559715","8.44","4","volt","word","81.08108108108108","81.08108108108108","740.972972972973","740.972972972973","black","no","legacy","legacy","legacy","0","uniform","1","undefined","undefined","undefined","1","j","0","0","0","0","36","0","0","0","36","NA","32","36","32","0","32","3","36","0","36","Thu Feb 18 16:52:02 2021","The main experiment item","yes","Lexical_Decision_Task.osexp","C:/Users/memmz","no","Andale Mono","no","18","no","white","no","yes","576","legacy","32","32","3","C:/Users/memmz/subject-5211269.csv","legacy","Lentiform Loewenfeld","3.3.7","yes","yes","600bd7cfb6416f0113b04181","602110864497cf011d9c0822","0","j","NA","space","space","space","NA","j","2089","NA","2349","24766","6376","NA","2089","2","legacy","1024","2","48000","-16","task","5211269","odd","NA","42258","46613","44263","113037","3640","34786","28409","113542","NA","113032","113543","112840","46613","115633","40694","112322","3636","109237","Lexical Decision Task","30","27416","37","yes","1024"
"2.884795364","0","6","flob","non-word","81.57894736842105","81.57894736842105","746.0526315789474","746.0526315789474","black","no","legacy","legacy","legacy","0","uniform","1","undefined","undefined","undefined","1","f","0","0","0","0","37","0","0","0","37","NA","33","37","33","0","33","3","37","0","37","Thu Feb 18 16:52:02 2021","The main experiment item","yes","Lexical_Decision_Task.osexp","C:/Users/memmz","no","Andale Mono","no","18","no","white","no","yes","576","legacy","33","33","3","C:/Users/memmz/subject-5211269.csv","legacy","Lentiform Loewenfeld","3.3.7","yes","yes","600bd7cfb6416f0113b04181","602110864497cf011d9c0822","0","f","NA","space","space","space","NA","f","934","NA","2349","24766","6376","NA","934","2","legacy","1024","2","48000","-16","task","5211269","odd","NA","42258","46613","44263","116320","3640","34786","28409","116827","NA","116316","116828","116143","46613","117762","40694","115643","3636","109237","Lexical Decision Task","31","28350","38","yes","1024"
"3.15462682","0","6","noal","non-word","82.05128205128206","82.05128205128206","744.9487179487179","744.9487179487179","black","no","legacy","legacy","legacy","0","uniform","1","undefined","undefined","undefined","1","f","0","0","0","0","38","0","0","0","38","NA","34","38","34","0","34","3","38","0","38","Thu Feb 18 16:52:02 2021","The main experiment item","yes","Lexical_Decision_Task.osexp","C:/Users/memmz","no","Andale Mono","no","18","no","white","no","yes","576","legacy","34","34","3","C:/Users/memmz/subject-5211269.csv","legacy","Lentiform Loewenfeld","3.3.7","yes","yes","600bd7cfb6416f0113b04181","602110864497cf011d9c0822","0","f","NA","space","space","space","NA","f","703","NA","2349","24766","6376","NA","703","2","legacy","1024","2","48000","-16","task","5211269","odd","NA","42258","46613","44263","118400","3640","34786","28409","118903","NA","118398","118904","118270","46613","119609","40694","117770","3636","109237","Lexical Decision Task","32","29053","39","yes","1024"
"3.397302518","7.01","2","knit","word","82.5","82.5","740.525","740.525","black","no","legacy","legacy","legacy","0","uniform","1","undefined","undefined","undefined","1","j","0","0","0","0","39","0","0","0","39","NA","35","39","35","0","35","3","39","0","39","Thu Feb 18 16:52:02 2021","The main experiment item","yes","Lexical_Decision_Task.osexp","C:/Users/memmz","no","Andale Mono","no","18","no","white","no","yes","576","legacy","35","35","3","C:/Users/memmz/subject-5211269.csv","legacy","Lentiform Loewenfeld","3.3.7","yes","yes","600bd7cfb6416f0113b04181","602110864497cf011d9c0822","0","j","NA","space","space","space","NA","j","568","NA","2349","24766","6376","NA","568","2","legacy","1024","2","48000","-16","task","5211269","odd","NA","42258","46613","44263","120261","3640","34786","28409","120765","NA","120258","120765","120118","46613","121334","40694","119618","3636","109237","Lexical Decision Task","33","29621","40","yes","1024"
"2.664328519","0","4","plux","non-word","82.92682926829268","82.92682926829268","741.170731707317","741.170731707317","black","no","legacy","legacy","legacy","0","uniform","1","undefined","undefined","undefined","1","f","0","0","0","0","40","0","0","0","40","NA","36","40","36","0","36","3","40","0","40","Thu Feb 18 16:52:02 2021","The main experiment item","yes","Lexical_Decision_Task.osexp","C:/Users/memmz","no","Andale Mono","no","18","no","white","no","yes","576","legacy","36","36","3","C:/Users/memmz/subject-5211269.csv","legacy","Lentiform Loewenfeld","3.3.7","yes","yes","600bd7cfb6416f0113b04181","602110864497cf011d9c0822","0","f","NA","space","space","space","NA","f","767","NA","2349","24766","6376","NA","767","2","legacy","1024","2","48000","-16","task","5211269","odd","NA","42258","46613","44263","122001","3640","34786","28409","122505","NA","121997","122505","121840","46613","123272","40694","121340","3636","109237","Lexical Decision Task","34","30388","41","yes","1024"
"3.066077331","0","7","vorn","non-word","83.33333333333333","83.33333333333333","742.8095238095239","742.8095238095239","black","no","legacy","legacy","legacy","0","uniform","1","undefined","undefined","undefined","1","f","0","0","0","0","41","0","0","0","41","NA","37","41","37","0","37","3","41","0","41","Thu Feb 18 16:52:02 2021","The main experiment item","yes","Lexical_Decision_Task.osexp","C:/Users/memmz","no","Andale Mono","no","18","no","white","no","yes","576","legacy","37","37","3","C:/Users/memmz/subject-5211269.csv","legacy","Lentiform Loewenfeld","3.3.7","yes","yes","600bd7cfb6416f0113b04181","602110864497cf011d9c0822","0","f","NA","space","space","space","NA","f","810","NA","2349","24766","6376","NA","810","2","legacy","1024","2","48000","-16","task","5211269","odd","NA","42258","46613","44263","123966","3640","34786","28409","124470","NA","123963","124470","123782","46613","125280","40694","123281","3636","109237","Lexical Decision Task","35","31198","42","yes","1024"
"3.134602053","0","8","jart","non-word","83.72093023255815","83.72093023255815","759.4186046511628","759.4186046511628","black","no","legacy","legacy","legacy","0","uniform","1","undefined","undefined","undefined","1","f","0","0","0","0","42","0","0","0","42","NA","38","42","38","0","38","3","42","0","42","Thu Feb 18 16:52:02 2021","The main experiment item","yes","Lexical_Decision_Task.osexp","C:/Users/memmz","no","Andale Mono","no","18","no","white","no","yes","576","legacy","38","38","3","C:/Users/memmz/subject-5211269.csv","legacy","Lentiform Loewenfeld","3.3.7","yes","yes","600bd7cfb6416f0113b04181","602110864497cf011d9c0822","0","f","NA","space","space","space","NA","f","1457","NA","2349","24766","6376","NA","1457","2","legacy","1024","2","48000","-16","task","5211269","odd","NA","42258","46613","44263","125965","3640","34786","28409","126469","NA","125961","126469","125789","46613","127928","40694","125289","3636","109237","Lexical Decision Task","36","32655","43","yes","1024"
"3.119255889","6.63","2","itch","word","84.0909090909091","84.0909090909091","757.3409090909091","757.3409090909091","black","no","legacy","legacy","legacy","0","uniform","1","undefined","undefined","undefined","1","j","0","0","0","0","43","0","0","0","43","NA","39","43","39","0","39","3","43","0","43","Thu Feb 18 16:52:02 2021","The main experiment item","yes","Lexical_Decision_Task.osexp","C:/Users/memmz","no","Andale Mono","no","18","no","white","no","yes","576","legacy","39","39","3","C:/Users/memmz/subject-5211269.csv","legacy","Lentiform Loewenfeld","3.3.7","yes","yes","600bd7cfb6416f0113b04181","602110864497cf011d9c0822","0","j","NA","space","space","space","NA","j","668","NA","2349","24766","6376","NA","668","2","legacy","1024","2","48000","-16","task","5211269","odd","NA","42258","46613","44263","128589","3640","34786","28409","129093","NA","128585","129093","128436","46613","129761","40694","127936","3636","109237","Lexical Decision Task","37","33323","44","yes","1024"
"3.039414119","0","9","meep","non-word","84.44444444444444","84.44444444444444","753.9777777777778","753.9777777777778","black","no","legacy","legacy","legacy","0","uniform","1","undefined","undefined","undefined","1","f","0","0","0","0","44","0","0","0","44","NA","40","44","40","0","40","3","44","0","44","Thu Feb 18 16:52:02 2021","The main experiment item","yes","Lexical_Decision_Task.osexp","C:/Users/memmz","no","Andale Mono","no","18","no","white","no","yes","576","legacy","40","40","3","C:/Users/memmz/subject-5211269.csv","legacy","Lentiform Loewenfeld","3.3.7","yes","yes","600bd7cfb6416f0113b04181","602110864497cf011d9c0822","0","f","NA","space","space","space","NA","f","606","NA","2349","24766","6376","NA","606","2","legacy","1024","2","48000","-16","task","5211269","odd","NA","42258","46613","44263","130413","3640","34786","28409","130917","NA","130411","130917","130267","46613","131524","40694","129766","3636","109237","Lexical Decision Task","38","33929","45","yes","1024"
"3.028977705","0","7","frow","non-word","84.78260869565217","84.78260869565217","759.4130434782609","759.4130434782609","black","no","legacy","legacy","legacy","0","uniform","1","undefined","undefined","undefined","1","f","0","0","0","0","45","0","0","0","45","NA","41","45","41","0","41","3","45","0","45","Thu Feb 18 16:52:02 2021","The main experiment item","yes","Lexical_Decision_Task.osexp","C:/Users/memmz","no","Andale Mono","no","18","no","white","no","yes","576","legacy","41","41","3","C:/Users/memmz/subject-5211269.csv","legacy","Lentiform Loewenfeld","3.3.7","yes","yes","600bd7cfb6416f0113b04181","602110864497cf011d9c0822","0","f","NA","space","space","space","NA","f","1004","NA","2349","24766","6376","NA","1004","2","legacy","1024","2","48000","-16","task","5211269","odd","NA","42258","46613","44263","132150","3640","34786","28409","132654","NA","132146","132654","132033","46613","133659","40694","131533","3636","109237","Lexical Decision Task","39","34933","46","yes","1024"
"2.880623071","0","9","curp","non-word","82.97872340425532","82.97872340425532","763.8510638297872","763.8510638297872","black","no","legacy","legacy","legacy","0","uniform","0","undefined","undefined","undefined","0","f","0","0","0","0","46","0","0","0","46","NA","42","46","42","0","42","3","46","0","46","Thu Feb 18 16:52:02 2021","The main experiment item","yes","Lexical_Decision_Task.osexp","C:/Users/memmz","no","Andale Mono","no","18","no","white","no","yes","576","legacy","42","42","3","C:/Users/memmz/subject-5211269.csv","legacy","Lentiform Loewenfeld","3.3.7","yes","yes","600bd7cfb6416f0113b04181","602110864497cf011d9c0822","0","j","NA","space","space","space","NA","j","968","NA","2349","24766","6376","NA","968","2","legacy","1024","2","48000","-16","task","5211269","odd","NA","42258","46613","44263","134300","3640","34786","28409","134804","NA","134297","134805","134170","46613","135775","40694","133670","3636","109237","Lexical Decision Task","39","35901","47","yes","1024"
"3.105055783","0","2","norp","non-word","83.33333333333333","83.33333333333333","762.3125","762.3125","black","no","legacy","legacy","legacy","0","uniform","1","undefined","undefined","undefined","1","f","0","0","0","0","47","0","0","0","47","NA","43","47","43","0","43","3","47","0","47","Thu Feb 18 16:52:02 2021","The main experiment item","yes","Lexical_Decision_Task.osexp","C:/Users/memmz","no","Andale Mono","no","18","no","white","no","yes","576","legacy","43","43","3","C:/Users/memmz/subject-5211269.csv","legacy","Lentiform Loewenfeld","3.3.7","yes","yes","600bd7cfb6416f0113b04181","602110864497cf011d9c0822","0","f","NA","space","space","space","NA","f","690","NA","2349","24766","6376","NA","690","2","legacy","1024","2","48000","-16","task","5211269","odd","NA","42258","46613","44263","137446","3640","34786","28409","137949","NA","137442","137950","137284","46613","138641","40694","133670","3636","135784","Lexical Decision Task","40","36591","48","yes","1024"
"2.80048796","0","8","pife","non-word","83.6734693877551","83.6734693877551","760.204081632653","760.204081632653","black","no","legacy","legacy","legacy","0","uniform","1","undefined","undefined","undefined","1","f","0","0","0","0","48","0","0","0","48","NA","44","48","44","0","44","3","48","0","48","Thu Feb 18 16:52:02 2021","The main experiment item","yes","Lexical_Decision_Task.osexp","C:/Users/memmz","no","Andale Mono","no","18","no","white","no","yes","576","legacy","44","44","3","C:/Users/memmz/subject-5211269.csv","legacy","Lentiform Loewenfeld","3.3.7","yes","yes","600bd7cfb6416f0113b04181","602110864497cf011d9c0822","0","f","NA","space","space","space","NA","f","659","NA","2349","24766","6376","NA","659","2","legacy","1024","2","48000","-16","task","5211269","odd","NA","42258","46613","44263","139286","3640","34786","28409","139789","NA","139283","139790","139149","46613","140450","40694","138649","3636","135784","Lexical Decision Task","41","37250","49","yes","1024"
"2.920123326","7.43","4","duel","word","84","84","759.26","759.26","black","no","legacy","legacy","legacy","0","uniform","1","undefined","undefined","undefined","1","j","0","0","0","0","49","0","0","0","49","NA","45","49","45","0","45","3","49","0","49","Thu Feb 18 16:52:02 2021","The main experiment item","yes","Lexical_Decision_Task.osexp","C:/Users/memmz","no","Andale Mono","no","18","no","white","no","yes","576","legacy","45","45","3","C:/Users/memmz/subject-5211269.csv","legacy","Lentiform Loewenfeld","3.3.7","yes","yes","600bd7cfb6416f0113b04181","602110864497cf011d9c0822","0","j","NA","space","space","space","NA","j","713","NA","2349","24766","6376","NA","713","2","legacy","1024","2","48000","-16","task","5211269","odd","NA","42258","46613","44263","141123","3640","34786","28409","141627","NA","141121","141627","140959","46613","142341","40694","140459","3636","135784","Lexical Decision Task","42","37963","50","yes","1024"
"2.82129731","6.72","5","plum","word","84.31372549019608","84.31372549019608","753.9411764705883","753.9411764705883","black","no","legacy","legacy","legacy","0","uniform","1","undefined","undefined","undefined","1","j","0","0","0","0","50","0","0","0","50","NA","46","50","46","0","46","3","50","0","50","Thu Feb 18 16:52:02 2021","The main experiment item","yes","Lexical_Decision_Task.osexp","C:/Users/memmz","no","Andale Mono","no","18","no","white","no","yes","576","legacy","46","46","3","C:/Users/memmz/subject-5211269.csv","legacy","Lentiform Loewenfeld","3.3.7","yes","yes","600bd7cfb6416f0113b04181","602110864497cf011d9c0822","0","j","NA","space","space","space","NA","j","488","NA","2349","24766","6376","NA","488","2","legacy","1024","2","48000","-16","task","5211269","odd","NA","42258","46613","44263","143036","3640","34786","28409","143539","NA","143031","143540","142849","46613","144029","40694","142349","3636","135784","Lexical Decision Task","43","38451","51","yes","1024"
"2.980911938","7.15","7","hoop","word","84.61538461538461","84.61538461538461","750.7692307692307","750.7692307692307","black","no","legacy","legacy","legacy","0","uniform","1","undefined","undefined","undefined","1","j","0","0","0","0","51","0","0","0","51","NA","47","51","47","0","47","3","51","0","51","Thu Feb 18 16:52:02 2021","The main experiment item","yes","Lexical_Decision_Task.osexp","C:/Users/memmz","no","Andale Mono","no","18","no","white","no","yes","576","legacy","47","47","3","C:/Users/memmz/subject-5211269.csv","legacy","Lentiform Loewenfeld","3.3.7","yes","yes","600bd7cfb6416f0113b04181","602110864497cf011d9c0822","0","j","NA","space","space","space","NA","j","589","NA","2349","24766","6376","NA","589","2","legacy","1024","2","48000","-16","task","5211269","odd","NA","42258","46613","44263","144725","3640","34786","28409","145228","NA","144722","145230","144538","46613","145820","40694","144038","3636","135784","Lexical Decision Task","44","39040","52","yes","1024"
"3.174641193","0","3","ramb","non-word","83.01886792452831","83.01886792452831","750.0566037735849","750.0566037735849","black","no","legacy","legacy","legacy","0","uniform","0","undefined","undefined","undefined","0","f","0","0","0","0","52","0","0","0","52","NA","48","52","48","0","48","3","52","0","52","Thu Feb 18 16:52:02 2021","The main experiment item","yes","Lexical_Decision_Task.osexp","C:/Users/memmz","no","Andale Mono","no","18","no","white","no","yes","576","legacy","48","48","3","C:/Users/memmz/subject-5211269.csv","legacy","Lentiform Loewenfeld","3.3.7","yes","yes","600bd7cfb6416f0113b04181","602110864497cf011d9c0822","0","j","NA","space","space","space","NA","j","713","NA","2349","24766","6376","NA","713","2","legacy","1024","2","48000","-16","task","5211269","odd","NA","42258","46613","44263","146423","3640","34786","28409","146926","NA","146419","146927","146330","46613","147642","40694","145830","3636","135784","Lexical Decision Task","44","39753","53","yes","1024"
"3.195807436","0","6","stup","non-word","83.33333333333333","83.33333333333333","752.6111111111111","752.6111111111111","black","no","legacy","legacy","legacy","0","uniform","1","undefined","undefined","undefined","1","f","0","0","0","0","53","0","0","0","53","NA","49","53","49","0","49","3","53","0","53","Thu Feb 18 16:52:02 2021","The main experiment item","yes","Lexical_Decision_Task.osexp","C:/Users/memmz","no","Andale Mono","no","18","no","white","no","yes","576","legacy","49","49","3","C:/Users/memmz/subject-5211269.csv","legacy","Lentiform Loewenfeld","3.3.7","yes","yes","600bd7cfb6416f0113b04181","602110864497cf011d9c0822","0","f","NA","space","space","space","NA","f","888","NA","2349","24766","6376","NA","888","2","legacy","1024","2","48000","-16","task","5211269","odd","NA","42258","46613","44263","149300","3640","34786","28409","149804","NA","149296","149804","149151","46613","150694","40694","145830","3636","147650","Lexical Decision Task","45","40641","54","yes","1024"
"2.813801082","5.47","7","nook","word","81.81818181818181","81.81818181818181","779.1454545454545","779.1454545454545","black","no","legacy","legacy","legacy","0","uniform","0","undefined","undefined","undefined","0","j","0","0","0","0","54","0","0","0","54","0","50","54","50","0","50","3","54","0","54","Thu Feb 18 16:52:02 2021","The main experiment item","yes","Lexical_Decision_Task.osexp","C:/Users/memmz","no","Andale Mono","no","18","no","white","no","yes","576","legacy","50","50","3","C:/Users/memmz/subject-5211269.csv","legacy","Lentiform Loewenfeld","3.3.7","yes","yes","600bd7cfb6416f0113b04181","602110864497cf011d9c0822","0","f","NA","space","space","space","space","f","2212","NA","2349","24766","6376","8210","2212","2","legacy","1024","2","48000","-16","task","5211269","odd","NA","42258","46613","44263","159632","3640","34786","28409","160135","151336","159630","160135","151207","46613","162347","40694","150707","3636","147650","Lexical Decision Task","45","42853","55","yes","1024"
"3.082307743","9.68","8","camp","word","82.14285714285714","82.14285714285714","775.8571428571429","775.8571428571429","black","no","legacy","legacy","legacy","0","uniform","1","undefined","undefined","undefined","1","j","0","0","0","0","55","0","0","0","55","0","51","55","51","0","51","3","55","0","55","Thu Feb 18 16:52:02 2021","The main experiment item","yes","Lexical_Decision_Task.osexp","C:/Users/memmz","no","Andale Mono","no","18","no","white","no","yes","576","legacy","51","51","3","C:/Users/memmz/subject-5211269.csv","legacy","Lentiform Loewenfeld","3.3.7","yes","yes","600bd7cfb6416f0113b04181","602110864497cf011d9c0822","0","j","NA","space","space","space","space","j","595","NA","2349","24766","6376","8210","595","2","legacy","1024","2","48000","-16","task","5211269","odd","NA","42258","46613","44263","164008","3640","34786","28409","164512","151336","164005","164512","163854","46613","165109","40694","150707","3636","162354","Lexical Decision Task","46","43448","56","yes","1024"
"3.302475237","0","7","leel","non-word","82.45614035087719","82.45614035087719","774.9473684210526","774.9473684210526","black","no","legacy","legacy","legacy","0","uniform","1","undefined","undefined","undefined","1","f","0","0","0","0","56","0","0","0","56","0","52","56","52","0","52","3","56","0","56","Thu Feb 18 16:52:02 2021","The main experiment item","yes","Lexical_Decision_Task.osexp","C:/Users/memmz","no","Andale Mono","no","18","no","white","no","yes","576","legacy","52","52","3","C:/Users/memmz/subject-5211269.csv","legacy","Lentiform Loewenfeld","3.3.7","yes","yes","600bd7cfb6416f0113b04181","602110864497cf011d9c0822","0","f","NA","space","space","space","space","f","724","NA","2349","24766","6376","8210","724","2","legacy","1024","2","48000","-16","task","5211269","odd","NA","42258","46613","44263","165773","3640","34786","28409","166276","151336","165771","166277","165617","46613","167001","40694","165117","3636","162354","Lexical Decision Task","47","44172","57","yes","1024"
"2.981215883","10.66","5","hair","word","82.75862068965517","82.75862068965517","771.7068965517242","771.7068965517242","black","no","legacy","legacy","legacy","0","uniform","1","undefined","undefined","undefined","1","j","0","0","0","0","57","0","0","0","57","0","53","57","53","0","53","3","57","0","57","Thu Feb 18 16:52:02 2021","The main experiment item","yes","Lexical_Decision_Task.osexp","C:/Users/memmz","no","Andale Mono","no","18","no","white","no","yes","576","legacy","53","53","3","C:/Users/memmz/subject-5211269.csv","legacy","Lentiform Loewenfeld","3.3.7","yes","yes","600bd7cfb6416f0113b04181","602110864497cf011d9c0822","0","j","NA","space","space","space","space","j","587","NA","2349","24766","6376","8210","587","2","legacy","1024","2","48000","-16","task","5211269","odd","NA","42258","46613","44263","167677","3640","34786","28409","168181","151336","167674","168181","167509","46613","168768","40694","167009","3636","162354","Lexical Decision Task","48","44759","58","yes","1024"
"2.839268497","0","8","maft","non-word","83.05084745762711","83.05084745762711","769.7796610169491","769.7796610169491","black","no","legacy","legacy","legacy","0","uniform","1","undefined","undefined","undefined","1","f","0","0","0","0","58","0","0","0","58","0","54","58","54","0","54","3","58","0","58","Thu Feb 18 16:52:02 2021","The main experiment item","yes","Lexical_Decision_Task.osexp","C:/Users/memmz","no","Andale Mono","no","18","no","white","no","yes","576","legacy","54","54","3","C:/Users/memmz/subject-5211269.csv","legacy","Lentiform Loewenfeld","3.3.7","yes","yes","600bd7cfb6416f0113b04181","602110864497cf011d9c0822","0","f","NA","space","space","space","space","f","658","NA","2349","24766","6376","8210","658","2","legacy","1024","2","48000","-16","task","5211269","odd","NA","42258","46613","44263","169471","3640","34786","28409","169974","151336","169466","169974","169276","46613","170636","40694","168776","3636","162354","Lexical Decision Task","49","45417","59","yes","1024"
"3.257359335","8","6","brew","word","83.33333333333333","83.33333333333333","772.3166666666667","772.3166666666667","black","no","legacy","legacy","legacy","0","uniform","1","undefined","undefined","undefined","1","j","0","0","0","0","59","0","0","0","59","0","55","59","55","0","55","3","59","0","59","Thu Feb 18 16:52:02 2021","The main experiment item","yes","Lexical_Decision_Task.osexp","C:/Users/memmz","no","Andale Mono","no","18","no","white","no","yes","576","legacy","55","55","3","C:/Users/memmz/subject-5211269.csv","legacy","Lentiform Loewenfeld","3.3.7","yes","yes","600bd7cfb6416f0113b04181","602110864497cf011d9c0822","0","j","NA","space","space","space","space","j","922","NA","2349","24766","6376","8210","922","2","legacy","1024","2","48000","-16","task","5211269","odd","NA","42258","46613","44263","171286","3640","34786","28409","171789","151336","171284","171790","171143","46613","172713","40694","170643","3636","162354","Lexical Decision Task","50","46339","60","yes","1024"
"3.311895072","0","9","gung","non-word","83.60655737704919","83.60655737704919","768.9180327868852","768.9180327868852","black","no","legacy","legacy","legacy","0","uniform","1","undefined","undefined","undefined","1","f","0","0","0","0","60","0","0","0","60","0","56","60","56","0","56","3","60","0","60","Thu Feb 18 16:52:02 2021","The main experiment item","yes","Lexical_Decision_Task.osexp","C:/Users/memmz","no","Andale Mono","no","18","no","white","no","yes","576","legacy","56","56","3","C:/Users/memmz/subject-5211269.csv","legacy","Lentiform Loewenfeld","3.3.7","yes","yes","600bd7cfb6416f0113b04181","602110864497cf011d9c0822","0","f","NA","space","space","space","space","f","565","NA","2349","24766","6376","8210","565","2","legacy","1024","2","48000","-16","task","5211269","odd","NA","42258","46613","44263","173377","3640","34786","28409","173879","151336","173373","173879","173219","46613","174446","40694","172719","3636","162354","Lexical Decision Task","51","46904","61","yes","1024"
"2.714888338","0","3","brug","non-word","82.25806451612904","82.25806451612904","769.1290322580645","769.1290322580645","black","no","legacy","legacy","legacy","0","uniform","0","undefined","undefined","undefined","0","f","0","0","0","0","61","0","0","0","61","0","57","61","57","0","57","3","61","0","61","Thu Feb 18 16:52:02 2021","The main experiment item","yes","Lexical_Decision_Task.osexp","C:/Users/memmz","no","Andale Mono","no","18","no","white","no","yes","576","legacy","57","57","3","C:/Users/memmz/subject-5211269.csv","legacy","Lentiform Loewenfeld","3.3.7","yes","yes","600bd7cfb6416f0113b04181","602110864497cf011d9c0822","0","j","NA","space","space","space","space","j","782","NA","2349","24766","6376","8210","782","2","legacy","1024","2","48000","-16","task","5211269","odd","NA","42258","46613","44263","175099","3640","34786","28409","175600","151336","175098","175600","174953","46613","176384","40694","174453","3636","162354","Lexical Decision Task","51","47686","62","yes","1024"
"2.937852093","0","7","bamp","non-word","82.53968253968254","82.53968253968254","769.9047619047619","769.9047619047619","black","no","legacy","legacy","legacy","0","uniform","1","undefined","undefined","undefined","1","f","0","0","0","0","62","0","0","0","62","0","58","62","58","0","58","3","62","0","62","Thu Feb 18 16:52:02 2021","The main experiment item","yes","Lexical_Decision_Task.osexp","C:/Users/memmz","no","Andale Mono","no","18","no","white","no","yes","576","legacy","58","58","3","C:/Users/memmz/subject-5211269.csv","legacy","Lentiform Loewenfeld","3.3.7","yes","yes","600bd7cfb6416f0113b04181","602110864497cf011d9c0822","0","f","NA","space","space","space","space","f","818","NA","2349","24766","6376","8210","818","2","legacy","1024","2","48000","-16","task","5211269","odd","NA","42258","46613","44263","177991","3640","34786","28409","178493","151336","177988","178494","177888","46613","179314","40694","174453","3636","176388","Lexical Decision Task","52","48504","63","yes","1024"
"3.316948329","0","1","besc","non-word","82.8125","82.8125","767.8125","767.8125","black","no","legacy","legacy","legacy","0","uniform","1","undefined","undefined","undefined","1","f","0","0","0","0","63","0","0","0","63","0","59","63","59","0","59","3","63","0","63","Thu Feb 18 16:52:02 2021","The main experiment item","yes","Lexical_Decision_Task.osexp","C:/Users/memmz","no","Andale Mono","no","18","no","white","no","yes","576","legacy","59","59","3","C:/Users/memmz/subject-5211269.csv","legacy","Lentiform Loewenfeld","3.3.7","yes","yes","600bd7cfb6416f0113b04181","602110864497cf011d9c0822","0","f","NA","space","space","space","space","f","636","NA","2349","24766","6376","8210","636","2","legacy","1024","2","48000","-16","task","5211269","odd","NA","42258","46613","44263","179991","3640","34786","28409","180494","151336","179988","180495","179823","46613","181132","40694","179322","3636","176388","Lexical Decision Task","53","49140","64","yes","1024"
"2.898725182","0","7","turl","non-word","81.53846153846153","81.53846153846153","772.3692307692307","772.3692307692307","black","no","legacy","legacy","legacy","0","uniform","0","undefined","undefined","undefined","0","f","0","0","0","0","64","0","0","0","64","0","60","64","60","0","60","3","64","0","64","Thu Feb 18 16:52:02 2021","The main experiment item","yes","Lexical_Decision_Task.osexp","C:/Users/memmz","no","Andale Mono","no","18","no","white","no","yes","576","legacy","60","60","3","C:/Users/memmz/subject-5211269.csv","legacy","Lentiform Loewenfeld","3.3.7","yes","yes","600bd7cfb6416f0113b04181","602110864497cf011d9c0822","0","j","NA","space","space","space","space","j","1064","NA","2349","24766","6376","8210","1064","2","legacy","1024","2","48000","-16","task","5211269","odd","NA","42258","46613","44263","181796","3640","34786","28409","182300","151336","181794","182300","181646","46613","183366","40694","181145","3636","176388","Lexical Decision Task","53","50204","65","yes","1024"
"2.698100546","0","9","mulk","non-word","80.3030303030303","80.3030303030303","775.9545454545455","775.9545454545455","black","no","legacy","legacy","legacy","0","uniform","0","undefined","undefined","undefined","0","f","0","0","0","0","65","0","0","0","65","0","61","65","61","0","61","3","65","0","65","Thu Feb 18 16:52:02 2021","The main experiment item","yes","Lexical_Decision_Task.osexp","C:/Users/memmz","no","Andale Mono","no","18","no","white","no","yes","576","legacy","61","61","3","C:/Users/memmz/subject-5211269.csv","legacy","Lentiform Loewenfeld","3.3.7","yes","yes","600bd7cfb6416f0113b04181","602110864497cf011d9c0822","0","j","NA","space","space","space","space","j","1009","NA","2349","24766","6376","8210","1009","2","legacy","1024","2","48000","-16","task","5211269","odd","NA","42258","46613","44263","185021","3640","34786","28409","185528","151336","185018","185528","184872","46613","186538","40694","181145","3636","183372","Lexical Decision Task","53","51213","66","yes","1024"
"3.20996159","0","4","clee","non-word","80.59701492537313","80.59701492537313","776.2985074626865","776.2985074626865","black","no","legacy","legacy","legacy","0","uniform","1","undefined","undefined","undefined","1","f","0","0","0","0","66","0","0","0","66","0","62","66","62","0","62","3","66","0","66","Thu Feb 18 16:52:02 2021","The main experiment item","yes","Lexical_Decision_Task.osexp","C:/Users/memmz","no","Andale Mono","no","18","no","white","no","yes","576","legacy","62","62","3","C:/Users/memmz/subject-5211269.csv","legacy","Lentiform Loewenfeld","3.3.7","yes","yes","600bd7cfb6416f0113b04181","602110864497cf011d9c0822","0","f","NA","space","space","space","space","f","799","NA","2349","24766","6376","8210","799","2","legacy","1024","2","48000","-16","task","5211269","odd","NA","42258","46613","44263","188179","3640","34786","28409","188683","151336","188177","188683","188046","46613","189482","40694","181145","3636","186546","Lexical Decision Task","54","52012","67","yes","1024"
"2.706148589","0","4","hube","non-word","80.88235294117646","80.88235294117646","776.7941176470588","776.7941176470588","black","no","legacy","legacy","legacy","0","uniform","1","undefined","undefined","undefined","1","f","0","0","0","0","67","0","0","0","67","0","63","67","63","0","63","3","67","0","67","Thu Feb 18 16:52:02 2021","The main experiment item","yes","Lexical_Decision_Task.osexp","C:/Users/memmz","no","Andale Mono","no","18","no","white","no","yes","576","legacy","63","63","3","C:/Users/memmz/subject-5211269.csv","legacy","Lentiform Loewenfeld","3.3.7","yes","yes","600bd7cfb6416f0113b04181","602110864497cf011d9c0822","0","f","NA","space","space","space","space","f","810","NA","2349","24766","6376","8210","810","2","legacy","1024","2","48000","-16","task","5211269","odd","NA","42258","46613","44263","190117","3640","34786","28409","190621","151336","190115","190621","189989","46613","191432","40694","189488","3636","186546","Lexical Decision Task","55","52822","68","yes","1024"
"2.9737419","7.69","7","claw","word","81.15942028985508","81.15942028985508","774.1014492753624","774.1014492753624","black","no","legacy","legacy","legacy","0","uniform","1","undefined","undefined","undefined","1","j","0","0","0","0","68","0","0","0","68","0","64","68","64","0","64","3","68","0","68","Thu Feb 18 16:52:02 2021","The main experiment item","yes","Lexical_Decision_Task.osexp","C:/Users/memmz","no","Andale Mono","no","18","no","white","no","yes","576","legacy","64","64","3","C:/Users/memmz/subject-5211269.csv","legacy","Lentiform Loewenfeld","3.3.7","yes","yes","600bd7cfb6416f0113b04181","602110864497cf011d9c0822","0","j","NA","space","space","space","space","j","591","NA","2349","24766","6376","8210","591","2","legacy","1024","2","48000","-16","task","5211269","odd","NA","42258","46613","44263","192126","3640","34786","28409","192628","151336","192122","192629","191937","46613","193221","40694","191437","3636","186546","Lexical Decision Task","56","53413","69","yes","1024"
"2.819763221","0","2","durp","non-word","81.42857142857143","81.42857142857143","770.7","770.7","black","no","legacy","legacy","legacy","0","uniform","1","undefined","undefined","undefined","1","f","0","0","0","0","69","0","0","0","69","0","65","69","65","0","65","3","69","0","69","Thu Feb 18 16:52:02 2021","The main experiment item","yes","Lexical_Decision_Task.osexp","C:/Users/memmz","no","Andale Mono","no","18","no","white","no","yes","576","legacy","65","65","3","C:/Users/memmz/subject-5211269.csv","legacy","Lentiform Loewenfeld","3.3.7","yes","yes","600bd7cfb6416f0113b04181","602110864497cf011d9c0822","0","f","NA","space","space","space","space","f","536","NA","2349","24766","6376","8210","536","2","legacy","1024","2","48000","-16","task","5211269","odd","NA","42258","46613","44263","193860","3640","34786","28409","194363","151336","193857","194363","193728","46613","194901","40694","193228","3636","186546","Lexical Decision Task","57","53949","70","yes","1024"
"2.68604012","0","3","mulb","non-word","81.69014084507042","81.69014084507042","769.9859154929577","769.9859154929577","black","no","legacy","legacy","legacy","0","uniform","1","undefined","undefined","undefined","1","f","0","0","0","0","70","0","0","0","70","0","66","70","66","0","66","3","70","0","70","Thu Feb 18 16:52:02 2021","The main experiment item","yes","Lexical_Decision_Task.osexp","C:/Users/memmz","no","Andale Mono","no","18","no","white","no","yes","576","legacy","66","66","3","C:/Users/memmz/subject-5211269.csv","legacy","Lentiform Loewenfeld","3.3.7","yes","yes","600bd7cfb6416f0113b04181","602110864497cf011d9c0822","0","f","NA","space","space","space","space","f","720","NA","2349","24766","6376","8210","720","2","legacy","1024","2","48000","-16","task","5211269","odd","NA","42258","46613","44263","195590","3640","34786","28409","196094","151336","195587","196094","195406","46613","196815","40694","194906","3636","186546","Lexical Decision Task","58","54669","71","yes","1024"
"2.972819734","0","4","scew","non-word","81.94444444444444","81.94444444444444","769.0277777777778","769.0277777777778","black","no","legacy","legacy","legacy","0","uniform","1","undefined","undefined","undefined","1","f","0","0","0","0","71","0","0","0","71","0","67","71","67","0","67","3","71","0","71","Thu Feb 18 16:52:02 2021","The main experiment item","yes","Lexical_Decision_Task.osexp","C:/Users/memmz","no","Andale Mono","no","18","no","white","no","yes","576","legacy","67","67","3","C:/Users/memmz/subject-5211269.csv","legacy","Lentiform Loewenfeld","3.3.7","yes","yes","600bd7cfb6416f0113b04181","602110864497cf011d9c0822","0","f","NA","space","space","space","space","f","701","NA","2349","24766","6376","8210","701","2","legacy","1024","2","48000","-16","task","5211269","odd","NA","42258","46613","44263","197455","3640","34786","28409","197959","151336","197452","197959","197324","46613","198661","40694","196823","3636","186546","Lexical Decision Task","59","55370","72","yes","1024"
"3.29439347","8.6","9","wand","word","82.1917808219178","82.1917808219178","771.931506849315","771.931506849315","black","no","legacy","legacy","legacy","0","uniform","1","undefined","undefined","undefined","1","j","0","0","0","0","72","0","0","0","72","0","68","72","68","0","68","3","72","0","72","Thu Feb 18 16:52:02 2021","The main experiment item","yes","Lexical_Decision_Task.osexp","C:/Users/memmz","no","Andale Mono","no","18","no","white","no","yes","576","legacy","68","68","3","C:/Users/memmz/subject-5211269.csv","legacy","Lentiform Loewenfeld","3.3.7","yes","yes","600bd7cfb6416f0113b04181","602110864497cf011d9c0822","0","j","NA","space","space","space","space","j","981","NA","2349","24766","6376","8210","981","2","legacy","1024","2","48000","-16","task","5211269","odd","NA","42258","46613","44263","199348","3640","34786","28409","199851","151336","199345","199852","199169","46613","200835","40694","198669","3636","186546","Lexical Decision Task","60","56351","73","yes","1024"
"3.218535505","7.85","7","goat","word","82.43243243243244","82.43243243243244","767.2972972972973","767.2972972972973","black","no","legacy","legacy","legacy","0","uniform","1","undefined","undefined","undefined","1","j","0","0","0","0","73","0","0","0","73","0","69","73","69","0","69","3","73","0","73","Thu Feb 18 16:52:02 2021","The main experiment item","yes","Lexical_Decision_Task.osexp","C:/Users/memmz","no","Andale Mono","no","18","no","white","no","yes","576","legacy","69","69","3","C:/Users/memmz/subject-5211269.csv","legacy","Lentiform Loewenfeld","3.3.7","yes","yes","600bd7cfb6416f0113b04181","602110864497cf011d9c0822","0","j","NA","space","space","space","space","j","429","NA","2349","24766","6376","8210","429","2","legacy","1024","2","48000","-16","task","5211269","odd","NA","42258","46613","44263","201492","3640","34786","28409","201995","151336","201490","201997","201343","46613","202428","40694","200843","3636","186546","Lexical Decision Task","61","56780","74","yes","1024"
"2.897810299","0","5","glur","non-word","82.66666666666667","82.66666666666667","764.2933333333333","764.2933333333333","black","no","legacy","legacy","legacy","0","uniform","1","undefined","undefined","undefined","1","f","0","0","0","0","74","0","0","0","74","0","70","74","70","0","70","3","74","0","74","Thu Feb 18 16:52:02 2021","The main experiment item","yes","Lexical_Decision_Task.osexp","C:/Users/memmz","no","Andale Mono","no","18","no","white","no","yes","576","legacy","70","70","3","C:/Users/memmz/subject-5211269.csv","legacy","Lentiform Loewenfeld","3.3.7","yes","yes","600bd7cfb6416f0113b04181","602110864497cf011d9c0822","0","f","NA","space","space","space","space","f","542","NA","2349","24766","6376","8210","542","2","legacy","1024","2","48000","-16","task","5211269","odd","NA","42258","46613","44263","203074","3640","34786","28409","203577","151336","203072","203577","202937","46613","204121","40694","202437","3636","186546","Lexical Decision Task","62","57322","75","yes","1024"
"3.037294994","8.64","7","roof","word","82.89473684210526","82.89473684210526","761.5921052631579","761.5921052631579","black","no","legacy","legacy","legacy","0","uniform","1","undefined","undefined","undefined","1","j","0","0","0","0","75","0","0","0","75","0","71","75","71","0","71","3","75","0","75","Thu Feb 18 16:52:02 2021","The main experiment item","yes","Lexical_Decision_Task.osexp","C:/Users/memmz","no","Andale Mono","no","18","no","white","no","yes","576","legacy","71","71","3","C:/Users/memmz/subject-5211269.csv","legacy","Lentiform Loewenfeld","3.3.7","yes","yes","600bd7cfb6416f0113b04181","602110864497cf011d9c0822","0","j","NA","space","space","space","space","j","559","NA","2349","24766","6376","8210","559","2","legacy","1024","2","48000","-16","task","5211269","odd","NA","42258","46613","44263","204753","3640","34786","28409","205256","151336","204751","205256","204627","46613","205817","40694","204126","3636","186546","Lexical Decision Task","63","57881","76","yes","1024"
"3.159867847","5.98","5","brim","word","81.81818181818181","81.81818181818181","760.7532467532468","760.7532467532468","black","no","legacy","legacy","legacy","0","uniform","0","undefined","undefined","undefined","0","j","0","0","0","0","76","0","0","0","76","0","72","76","72","0","72","3","76","0","76","Thu Feb 18 16:52:02 2021","The main experiment item","yes","Lexical_Decision_Task.osexp","C:/Users/memmz","no","Andale Mono","no","18","no","white","no","yes","576","legacy","72","72","3","C:/Users/memmz/subject-5211269.csv","legacy","Lentiform Loewenfeld","3.3.7","yes","yes","600bd7cfb6416f0113b04181","602110864497cf011d9c0822","0","f","NA","space","space","space","space","f","697","NA","2349","24766","6376","8210","697","2","legacy","1024","2","48000","-16","task","5211269","odd","NA","42258","46613","44263","206446","3640","34786","28409","206949","151336","206444","206950","206324","46613","207648","40694","205824","3636","186546","Lexical Decision Task","63","58578","77","yes","1024"
"2.983324025","9.56","2","debt","word","82.05128205128206","82.05128205128206","757.1794871794872","757.1794871794872","black","no","legacy","legacy","legacy","0","uniform","1","undefined","undefined","undefined","1","j","0","0","0","0","77","0","0","0","77","0","73","77","73","0","73","3","77","0","77","Thu Feb 18 16:52:02 2021","The main experiment item","yes","Lexical_Decision_Task.osexp","C:/Users/memmz","no","Andale Mono","no","18","no","white","no","yes","576","legacy","73","73","3","C:/Users/memmz/subject-5211269.csv","legacy","Lentiform Loewenfeld","3.3.7","yes","yes","600bd7cfb6416f0113b04181","602110864497cf011d9c0822","0","j","NA","space","space","space","space","j","482","NA","2349","24766","6376","8210","482","2","legacy","1024","2","48000","-16","task","5211269","odd","NA","42258","46613","44263","209339","3640","34786","28409","209842","151336","209337","209843","209156","46613","210328","40694","205824","3636","207655","Lexical Decision Task","64","59060","78","yes","1024"
"3.140404328","10.66","9","deep","word","82.27848101265823","82.27848101265823","756.7088607594936","756.7088607594936","black","no","legacy","legacy","legacy","0","uniform","1","undefined","undefined","undefined","1","j","0","0","0","0","78","0","0","0","78","0","74","78","74","0","74","3","78","0","78","Thu Feb 18 16:52:02 2021","The main experiment item","yes","Lexical_Decision_Task.osexp","C:/Users/memmz","no","Andale Mono","no","18","no","white","no","yes","576","legacy","74","74","3","C:/Users/memmz/subject-5211269.csv","legacy","Lentiform Loewenfeld","3.3.7","yes","yes","600bd7cfb6416f0113b04181","602110864497cf011d9c0822","0","j","NA","space","space","space","space","j","720","NA","2349","24766","6376","8210","720","2","legacy","1024","2","48000","-16","task","5211269","odd","NA","42258","46613","44263","210985","3640","34786","28409","211488","151336","210982","211489","210836","46613","212211","40694","210336","3636","207655","Lexical Decision Task","65","59780","79","yes","1024"
"2.895974732","6.65","5","sift","word","81.25","81.25","756.0875","756.0875","black","no","legacy","legacy","legacy","0","uniform","0","undefined","undefined","undefined","0","j","0","0","0","0","79","0","0","0","79","0","75","79","75","0","75","3","79","0","79","Thu Feb 18 16:52:02 2021","The main experiment item","yes","Lexical_Decision_Task.osexp","C:/Users/memmz","no","Andale Mono","no","18","no","white","no","yes","576","legacy","75","75","3","C:/Users/memmz/subject-5211269.csv","legacy","Lentiform Loewenfeld","3.3.7","yes","yes","600bd7cfb6416f0113b04181","602110864497cf011d9c0822","0","f","NA","space","space","space","space","f","707","NA","2349","24766","6376","8210","707","2","legacy","1024","2","48000","-16","task","5211269","odd","NA","42258","46613","44263","212881","3640","34786","28409","213385","151336","212879","213386","212717","46613","214095","40694","212217","3636","207655","Lexical Decision Task","65","60487","80","yes","1024"
"3.031408464","0","7","drow","non-word","80.24691358024691","80.24691358024691","757.7654320987655","757.7654320987655","black","no","legacy","legacy","legacy","0","uniform","0","undefined","undefined","undefined","0","f","0","0","0","0","80","0","0","0","80","0","76","80","76","0","76","3","80","0","80","Thu Feb 18 16:52:02 2021","The main experiment item","yes","Lexical_Decision_Task.osexp","C:/Users/memmz","no","Andale Mono","no","18","no","white","no","yes","576","legacy","76","76","3","C:/Users/memmz/subject-5211269.csv","legacy","Lentiform Loewenfeld","3.3.7","yes","yes","600bd7cfb6416f0113b04181","602110864497cf011d9c0822","0","j","NA","space","space","space","space","j","892","NA","2349","24766","6376","8210","892","2","legacy","1024","2","48000","-16","task","5211269","odd","NA","42258","46613","44263","215758","3640","34786","28409","216260","151336","215756","216260","215604","46613","217154","40694","212217","3636","214104","Lexical Decision Task","65","61379","81","yes","1024"
"2.845304797","0","6","buct","non-word","80.48780487804878","80.48780487804878","756.3048780487804","756.3048780487804","black","no","legacy","legacy","legacy","0","uniform","1","undefined","undefined","undefined","1","f","0","0","0","0","81","0","0","0","81","0","77","81","77","0","77","3","81","0","81","Thu Feb 18 16:52:02 2021","The main experiment item","yes","Lexical_Decision_Task.osexp","C:/Users/memmz","no","Andale Mono","no","18","no","white","no","yes","576","legacy","77","77","3","C:/Users/memmz/subject-5211269.csv","legacy","Lentiform Loewenfeld","3.3.7","yes","yes","600bd7cfb6416f0113b04181","602110864497cf011d9c0822","0","f","NA","space","space","space","space","f","638","NA","2349","24766","6376","8210","638","2","legacy","1024","2","48000","-16","task","5211269","odd","NA","42258","46613","44263","218801","3640","34786","28409","219305","151336","218798","219305","218661","46613","219945","40694","212217","3636","217161","Lexical Decision Task","66","62017","82","yes","1024"
"2.767650507","0","6","yolt","non-word","79.51807228915662","79.51807228915662","755.9638554216867","755.9638554216867","black","no","legacy","legacy","legacy","0","uniform","0","undefined","undefined","undefined","0","f","0","0","0","0","82","0","0","0","82","0","78","82","78","0","78","3","82","0","82","Thu Feb 18 16:52:02 2021","The main experiment item","yes","Lexical_Decision_Task.osexp","C:/Users/memmz","no","Andale Mono","no","18","no","white","no","yes","576","legacy","78","78","3","C:/Users/memmz/subject-5211269.csv","legacy","Lentiform Loewenfeld","3.3.7","yes","yes","600bd7cfb6416f0113b04181","602110864497cf011d9c0822","0","j","NA","space","space","space","space","j","728","NA","2349","24766","6376","8210","728","2","legacy","1024","2","48000","-16","task","5211269","odd","NA","42258","46613","44263","220629","3640","34786","28409","221134","151336","220625","221134","220451","46613","221864","40694","219951","3636","217161","Lexical Decision Task","66","62745","83","yes","1024"
"2.838639236","0","4","furg","non-word","79.76190476190476","79.76190476190476","754.1071428571429","754.1071428571429","black","no","legacy","legacy","legacy","0","uniform","1","undefined","undefined","undefined","1","f","0","0","0","0","83","0","0","0","83","0","79","83","79","0","79","3","83","0","83","Thu Feb 18 16:52:02 2021","The main experiment item","yes","Lexical_Decision_Task.osexp","C:/Users/memmz","no","Andale Mono","no","18","no","white","no","yes","576","legacy","79","79","3","C:/Users/memmz/subject-5211269.csv","legacy","Lentiform Loewenfeld","3.3.7","yes","yes","600bd7cfb6416f0113b04181","602110864497cf011d9c0822","0","f","NA","space","space","space","space","f","600","NA","2349","24766","6376","8210","600","2","legacy","1024","2","48000","-16","task","5211269","odd","NA","42258","46613","44263","223545","3640","34786","28409","224049","151336","223543","224049","223371","46613","224650","40694","219951","3636","221871","Lexical Decision Task","67","63345","84","yes","1024"
"2.675164031","8.57","6","glue","word","80","80","751.1764705882352","751.1764705882352","black","no","legacy","legacy","legacy","0","uniform","1","undefined","undefined","undefined","1","j","0","0","0","0","84","0","0","0","84","0","80","84","80","0","80","3","84","0","84","Thu Feb 18 16:52:02 2021","The main experiment item","yes","Lexical_Decision_Task.osexp","C:/Users/memmz","no","Andale Mono","no","18","no","white","no","yes","576","legacy","80","80","3","C:/Users/memmz/subject-5211269.csv","legacy","Lentiform Loewenfeld","3.3.7","yes","yes","600bd7cfb6416f0113b04181","602110864497cf011d9c0822","0","j","NA","space","space","space","space","j","505","NA","2349","24766","6376","8210","505","2","legacy","1024","2","48000","-16","task","5211269","odd","NA","42258","46613","44263","225296","3640","34786","28409","225799","151336","225293","225800","225157","46613","226306","40694","224656","3636","221871","Lexical Decision Task","68","63850","85","yes","1024"
"3.043885998","0","9","gome","non-word","80.23255813953489","80.23255813953489","751.2790697674419","751.2790697674419","black","no","legacy","legacy","legacy","0","uniform","1","undefined","undefined","undefined","1","f","0","0","0","0","85","0","0","0","85","0","81","85","81","0","81","3","85","0","85","Thu Feb 18 16:52:02 2021","The main experiment item","yes","Lexical_Decision_Task.osexp","C:/Users/memmz","no","Andale Mono","no","18","no","white","no","yes","576","legacy","81","81","3","C:/Users/memmz/subject-5211269.csv","legacy","Lentiform Loewenfeld","3.3.7","yes","yes","600bd7cfb6416f0113b04181","602110864497cf011d9c0822","0","f","NA","space","space","space","space","f","760","NA","2349","24766","6376","8210","760","2","legacy","1024","2","48000","-16","task","5211269","odd","NA","42258","46613","44263","226939","3640","34786","28409","227442","151336","226937","227442","226813","46613","228204","40694","226313","3636","221871","Lexical Decision Task","69","64610","86","yes","1024"
"3.068433376","8.09","2","bulb","word","80.45977011494253","80.45977011494253","748.5862068965517","748.5862068965517","black","no","legacy","legacy","legacy","0","uniform","1","undefined","undefined","undefined","1","j","0","0","0","0","86","0","0","0","86","0","82","86","82","0","82","3","86","0","86","Thu Feb 18 16:52:02 2021","The main experiment item","yes","Lexical_Decision_Task.osexp","C:/Users/memmz","no","Andale Mono","no","18","no","white","no","yes","576","legacy","82","82","3","C:/Users/memmz/subject-5211269.csv","legacy","Lentiform Loewenfeld","3.3.7","yes","yes","600bd7cfb6416f0113b04181","602110864497cf011d9c0822","0","j","NA","space","space","space","space","j","517","NA","2349","24766","6376","8210","517","2","legacy","1024","2","48000","-16","task","5211269","odd","NA","42258","46613","44263","228839","3640","34786","28409","229342","151336","228836","229343","228710","46613","229862","40694","228210","3636","221871","Lexical Decision Task","70","65127","87","yes","1024"
"3.153104174","10.89","6","door","word","80.68181818181819","80.68181818181819","745.6931818181819","745.6931818181819","black","no","legacy","legacy","legacy","0","uniform","1","undefined","undefined","undefined","1","j","0","0","0","0","87","0","0","0","87","0","83","87","83","0","83","3","87","0","87","Thu Feb 18 16:52:02 2021","The main experiment item","yes","Lexical_Decision_Task.osexp","C:/Users/memmz","no","Andale Mono","no","18","no","white","no","yes","576","legacy","83","83","3","C:/Users/memmz/subject-5211269.csv","legacy","Lentiform Loewenfeld","3.3.7","yes","yes","600bd7cfb6416f0113b04181","602110864497cf011d9c0822","0","j","NA","space","space","space","space","j","494","NA","2349","24766","6376","8210","494","2","legacy","1024","2","48000","-16","task","5211269","odd","NA","42258","46613","44263","230509","3640","34786","28409","231014","151336","230505","231014","230372","46613","231510","40694","229872","3636","221871","Lexical Decision Task","71","65621","88","yes","1024"
"3.16326079","0","5","parg","non-word","80.89887640449439","80.89887640449439","744.2022471910112","744.2022471910112","black","no","legacy","legacy","legacy","0","uniform","1","undefined","undefined","undefined","1","f","0","0","0","0","88","0","0","0","88","0","84","88","84","0","84","3","88","0","88","Thu Feb 18 16:52:02 2021","The main experiment item","yes","Lexical_Decision_Task.osexp","C:/Users/memmz","no","Andale Mono","no","18","no","white","no","yes","576","legacy","84","84","3","C:/Users/memmz/subject-5211269.csv","legacy","Lentiform Loewenfeld","3.3.7","yes","yes","600bd7cfb6416f0113b04181","602110864497cf011d9c0822","0","f","NA","space","space","space","space","f","613","NA","2349","24766","6376","8210","613","2","legacy","1024","2","48000","-16","task","5211269","odd","NA","42258","46613","44263","232130","3640","34786","28409","232633","151336","232127","232634","232016","46613","233249","40694","231516","3636","221871","Lexical Decision Task","72","66234","89","yes","1024"
"3.382617311","0","4","pret","non-word","81.11111111111111","81.11111111111111","753.0777777777778","753.0777777777778","black","no","legacy","legacy","legacy","0","uniform","1","undefined","undefined","undefined","1","f","0","0","0","0","89","0","0","0","89","0","85","89","85","0","85","3","89","0","89","Thu Feb 18 16:52:02 2021","The main experiment item","yes","Lexical_Decision_Task.osexp","C:/Users/memmz","no","Andale Mono","no","18","no","white","no","yes","576","legacy","85","85","3","C:/Users/memmz/subject-5211269.csv","legacy","Lentiform Loewenfeld","3.3.7","yes","yes","600bd7cfb6416f0113b04181","602110864497cf011d9c0822","0","f","NA","space","space","space","space","f","1543","NA","2349","24766","6376","8210","1543","2","legacy","1024","2","48000","-16","task","5211269","odd","NA","42258","46613","44263","233936","3640","34786","28409","234440","151336","233932","234441","233755","46613","235986","40694","233255","3636","221871","Lexical Decision Task","73","67777","90","yes","1024"
"2.86332286","6.71","2","feud","word","81.31868131868131","81.31868131868131","750.8461538461538","750.8461538461538","black","no","legacy","legacy","legacy","0","uniform","1","undefined","undefined","undefined","1","j","0","0","0","0","90","0","0","0","90","0","86","90","86","0","86","3","90","0","90","Thu Feb 18 16:52:02 2021","The main experiment item","yes","Lexical_Decision_Task.osexp","C:/Users/memmz","no","Andale Mono","no","18","no","white","no","yes","576","legacy","86","86","3","C:/Users/memmz/subject-5211269.csv","legacy","Lentiform Loewenfeld","3.3.7","yes","yes","600bd7cfb6416f0113b04181","602110864497cf011d9c0822","0","j","NA","space","space","space","space","j","550","NA","2349","24766","6376","8210","550","2","legacy","1024","2","48000","-16","task","5211269","odd","NA","42258","46613","44263","236634","3640","34786","28409","237138","151336","236630","237138","236494","46613","237691","40694","235994","3636","221871","Lexical Decision Task","74","68327","91","yes","1024"
"2.893578687","8.69","3","surf","word","81.52173913043478","81.52173913043478","749.7717391304348","749.7717391304348","black","no","legacy","legacy","legacy","0","uniform","1","undefined","undefined","undefined","1","j","0","0","0","0","91","0","0","0","91","0","87","91","87","0","87","3","91","0","91","Thu Feb 18 16:52:02 2021","The main experiment item","yes","Lexical_Decision_Task.osexp","C:/Users/memmz","no","Andale Mono","no","18","no","white","no","yes","576","legacy","87","87","3","C:/Users/memmz/subject-5211269.csv","legacy","Lentiform Loewenfeld","3.3.7","yes","yes","600bd7cfb6416f0113b04181","602110864497cf011d9c0822","0","j","NA","space","space","space","space","j","652","NA","2349","24766","6376","8210","652","2","legacy","1024","2","48000","-16","task","5211269","odd","NA","42258","46613","44263","238327","3640","34786","28409","238830","151336","238324","238831","238199","46613","239484","40694","237698","3636","221871","Lexical Decision Task","75","68979","92","yes","1024"
"2.842815106","7.86","8","lump","word","81.72043010752688","81.72043010752688","747.8817204301075","747.8817204301075","black","no","legacy","legacy","legacy","0","uniform","1","undefined","undefined","undefined","1","j","0","0","0","0","92","0","0","0","92","0","88","92","88","0","88","3","92","0","92","Thu Feb 18 16:52:02 2021","The main experiment item","yes","Lexical_Decision_Task.osexp","C:/Users/memmz","no","Andale Mono","no","18","no","white","no","yes","576","legacy","88","88","3","C:/Users/memmz/subject-5211269.csv","legacy","Lentiform Loewenfeld","3.3.7","yes","yes","600bd7cfb6416f0113b04181","602110864497cf011d9c0822","0","j","NA","space","space","space","space","j","574","NA","2349","24766","6376","8210","574","2","legacy","1024","2","48000","-16","task","5211269","odd","NA","42258","46613","44263","240118","3640","34786","28409","240621","151336","240116","240622","239990","46613","241197","40694","239490","3636","221871","Lexical Decision Task","76","69553","93","yes","1024"
"3.003891166","8.05","2","frog","word","81.91489361702128","81.91489361702128","745.0425531914893","745.0425531914893","black","no","legacy","legacy","legacy","0","uniform","1","undefined","undefined","undefined","1","j","0","0","0","0","93","0","0","0","93","0","89","93","89","0","89","3","93","0","93","Thu Feb 18 16:52:02 2021","The main experiment item","yes","Lexical_Decision_Task.osexp","C:/Users/memmz","no","Andale Mono","no","18","no","white","no","yes","576","legacy","89","89","3","C:/Users/memmz/subject-5211269.csv","legacy","Lentiform Loewenfeld","3.3.7","yes","yes","600bd7cfb6416f0113b04181","602110864497cf011d9c0822","0","j","NA","space","space","space","space","j","481","NA","2349","24766","6376","8210","481","2","legacy","1024","2","48000","-16","task","5211269","odd","NA","42258","46613","44263","241848","3640","34786","28409","242351","151336","241846","242352","241703","46613","242834","40694","241203","3636","221871","Lexical Decision Task","77","70034","94","yes","1024"
"3.132473155","0","4","glim","non-word","82.10526315789474","82.10526315789474","743.9368421052632","743.9368421052632","black","no","legacy","legacy","legacy","0","uniform","1","undefined","undefined","undefined","1","f","0","0","0","0","94","0","0","0","94","0","90","94","90","0","90","3","94","0","94","Thu Feb 18 16:52:02 2021","The main experiment item","yes","Lexical_Decision_Task.osexp","C:/Users/memmz","no","Andale Mono","no","18","no","white","no","yes","576","legacy","90","90","3","C:/Users/memmz/subject-5211269.csv","legacy","Lentiform Loewenfeld","3.3.7","yes","yes","600bd7cfb6416f0113b04181","602110864497cf011d9c0822","0","f","NA","space","space","space","space","f","640","NA","2349","24766","6376","8210","640","2","legacy","1024","2","48000","-16","task","5211269","odd","NA","42258","46613","44263","243464","3640","34786","28409","243967","151336","243462","243967","243341","46613","244609","40694","242841","3636","221871","Lexical Decision Task","78","70674","95","yes","1024"
"2.693726949","5.08","3","swig","word","81.25","81.25","747.15625","747.15625","black","no","legacy","legacy","legacy","0","uniform","0","undefined","undefined","undefined","0","j","0","0","0","0","95","0","0","0","95","0","91","95","91","0","91","3","95","0","95","Thu Feb 18 16:52:02 2021","The main experiment item","yes","Lexical_Decision_Task.osexp","C:/Users/memmz","no","Andale Mono","no","18","no","white","no","yes","576","legacy","91","91","3","C:/Users/memmz/subject-5211269.csv","legacy","Lentiform Loewenfeld","3.3.7","yes","yes","600bd7cfb6416f0113b04181","602110864497cf011d9c0822","0","f","NA","space","space","space","space","f","1053","NA","2349","24766","6376","8210","1053","2","legacy","1024","2","48000","-16","task","5211269","odd","NA","42258","46613","44263","245297","3640","34786","28409","245800","151336","245292","245801","245115","46613","246855","40694","244615","3636","221871","Lexical Decision Task","78","71727","96","yes","1024"
"2.980306438","0","7","slun","non-word","81.44329896907216","81.44329896907216","746.1030927835052","746.1030927835052","black","no","legacy","legacy","legacy","0","uniform","1","undefined","undefined","undefined","1","f","0","0","0","0","96","0","0","0","96","0","92","96","92","0","92","3","96","0","96","Thu Feb 18 16:52:02 2021","The main experiment item","yes","Lexical_Decision_Task.osexp","C:/Users/memmz","no","Andale Mono","no","18","no","white","no","yes","576","legacy","92","92","3","C:/Users/memmz/subject-5211269.csv","legacy","Lentiform Loewenfeld","3.3.7","yes","yes","600bd7cfb6416f0113b04181","602110864497cf011d9c0822","0","f","NA","space","space","space","space","f","645","NA","2349","24766","6376","8210","645","2","legacy","1024","2","48000","-16","task","5211269","odd","NA","42258","46613","44263","248506","3640","34786","28409","249010","151336","248504","249010","248362","46613","249657","40694","244615","3636","246861","Lexical Decision Task","79","72372","97","yes","1024"
"2.616654026","9.37","5","gift","word","81.63265306122449","81.63265306122449","743.2244897959183","743.2244897959183","black","no","legacy","legacy","legacy","0","uniform","1","undefined","undefined","undefined","1","j","0","0","0","0","97","0","0","0","97","0","93","97","93","0","93","3","97","0","97","Thu Feb 18 16:52:02 2021","The main experiment item","yes","Lexical_Decision_Task.osexp","C:/Users/memmz","no","Andale Mono","no","18","no","white","no","yes","576","legacy","93","93","3","C:/Users/memmz/subject-5211269.csv","legacy","Lentiform Loewenfeld","3.3.7","yes","yes","600bd7cfb6416f0113b04181","602110864497cf011d9c0822","0","j","NA","space","space","space","space","j","464","NA","2349","24766","6376","8210","464","2","legacy","1024","2","48000","-16","task","5211269","odd","NA","42258","46613","44263","250281","3640","34786","28409","250784","151336","250280","250785","250165","46613","251251","40694","249665","3636","246861","Lexical Decision Task","80","72836","98","yes","1024"
"3.384413096","10.15","3","glad","word","81.81818181818181","81.81818181818181","743.4141414141415","743.4141414141415","black","no","legacy","legacy","legacy","0","uniform","1","undefined","undefined","undefined","1","j","0","0","0","0","98","0","0","0","98","0","94","98","94","0","94","3","98","0","98","Thu Feb 18 16:52:02 2021","The main experiment item","yes","Lexical_Decision_Task.osexp","C:/Users/memmz","no","Andale Mono","no","18","no","white","no","yes","576","legacy","94","94","3","C:/Users/memmz/subject-5211269.csv","legacy","Lentiform Loewenfeld","3.3.7","yes","yes","600bd7cfb6416f0113b04181","602110864497cf011d9c0822","0","j","NA","space","space","space","space","j","762","NA","2349","24766","6376","8210","762","2","legacy","1024","2","48000","-16","task","5211269","odd","NA","42258","46613","44263","251931","3640","34786","28409","252435","151336","251929","252435","251758","46613","253199","40694","251258","3636","246861","Lexical Decision Task","81","73598","99","yes","1024"
"3.064581521","5.51","6","cask","word","82","82","742.38","742.38","black","no","legacy","legacy","legacy","0","uniform","1","undefined","undefined","undefined","1","j","0","0","0","0","99","0","0","0","99","0","95","99","95","0","95","3","99","0","99","Thu Feb 18 16:52:02 2021","The main experiment item","yes","Lexical_Decision_Task.osexp","C:/Users/memmz","no","Andale Mono","no","18","no","white","no","yes","576","legacy","95","95","3","C:/Users/memmz/subject-5211269.csv","legacy","Lentiform Loewenfeld","3.3.7","yes","yes","600bd7cfb6416f0113b04181","602110864497cf011d9c0822","0","j","NA","space","space","space","space","j","640","NA","2349","24766","6376","8210","640","2","legacy","1024","2","48000","-16","task","5211269","odd","NA","42258","46613","44263","253849","3640","34786","28409","254352","151336","253847","254353","253705","46613","254997","40694","253205","3636","246861","Lexical Decision Task","82","74238","100","yes","1024"
"3.274157849","0","8","leet","non-word","81.18811881188118","81.18811881188118","747.2871287128713","747.2871287128713","black","no","legacy","legacy","legacy","0","uniform","0","undefined","undefined","undefined","0","f","0","0","0","0","100","0","0","0","100","0","96","100","96","0","96","3","100","0","100","Thu Feb 18 16:52:02 2021","The main experiment item","yes","Lexical_Decision_Task.osexp","C:/Users/memmz","no","Andale Mono","no","18","no","white","no","yes","576","legacy","96","96","3","C:/Users/memmz/subject-5211269.csv","legacy","Lentiform Loewenfeld","3.3.7","yes","yes","600bd7cfb6416f0113b04181","602110864497cf011d9c0822","0","j","NA","space","space","space","space","j","1238","NA","2349","24766","6376","8210","1238","2","legacy","1024","2","48000","-16","task","5211269","odd","NA","42258","46613","44263","255620","3640","34786","28409","256123","151336","255618","256124","255506","46613","257364","40694","255006","3636","246861","Lexical Decision Task","82","75476","101","yes","1024"
"3.153001286","8.7","5","palm","word","81.37254901960785","81.37254901960785","746.0882352941177","746.0882352941177","black","no","legacy","legacy","legacy","0","uniform","1","undefined","undefined","undefined","1","j","0","0","0","0","101","0","0","0","101","0","97","101","97","0","97","3","101","0","101","Thu Feb 18 16:52:02 2021","The main experiment item","yes","Lexical_Decision_Task.osexp","C:/Users/memmz","no","Andale Mono","no","18","no","white","no","yes","576","legacy","97","97","3","C:/Users/memmz/subject-5211269.csv","legacy","Lentiform Loewenfeld","3.3.7","yes","yes","600bd7cfb6416f0113b04181","602110864497cf011d9c0822","0","j","NA","space","space","space","space","j","625","NA","2349","24766","6376","8210","625","2","legacy","1024","2","48000","-16","task","5211269","odd","NA","42258","46613","44263","258994","3640","34786","28409","259498","151336","258992","259498","258874","46613","260125","40694","255006","3636","257374","Lexical Decision Task","83","76101","102","yes","1024"
