"Log_BG","Log_Freq_HAL","Ortho_N","Stimulus","Type","acc","accuracy","average_response_time","avg_rt","background","bidi","canvas_backend","clock_backend","color_backend","compensation","coordinates","correct","correct_Experimental_intro","correct_Introduction","correct_Practice_intro","correct_experimenter_kb","correct_response","count_End_Of_Experiment","count_End_Of_Practice","count_Experimental_Loop","count_Experimental_intro","count_Fixation","count_Introduction","count_Practice_Loop","count_Practice_intro","count_Stimulus","count_block_break_feedback","count_experimental_sequence","count_experimenter_kb","count_increment_trial_count","count_init_trial_count","count_logger","count_practice_sequence","count_right","count_task","count_wrong","datetime","description","disable_garbage_collection","experiment_file","experiment_path","font_bold","font_family","font_italic","font_size","font_underline","foreground","form_clicks","fullscreen","height","keyboard_backend","live_row","live_row_Experimental_Loop","live_row_Practice_Loop","logfile","mouse_backend","opensesame_codename","opensesame_version","osf_always_upload_data","osf_always_upload_experiment","osf_datanode_id","osf_id","repeat_cycle","response","response_End_Of_Experiment","response_Experimental_intro","response_Introduction","response_Practice_intro","response_block_break_feedback","response_experimenter_kb","response_time","response_time_End_Of_Experiment","response_time_Experimental_intro","response_time_Introduction","response_time_Practice_intro","response_time_block_break_feedback","response_time_experimenter_kb","round_decimals","sampler_backend","sound_buf_size","sound_channels","sound_freq","sound_sample_size","start","subject_nr","subject_parity","time_End_Of_Experiment","time_End_Of_Practice","time_Experimental_Loop","time_Experimental_intro","time_Fixation","time_Introduction","time_Practice_Loop","time_Practice_intro","time_Stimulus","time_block_break_feedback","time_experimental_sequence","time_experimenter_kb","time_increment_trial_count","time_init_trial_count","time_logger","time_practice_sequence","time_right","time_task","time_wrong","title","total_correct","total_response_time","total_responses","uniform_coordinates","width"
"2.6599162","0","2","saff","non-word","80","80","864.6","864.6","black","no","legacy","legacy","legacy","0","uniform","1","undefined","undefined","undefined","1","f","0","0","0","0","4","0","0","0","4","NA","0","4","0","0","0","3","4","0","4","Fri Feb 19 12:55:46 2021","The main experiment item","yes","Lexical_Decision_Task.osexp","/Users/charlottecrittell","no","Andale Mono","no","18","no","white","no","yes","576","legacy","0","0","3","/Users/charlottecrittell/subject-5202224.csv","legacy","Lentiform Loewenfeld","3.3.7","yes","yes","600bd7cfb6416f0113b04181","602110864497cf011d9c0822","0","f","NA","space","space","space","NA","f","1330","NA","1091","1171","1209","NA","1330","2","legacy","1024","2","48000","-16","task","5202224","even","NA","17780","20877","19785","20902","7087","9483","8270","21406","NA","20900","21406","NA","20877","22737","16265","17248","7047","12900","Lexical Decision Task","4","4323","5","yes","1024"
"3.492014979","0","9","yine","non-word","83.33333333333333","83.33333333333333","821.8333333333334","821.8333333333334","black","no","legacy","legacy","legacy","0","uniform","1","undefined","undefined","undefined","1","f","0","0","0","0","5","0","0","0","5","NA","1","5","1","0","1","3","5","0","5","Fri Feb 19 12:55:46 2021","The main experiment item","yes","Lexical_Decision_Task.osexp","/Users/charlottecrittell","no","Andale Mono","no","18","no","white","no","yes","576","legacy","1","1","3","/Users/charlottecrittell/subject-5202224.csv","legacy","Lentiform Loewenfeld","3.3.7","yes","yes","600bd7cfb6416f0113b04181","602110864497cf011d9c0822","0","f","NA","space","space","space","NA","f","608","NA","1091","1171","1209","NA","608","2","legacy","1024","2","48000","-16","task","5202224","even","NA","17780","20877","19785","23310","7087","9483","8270","23813","NA","23307","23813","23242","20877","24422","16265","22742","7047","12900","Lexical Decision Task","5","4931","6","yes","1024"
"2.594027722","9.08","8","skip","word","85.71428571428571","85.71428571428571","766.1428571428571","766.1428571428571","black","no","legacy","legacy","legacy","0","uniform","1","undefined","undefined","undefined","1","j","0","0","0","0","6","0","0","0","6","NA","2","6","2","0","2","3","6","0","6","Fri Feb 19 12:55:46 2021","The main experiment item","yes","Lexical_Decision_Task.osexp","/Users/charlottecrittell","no","Andale Mono","no","18","no","white","no","yes","576","legacy","2","2","3","/Users/charlottecrittell/subject-5202224.csv","legacy","Lentiform Loewenfeld","3.3.7","yes","yes","600bd7cfb6416f0113b04181","602110864497cf011d9c0822","0","j","NA","space","space","space","NA","j","432","NA","1091","1171","1209","NA","432","2","legacy","1024","2","48000","-16","task","5202224","even","NA","17780","20877","19785","24988","7087","9483","8270","25490","NA","24986","25490","24925","20877","25923","16265","24425","7047","12900","Lexical Decision Task","6","5363","7","yes","1024"
"3.120025233","0","2","nyst","non-word","87.5","87.5","742.875","742.875","black","no","legacy","legacy","legacy","0","uniform","1","undefined","undefined","undefined","1","f","0","0","0","0","7","0","0","0","7","NA","3","7","3","0","3","3","7","0","7","Fri Feb 19 12:55:46 2021","The main experiment item","yes","Lexical_Decision_Task.osexp","/Users/charlottecrittell","no","Andale Mono","no","18","no","white","no","yes","576","legacy","3","3","3","/Users/charlottecrittell/subject-5202224.csv","legacy","Lentiform Loewenfeld","3.3.7","yes","yes","600bd7cfb6416f0113b04181","602110864497cf011d9c0822","0","f","NA","space","space","space","NA","f","580","NA","1091","1171","1209","NA","580","2","legacy","1024","2","48000","-16","task","5202224","even","NA","17780","20877","19785","26489","7087","9483","8270","26992","NA","26486","26992","26427","20877","27573","16265","25927","7047","12900","Lexical Decision Task","7","5943","8","yes","1024"
"3.495914186","0","4","peng","non-word","77.77777777777777","77.77777777777777","721","721","black","no","legacy","legacy","legacy","0","uniform","0","undefined","undefined","undefined","0","f","0","0","0","0","8","0","0","0","8","NA","4","8","4","0","4","3","8","0","8","Fri Feb 19 12:55:46 2021","The main experiment item","yes","Lexical_Decision_Task.osexp","/Users/charlottecrittell","no","Andale Mono","no","18","no","white","no","yes","576","legacy","4","4","3","/Users/charlottecrittell/subject-5202224.csv","legacy","Lentiform Loewenfeld","3.3.7","yes","yes","600bd7cfb6416f0113b04181","602110864497cf011d9c0822","0","j","NA","space","space","space","NA","j","546","NA","1091","1171","1209","NA","546","2","legacy","1024","2","48000","-16","task","5202224","even","NA","17780","20877","19785","28140","7087","9483","8270","28643","NA","28138","28643","28077","20877","29190","16265","27577","7047","12900","Lexical Decision Task","7","6489","9","yes","1024"
"2.966923697","5.4","2","fume","word","80","80","702.2","702.2","black","no","legacy","legacy","legacy","0","uniform","1","undefined","undefined","undefined","1","j","0","0","0","0","9","0","0","0","9","NA","5","9","5","0","5","3","9","0","9","Fri Feb 19 12:55:46 2021","The main experiment item","yes","Lexical_Decision_Task.osexp","/Users/charlottecrittell","no","Andale Mono","no","18","no","white","no","yes","576","legacy","5","5","3","/Users/charlottecrittell/subject-5202224.csv","legacy","Lentiform Loewenfeld","3.3.7","yes","yes","600bd7cfb6416f0113b04181","602110864497cf011d9c0822","0","j","NA","space","space","space","NA","j","533","NA","1091","1171","1209","NA","533","2","legacy","1024","2","48000","-16","task","5202224","even","NA","17780","20877","19785","30762","7087","9483","8270","31266","NA","30760","31266","30694","20877","31800","16265","27577","7047","29194","Lexical Decision Task","8","7022","10","yes","1024"
"3.197740804","6.74","3","ache","word","81.81818181818181","81.81818181818181","694.1818181818181","694.1818181818181","black","no","legacy","legacy","legacy","0","uniform","1","undefined","undefined","undefined","1","j","0","0","0","0","10","0","0","0","10","NA","6","10","6","0","6","3","10","0","10","Fri Feb 19 12:55:46 2021","The main experiment item","yes","Lexical_Decision_Task.osexp","/Users/charlottecrittell","no","Andale Mono","no","18","no","white","no","yes","576","legacy","6","6","3","/Users/charlottecrittell/subject-5202224.csv","legacy","Lentiform Loewenfeld","3.3.7","yes","yes","600bd7cfb6416f0113b04181","602110864497cf011d9c0822","0","j","NA","space","space","space","NA","j","614","NA","1091","1171","1209","NA","614","2","legacy","1024","2","48000","-16","task","5202224","even","NA","17780","20877","19785","32370","7087","9483","8270","32873","NA","32367","32874","32303","20877","33489","16265","31803","7047","29194","Lexical Decision Task","9","7636","11","yes","1024"
"3.120135028","0","3","vals","non-word","83.33333333333333","83.33333333333333","692.8333333333334","692.8333333333334","black","no","legacy","legacy","legacy","0","uniform","1","undefined","undefined","undefined","1","f","0","0","0","0","11","0","0","0","11","NA","7","11","7","0","7","3","11","0","11","Fri Feb 19 12:55:46 2021","The main experiment item","yes","Lexical_Decision_Task.osexp","/Users/charlottecrittell","no","Andale Mono","no","18","no","white","no","yes","576","legacy","7","7","3","/Users/charlottecrittell/subject-5202224.csv","legacy","Lentiform Loewenfeld","3.3.7","yes","yes","600bd7cfb6416f0113b04181","602110864497cf011d9c0822","0","f","NA","space","space","space","NA","f","678","NA","1091","1171","1209","NA","678","2","legacy","1024","2","48000","-16","task","5202224","even","NA","17780","20877","19785","34056","7087","9483","8270","34559","NA","34053","34559","33993","20877","35237","16265","33492","7047","29194","Lexical Decision Task","10","8314","12","yes","1024"
"2.706148589","0","4","hube","non-word","84.61538461538461","84.61538461538461","703.5384615384615","703.5384615384615","black","no","legacy","legacy","legacy","0","uniform","1","undefined","undefined","undefined","1","f","0","0","0","0","12","0","0","0","12","NA","8","12","8","0","8","3","12","0","12","Fri Feb 19 12:55:46 2021","The main experiment item","yes","Lexical_Decision_Task.osexp","/Users/charlottecrittell","no","Andale Mono","no","18","no","white","no","yes","576","legacy","8","8","3","/Users/charlottecrittell/subject-5202224.csv","legacy","Lentiform Loewenfeld","3.3.7","yes","yes","600bd7cfb6416f0113b04181","602110864497cf011d9c0822","0","f","NA","space","space","space","NA","f","832","NA","1091","1171","1209","NA","832","2","legacy","1024","2","48000","-16","task","5202224","even","NA","17780","20877","19785","35805","7087","9483","8270","36308","NA","35802","36308","35741","20877","37141","16265","35241","7047","29194","Lexical Decision Task","11","9146","13","yes","1024"
"2.696644658","5.78","2","yolk","word","85.71428571428571","85.71428571428571","713","713","black","no","legacy","legacy","legacy","0","uniform","1","undefined","undefined","undefined","1","j","0","0","0","0","13","0","0","0","13","NA","9","13","9","0","9","3","13","0","13","Fri Feb 19 12:55:46 2021","The main experiment item","yes","Lexical_Decision_Task.osexp","/Users/charlottecrittell","no","Andale Mono","no","18","no","white","no","yes","576","legacy","9","9","3","/Users/charlottecrittell/subject-5202224.csv","legacy","Lentiform Loewenfeld","3.3.7","yes","yes","600bd7cfb6416f0113b04181","602110864497cf011d9c0822","0","j","NA","space","space","space","NA","j","836","NA","1091","1171","1209","NA","836","2","legacy","1024","2","48000","-16","task","5202224","even","NA","17780","20877","19785","37707","7087","9483","8270","38209","NA","37704","38210","37644","20877","39047","16265","37144","7047","29194","Lexical Decision Task","12","9982","14","yes","1024"
"2.845304797","0","6","buct","non-word","86.66666666666667","86.66666666666667","717.0666666666667","717.0666666666667","black","no","legacy","legacy","legacy","0","uniform","1","undefined","undefined","undefined","1","f","0","0","0","0","14","0","0","0","14","NA","10","14","10","0","10","3","14","0","14","Fri Feb 19 12:55:46 2021","The main experiment item","yes","Lexical_Decision_Task.osexp","/Users/charlottecrittell","no","Andale Mono","no","18","no","white","no","yes","576","legacy","10","10","3","/Users/charlottecrittell/subject-5202224.csv","legacy","Lentiform Loewenfeld","3.3.7","yes","yes","600bd7cfb6416f0113b04181","602110864497cf011d9c0822","0","f","NA","space","space","space","NA","f","774","NA","1091","1171","1209","NA","774","2","legacy","1024","2","48000","-16","task","5202224","even","NA","17780","20877","19785","39613","7087","9483","8270","40116","NA","39610","40116","39550","20877","40890","16265","39050","7047","29194","Lexical Decision Task","13","10756","15","yes","1024"
"2.980911938","7.15","7","hoop","word","87.5","87.5","702.6875","702.6875","black","no","legacy","legacy","legacy","0","uniform","1","undefined","undefined","undefined","1","j","0","0","0","0","15","0","0","0","15","NA","11","15","11","0","11","3","15","0","15","Fri Feb 19 12:55:46 2021","The main experiment item","yes","Lexical_Decision_Task.osexp","/Users/charlottecrittell","no","Andale Mono","no","18","no","white","no","yes","576","legacy","11","11","3","/Users/charlottecrittell/subject-5202224.csv","legacy","Lentiform Loewenfeld","3.3.7","yes","yes","600bd7cfb6416f0113b04181","602110864497cf011d9c0822","0","j","NA","space","space","space","NA","j","487","NA","1091","1171","1209","NA","487","2","legacy","1024","2","48000","-16","task","5202224","even","NA","17780","20877","19785","41457","7087","9483","8270","41961","NA","41455","41961","41394","20877","42449","16265","40894","7047","29194","Lexical Decision Task","14","11243","16","yes","1024"
"3.248054965","7.86","5","glow","word","88.23529411764706","88.23529411764706","690.5294117647059","690.5294117647059","black","no","legacy","legacy","legacy","0","uniform","1","undefined","undefined","undefined","1","j","0","0","0","0","16","0","0","0","16","NA","12","16","12","0","12","3","16","0","16","Fri Feb 19 12:55:46 2021","The main experiment item","yes","Lexical_Decision_Task.osexp","/Users/charlottecrittell","no","Andale Mono","no","18","no","white","no","yes","576","legacy","12","12","3","/Users/charlottecrittell/subject-5202224.csv","legacy","Lentiform Loewenfeld","3.3.7","yes","yes","600bd7cfb6416f0113b04181","602110864497cf011d9c0822","0","j","NA","space","space","space","NA","j","496","NA","1091","1171","1209","NA","496","2","legacy","1024","2","48000","-16","task","5202224","even","NA","17780","20877","19785","43016","7087","9483","8270","43520","NA","43014","43520","42953","20877","44017","16265","42453","7047","29194","Lexical Decision Task","15","11739","17","yes","1024"
"2.899638141","0","3","hapt","non-word","88.88888888888889","88.88888888888889","684.7222222222222","684.7222222222222","black","no","legacy","legacy","legacy","0","uniform","1","undefined","undefined","undefined","1","f","0","0","0","0","17","0","0","0","17","NA","13","17","13","0","13","3","17","0","17","Fri Feb 19 12:55:46 2021","The main experiment item","yes","Lexical_Decision_Task.osexp","/Users/charlottecrittell","no","Andale Mono","no","18","no","white","no","yes","576","legacy","13","13","3","/Users/charlottecrittell/subject-5202224.csv","legacy","Lentiform Loewenfeld","3.3.7","yes","yes","600bd7cfb6416f0113b04181","602110864497cf011d9c0822","0","f","NA","space","space","space","NA","f","586","NA","1091","1171","1209","NA","586","2","legacy","1024","2","48000","-16","task","5202224","even","NA","17780","20877","19785","44592","7087","9483","8270","45095","NA","44589","45095","44521","20877","45682","16265","44021","7047","29194","Lexical Decision Task","16","12325","18","yes","1024"
"3.119255889","6.63","2","itch","word","89.47368421052632","89.47368421052632","677.3157894736842","677.3157894736842","black","no","legacy","legacy","legacy","0","uniform","1","undefined","undefined","undefined","1","j","0","0","0","0","18","0","0","0","18","NA","14","18","14","0","14","3","18","0","18","Fri Feb 19 12:55:46 2021","The main experiment item","yes","Lexical_Decision_Task.osexp","/Users/charlottecrittell","no","Andale Mono","no","18","no","white","no","yes","576","legacy","14","14","3","/Users/charlottecrittell/subject-5202224.csv","legacy","Lentiform Loewenfeld","3.3.7","yes","yes","600bd7cfb6416f0113b04181","602110864497cf011d9c0822","0","j","NA","space","space","space","NA","j","544","NA","1091","1171","1209","NA","544","2","legacy","1024","2","48000","-16","task","5202224","even","NA","17780","20877","19785","46249","7087","9483","8270","46752","NA","46246","46752","46186","20877","47297","16265","45686","7047","29194","Lexical Decision Task","17","12869","19","yes","1024"
"2.696356389","0","1","pizz","non-word","90","90","680","680","black","no","legacy","legacy","legacy","0","uniform","1","undefined","undefined","undefined","1","f","0","0","0","0","19","0","0","0","19","NA","15","19","15","0","15","3","19","0","19","Fri Feb 19 12:55:46 2021","The main experiment item","yes","Lexical_Decision_Task.osexp","/Users/charlottecrittell","no","Andale Mono","no","18","no","white","no","yes","576","legacy","15","15","3","/Users/charlottecrittell/subject-5202224.csv","legacy","Lentiform Loewenfeld","3.3.7","yes","yes","600bd7cfb6416f0113b04181","602110864497cf011d9c0822","0","f","NA","space","space","space","NA","f","731","NA","1091","1171","1209","NA","731","2","legacy","1024","2","48000","-16","task","5202224","even","NA","17780","20877","19785","47871","7087","9483","8270","48374","NA","47868","48374","47807","20877","49106","16265","47307","7047","29194","Lexical Decision Task","18","13600","20","yes","1024"
"3.368162872","0","4","ferk","non-word","90.47619047619048","90.47619047619048","678.3333333333334","678.3333333333334","black","no","legacy","legacy","legacy","0","uniform","1","undefined","undefined","undefined","1","f","0","0","0","0","20","0","0","0","20","NA","16","20","16","0","16","3","20","0","20","Fri Feb 19 12:55:46 2021","The main experiment item","yes","Lexical_Decision_Task.osexp","/Users/charlottecrittell","no","Andale Mono","no","18","no","white","no","yes","576","legacy","16","16","3","/Users/charlottecrittell/subject-5202224.csv","legacy","Lentiform Loewenfeld","3.3.7","yes","yes","600bd7cfb6416f0113b04181","602110864497cf011d9c0822","0","f","NA","space","space","space","NA","f","645","NA","1091","1171","1209","NA","645","2","legacy","1024","2","48000","-16","task","5202224","even","NA","17780","20877","19785","49672","7087","9483","8270","50175","NA","49669","50175","49609","20877","50821","16265","49109","7047","29194","Lexical Decision Task","19","14245","21","yes","1024"
"2.821076612","0","4","lult","non-word","90.9090909090909","90.9090909090909","675.5909090909091","675.5909090909091","black","no","legacy","legacy","legacy","0","uniform","1","undefined","undefined","undefined","1","f","0","0","0","0","21","0","0","0","21","NA","17","21","17","0","17","3","21","0","21","Fri Feb 19 12:55:46 2021","The main experiment item","yes","Lexical_Decision_Task.osexp","/Users/charlottecrittell","no","Andale Mono","no","18","no","white","no","yes","576","legacy","17","17","3","/Users/charlottecrittell/subject-5202224.csv","legacy","Lentiform Loewenfeld","3.3.7","yes","yes","600bd7cfb6416f0113b04181","602110864497cf011d9c0822","0","f","NA","space","space","space","NA","f","618","NA","1091","1171","1209","NA","618","2","legacy","1024","2","48000","-16","task","5202224","even","NA","17780","20877","19785","51388","7087","9483","8270","51891","NA","51385","51891","51325","20877","52510","16265","50825","7047","29194","Lexical Decision Task","20","14863","22","yes","1024"
"3.14849993","10.75","7","hour","word","91.30434782608695","91.30434782608695","666.3478260869565","666.3478260869565","black","no","legacy","legacy","legacy","0","uniform","1","undefined","undefined","undefined","1","j","0","0","0","0","22","0","0","0","22","NA","18","22","18","0","18","3","22","0","22","Fri Feb 19 12:55:46 2021","The main experiment item","yes","Lexical_Decision_Task.osexp","/Users/charlottecrittell","no","Andale Mono","no","18","no","white","no","yes","576","legacy","18","18","3","/Users/charlottecrittell/subject-5202224.csv","legacy","Lentiform Loewenfeld","3.3.7","yes","yes","600bd7cfb6416f0113b04181","602110864497cf011d9c0822","0","j","NA","space","space","space","NA","j","463","NA","1091","1171","1209","NA","463","2","legacy","1024","2","48000","-16","task","5202224","even","NA","17780","20877","19785","53078","7087","9483","8270","53581","NA","53075","53581","53014","20877","54045","16265","52514","7047","29194","Lexical Decision Task","21","15326","23","yes","1024"
"3.090140555","5.81","8","pout","word","91.66666666666667","91.66666666666667","656.25","656.25","black","no","legacy","legacy","legacy","0","uniform","1","undefined","undefined","undefined","1","j","0","0","0","0","23","0","0","0","23","NA","19","23","19","0","19","3","23","0","23","Fri Feb 19 12:55:46 2021","The main experiment item","yes","Lexical_Decision_Task.osexp","/Users/charlottecrittell","no","Andale Mono","no","18","no","white","no","yes","576","legacy","19","19","3","/Users/charlottecrittell/subject-5202224.csv","legacy","Lentiform Loewenfeld","3.3.7","yes","yes","600bd7cfb6416f0113b04181","602110864497cf011d9c0822","0","j","NA","space","space","space","NA","j","424","NA","1091","1171","1209","NA","424","2","legacy","1024","2","48000","-16","task","5202224","even","NA","17780","20877","19785","54613","7087","9483","8270","55117","NA","54611","55117","54550","20877","55542","16265","54049","7047","29194","Lexical Decision Task","22","15750","24","yes","1024"
"2.75025376","10.2","6","jump","word","92","92","662.6","662.6","black","no","legacy","legacy","legacy","0","uniform","1","undefined","undefined","undefined","1","j","0","0","0","0","24","0","0","0","24","NA","20","24","20","0","20","3","24","0","24","Fri Feb 19 12:55:46 2021","The main experiment item","yes","Lexical_Decision_Task.osexp","/Users/charlottecrittell","no","Andale Mono","no","18","no","white","no","yes","576","legacy","20","20","3","/Users/charlottecrittell/subject-5202224.csv","legacy","Lentiform Loewenfeld","3.3.7","yes","yes","600bd7cfb6416f0113b04181","602110864497cf011d9c0822","0","j","NA","space","space","space","NA","j","815","NA","1091","1171","1209","NA","815","2","legacy","1024","2","48000","-16","task","5202224","even","NA","17780","20877","19785","56109","7087","9483","8270","56612","NA","56107","56612","56046","20877","57428","16265","55546","7047","29194","Lexical Decision Task","23","16565","25","yes","1024"
"3.372543801","9.24","8","coat","word","92.3076923076923","92.3076923076923","655.2307692307693","655.2307692307693","black","no","legacy","legacy","legacy","0","uniform","1","undefined","undefined","undefined","1","j","0","0","0","0","25","0","0","0","25","NA","21","25","21","0","21","3","25","0","25","Fri Feb 19 12:55:46 2021","The main experiment item","yes","Lexical_Decision_Task.osexp","/Users/charlottecrittell","no","Andale Mono","no","18","no","white","no","yes","576","legacy","21","21","3","/Users/charlottecrittell/subject-5202224.csv","legacy","Lentiform Loewenfeld","3.3.7","yes","yes","600bd7cfb6416f0113b04181","602110864497cf011d9c0822","0","j","NA","space","space","space","NA","j","471","NA","1091","1171","1209","NA","471","2","legacy","1024","2","48000","-16","task","5202224","even","NA","17780","20877","19785","57996","7087","9483","8270","58499","NA","57993","58499","57932","20877","58971","16265","57432","7047","29194","Lexical Decision Task","24","17036","26","yes","1024"
"3.299579929","0","2","flis","non-word","92.5925925925926","92.5925925925926","649.1481481481482","649.1481481481482","black","no","legacy","legacy","legacy","0","uniform","1","undefined","undefined","undefined","1","f","0","0","0","0","26","0","0","0","26","NA","22","26","22","0","22","3","26","0","26","Fri Feb 19 12:55:46 2021","The main experiment item","yes","Lexical_Decision_Task.osexp","/Users/charlottecrittell","no","Andale Mono","no","18","no","white","no","yes","576","legacy","22","22","3","/Users/charlottecrittell/subject-5202224.csv","legacy","Lentiform Loewenfeld","3.3.7","yes","yes","600bd7cfb6416f0113b04181","602110864497cf011d9c0822","0","f","NA","space","space","space","NA","f","491","NA","1091","1171","1209","NA","491","2","legacy","1024","2","48000","-16","task","5202224","even","NA","17780","20877","19785","59539","7087","9483","8270","60042","NA","59536","60042","59475","20877","60534","16265","58975","7047","29194","Lexical Decision Task","25","17527","27","yes","1024"
"2.937852093","0","7","bamp","non-word","92.85714285714286","92.85714285714286","648.9642857142857","648.9642857142857","black","no","legacy","legacy","legacy","0","uniform","1","undefined","undefined","undefined","1","f","0","0","0","0","27","0","0","0","27","NA","23","27","23","0","23","3","27","0","27","Fri Feb 19 12:55:46 2021","The main experiment item","yes","Lexical_Decision_Task.osexp","/Users/charlottecrittell","no","Andale Mono","no","18","no","white","no","yes","576","legacy","23","23","3","/Users/charlottecrittell/subject-5202224.csv","legacy","Lentiform Loewenfeld","3.3.7","yes","yes","600bd7cfb6416f0113b04181","602110864497cf011d9c0822","0","f","NA","space","space","space","NA","f","644","NA","1091","1171","1209","NA","644","2","legacy","1024","2","48000","-16","task","5202224","even","NA","17780","20877","19785","61101","7087","9483","8270","61604","NA","61099","61604","61038","20877","62249","16265","60538","7047","29194","Lexical Decision Task","26","18171","28","yes","1024"
"2.972819734","0","4","scew","non-word","93.10344827586206","93.10344827586206","662.1034482758621","662.1034482758621","black","no","legacy","legacy","legacy","0","uniform","1","undefined","undefined","undefined","1","f","0","0","0","0","28","0","0","0","28","NA","24","28","24","0","24","3","28","0","28","Fri Feb 19 12:55:46 2021","The main experiment item","yes","Lexical_Decision_Task.osexp","/Users/charlottecrittell","no","Andale Mono","no","18","no","white","no","yes","576","legacy","24","24","3","/Users/charlottecrittell/subject-5202224.csv","legacy","Lentiform Loewenfeld","3.3.7","yes","yes","600bd7cfb6416f0113b04181","602110864497cf011d9c0822","0","f","NA","space","space","space","NA","f","1030","NA","1091","1171","1209","NA","1030","2","legacy","1024","2","48000","-16","task","5202224","even","NA","17780","20877","19785","62816","7087","9483","8270","63319","NA","62813","63319","62753","20877","64350","16265","62253","7047","29194","Lexical Decision Task","27","19201","29","yes","1024"
"3.133964479","0","8","graw","non-word","93.33333333333333","93.33333333333333","658.1333333333333","658.1333333333333","black","no","legacy","legacy","legacy","0","uniform","1","undefined","undefined","undefined","1","f","0","0","0","0","29","0","0","0","29","NA","25","29","25","0","25","3","29","0","29","Fri Feb 19 12:55:46 2021","The main experiment item","yes","Lexical_Decision_Task.osexp","/Users/charlottecrittell","no","Andale Mono","no","18","no","white","no","yes","576","legacy","25","25","3","/Users/charlottecrittell/subject-5202224.csv","legacy","Lentiform Loewenfeld","3.3.7","yes","yes","600bd7cfb6416f0113b04181","602110864497cf011d9c0822","0","f","NA","space","space","space","NA","f","543","NA","1091","1171","1209","NA","543","2","legacy","1024","2","48000","-16","task","5202224","even","NA","17780","20877","19785","64918","7087","9483","8270","65421","NA","64916","65421","64854","20877","65965","16265","64354","7047","29194","Lexical Decision Task","28","19744","30","yes","1024"
"3.067193647","6.73","6","raft","word","90.3225806451613","90.3225806451613","659.0967741935484","659.0967741935484","black","no","legacy","legacy","legacy","0","uniform","0","undefined","undefined","undefined","0","j","0","0","0","0","30","0","0","0","30","NA","26","30","26","0","26","3","30","0","30","Fri Feb 19 12:55:46 2021","The main experiment item","yes","Lexical_Decision_Task.osexp","/Users/charlottecrittell","no","Andale Mono","no","18","no","white","no","yes","576","legacy","26","26","3","/Users/charlottecrittell/subject-5202224.csv","legacy","Lentiform Loewenfeld","3.3.7","yes","yes","600bd7cfb6416f0113b04181","602110864497cf011d9c0822","0","f","NA","space","space","space","NA","f","688","NA","1091","1171","1209","NA","688","2","legacy","1024","2","48000","-16","task","5202224","even","NA","17780","20877","19785","66533","7087","9483","8270","67036","NA","66530","67036","66469","20877","67725","16265","65969","7047","29194","Lexical Decision Task","28","20432","31","yes","1024"
"3.378276681","6.39","8","bran","word","87.5","87.5","654.75","654.75","black","no","legacy","legacy","legacy","0","uniform","0","undefined","undefined","undefined","0","j","0","0","0","0","31","0","0","0","31","NA","27","31","27","0","27","3","31","0","31","Fri Feb 19 12:55:46 2021","The main experiment item","yes","Lexical_Decision_Task.osexp","/Users/charlottecrittell","no","Andale Mono","no","18","no","white","no","yes","576","legacy","27","27","3","/Users/charlottecrittell/subject-5202224.csv","legacy","Lentiform Loewenfeld","3.3.7","yes","yes","600bd7cfb6416f0113b04181","602110864497cf011d9c0822","0","f","NA","space","space","space","NA","f","520","NA","1091","1171","1209","NA","520","2","legacy","1024","2","48000","-16","task","5202224","even","NA","17780","20877","19785","69294","7087","9483","8270","69797","NA","69291","69797","69229","20877","70318","16265","65969","7047","67729","Lexical Decision Task","28","20952","32","yes","1024"
"3.474361976","5.24","6","veer","word","84.84848484848484","84.84848484848484","654.1515151515151","654.1515151515151","black","no","legacy","legacy","legacy","0","uniform","0","undefined","undefined","undefined","0","j","0","0","0","0","32","0","0","0","32","NA","28","32","28","0","28","3","32","0","32","Fri Feb 19 12:55:46 2021","The main experiment item","yes","Lexical_Decision_Task.osexp","/Users/charlottecrittell","no","Andale Mono","no","18","no","white","no","yes","576","legacy","28","28","3","/Users/charlottecrittell/subject-5202224.csv","legacy","Lentiform Loewenfeld","3.3.7","yes","yes","600bd7cfb6416f0113b04181","602110864497cf011d9c0822","0","f","NA","space","space","space","NA","f","635","NA","1091","1171","1209","NA","635","2","legacy","1024","2","48000","-16","task","5202224","even","NA","17780","20877","19785","71887","7087","9483","8270","72390","NA","71884","72390","71822","20877","73026","16265","65969","7047","70321","Lexical Decision Task","28","21587","33","yes","1024"
"3.216517684","10.87","3","film","word","85.29411764705883","85.29411764705883","649.0588235294117","649.0588235294117","black","no","legacy","legacy","legacy","0","uniform","1","undefined","undefined","undefined","1","j","0","0","0","0","33","0","0","0","33","NA","29","33","29","0","29","3","33","0","33","Fri Feb 19 12:55:46 2021","The main experiment item","yes","Lexical_Decision_Task.osexp","/Users/charlottecrittell","no","Andale Mono","no","18","no","white","no","yes","576","legacy","29","29","3","/Users/charlottecrittell/subject-5202224.csv","legacy","Lentiform Loewenfeld","3.3.7","yes","yes","600bd7cfb6416f0113b04181","602110864497cf011d9c0822","0","j","NA","space","space","space","NA","j","481","NA","1091","1171","1209","NA","481","2","legacy","1024","2","48000","-16","task","5202224","even","NA","17780","20877","19785","74595","7087","9483","8270","75098","NA","74592","75098","74530","20877","75580","16265","65969","7047","73030","Lexical Decision Task","29","22068","34","yes","1024"
"3.311895072","0","9","gung","non-word","85.71428571428571","85.71428571428571","648","648","black","no","legacy","legacy","legacy","0","uniform","1","undefined","undefined","undefined","1","f","0","0","0","0","34","0","0","0","34","NA","30","34","30","0","30","3","34","0","34","Fri Feb 19 12:55:46 2021","The main experiment item","yes","Lexical_Decision_Task.osexp","/Users/charlottecrittell","no","Andale Mono","no","18","no","white","no","yes","576","legacy","30","30","3","/Users/charlottecrittell/subject-5202224.csv","legacy","Lentiform Loewenfeld","3.3.7","yes","yes","600bd7cfb6416f0113b04181","602110864497cf011d9c0822","0","f","NA","space","space","space","NA","f","612","NA","1091","1171","1209","NA","612","2","legacy","1024","2","48000","-16","task","5202224","even","NA","17780","20877","19785","76147","7087","9483","8270","76650","NA","76144","76650","76083","20877","77263","16265","75583","7047","73030","Lexical Decision Task","30","22680","35","yes","1024"
"2.980306438","0","7","slun","non-word","86.11111111111111","86.11111111111111","650.9444444444445","650.9444444444445","black","no","legacy","legacy","legacy","0","uniform","1","undefined","undefined","undefined","1","f","0","0","0","0","35","0","0","0","35","NA","31","35","31","0","31","3","35","0","35","Fri Feb 19 12:55:46 2021","The main experiment item","yes","Lexical_Decision_Task.osexp","/Users/charlottecrittell","no","Andale Mono","no","18","no","white","no","yes","576","legacy","31","31","3","/Users/charlottecrittell/subject-5202224.csv","legacy","Lentiform Loewenfeld","3.3.7","yes","yes","600bd7cfb6416f0113b04181","602110864497cf011d9c0822","0","f","NA","space","space","space","NA","f","754","NA","1091","1171","1209","NA","754","2","legacy","1024","2","48000","-16","task","5202224","even","NA","17780","20877","19785","77833","7087","9483","8270","78336","NA","77830","78336","77769","20877","79090","16265","77269","7047","73030","Lexical Decision Task","31","23434","36","yes","1024"
"2.892836167","10.01","5","soft","word","86.48648648648648","86.48648648648648","647.3513513513514","647.3513513513514","black","no","legacy","legacy","legacy","0","uniform","1","undefined","undefined","undefined","1","j","0","0","0","0","36","0","0","0","36","NA","32","36","32","0","32","3","36","0","36","Fri Feb 19 12:55:46 2021","The main experiment item","yes","Lexical_Decision_Task.osexp","/Users/charlottecrittell","no","Andale Mono","no","18","no","white","no","yes","576","legacy","32","32","3","/Users/charlottecrittell/subject-5202224.csv","legacy","Lentiform Loewenfeld","3.3.7","yes","yes","600bd7cfb6416f0113b04181","602110864497cf011d9c0822","0","j","NA","space","space","space","NA","j","518","NA","1091","1171","1209","NA","518","2","legacy","1024","2","48000","-16","task","5202224","even","NA","17780","20877","19785","79659","7087","9483","8270","80162","NA","79656","80162","79594","20877","80681","16265","79094","7047","73030","Lexical Decision Task","32","23952","37","yes","1024"
"2.695481676","0","7","goke","non-word","86.84210526315789","86.84210526315789","649.2105263157895","649.2105263157895","black","no","legacy","legacy","legacy","0","uniform","1","undefined","undefined","undefined","1","f","0","0","0","0","37","0","0","0","37","NA","33","37","33","0","33","3","37","0","37","Fri Feb 19 12:55:46 2021","The main experiment item","yes","Lexical_Decision_Task.osexp","/Users/charlottecrittell","no","Andale Mono","no","18","no","white","no","yes","576","legacy","33","33","3","/Users/charlottecrittell/subject-5202224.csv","legacy","Lentiform Loewenfeld","3.3.7","yes","yes","600bd7cfb6416f0113b04181","602110864497cf011d9c0822","0","f","NA","space","space","space","NA","f","718","NA","1091","1171","1209","NA","718","2","legacy","1024","2","48000","-16","task","5202224","even","NA","17780","20877","19785","81244","7087","9483","8270","81746","NA","81241","81747","81184","20877","82465","16265","80684","7047","73030","Lexical Decision Task","33","24670","38","yes","1024"
"3.028977705","0","7","frow","non-word","87.17948717948718","87.17948717948718","648.974358974359","648.974358974359","black","no","legacy","legacy","legacy","0","uniform","1","undefined","undefined","undefined","1","f","0","0","0","0","38","0","0","0","38","NA","34","38","34","0","34","3","38","0","38","Fri Feb 19 12:55:46 2021","The main experiment item","yes","Lexical_Decision_Task.osexp","/Users/charlottecrittell","no","Andale Mono","no","18","no","white","no","yes","576","legacy","34","34","3","/Users/charlottecrittell/subject-5202224.csv","legacy","Lentiform Loewenfeld","3.3.7","yes","yes","600bd7cfb6416f0113b04181","602110864497cf011d9c0822","0","f","NA","space","space","space","NA","f","640","NA","1091","1171","1209","NA","640","2","legacy","1024","2","48000","-16","task","5202224","even","NA","17780","20877","19785","83033","7087","9483","8270","83536","NA","83030","83536","82969","20877","84177","16265","82469","7047","73030","Lexical Decision Task","34","25310","39","yes","1024"
"2.839268497","0","8","maft","non-word","87.5","87.5","661.725","661.725","black","no","legacy","legacy","legacy","0","uniform","1","undefined","undefined","undefined","1","f","0","0","0","0","39","0","0","0","39","NA","35","39","35","0","35","3","39","0","39","Fri Feb 19 12:55:46 2021","The main experiment item","yes","Lexical_Decision_Task.osexp","/Users/charlottecrittell","no","Andale Mono","no","18","no","white","no","yes","576","legacy","35","35","3","/Users/charlottecrittell/subject-5202224.csv","legacy","Lentiform Loewenfeld","3.3.7","yes","yes","600bd7cfb6416f0113b04181","602110864497cf011d9c0822","0","f","NA","space","space","space","NA","f","1159","NA","1091","1171","1209","NA","1159","2","legacy","1024","2","48000","-16","task","5202224","even","NA","17780","20877","19785","84744","7087","9483","8270","85246","NA","84741","85247","84680","20877","86407","16265","84180","7047","73030","Lexical Decision Task","35","26469","40","yes","1024"
"3.031812271","6.52","3","gulp","word","87.8048780487805","87.8048780487805","658.170731707317","658.170731707317","black","no","legacy","legacy","legacy","0","uniform","1","undefined","undefined","undefined","1","j","0","0","0","0","40","0","0","0","40","NA","36","40","36","0","36","3","40","0","40","Fri Feb 19 12:55:46 2021","The main experiment item","yes","Lexical_Decision_Task.osexp","/Users/charlottecrittell","no","Andale Mono","no","18","no","white","no","yes","576","legacy","36","36","3","/Users/charlottecrittell/subject-5202224.csv","legacy","Lentiform Loewenfeld","3.3.7","yes","yes","600bd7cfb6416f0113b04181","602110864497cf011d9c0822","0","j","NA","space","space","space","NA","j","516","NA","1091","1171","1209","NA","516","2","legacy","1024","2","48000","-16","task","5202224","even","NA","17780","20877","19785","86975","7087","9483","8270","87478","NA","86972","87478","86912","20877","87995","16265","86411","7047","73030","Lexical Decision Task","36","26985","41","yes","1024"
"3.149629599","0","2","cleb","non-word","88.0952380952381","88.0952380952381","654.8333333333334","654.8333333333334","black","no","legacy","legacy","legacy","0","uniform","1","undefined","undefined","undefined","1","f","0","0","0","0","41","0","0","0","41","NA","37","41","37","0","37","3","41","0","41","Fri Feb 19 12:55:46 2021","The main experiment item","yes","Lexical_Decision_Task.osexp","/Users/charlottecrittell","no","Andale Mono","no","18","no","white","no","yes","576","legacy","37","37","3","/Users/charlottecrittell/subject-5202224.csv","legacy","Lentiform Loewenfeld","3.3.7","yes","yes","600bd7cfb6416f0113b04181","602110864497cf011d9c0822","0","f","NA","space","space","space","NA","f","518","NA","1091","1171","1209","NA","518","2","legacy","1024","2","48000","-16","task","5202224","even","NA","17780","20877","19785","88562","7087","9483","8270","89065","NA","88559","89065","88498","20877","89584","16265","87998","7047","73030","Lexical Decision Task","37","27503","42","yes","1024"
"3.102203805","7.21","3","drip","word","88.37209302325581","88.37209302325581","651.2558139534884","651.2558139534884","black","no","legacy","legacy","legacy","0","uniform","1","undefined","undefined","undefined","1","j","0","0","0","0","42","0","0","0","42","NA","38","42","38","0","38","3","42","0","42","Fri Feb 19 12:55:46 2021","The main experiment item","yes","Lexical_Decision_Task.osexp","/Users/charlottecrittell","no","Andale Mono","no","18","no","white","no","yes","576","legacy","38","38","3","/Users/charlottecrittell/subject-5202224.csv","legacy","Lentiform Loewenfeld","3.3.7","yes","yes","600bd7cfb6416f0113b04181","602110864497cf011d9c0822","0","j","NA","space","space","space","NA","j","501","NA","1091","1171","1209","NA","501","2","legacy","1024","2","48000","-16","task","5202224","even","NA","17780","20877","19785","90151","7087","9483","8270","90654","NA","90148","90654","90088","20877","91156","16265","89588","7047","73030","Lexical Decision Task","38","28004","43","yes","1024"
"2.755364069","7.72","2","hoax","word","88.63636363636364","88.63636363636364","653.0681818181819","653.0681818181819","black","no","legacy","legacy","legacy","0","uniform","1","undefined","undefined","undefined","1","j","0","0","0","0","43","0","0","0","43","NA","39","43","39","0","39","3","43","0","43","Fri Feb 19 12:55:46 2021","The main experiment item","yes","Lexical_Decision_Task.osexp","/Users/charlottecrittell","no","Andale Mono","no","18","no","white","no","yes","576","legacy","39","39","3","/Users/charlottecrittell/subject-5202224.csv","legacy","Lentiform Loewenfeld","3.3.7","yes","yes","600bd7cfb6416f0113b04181","602110864497cf011d9c0822","0","j","NA","space","space","space","NA","j","731","NA","1091","1171","1209","NA","731","2","legacy","1024","2","48000","-16","task","5202224","even","NA","17780","20877","19785","91725","7087","9483","8270","92228","NA","91722","92228","91659","20877","92960","16265","91159","7047","73030","Lexical Decision Task","39","28735","44","yes","1024"
"2.952953801","0","8","clax","non-word","86.66666666666667","86.66666666666667","649.0666666666667","649.0666666666667","black","no","legacy","legacy","legacy","0","uniform","0","undefined","undefined","undefined","0","f","0","0","0","0","44","0","0","0","44","NA","40","44","40","0","40","3","44","0","44","Fri Feb 19 12:55:46 2021","The main experiment item","yes","Lexical_Decision_Task.osexp","/Users/charlottecrittell","no","Andale Mono","no","18","no","white","no","yes","576","legacy","40","40","3","/Users/charlottecrittell/subject-5202224.csv","legacy","Lentiform Loewenfeld","3.3.7","yes","yes","600bd7cfb6416f0113b04181","602110864497cf011d9c0822","0","j","NA","space","space","space","NA","j","473","NA","1091","1171","1209","NA","473","2","legacy","1024","2","48000","-16","task","5202224","even","NA","17780","20877","19785","93529","7087","9483","8270","94031","NA","93526","94031","93466","20877","94505","16265","92966","7047","73030","Lexical Decision Task","39","29208","45","yes","1024"
"3.153001286","8.7","5","palm","word","86.95652173913044","86.95652173913044","644.4782608695652","644.4782608695652","black","no","legacy","legacy","legacy","0","uniform","1","undefined","undefined","undefined","1","j","0","0","0","0","45","0","0","0","45","NA","41","45","41","0","41","3","45","0","45","Fri Feb 19 12:55:46 2021","The main experiment item","yes","Lexical_Decision_Task.osexp","/Users/charlottecrittell","no","Andale Mono","no","18","no","white","no","yes","576","legacy","41","41","3","/Users/charlottecrittell/subject-5202224.csv","legacy","Lentiform Loewenfeld","3.3.7","yes","yes","600bd7cfb6416f0113b04181","602110864497cf011d9c0822","0","j","NA","space","space","space","NA","j","438","NA","1091","1171","1209","NA","438","2","legacy","1024","2","48000","-16","task","5202224","even","NA","17780","20877","19785","96070","7087","9483","8270","96573","NA","96067","96573","96008","20877","97012","16265","92966","7047","94508","Lexical Decision Task","40","29646","46","yes","1024"
"2.893578687","8.69","3","surf","word","87.23404255319149","87.23404255319149","641.2553191489362","641.2553191489362","black","no","legacy","legacy","legacy","0","uniform","1","undefined","undefined","undefined","1","j","0","0","0","0","46","0","0","0","46","NA","42","46","42","0","42","3","46","0","46","Fri Feb 19 12:55:46 2021","The main experiment item","yes","Lexical_Decision_Task.osexp","/Users/charlottecrittell","no","Andale Mono","no","18","no","white","no","yes","576","legacy","42","42","3","/Users/charlottecrittell/subject-5202224.csv","legacy","Lentiform Loewenfeld","3.3.7","yes","yes","600bd7cfb6416f0113b04181","602110864497cf011d9c0822","0","j","NA","space","space","space","NA","j","493","NA","1091","1171","1209","NA","493","2","legacy","1024","2","48000","-16","task","5202224","even","NA","17780","20877","19785","97578","7087","9483","8270","98082","NA","97576","98082","97516","20877","98576","16265","97016","7047","94508","Lexical Decision Task","41","30139","47","yes","1024"
"3.384413096","10.15","3","glad","word","87.5","87.5","643.4583333333334","643.4583333333334","black","no","legacy","legacy","legacy","0","uniform","1","undefined","undefined","undefined","1","j","0","0","0","0","47","0","0","0","47","NA","43","47","43","0","43","3","47","0","47","Fri Feb 19 12:55:46 2021","The main experiment item","yes","Lexical_Decision_Task.osexp","/Users/charlottecrittell","no","Andale Mono","no","18","no","white","no","yes","576","legacy","43","43","3","/Users/charlottecrittell/subject-5202224.csv","legacy","Lentiform Loewenfeld","3.3.7","yes","yes","600bd7cfb6416f0113b04181","602110864497cf011d9c0822","0","j","NA","space","space","space","NA","j","747","NA","1091","1171","1209","NA","747","2","legacy","1024","2","48000","-16","task","5202224","even","NA","17780","20877","19785","99142","7087","9483","8270","99645","NA","99140","99645","99080","20877","100393","16265","98580","7047","94508","Lexical Decision Task","42","30886","48","yes","1024"
"2.814027728","8.2","4","foam","word","85.71428571428571","85.71428571428571","643.9795918367347","643.9795918367347","black","no","legacy","legacy","legacy","0","uniform","0","undefined","undefined","undefined","0","j","0","0","0","0","48","0","0","0","48","NA","44","48","44","0","44","3","48","0","48","Fri Feb 19 12:55:46 2021","The main experiment item","yes","Lexical_Decision_Task.osexp","/Users/charlottecrittell","no","Andale Mono","no","18","no","white","no","yes","576","legacy","44","44","3","/Users/charlottecrittell/subject-5202224.csv","legacy","Lentiform Loewenfeld","3.3.7","yes","yes","600bd7cfb6416f0113b04181","602110864497cf011d9c0822","0","f","NA","space","space","space","NA","f","669","NA","1091","1171","1209","NA","669","2","legacy","1024","2","48000","-16","task","5202224","even","NA","17780","20877","19785","100959","7087","9483","8270","101462","NA","100956","101462","100897","20877","102132","16265","100397","7047","94508","Lexical Decision Task","42","31555","49","yes","1024"
"2.953276337","6.32","4","thaw","word","84","84","648.64","648.64","black","no","legacy","legacy","legacy","0","uniform","0","undefined","undefined","undefined","0","j","0","0","0","0","49","0","0","0","49","NA","45","49","45","0","45","3","49","0","49","Fri Feb 19 12:55:46 2021","The main experiment item","yes","Lexical_Decision_Task.osexp","/Users/charlottecrittell","no","Andale Mono","no","18","no","white","no","yes","576","legacy","45","45","3","/Users/charlottecrittell/subject-5202224.csv","legacy","Lentiform Loewenfeld","3.3.7","yes","yes","600bd7cfb6416f0113b04181","602110864497cf011d9c0822","0","f","NA","space","space","space","NA","f","877","NA","1091","1171","1209","NA","877","2","legacy","1024","2","48000","-16","task","5202224","even","NA","17780","20877","19785","103701","7087","9483","8270","104204","NA","103698","104204","103636","20877","105082","16265","100397","7047","102136","Lexical Decision Task","42","32432","50","yes","1024"
"2.693726949","5.08","3","swig","word","82.3529411764706","82.3529411764706","650.3725490196078","650.3725490196078","black","no","legacy","legacy","legacy","0","uniform","0","undefined","undefined","undefined","0","j","0","0","0","0","50","0","0","0","50","NA","46","50","46","0","46","3","50","0","50","Fri Feb 19 12:55:46 2021","The main experiment item","yes","Lexical_Decision_Task.osexp","/Users/charlottecrittell","no","Andale Mono","no","18","no","white","no","yes","576","legacy","46","46","3","/Users/charlottecrittell/subject-5202224.csv","legacy","Lentiform Loewenfeld","3.3.7","yes","yes","600bd7cfb6416f0113b04181","602110864497cf011d9c0822","0","f","NA","space","space","space","NA","f","737","NA","1091","1171","1209","NA","737","2","legacy","1024","2","48000","-16","task","5202224","even","NA","17780","20877","19785","106651","7087","9483","8270","107154","NA","106648","107154","106586","20877","107892","16265","100397","7047","105086","Lexical Decision Task","42","33169","51","yes","1024"
"2.986323777","10.85","8","ship","word","82.6923076923077","82.6923076923077","648.5961538461538","648.5961538461538","black","no","legacy","legacy","legacy","0","uniform","1","undefined","undefined","undefined","1","j","0","0","0","0","51","0","0","0","51","NA","47","51","47","0","47","3","51","0","51","Fri Feb 19 12:55:46 2021","The main experiment item","yes","Lexical_Decision_Task.osexp","/Users/charlottecrittell","no","Andale Mono","no","18","no","white","no","yes","576","legacy","47","47","3","/Users/charlottecrittell/subject-5202224.csv","legacy","Lentiform Loewenfeld","3.3.7","yes","yes","600bd7cfb6416f0113b04181","602110864497cf011d9c0822","0","j","NA","space","space","space","NA","j","558","NA","1091","1171","1209","NA","558","2","legacy","1024","2","48000","-16","task","5202224","even","NA","17780","20877","19785","109459","7087","9483","8270","109963","NA","109457","109963","109396","20877","110522","16265","100397","7047","107896","Lexical Decision Task","43","33727","52","yes","1024"
"3.29439347","8.6","9","wand","word","83.01886792452831","83.01886792452831","645.7169811320755","645.7169811320755","black","no","legacy","legacy","legacy","0","uniform","1","undefined","undefined","undefined","1","j","0","0","0","0","52","0","0","0","52","NA","48","52","48","0","48","3","52","0","52","Fri Feb 19 12:55:46 2021","The main experiment item","yes","Lexical_Decision_Task.osexp","/Users/charlottecrittell","no","Andale Mono","no","18","no","white","no","yes","576","legacy","48","48","3","/Users/charlottecrittell/subject-5202224.csv","legacy","Lentiform Loewenfeld","3.3.7","yes","yes","600bd7cfb6416f0113b04181","602110864497cf011d9c0822","0","j","NA","space","space","space","NA","j","496","NA","1091","1171","1209","NA","496","2","legacy","1024","2","48000","-16","task","5202224","even","NA","17780","20877","19785","111089","7087","9483","8270","111592","NA","111086","111592","111026","20877","112089","16265","110526","7047","107896","Lexical Decision Task","44","34223","53","yes","1024"
"3.705778213","0","6","stin","non-word","83.33333333333333","83.33333333333333","647.9444444444445","647.9444444444445","black","no","legacy","legacy","legacy","0","uniform","1","undefined","undefined","undefined","1","f","0","0","0","0","53","0","0","0","53","NA","49","53","49","0","49","3","53","0","53","Fri Feb 19 12:55:46 2021","The main experiment item","yes","Lexical_Decision_Task.osexp","/Users/charlottecrittell","no","Andale Mono","no","18","no","white","no","yes","576","legacy","49","49","3","/Users/charlottecrittell/subject-5202224.csv","legacy","Lentiform Loewenfeld","3.3.7","yes","yes","600bd7cfb6416f0113b04181","602110864497cf011d9c0822","0","f","NA","space","space","space","NA","f","766","NA","1091","1171","1209","NA","766","2","legacy","1024","2","48000","-16","task","5202224","even","NA","17780","20877","19785","112654","7087","9483","8270","113157","NA","112651","113157","112593","20877","113924","16265","112092","7047","107896","Lexical Decision Task","45","34989","54","yes","1024"
"2.719886232","7.98","2","quiz","word","83.63636363636364","83.63636363636364","646.3090909090909","646.3090909090909","black","no","legacy","legacy","legacy","0","uniform","1","undefined","undefined","undefined","1","j","0","0","0","0","54","0","0","0","54","0","50","54","50","0","50","3","54","0","54","Fri Feb 19 12:55:46 2021","The main experiment item","yes","Lexical_Decision_Task.osexp","/Users/charlottecrittell","no","Andale Mono","no","18","no","white","no","yes","576","legacy","50","50","3","/Users/charlottecrittell/subject-5202224.csv","legacy","Lentiform Loewenfeld","3.3.7","yes","yes","600bd7cfb6416f0113b04181","602110864497cf011d9c0822","0","j","NA","space","space","space","space","j","558","NA","1091","1171","1209","4854","558","2","legacy","1024","2","48000","-16","task","5202224","even","NA","17780","20877","19785","119366","7087","9483","8270","119869","114456","119363","119869","114428","20877","120428","16265","113927","7047","107896","Lexical Decision Task","46","35547","55","yes","1024"
"3.374137706","10.21","4","tree","word","83.92857142857143","83.92857142857143","642.0357142857143","642.0357142857143","black","no","legacy","legacy","legacy","0","uniform","1","undefined","undefined","undefined","1","j","0","0","0","0","55","0","0","0","55","0","51","55","51","0","51","3","55","0","55","Fri Feb 19 12:55:46 2021","The main experiment item","yes","Lexical_Decision_Task.osexp","/Users/charlottecrittell","no","Andale Mono","no","18","no","white","no","yes","576","legacy","51","51","3","/Users/charlottecrittell/subject-5202224.csv","legacy","Lentiform Loewenfeld","3.3.7","yes","yes","600bd7cfb6416f0113b04181","602110864497cf011d9c0822","0","j","NA","space","space","space","space","j","407","NA","1091","1171","1209","4854","407","2","legacy","1024","2","48000","-16","task","5202224","even","NA","17780","20877","19785","120993","7087","9483","8270","121496","114456","120990","121496","120931","20877","121904","16265","120431","7047","107896","Lexical Decision Task","47","35954","56","yes","1024"
"3.366547468","0","6","plat","non-word","84.21052631578948","84.21052631578948","644.1754385964912","644.1754385964912","black","no","legacy","legacy","legacy","0","uniform","1","undefined","undefined","undefined","1","f","0","0","0","0","56","0","0","0","56","0","52","56","52","0","52","3","56","0","56","Fri Feb 19 12:55:46 2021","The main experiment item","yes","Lexical_Decision_Task.osexp","/Users/charlottecrittell","no","Andale Mono","no","18","no","white","no","yes","576","legacy","52","52","3","/Users/charlottecrittell/subject-5202224.csv","legacy","Lentiform Loewenfeld","3.3.7","yes","yes","600bd7cfb6416f0113b04181","602110864497cf011d9c0822","0","f","NA","space","space","space","space","f","764","NA","1091","1171","1209","4854","764","2","legacy","1024","2","48000","-16","task","5202224","even","NA","17780","20877","19785","122470","7087","9483","8270","122973","114456","122467","122973","122408","20877","123738","16265","121908","7047","107896","Lexical Decision Task","48","36718","57","yes","1024"
"3.22685757","9.99","7","roll","word","84.48275862068965","84.48275862068965","642.9137931034483","642.9137931034483","black","no","legacy","legacy","legacy","0","uniform","1","undefined","undefined","undefined","1","j","0","0","0","0","57","0","0","0","57","0","53","57","53","0","53","3","57","0","57","Fri Feb 19 12:55:46 2021","The main experiment item","yes","Lexical_Decision_Task.osexp","/Users/charlottecrittell","no","Andale Mono","no","18","no","white","no","yes","576","legacy","53","53","3","/Users/charlottecrittell/subject-5202224.csv","legacy","Lentiform Loewenfeld","3.3.7","yes","yes","600bd7cfb6416f0113b04181","602110864497cf011d9c0822","0","j","NA","space","space","space","space","j","571","NA","1091","1171","1209","4854","571","2","legacy","1024","2","48000","-16","task","5202224","even","NA","17780","20877","19785","124304","7087","9483","8270","124807","114456","124301","124807","124242","20877","125379","16265","123742","7047","107896","Lexical Decision Task","49","37289","58","yes","1024"
"3.15462682","0","6","noal","non-word","84.7457627118644","84.7457627118644","643.2881355932203","643.2881355932203","black","no","legacy","legacy","legacy","0","uniform","1","undefined","undefined","undefined","1","f","0","0","0","0","58","0","0","0","58","0","54","58","54","0","54","3","58","0","58","Fri Feb 19 12:55:46 2021","The main experiment item","yes","Lexical_Decision_Task.osexp","/Users/charlottecrittell","no","Andale Mono","no","18","no","white","no","yes","576","legacy","54","54","3","/Users/charlottecrittell/subject-5202224.csv","legacy","Lentiform Loewenfeld","3.3.7","yes","yes","600bd7cfb6416f0113b04181","602110864497cf011d9c0822","0","f","NA","space","space","space","space","f","665","NA","1091","1171","1209","4854","665","2","legacy","1024","2","48000","-16","task","5202224","even","NA","17780","20877","19785","125945","7087","9483","8270","126448","114456","125942","126448","125883","20877","127114","16265","125383","7047","107896","Lexical Decision Task","50","37954","59","yes","1024"
"2.895974732","6.65","5","sift","word","83.33333333333333","83.33333333333333","643.3666666666667","643.3666666666667","black","no","legacy","legacy","legacy","0","uniform","0","undefined","undefined","undefined","0","j","0","0","0","0","59","0","0","0","59","0","55","59","55","0","55","3","59","0","59","Fri Feb 19 12:55:46 2021","The main experiment item","yes","Lexical_Decision_Task.osexp","/Users/charlottecrittell","no","Andale Mono","no","18","no","white","no","yes","576","legacy","55","55","3","/Users/charlottecrittell/subject-5202224.csv","legacy","Lentiform Loewenfeld","3.3.7","yes","yes","600bd7cfb6416f0113b04181","602110864497cf011d9c0822","0","f","NA","space","space","space","space","f","648","NA","1091","1171","1209","4854","648","2","legacy","1024","2","48000","-16","task","5202224","even","NA","17780","20877","19785","127679","7087","9483","8270","128182","114456","127676","128182","127617","20877","128831","16265","127117","7047","107896","Lexical Decision Task","50","38602","60","yes","1024"
"3.443783828","7.65","3","verb","word","83.60655737704919","83.60655737704919","642.8196721311475","642.8196721311475","black","no","legacy","legacy","legacy","0","uniform","1","undefined","undefined","undefined","1","j","0","0","0","0","60","0","0","0","60","0","56","60","56","0","56","3","60","0","60","Fri Feb 19 12:55:46 2021","The main experiment item","yes","Lexical_Decision_Task.osexp","/Users/charlottecrittell","no","Andale Mono","no","18","no","white","no","yes","576","legacy","56","56","3","/Users/charlottecrittell/subject-5202224.csv","legacy","Lentiform Loewenfeld","3.3.7","yes","yes","600bd7cfb6416f0113b04181","602110864497cf011d9c0822","0","j","NA","space","space","space","space","j","610","NA","1091","1171","1209","4854","610","2","legacy","1024","2","48000","-16","task","5202224","even","NA","17780","20877","19785","130399","7087","9483","8270","130902","114456","130395","130902","130334","20877","131513","16265","127117","7047","128834","Lexical Decision Task","51","39212","61","yes","1024"
"2.990042563","6.64","9","plow","word","83.87096774193549","83.87096774193549","645.3870967741935","645.3870967741935","black","no","legacy","legacy","legacy","0","uniform","1","undefined","undefined","undefined","1","j","0","0","0","0","61","0","0","0","61","0","57","61","57","0","57","3","61","0","61","Fri Feb 19 12:55:46 2021","The main experiment item","yes","Lexical_Decision_Task.osexp","/Users/charlottecrittell","no","Andale Mono","no","18","no","white","no","yes","576","legacy","57","57","3","/Users/charlottecrittell/subject-5202224.csv","legacy","Lentiform Loewenfeld","3.3.7","yes","yes","600bd7cfb6416f0113b04181","602110864497cf011d9c0822","0","j","NA","space","space","space","space","j","802","NA","1091","1171","1209","4854","802","2","legacy","1024","2","48000","-16","task","5202224","even","NA","17780","20877","19785","132080","7087","9483","8270","132583","114456","132078","132583","132017","20877","133386","16265","131517","7047","128834","Lexical Decision Task","52","40014","62","yes","1024"
"3.307211407","6.07","7","honk","word","84.12698412698413","84.12698412698413","643.2539682539683","643.2539682539683","black","no","legacy","legacy","legacy","0","uniform","1","undefined","undefined","undefined","1","j","0","0","0","0","62","0","0","0","62","0","58","62","58","0","58","3","62","0","62","Fri Feb 19 12:55:46 2021","The main experiment item","yes","Lexical_Decision_Task.osexp","/Users/charlottecrittell","no","Andale Mono","no","18","no","white","no","yes","576","legacy","58","58","3","/Users/charlottecrittell/subject-5202224.csv","legacy","Lentiform Loewenfeld","3.3.7","yes","yes","600bd7cfb6416f0113b04181","602110864497cf011d9c0822","0","j","NA","space","space","space","space","j","511","NA","1091","1171","1209","4854","511","2","legacy","1024","2","48000","-16","task","5202224","even","NA","17780","20877","19785","133951","7087","9483","8270","134454","114456","133948","134454","133889","20877","134965","16265","133389","7047","128834","Lexical Decision Task","53","40525","63","yes","1024"
"2.799799878","0","4","ciff","non-word","84.375","84.375","649.21875","649.21875","black","no","legacy","legacy","legacy","0","uniform","1","undefined","undefined","undefined","1","f","0","0","0","0","63","0","0","0","63","0","59","63","59","0","59","3","63","0","63","Fri Feb 19 12:55:46 2021","The main experiment item","yes","Lexical_Decision_Task.osexp","/Users/charlottecrittell","no","Andale Mono","no","18","no","white","no","yes","576","legacy","59","59","3","/Users/charlottecrittell/subject-5202224.csv","legacy","Lentiform Loewenfeld","3.3.7","yes","yes","600bd7cfb6416f0113b04181","602110864497cf011d9c0822","0","f","NA","space","space","space","space","f","1025","NA","1091","1171","1209","4854","1025","2","legacy","1024","2","48000","-16","task","5202224","even","NA","17780","20877","19785","135531","7087","9483","8270","136034","114456","135528","136034","135469","20877","137060","16265","134969","7047","128834","Lexical Decision Task","54","41550","64","yes","1024"
"2.771097306","0","9","jold","non-word","84.61538461538461","84.61538461538461","649.6461538461539","649.6461538461539","black","no","legacy","legacy","legacy","0","uniform","1","undefined","undefined","undefined","1","f","0","0","0","0","64","0","0","0","64","0","60","64","60","0","60","3","64","0","64","Fri Feb 19 12:55:46 2021","The main experiment item","yes","Lexical_Decision_Task.osexp","/Users/charlottecrittell","no","Andale Mono","no","18","no","white","no","yes","576","legacy","60","60","3","/Users/charlottecrittell/subject-5202224.csv","legacy","Lentiform Loewenfeld","3.3.7","yes","yes","600bd7cfb6416f0113b04181","602110864497cf011d9c0822","0","f","NA","space","space","space","space","f","677","NA","1091","1171","1209","4854","677","2","legacy","1024","2","48000","-16","task","5202224","even","NA","17780","20877","19785","137626","7087","9483","8270","138129","114456","137623","138129","137564","20877","138807","16265","137064","7047","128834","Lexical Decision Task","55","42227","65","yes","1024"
"3.252447662","9.67","9","boat","word","84.84848484848484","84.84848484848484","649.030303030303","649.030303030303","black","no","legacy","legacy","legacy","0","uniform","1","undefined","undefined","undefined","1","j","0","0","0","0","65","0","0","0","65","0","61","65","61","0","61","3","65","0","65","Fri Feb 19 12:55:46 2021","The main experiment item","yes","Lexical_Decision_Task.osexp","/Users/charlottecrittell","no","Andale Mono","no","18","no","white","no","yes","576","legacy","61","61","3","/Users/charlottecrittell/subject-5202224.csv","legacy","Lentiform Loewenfeld","3.3.7","yes","yes","600bd7cfb6416f0113b04181","602110864497cf011d9c0822","0","j","NA","space","space","space","space","j","609","NA","1091","1171","1209","4854","609","2","legacy","1024","2","48000","-16","task","5202224","even","NA","17780","20877","19785","139373","7087","9483","8270","139876","114456","139370","139876","139311","20877","140486","16265","138811","7047","128834","Lexical Decision Task","56","42836","66","yes","1024"
"3.068433376","8.09","2","bulb","word","85.07462686567165","85.07462686567165","647.0895522388059","647.0895522388059","black","no","legacy","legacy","legacy","0","uniform","1","undefined","undefined","undefined","1","j","0","0","0","0","66","0","0","0","66","0","62","66","62","0","62","3","66","0","66","Fri Feb 19 12:55:46 2021","The main experiment item","yes","Lexical_Decision_Task.osexp","/Users/charlottecrittell","no","Andale Mono","no","18","no","white","no","yes","576","legacy","62","62","3","/Users/charlottecrittell/subject-5202224.csv","legacy","Lentiform Loewenfeld","3.3.7","yes","yes","600bd7cfb6416f0113b04181","602110864497cf011d9c0822","0","j","NA","space","space","space","space","j","519","NA","1091","1171","1209","4854","519","2","legacy","1024","2","48000","-16","task","5202224","even","NA","17780","20877","19785","141052","7087","9483","8270","141555","114456","141049","141555","140990","20877","142075","16265","140490","7047","128834","Lexical Decision Task","57","43355","67","yes","1024"
"3.274157849","0","8","leet","non-word","85.29411764705883","85.29411764705883","646.5441176470588","646.5441176470588","black","no","legacy","legacy","legacy","0","uniform","1","undefined","undefined","undefined","1","f","0","0","0","0","67","0","0","0","67","0","63","67","63","0","63","3","67","0","67","Fri Feb 19 12:55:46 2021","The main experiment item","yes","Lexical_Decision_Task.osexp","/Users/charlottecrittell","no","Andale Mono","no","18","no","white","no","yes","576","legacy","63","63","3","/Users/charlottecrittell/subject-5202224.csv","legacy","Lentiform Loewenfeld","3.3.7","yes","yes","600bd7cfb6416f0113b04181","602110864497cf011d9c0822","0","f","NA","space","space","space","space","f","610","NA","1091","1171","1209","4854","610","2","legacy","1024","2","48000","-16","task","5202224","even","NA","17780","20877","19785","142641","7087","9483","8270","143144","114456","142638","143144","142579","20877","143755","16265","142079","7047","128834","Lexical Decision Task","58","43965","68","yes","1024"
"2.64476673","0","5","moft","non-word","85.5072463768116","85.5072463768116","646.1449275362319","646.1449275362319","black","no","legacy","legacy","legacy","0","uniform","1","undefined","undefined","undefined","1","f","0","0","0","0","68","0","0","0","68","0","64","68","64","0","64","3","68","0","68","Fri Feb 19 12:55:46 2021","The main experiment item","yes","Lexical_Decision_Task.osexp","/Users/charlottecrittell","no","Andale Mono","no","18","no","white","no","yes","576","legacy","64","64","3","/Users/charlottecrittell/subject-5202224.csv","legacy","Lentiform Loewenfeld","3.3.7","yes","yes","600bd7cfb6416f0113b04181","602110864497cf011d9c0822","0","f","NA","space","space","space","space","f","619","NA","1091","1171","1209","4854","619","2","legacy","1024","2","48000","-16","task","5202224","even","NA","17780","20877","19785","144321","7087","9483","8270","144824","114456","144318","144824","144259","20877","145444","16265","143759","7047","128834","Lexical Decision Task","59","44584","69","yes","1024"
"2.744553742","0","2","nawk","non-word","85.71428571428571","85.71428571428571","649.8714285714286","649.8714285714286","black","no","legacy","legacy","legacy","0","uniform","1","undefined","undefined","undefined","1","f","0","0","0","0","69","0","0","0","69","0","65","69","65","0","65","3","69","0","69","Fri Feb 19 12:55:46 2021","The main experiment item","yes","Lexical_Decision_Task.osexp","/Users/charlottecrittell","no","Andale Mono","no","18","no","white","no","yes","576","legacy","65","65","3","/Users/charlottecrittell/subject-5202224.csv","legacy","Lentiform Loewenfeld","3.3.7","yes","yes","600bd7cfb6416f0113b04181","602110864497cf011d9c0822","0","f","NA","space","space","space","space","f","907","NA","1091","1171","1209","4854","907","2","legacy","1024","2","48000","-16","task","5202224","even","NA","17780","20877","19785","146006","7087","9483","8270","146509","114456","146004","146509","145948","20877","147417","16265","145447","7047","128834","Lexical Decision Task","60","45491","70","yes","1024"
"2.82129731","6.72","5","plum","word","85.91549295774648","85.91549295774648","648.5070422535211","648.5070422535211","black","no","legacy","legacy","legacy","0","uniform","1","undefined","undefined","undefined","1","j","0","0","0","0","70","0","0","0","70","0","66","70","66","0","66","3","70","0","70","Fri Feb 19 12:55:46 2021","The main experiment item","yes","Lexical_Decision_Task.osexp","/Users/charlottecrittell","no","Andale Mono","no","18","no","white","no","yes","576","legacy","66","66","3","/Users/charlottecrittell/subject-5202224.csv","legacy","Lentiform Loewenfeld","3.3.7","yes","yes","600bd7cfb6416f0113b04181","602110864497cf011d9c0822","0","j","NA","space","space","space","space","j","553","NA","1091","1171","1209","4854","553","2","legacy","1024","2","48000","-16","task","5202224","even","NA","17780","20877","19785","147976","7087","9483","8270","148479","114456","147974","148479","147921","20877","149033","16265","147421","7047","128834","Lexical Decision Task","61","46044","71","yes","1024"
"3.159867847","5.98","5","brim","word","84.72222222222223","84.72222222222223","648.7916666666666","648.7916666666666","black","no","legacy","legacy","legacy","0","uniform","0","undefined","undefined","undefined","0","j","0","0","0","0","71","0","0","0","71","0","67","71","67","0","67","3","71","0","71","Fri Feb 19 12:55:46 2021","The main experiment item","yes","Lexical_Decision_Task.osexp","/Users/charlottecrittell","no","Andale Mono","no","18","no","white","no","yes","576","legacy","67","67","3","/Users/charlottecrittell/subject-5202224.csv","legacy","Lentiform Loewenfeld","3.3.7","yes","yes","600bd7cfb6416f0113b04181","602110864497cf011d9c0822","0","f","NA","space","space","space","space","f","669","NA","1091","1171","1209","4854","669","2","legacy","1024","2","48000","-16","task","5202224","even","NA","17780","20877","19785","149599","7087","9483","8270","150102","114456","149596","150102","149537","20877","150772","16265","149037","7047","128834","Lexical Decision Task","61","46713","72","yes","1024"
"3.209246849","0","7","slem","non-word","84.93150684931507","84.93150684931507","655.1917808219179","655.1917808219179","black","no","legacy","legacy","legacy","0","uniform","1","undefined","undefined","undefined","1","f","0","0","0","0","72","0","0","0","72","0","68","72","68","0","68","3","72","0","72","Fri Feb 19 12:55:46 2021","The main experiment item","yes","Lexical_Decision_Task.osexp","/Users/charlottecrittell","no","Andale Mono","no","18","no","white","no","yes","576","legacy","68","68","3","/Users/charlottecrittell/subject-5202224.csv","legacy","Lentiform Loewenfeld","3.3.7","yes","yes","600bd7cfb6416f0113b04181","602110864497cf011d9c0822","0","f","NA","space","space","space","space","f","1116","NA","1091","1171","1209","4854","1116","2","legacy","1024","2","48000","-16","task","5202224","even","NA","17780","20877","19785","152341","7087","9483","8270","152844","114456","152338","152844","152276","20877","153961","16265","149037","7047","150776","Lexical Decision Task","62","47829","73","yes","1024"
"2.668385917","5.48","4","twig","word","85.13513513513513","85.13513513513513","653.3918918918919","653.3918918918919","black","no","legacy","legacy","legacy","0","uniform","1","undefined","undefined","undefined","1","j","0","0","0","0","73","0","0","0","73","0","69","73","69","0","69","3","73","0","73","Fri Feb 19 12:55:46 2021","The main experiment item","yes","Lexical_Decision_Task.osexp","/Users/charlottecrittell","no","Andale Mono","no","18","no","white","no","yes","576","legacy","69","69","3","/Users/charlottecrittell/subject-5202224.csv","legacy","Lentiform Loewenfeld","3.3.7","yes","yes","600bd7cfb6416f0113b04181","602110864497cf011d9c0822","0","j","NA","space","space","space","space","j","522","NA","1091","1171","1209","4854","522","2","legacy","1024","2","48000","-16","task","5202224","even","NA","17780","20877","19785","154528","7087","9483","8270","155031","114456","154525","155031","154465","20877","155554","16265","153965","7047","150776","Lexical Decision Task","63","48351","74","yes","1024"
"2.746890964","9.67","3","plug","word","85.33333333333333","85.33333333333333","649.9066666666666","649.9066666666666","black","no","legacy","legacy","legacy","0","uniform","1","undefined","undefined","undefined","1","j","0","0","0","0","74","0","0","0","74","0","70","74","70","0","70","3","74","0","74","Fri Feb 19 12:55:46 2021","The main experiment item","yes","Lexical_Decision_Task.osexp","/Users/charlottecrittell","no","Andale Mono","no","18","no","white","no","yes","576","legacy","70","70","3","/Users/charlottecrittell/subject-5202224.csv","legacy","Lentiform Loewenfeld","3.3.7","yes","yes","600bd7cfb6416f0113b04181","602110864497cf011d9c0822","0","j","NA","space","space","space","space","j","392","NA","1091","1171","1209","4854","392","2","legacy","1024","2","48000","-16","task","5202224","even","NA","17780","20877","19785","156120","7087","9483","8270","156624","114456","156118","156624","156058","20877","157017","16265","155557","7047","150776","Lexical Decision Task","64","48743","75","yes","1024"
"2.812467698","0","7","hafe","non-word","85.52631578947368","85.52631578947368","650.171052631579","650.171052631579","black","no","legacy","legacy","legacy","0","uniform","1","undefined","undefined","undefined","1","f","0","0","0","0","75","0","0","0","75","0","71","75","71","0","71","3","75","0","75","Fri Feb 19 12:55:46 2021","The main experiment item","yes","Lexical_Decision_Task.osexp","/Users/charlottecrittell","no","Andale Mono","no","18","no","white","no","yes","576","legacy","71","71","3","/Users/charlottecrittell/subject-5202224.csv","legacy","Lentiform Loewenfeld","3.3.7","yes","yes","600bd7cfb6416f0113b04181","602110864497cf011d9c0822","0","f","NA","space","space","space","space","f","670","NA","1091","1171","1209","4854","670","2","legacy","1024","2","48000","-16","task","5202224","even","NA","17780","20877","19785","157585","7087","9483","8270","158088","114456","157582","158088","157521","20877","158759","16265","157021","7047","150776","Lexical Decision Task","65","49413","76","yes","1024"
"2.664328519","0","4","plux","non-word","85.71428571428571","85.71428571428571","654.8051948051948","654.8051948051948","black","no","legacy","legacy","legacy","0","uniform","1","undefined","undefined","undefined","1","f","0","0","0","0","76","0","0","0","76","0","72","76","72","0","72","3","76","0","76","Fri Feb 19 12:55:46 2021","The main experiment item","yes","Lexical_Decision_Task.osexp","/Users/charlottecrittell","no","Andale Mono","no","18","no","white","no","yes","576","legacy","72","72","3","/Users/charlottecrittell/subject-5202224.csv","legacy","Lentiform Loewenfeld","3.3.7","yes","yes","600bd7cfb6416f0113b04181","602110864497cf011d9c0822","0","f","NA","space","space","space","space","f","1007","NA","1091","1171","1209","4854","1007","2","legacy","1024","2","48000","-16","task","5202224","even","NA","17780","20877","19785","159325","7087","9483","8270","159828","114456","159322","159828","159263","20877","160836","16265","158763","7047","150776","Lexical Decision Task","66","50420","77","yes","1024"
"3.031408464","0","7","drow","non-word","84.61538461538461","84.61538461538461","655.5512820512821","655.5512820512821","black","no","legacy","legacy","legacy","0","uniform","0","undefined","undefined","undefined","0","f","0","0","0","0","77","0","0","0","77","0","73","77","73","0","73","3","77","0","77","Fri Feb 19 12:55:46 2021","The main experiment item","yes","Lexical_Decision_Task.osexp","/Users/charlottecrittell","no","Andale Mono","no","18","no","white","no","yes","576","legacy","73","73","3","/Users/charlottecrittell/subject-5202224.csv","legacy","Lentiform Loewenfeld","3.3.7","yes","yes","600bd7cfb6416f0113b04181","602110864497cf011d9c0822","0","j","NA","space","space","space","space","j","713","NA","1091","1171","1209","4854","713","2","legacy","1024","2","48000","-16","task","5202224","even","NA","17780","20877","19785","161401","7087","9483","8270","161904","114456","161399","161904","161339","20877","162618","16265","160839","7047","150776","Lexical Decision Task","66","51133","78","yes","1024"
"2.858136002","0","4","phip","non-word","84.81012658227849","84.81012658227849","655.9873417721519","655.9873417721519","black","no","legacy","legacy","legacy","0","uniform","1","undefined","undefined","undefined","1","f","0","0","0","0","78","0","0","0","78","0","74","78","74","0","74","3","78","0","78","Fri Feb 19 12:55:46 2021","The main experiment item","yes","Lexical_Decision_Task.osexp","/Users/charlottecrittell","no","Andale Mono","no","18","no","white","no","yes","576","legacy","74","74","3","/Users/charlottecrittell/subject-5202224.csv","legacy","Lentiform Loewenfeld","3.3.7","yes","yes","600bd7cfb6416f0113b04181","602110864497cf011d9c0822","0","f","NA","space","space","space","space","f","690","NA","1091","1171","1209","4854","690","2","legacy","1024","2","48000","-16","task","5202224","even","NA","17780","20877","19785","164186","7087","9483","8270","164689","114456","164183","164689","164122","20877","165380","16265","160839","7047","162622","Lexical Decision Task","67","51823","79","yes","1024"
"2.972357144","0","5","dasp","non-word","85","85","662.625","662.625","black","no","legacy","legacy","legacy","0","uniform","1","undefined","undefined","undefined","1","f","0","0","0","0","79","0","0","0","79","0","75","79","75","0","75","3","79","0","79","Fri Feb 19 12:55:46 2021","The main experiment item","yes","Lexical_Decision_Task.osexp","/Users/charlottecrittell","no","Andale Mono","no","18","no","white","no","yes","576","legacy","75","75","3","/Users/charlottecrittell/subject-5202224.csv","legacy","Lentiform Loewenfeld","3.3.7","yes","yes","600bd7cfb6416f0113b04181","602110864497cf011d9c0822","0","f","NA","space","space","space","space","f","1187","NA","1091","1171","1209","4854","1187","2","legacy","1024","2","48000","-16","task","5202224","even","NA","17780","20877","19785","165947","7087","9483","8270","166450","114456","165944","166450","165884","20877","167638","16265","165384","7047","162622","Lexical Decision Task","68","53010","80","yes","1024"
"3.077974404","10.41","8","tool","word","85.18518518518519","85.18518518518519","664","664","black","no","legacy","legacy","legacy","0","uniform","1","undefined","undefined","undefined","1","j","0","0","0","0","80","0","0","0","80","0","76","80","76","0","76","3","80","0","80","Fri Feb 19 12:55:46 2021","The main experiment item","yes","Lexical_Decision_Task.osexp","/Users/charlottecrittell","no","Andale Mono","no","18","no","white","no","yes","576","legacy","76","76","3","/Users/charlottecrittell/subject-5202224.csv","legacy","Lentiform Loewenfeld","3.3.7","yes","yes","600bd7cfb6416f0113b04181","602110864497cf011d9c0822","0","j","NA","space","space","space","space","j","774","NA","1091","1171","1209","4854","774","2","legacy","1024","2","48000","-16","task","5202224","even","NA","17780","20877","19785","168204","7087","9483","8270","168707","114456","168201","168707","168142","20877","169482","16265","167642","7047","162622","Lexical Decision Task","69","53784","81","yes","1024"
"3.261341392","5.08","8","reek","word","84.14634146341463","84.14634146341463","662.9024390243902","662.9024390243902","black","no","legacy","legacy","legacy","0","uniform","0","undefined","undefined","undefined","0","j","0","0","0","0","81","0","0","0","81","0","77","81","77","0","77","3","81","0","81","Fri Feb 19 12:55:46 2021","The main experiment item","yes","Lexical_Decision_Task.osexp","/Users/charlottecrittell","no","Andale Mono","no","18","no","white","no","yes","576","legacy","77","77","3","/Users/charlottecrittell/subject-5202224.csv","legacy","Lentiform Loewenfeld","3.3.7","yes","yes","600bd7cfb6416f0113b04181","602110864497cf011d9c0822","0","f","NA","space","space","space","space","f","574","NA","1091","1171","1209","4854","574","2","legacy","1024","2","48000","-16","task","5202224","even","NA","17780","20877","19785","170046","7087","9483","8270","170549","114456","170044","170550","169985","20877","171125","16265","169485","7047","162622","Lexical Decision Task","69","54358","82","yes","1024"
"3.460446784","0","5","dess","non-word","84.33734939759036","84.33734939759036","662.2048192771084","662.2048192771084","black","no","legacy","legacy","legacy","0","uniform","1","undefined","undefined","undefined","1","f","0","0","0","0","82","0","0","0","82","0","78","82","78","0","78","3","82","0","82","Fri Feb 19 12:55:46 2021","The main experiment item","yes","Lexical_Decision_Task.osexp","/Users/charlottecrittell","no","Andale Mono","no","18","no","white","no","yes","576","legacy","78","78","3","/Users/charlottecrittell/subject-5202224.csv","legacy","Lentiform Loewenfeld","3.3.7","yes","yes","600bd7cfb6416f0113b04181","602110864497cf011d9c0822","0","f","NA","space","space","space","space","f","605","NA","1091","1171","1209","4854","605","2","legacy","1024","2","48000","-16","task","5202224","even","NA","17780","20877","19785","172692","7087","9483","8270","173195","114456","172689","173195","172628","20877","173801","16265","169485","7047","171128","Lexical Decision Task","70","54963","83","yes","1024"
"2.924968096","0","4","phim","non-word","84.52380952380952","84.52380952380952","661.5833333333334","661.5833333333334","black","no","legacy","legacy","legacy","0","uniform","1","undefined","undefined","undefined","1","f","0","0","0","0","83","0","0","0","83","0","79","83","79","0","79","3","83","0","83","Fri Feb 19 12:55:46 2021","The main experiment item","yes","Lexical_Decision_Task.osexp","/Users/charlottecrittell","no","Andale Mono","no","18","no","white","no","yes","576","legacy","79","79","3","/Users/charlottecrittell/subject-5202224.csv","legacy","Lentiform Loewenfeld","3.3.7","yes","yes","600bd7cfb6416f0113b04181","602110864497cf011d9c0822","0","f","NA","space","space","space","space","f","610","NA","1091","1171","1209","4854","610","2","legacy","1024","2","48000","-16","task","5202224","even","NA","17780","20877","19785","174365","7087","9483","8270","174868","114456","174363","174868","174304","20877","175480","16265","173804","7047","171128","Lexical Decision Task","71","55573","84","yes","1024"
"2.907588697","8.91","9","mood","word","84.70588235294117","84.70588235294117","661.4235294117647","661.4235294117647","black","no","legacy","legacy","legacy","0","uniform","1","undefined","undefined","undefined","1","j","0","0","0","0","84","0","0","0","84","0","80","84","80","0","80","3","84","0","84","Fri Feb 19 12:55:46 2021","The main experiment item","yes","Lexical_Decision_Task.osexp","/Users/charlottecrittell","no","Andale Mono","no","18","no","white","no","yes","576","legacy","80","80","3","/Users/charlottecrittell/subject-5202224.csv","legacy","Lentiform Loewenfeld","3.3.7","yes","yes","600bd7cfb6416f0113b04181","602110864497cf011d9c0822","0","j","NA","space","space","space","space","j","648","NA","1091","1171","1209","4854","648","2","legacy","1024","2","48000","-16","task","5202224","even","NA","17780","20877","19785","176044","7087","9483","8270","176548","114456","176042","176548","175983","20877","177198","16265","175483","7047","171128","Lexical Decision Task","72","56221","85","yes","1024"
"2.708989954","9.28","9","bowl","word","84.88372093023256","84.88372093023256","660.4186046511628","660.4186046511628","black","no","legacy","legacy","legacy","0","uniform","1","undefined","undefined","undefined","1","j","0","0","0","0","85","0","0","0","85","0","81","85","81","0","81","3","85","0","85","Fri Feb 19 12:55:46 2021","The main experiment item","yes","Lexical_Decision_Task.osexp","/Users/charlottecrittell","no","Andale Mono","no","18","no","white","no","yes","576","legacy","81","81","3","/Users/charlottecrittell/subject-5202224.csv","legacy","Lentiform Loewenfeld","3.3.7","yes","yes","600bd7cfb6416f0113b04181","602110864497cf011d9c0822","0","j","NA","space","space","space","space","j","575","NA","1091","1171","1209","4854","575","2","legacy","1024","2","48000","-16","task","5202224","even","NA","17780","20877","19785","177763","7087","9483","8270","178266","114456","177760","178266","177701","20877","178843","16265","177201","7047","171128","Lexical Decision Task","73","56796","86","yes","1024"
"2.842815106","7.86","8","lump","word","85.05747126436782","85.05747126436782","660.0459770114943","660.0459770114943","black","no","legacy","legacy","legacy","0","uniform","1","undefined","undefined","undefined","1","j","0","0","0","0","86","0","0","0","86","0","82","86","82","0","82","3","86","0","86","Fri Feb 19 12:55:46 2021","The main experiment item","yes","Lexical_Decision_Task.osexp","/Users/charlottecrittell","no","Andale Mono","no","18","no","white","no","yes","576","legacy","82","82","3","/Users/charlottecrittell/subject-5202224.csv","legacy","Lentiform Loewenfeld","3.3.7","yes","yes","600bd7cfb6416f0113b04181","602110864497cf011d9c0822","0","j","NA","space","space","space","space","j","628","NA","1091","1171","1209","4854","628","2","legacy","1024","2","48000","-16","task","5202224","even","NA","17780","20877","19785","179407","7087","9483","8270","179910","114456","179405","179910","179346","20877","180539","16265","178846","7047","171128","Lexical Decision Task","74","57424","87","yes","1024"
"3.20996159","0","4","clee","non-word","85.22727272727273","85.22727272727273","660.2840909090909","660.2840909090909","black","no","legacy","legacy","legacy","0","uniform","1","undefined","undefined","undefined","1","f","0","0","0","0","87","0","0","0","87","0","83","87","83","0","83","3","87","0","87","Fri Feb 19 12:55:46 2021","The main experiment item","yes","Lexical_Decision_Task.osexp","/Users/charlottecrittell","no","Andale Mono","no","18","no","white","no","yes","576","legacy","83","83","3","/Users/charlottecrittell/subject-5202224.csv","legacy","Lentiform Loewenfeld","3.3.7","yes","yes","600bd7cfb6416f0113b04181","602110864497cf011d9c0822","0","f","NA","space","space","space","space","f","681","NA","1091","1171","1209","4854","681","2","legacy","1024","2","48000","-16","task","5202224","even","NA","17780","20877","19785","181104","7087","9483","8270","181607","114456","181102","181607","181043","20877","182290","16265","180543","7047","171128","Lexical Decision Task","75","58105","88","yes","1024"
"3.067070856","9.39","3","loud","word","85.3932584269663","85.3932584269663","660.5056179775281","660.5056179775281","black","no","legacy","legacy","legacy","0","uniform","1","undefined","undefined","undefined","1","j","0","0","0","0","88","0","0","0","88","0","84","88","84","0","84","3","88","0","88","Fri Feb 19 12:55:46 2021","The main experiment item","yes","Lexical_Decision_Task.osexp","/Users/charlottecrittell","no","Andale Mono","no","18","no","white","no","yes","576","legacy","84","84","3","/Users/charlottecrittell/subject-5202224.csv","legacy","Lentiform Loewenfeld","3.3.7","yes","yes","600bd7cfb6416f0113b04181","602110864497cf011d9c0822","0","j","NA","space","space","space","space","j","680","NA","1091","1171","1209","4854","680","2","legacy","1024","2","48000","-16","task","5202224","even","NA","17780","20877","19785","182855","7087","9483","8270","183358","114456","182852","183358","182793","20877","184040","16265","182293","7047","171128","Lexical Decision Task","76","58785","89","yes","1024"
"2.767650507","0","6","yolt","non-word","85.55555555555556","85.55555555555556","661.4666666666667","661.4666666666667","black","no","legacy","legacy","legacy","0","uniform","1","undefined","undefined","undefined","1","f","0","0","0","0","89","0","0","0","89","0","85","89","85","0","85","3","89","0","89","Fri Feb 19 12:55:46 2021","The main experiment item","yes","Lexical_Decision_Task.osexp","/Users/charlottecrittell","no","Andale Mono","no","18","no","white","no","yes","576","legacy","85","85","3","/Users/charlottecrittell/subject-5202224.csv","legacy","Lentiform Loewenfeld","3.3.7","yes","yes","600bd7cfb6416f0113b04181","602110864497cf011d9c0822","0","f","NA","space","space","space","space","f","747","NA","1091","1171","1209","4854","747","2","legacy","1024","2","48000","-16","task","5202224","even","NA","17780","20877","19785","184605","7087","9483","8270","185108","114456","184602","185108","184543","20877","185856","16265","184043","7047","171128","Lexical Decision Task","77","59532","90","yes","1024"
"3.165936429","0","7","leps","non-word","85.71428571428571","85.71428571428571","662.1978021978022","662.1978021978022","black","no","legacy","legacy","legacy","0","uniform","1","undefined","undefined","undefined","1","f","0","0","0","0","90","0","0","0","90","0","86","90","86","0","86","3","90","0","90","Fri Feb 19 12:55:46 2021","The main experiment item","yes","Lexical_Decision_Task.osexp","/Users/charlottecrittell","no","Andale Mono","no","18","no","white","no","yes","576","legacy","86","86","3","/Users/charlottecrittell/subject-5202224.csv","legacy","Lentiform Loewenfeld","3.3.7","yes","yes","600bd7cfb6416f0113b04181","602110864497cf011d9c0822","0","f","NA","space","space","space","space","f","728","NA","1091","1171","1209","4854","728","2","legacy","1024","2","48000","-16","task","5202224","even","NA","17780","20877","19785","186423","7087","9483","8270","186926","114456","186420","186926","186360","20877","187656","16265","185860","7047","171128","Lexical Decision Task","78","60260","91","yes","1024"
"3.168400243","9.12","6","horn","word","85.8695652173913","85.8695652173913","660.6304347826087","660.6304347826087","black","no","legacy","legacy","legacy","0","uniform","1","undefined","undefined","undefined","1","j","0","0","0","0","91","0","0","0","91","0","87","91","87","0","87","3","91","0","91","Fri Feb 19 12:55:46 2021","The main experiment item","yes","Lexical_Decision_Task.osexp","/Users/charlottecrittell","no","Andale Mono","no","18","no","white","no","yes","576","legacy","87","87","3","/Users/charlottecrittell/subject-5202224.csv","legacy","Lentiform Loewenfeld","3.3.7","yes","yes","600bd7cfb6416f0113b04181","602110864497cf011d9c0822","0","j","NA","space","space","space","space","j","518","NA","1091","1171","1209","4854","518","2","legacy","1024","2","48000","-16","task","5202224","even","NA","17780","20877","19785","188221","7087","9483","8270","188724","114456","188218","188724","188159","20877","189243","16265","187659","7047","171128","Lexical Decision Task","79","60778","92","yes","1024"
"3.208978517","10.33","4","fish","word","86.02150537634408","86.02150537634408","661.5591397849462","661.5591397849462","black","no","legacy","legacy","legacy","0","uniform","1","undefined","undefined","undefined","1","j","0","0","0","0","92","0","0","0","92","0","88","92","88","0","88","3","92","0","92","Fri Feb 19 12:55:46 2021","The main experiment item","yes","Lexical_Decision_Task.osexp","/Users/charlottecrittell","no","Andale Mono","no","18","no","white","no","yes","576","legacy","88","88","3","/Users/charlottecrittell/subject-5202224.csv","legacy","Lentiform Loewenfeld","3.3.7","yes","yes","600bd7cfb6416f0113b04181","602110864497cf011d9c0822","0","j","NA","space","space","space","space","j","747","NA","1091","1171","1209","4854","747","2","legacy","1024","2","48000","-16","task","5202224","even","NA","17780","20877","19785","189809","7087","9483","8270","190312","114456","189806","190312","189747","20877","191060","16265","189247","7047","171128","Lexical Decision Task","80","61525","93","yes","1024"
"2.713490543","0","3","feps","non-word","86.17021276595744","86.17021276595744","661.0212765957447","661.0212765957447","black","no","legacy","legacy","legacy","0","uniform","1","undefined","undefined","undefined","1","f","0","0","0","0","93","0","0","0","93","0","89","93","89","0","89","3","93","0","93","Fri Feb 19 12:55:46 2021","The main experiment item","yes","Lexical_Decision_Task.osexp","/Users/charlottecrittell","no","Andale Mono","no","18","no","white","no","yes","576","legacy","89","89","3","/Users/charlottecrittell/subject-5202224.csv","legacy","Lentiform Loewenfeld","3.3.7","yes","yes","600bd7cfb6416f0113b04181","602110864497cf011d9c0822","0","f","NA","space","space","space","space","f","611","NA","1091","1171","1209","4854","611","2","legacy","1024","2","48000","-16","task","5202224","even","NA","17780","20877","19785","191626","7087","9483","8270","192129","114456","191623","192129","191564","20877","192741","16265","191064","7047","171128","Lexical Decision Task","81","62136","94","yes","1024"
"3.082307743","9.68","8","camp","word","86.3157894736842","86.3157894736842","661.0947368421052","661.0947368421052","black","no","legacy","legacy","legacy","0","uniform","1","undefined","undefined","undefined","1","j","0","0","0","0","94","0","0","0","94","0","90","94","90","0","90","3","94","0","94","Fri Feb 19 12:55:46 2021","The main experiment item","yes","Lexical_Decision_Task.osexp","/Users/charlottecrittell","no","Andale Mono","no","18","no","white","no","yes","576","legacy","90","90","3","/Users/charlottecrittell/subject-5202224.csv","legacy","Lentiform Loewenfeld","3.3.7","yes","yes","600bd7cfb6416f0113b04181","602110864497cf011d9c0822","0","j","NA","space","space","space","space","j","668","NA","1091","1171","1209","4854","668","2","legacy","1024","2","48000","-16","task","5202224","even","NA","17780","20877","19785","193306","7087","9483","8270","193809","114456","193304","193809","193244","20877","194478","16265","192744","7047","171128","Lexical Decision Task","82","62804","95","yes","1024"
"2.616654026","9.37","5","gift","word","86.45833333333333","86.45833333333333","659.3229166666666","659.3229166666666","black","no","legacy","legacy","legacy","0","uniform","1","undefined","undefined","undefined","1","j","0","0","0","0","95","0","0","0","95","0","91","95","91","0","91","3","95","0","95","Fri Feb 19 12:55:46 2021","The main experiment item","yes","Lexical_Decision_Task.osexp","/Users/charlottecrittell","no","Andale Mono","no","18","no","white","no","yes","576","legacy","91","91","3","/Users/charlottecrittell/subject-5202224.csv","legacy","Lentiform Loewenfeld","3.3.7","yes","yes","600bd7cfb6416f0113b04181","602110864497cf011d9c0822","0","j","NA","space","space","space","space","j","491","NA","1091","1171","1209","4854","491","2","legacy","1024","2","48000","-16","task","5202224","even","NA","17780","20877","19785","195045","7087","9483","8270","195548","114456","195042","195549","194982","20877","196041","16265","194482","7047","171128","Lexical Decision Task","83","63295","96","yes","1024"
"3.20871002","7.15","8","cram","word","86.5979381443299","86.5979381443299","658.1340206185567","658.1340206185567","black","no","legacy","legacy","legacy","0","uniform","1","undefined","undefined","undefined","1","j","0","0","0","0","96","0","0","0","96","0","92","96","92","0","92","3","96","0","96","Fri Feb 19 12:55:46 2021","The main experiment item","yes","Lexical_Decision_Task.osexp","/Users/charlottecrittell","no","Andale Mono","no","18","no","white","no","yes","576","legacy","92","92","3","/Users/charlottecrittell/subject-5202224.csv","legacy","Lentiform Loewenfeld","3.3.7","yes","yes","600bd7cfb6416f0113b04181","602110864497cf011d9c0822","0","j","NA","space","space","space","space","j","544","NA","1091","1171","1209","4854","544","2","legacy","1024","2","48000","-16","task","5202224","even","NA","17780","20877","19785","196620","7087","9483","8270","197123","114456","196617","197123","196545","20877","197668","16265","196045","7047","171128","Lexical Decision Task","84","63839","97","yes","1024"
"3.121778632","0","9","sark","non-word","86.73469387755102","86.73469387755102","657.234693877551","657.234693877551","black","no","legacy","legacy","legacy","0","uniform","1","undefined","undefined","undefined","1","f","0","0","0","0","97","0","0","0","97","0","93","97","93","0","93","3","97","0","97","Fri Feb 19 12:55:46 2021","The main experiment item","yes","Lexical_Decision_Task.osexp","/Users/charlottecrittell","no","Andale Mono","no","18","no","white","no","yes","576","legacy","93","93","3","/Users/charlottecrittell/subject-5202224.csv","legacy","Lentiform Loewenfeld","3.3.7","yes","yes","600bd7cfb6416f0113b04181","602110864497cf011d9c0822","0","f","NA","space","space","space","space","f","570","NA","1091","1171","1209","4854","570","2","legacy","1024","2","48000","-16","task","5202224","even","NA","17780","20877","19785","198233","7087","9483","8270","198736","114456","198230","198736","198171","20877","199307","16265","197671","7047","171128","Lexical Decision Task","85","64409","98","yes","1024"
"3.003891166","8.05","2","frog","word","86.86868686868686","86.86868686868686","654.929292929293","654.929292929293","black","no","legacy","legacy","legacy","0","uniform","1","undefined","undefined","undefined","1","j","0","0","0","0","98","0","0","0","98","0","94","98","94","0","94","3","98","0","98","Fri Feb 19 12:55:46 2021","The main experiment item","yes","Lexical_Decision_Task.osexp","/Users/charlottecrittell","no","Andale Mono","no","18","no","white","no","yes","576","legacy","94","94","3","/Users/charlottecrittell/subject-5202224.csv","legacy","Lentiform Loewenfeld","3.3.7","yes","yes","600bd7cfb6416f0113b04181","602110864497cf011d9c0822","0","j","NA","space","space","space","space","j","429","NA","1091","1171","1209","4854","429","2","legacy","1024","2","48000","-16","task","5202224","even","NA","17780","20877","19785","199873","7087","9483","8270","200376","114456","199870","200376","199811","20877","200806","16265","199311","7047","171128","Lexical Decision Task","86","64838","99","yes","1024"
"2.838639236","0","4","furg","non-word","87","87","654.38","654.38","black","no","legacy","legacy","legacy","0","uniform","1","undefined","undefined","undefined","1","f","0","0","0","0","99","0","0","0","99","0","95","99","95","0","95","3","99","0","99","Fri Feb 19 12:55:46 2021","The main experiment item","yes","Lexical_Decision_Task.osexp","/Users/charlottecrittell","no","Andale Mono","no","18","no","white","no","yes","576","legacy","95","95","3","/Users/charlottecrittell/subject-5202224.csv","legacy","Lentiform Loewenfeld","3.3.7","yes","yes","600bd7cfb6416f0113b04181","602110864497cf011d9c0822","0","f","NA","space","space","space","space","f","600","NA","1091","1171","1209","4854","600","2","legacy","1024","2","48000","-16","task","5202224","even","NA","17780","20877","19785","201372","7087","9483","8270","201876","114456","201370","201876","201310","20877","202477","16265","200810","7047","171128","Lexical Decision Task","87","65438","100","yes","1024"
"3.259832699","0","9","flar","non-word","87.12871287128714","87.12871287128714","653.8415841584158","653.8415841584158","black","no","legacy","legacy","legacy","0","uniform","1","undefined","undefined","undefined","1","f","0","0","0","0","100","0","0","0","100","0","96","100","96","0","96","3","100","0","100","Fri Feb 19 12:55:46 2021","The main experiment item","yes","Lexical_Decision_Task.osexp","/Users/charlottecrittell","no","Andale Mono","no","18","no","white","no","yes","576","legacy","96","96","3","/Users/charlottecrittell/subject-5202224.csv","legacy","Lentiform Loewenfeld","3.3.7","yes","yes","600bd7cfb6416f0113b04181","602110864497cf011d9c0822","0","f","NA","space","space","space","space","f","600","NA","1091","1171","1209","4854","600","2","legacy","1024","2","48000","-16","task","5202224","even","NA","17780","20877","19785","203042","7087","9483","8270","203545","114456","203039","203545","202980","20877","204146","16265","202480","7047","171128","Lexical Decision Task","88","66038","101","yes","1024"
