"Log_BG","Log_Freq_HAL","Ortho_N","Stimulus","Type","acc","accuracy","average_response_time","avg_rt","background","bidi","canvas_backend","clock_backend","color_backend","compensation","coordinates","correct","correct_Experimental_intro","correct_Introduction","correct_Practice_intro","correct_experimenter_kb","correct_response","count_End_Of_Experiment","count_End_Of_Practice","count_Experimental_Loop","count_Experimental_intro","count_Fixation","count_Introduction","count_Practice_Loop","count_Practice_intro","count_Stimulus","count_block_break_feedback","count_experimental_sequence","count_experimenter_kb","count_increment_trial_count","count_init_trial_count","count_logger","count_practice_sequence","count_right","count_task","count_wrong","datetime","description","disable_garbage_collection","experiment_file","experiment_path","font_bold","font_family","font_italic","font_size","font_underline","foreground","form_clicks","fullscreen","height","keyboard_backend","live_row","live_row_Experimental_Loop","live_row_Practice_Loop","logfile","mouse_backend","opensesame_codename","opensesame_version","osf_always_upload_data","osf_always_upload_experiment","osf_datanode_id","osf_id","repeat_cycle","response","response_End_Of_Experiment","response_Experimental_intro","response_Introduction","response_Practice_intro","response_block_break_feedback","response_experimenter_kb","response_time","response_time_End_Of_Experiment","response_time_Experimental_intro","response_time_Introduction","response_time_Practice_intro","response_time_block_break_feedback","response_time_experimenter_kb","round_decimals","sampler_backend","sound_buf_size","sound_channels","sound_freq","sound_sample_size","start","subject_nr","subject_parity","time_End_Of_Experiment","time_End_Of_Practice","time_Experimental_Loop","time_Experimental_intro","time_Fixation","time_Introduction","time_Practice_Loop","time_Practice_intro","time_Stimulus","time_block_break_feedback","time_experimental_sequence","time_experimenter_kb","time_increment_trial_count","time_init_trial_count","time_logger","time_practice_sequence","time_right","time_task","time_wrong","title","total_correct","total_response_time","total_responses","uniform_coordinates","width"
"2.782472624","10.55","2","huge","word","100","100","716.2","716.2","black","no","legacy","legacy","legacy","0","uniform","1","undefined","undefined","undefined","1","j","0","0","0","0","4","0","0","0","4","NA","0","4","0","0","0","3","4","0","4","Fri Feb 19 12:48:35 2021","The main experiment item","yes","Lexical_Decision_Task.osexp","/Users/jennamanley","no","Andale Mono","no","18","no","white","no","yes","576","legacy","0","0","3","/Users/jennamanley/subject-5203795.csv","legacy","Lentiform Loewenfeld","3.3.7","yes","yes","600bd7cfb6416f0113b04181","602110864497cf011d9c0822","0","j","NA","j","j","j","NA","j","491","NA","3524","12002","2753","NA","491","2","legacy","1024","2","48000","-16","task","5203795","odd","NA","27042","32569","29044","32594","4930","19698","16944","33097","NA","32592","33097","NA","32569","33589","25374","26517","4889","NA","Lexical Decision Task","5","3581","5","yes","1024"
"3.105055783","0","2","norp","non-word","100","100","679.5","679.5","black","no","legacy","legacy","legacy","0","uniform","1","undefined","undefined","undefined","1","f","0","0","0","0","5","0","0","0","5","NA","1","5","1","0","1","3","5","0","5","Fri Feb 19 12:48:35 2021","The main experiment item","yes","Lexical_Decision_Task.osexp","/Users/jennamanley","no","Andale Mono","no","18","no","white","no","yes","576","legacy","1","1","3","/Users/jennamanley/subject-5203795.csv","legacy","Lentiform Loewenfeld","3.3.7","yes","yes","600bd7cfb6416f0113b04181","602110864497cf011d9c0822","0","f","NA","j","j","j","NA","f","496","NA","3524","12002","2753","NA","496","2","legacy","1024","2","48000","-16","task","5203795","odd","NA","27042","32569","29044","34141","4930","19698","16944","34643","NA","34138","34643","34096","32569","35140","25374","33596","4889","NA","Lexical Decision Task","6","4077","6","yes","1024"
"3.225825991","0","7","talm","non-word","100","100","702.8571428571429","702.8571428571429","black","no","legacy","legacy","legacy","0","uniform","1","undefined","undefined","undefined","1","f","0","0","0","0","6","0","0","0","6","NA","2","6","2","0","2","3","6","0","6","Fri Feb 19 12:48:35 2021","The main experiment item","yes","Lexical_Decision_Task.osexp","/Users/jennamanley","no","Andale Mono","no","18","no","white","no","yes","576","legacy","2","2","3","/Users/jennamanley/subject-5203795.csv","legacy","Lentiform Loewenfeld","3.3.7","yes","yes","600bd7cfb6416f0113b04181","602110864497cf011d9c0822","0","f","NA","j","j","j","NA","f","843","NA","3524","12002","2753","NA","843","2","legacy","1024","2","48000","-16","task","5203795","odd","NA","27042","32569","29044","35688","4930","19698","16944","36190","NA","35686","36190","35644","32569","37034","25374","35144","4889","NA","Lexical Decision Task","7","4920","7","yes","1024"
"3.031408464","0","7","drow","non-word","100","100","694.625","694.625","black","no","legacy","legacy","legacy","0","uniform","1","undefined","undefined","undefined","1","f","0","0","0","0","7","0","0","0","7","NA","3","7","3","0","3","3","7","0","7","Fri Feb 19 12:48:35 2021","The main experiment item","yes","Lexical_Decision_Task.osexp","/Users/jennamanley","no","Andale Mono","no","18","no","white","no","yes","576","legacy","3","3","3","/Users/jennamanley/subject-5203795.csv","legacy","Lentiform Loewenfeld","3.3.7","yes","yes","600bd7cfb6416f0113b04181","602110864497cf011d9c0822","0","f","NA","j","j","j","NA","f","637","NA","3524","12002","2753","NA","637","2","legacy","1024","2","48000","-16","task","5203795","odd","NA","27042","32569","29044","37583","4930","19698","16944","38085","NA","37581","38085","37538","32569","38723","25374","37038","4889","NA","Lexical Decision Task","8","5557","8","yes","1024"
"3.194328374","9.42","6","harm","word","100","100","667.5555555555555","667.5555555555555","black","no","legacy","legacy","legacy","0","uniform","1","undefined","undefined","undefined","1","j","0","0","0","0","8","0","0","0","8","NA","4","8","4","0","4","3","8","0","8","Fri Feb 19 12:48:35 2021","The main experiment item","yes","Lexical_Decision_Task.osexp","/Users/jennamanley","no","Andale Mono","no","18","no","white","no","yes","576","legacy","4","4","3","/Users/jennamanley/subject-5203795.csv","legacy","Lentiform Loewenfeld","3.3.7","yes","yes","600bd7cfb6416f0113b04181","602110864497cf011d9c0822","0","j","NA","j","j","j","NA","j","451","NA","3524","12002","2753","NA","451","2","legacy","1024","2","48000","-16","task","5203795","odd","NA","27042","32569","29044","39292","4930","19698","16944","39795","NA","39289","39795","39227","32569","40247","25374","38727","4889","NA","Lexical Decision Task","9","6008","9","yes","1024"
"2.898725182","0","7","turl","non-word","100","100","657.9","657.9","black","no","legacy","legacy","legacy","0","uniform","1","undefined","undefined","undefined","1","f","0","0","0","0","9","0","0","0","9","NA","5","9","5","0","5","3","9","0","9","Fri Feb 19 12:48:35 2021","The main experiment item","yes","Lexical_Decision_Task.osexp","/Users/jennamanley","no","Andale Mono","no","18","no","white","no","yes","576","legacy","5","5","3","/Users/jennamanley/subject-5203795.csv","legacy","Lentiform Loewenfeld","3.3.7","yes","yes","600bd7cfb6416f0113b04181","602110864497cf011d9c0822","0","f","NA","j","j","j","NA","f","571","NA","3524","12002","2753","NA","571","2","legacy","1024","2","48000","-16","task","5203795","odd","NA","27042","32569","29044","40816","4930","19698","16944","41319","NA","40813","41319","40751","32569","41891","25374","40251","4889","NA","Lexical Decision Task","10","6579","10","yes","1024"
"3.134602053","0","8","jart","non-word","100","100","665.3636363636364","665.3636363636364","black","no","legacy","legacy","legacy","0","uniform","1","undefined","undefined","undefined","1","f","0","0","0","0","10","0","0","0","10","NA","6","10","6","0","6","3","10","0","10","Fri Feb 19 12:48:35 2021","The main experiment item","yes","Lexical_Decision_Task.osexp","/Users/jennamanley","no","Andale Mono","no","18","no","white","no","yes","576","legacy","6","6","3","/Users/jennamanley/subject-5203795.csv","legacy","Lentiform Loewenfeld","3.3.7","yes","yes","600bd7cfb6416f0113b04181","602110864497cf011d9c0822","0","f","NA","j","j","j","NA","f","740","NA","3524","12002","2753","NA","740","2","legacy","1024","2","48000","-16","task","5203795","odd","NA","27042","32569","29044","42458","4930","19698","16944","42960","NA","42455","42961","42395","32569","43702","25374","41894","4889","NA","Lexical Decision Task","11","7319","11","yes","1024"
"3.082307743","9.68","8","camp","word","100","100","656.75","656.75","black","no","legacy","legacy","legacy","0","uniform","1","undefined","undefined","undefined","1","j","0","0","0","0","11","0","0","0","11","NA","7","11","7","0","7","3","11","0","11","Fri Feb 19 12:48:35 2021","The main experiment item","yes","Lexical_Decision_Task.osexp","/Users/jennamanley","no","Andale Mono","no","18","no","white","no","yes","576","legacy","7","7","3","/Users/jennamanley/subject-5203795.csv","legacy","Lentiform Loewenfeld","3.3.7","yes","yes","600bd7cfb6416f0113b04181","602110864497cf011d9c0822","0","j","NA","j","j","j","NA","j","562","NA","3524","12002","2753","NA","562","2","legacy","1024","2","48000","-16","task","5203795","odd","NA","27042","32569","29044","44269","4930","19698","16944","44772","NA","44266","44772","44206","32569","45335","25374","43706","4889","NA","Lexical Decision Task","12","7881","12","yes","1024"
"2.75025376","10.2","6","jump","word","100","100","650.6153846153846","650.6153846153846","black","no","legacy","legacy","legacy","0","uniform","1","undefined","undefined","undefined","1","j","0","0","0","0","12","0","0","0","12","NA","8","12","8","0","8","3","12","0","12","Fri Feb 19 12:48:35 2021","The main experiment item","yes","Lexical_Decision_Task.osexp","/Users/jennamanley","no","Andale Mono","no","18","no","white","no","yes","576","legacy","8","8","3","/Users/jennamanley/subject-5203795.csv","legacy","Lentiform Loewenfeld","3.3.7","yes","yes","600bd7cfb6416f0113b04181","602110864497cf011d9c0822","0","j","NA","j","j","j","NA","j","577","NA","3524","12002","2753","NA","577","2","legacy","1024","2","48000","-16","task","5203795","odd","NA","27042","32569","29044","45905","4930","19698","16944","46408","NA","45901","46408","45838","32569","46986","25374","45338","4889","NA","Lexical Decision Task","13","8458","13","yes","1024"
"2.95456409","0","4","taud","non-word","100","100","645.2142857142857","645.2142857142857","black","no","legacy","legacy","legacy","0","uniform","1","undefined","undefined","undefined","1","f","0","0","0","0","13","0","0","0","13","NA","9","13","9","0","9","3","13","0","13","Fri Feb 19 12:48:35 2021","The main experiment item","yes","Lexical_Decision_Task.osexp","/Users/jennamanley","no","Andale Mono","no","18","no","white","no","yes","576","legacy","9","9","3","/Users/jennamanley/subject-5203795.csv","legacy","Lentiform Loewenfeld","3.3.7","yes","yes","600bd7cfb6416f0113b04181","602110864497cf011d9c0822","0","f","NA","j","j","j","NA","f","575","NA","3524","12002","2753","NA","575","2","legacy","1024","2","48000","-16","task","5203795","odd","NA","27042","32569","29044","47554","4930","19698","16944","48056","NA","47551","48056","47491","32569","48632","25374","46990","4889","NA","Lexical Decision Task","14","9033","14","yes","1024"
"3.094121596","0","8","fode","non-word","100","100","643.7333333333333","643.7333333333333","black","no","legacy","legacy","legacy","0","uniform","1","undefined","undefined","undefined","1","f","0","0","0","0","14","0","0","0","14","NA","10","14","10","0","10","3","14","0","14","Fri Feb 19 12:48:35 2021","The main experiment item","yes","Lexical_Decision_Task.osexp","/Users/jennamanley","no","Andale Mono","no","18","no","white","no","yes","576","legacy","10","10","3","/Users/jennamanley/subject-5203795.csv","legacy","Lentiform Loewenfeld","3.3.7","yes","yes","600bd7cfb6416f0113b04181","602110864497cf011d9c0822","0","f","NA","j","j","j","NA","f","623","NA","3524","12002","2753","NA","623","2","legacy","1024","2","48000","-16","task","5203795","odd","NA","27042","32569","29044","49200","4930","19698","16944","49702","NA","49197","49702","49136","32569","50326","25374","48636","4889","NA","Lexical Decision Task","15","9656","15","yes","1024"
"2.842815106","7.86","8","lump","word","100","100","647.375","647.375","black","no","legacy","legacy","legacy","0","uniform","1","undefined","undefined","undefined","1","j","0","0","0","0","15","0","0","0","15","NA","11","15","11","0","11","3","15","0","15","Fri Feb 19 12:48:35 2021","The main experiment item","yes","Lexical_Decision_Task.osexp","/Users/jennamanley","no","Andale Mono","no","18","no","white","no","yes","576","legacy","11","11","3","/Users/jennamanley/subject-5203795.csv","legacy","Lentiform Loewenfeld","3.3.7","yes","yes","600bd7cfb6416f0113b04181","602110864497cf011d9c0822","0","j","NA","j","j","j","NA","j","702","NA","3524","12002","2753","NA","702","2","legacy","1024","2","48000","-16","task","5203795","odd","NA","27042","32569","29044","50892","4930","19698","16944","51396","NA","50890","51396","50829","32569","52099","25374","50329","4889","NA","Lexical Decision Task","16","10358","16","yes","1024"
"3.120135028","0","3","vals","non-word","100","100","652.9411764705883","652.9411764705883","black","no","legacy","legacy","legacy","0","uniform","1","undefined","undefined","undefined","1","f","0","0","0","0","16","0","0","0","16","NA","12","16","12","0","12","3","16","0","16","Fri Feb 19 12:48:35 2021","The main experiment item","yes","Lexical_Decision_Task.osexp","/Users/jennamanley","no","Andale Mono","no","18","no","white","no","yes","576","legacy","12","12","3","/Users/jennamanley/subject-5203795.csv","legacy","Lentiform Loewenfeld","3.3.7","yes","yes","600bd7cfb6416f0113b04181","602110864497cf011d9c0822","0","f","NA","j","j","j","NA","f","742","NA","3524","12002","2753","NA","742","2","legacy","1024","2","48000","-16","task","5203795","odd","NA","27042","32569","29044","52666","4930","19698","16944","53168","NA","52663","53169","52603","32569","53912","25374","52103","4889","NA","Lexical Decision Task","17","11100","17","yes","1024"
"2.664011697","8.19","4","hawk","word","94.44444444444444","94.44444444444444","647.9444444444445","647.9444444444445","black","no","legacy","legacy","legacy","0","uniform","0","undefined","undefined","undefined","0","j","0","0","0","0","17","0","0","0","17","NA","13","17","13","0","13","3","17","0","17","Fri Feb 19 12:48:35 2021","The main experiment item","yes","Lexical_Decision_Task.osexp","/Users/jennamanley","no","Andale Mono","no","18","no","white","no","yes","576","legacy","13","13","3","/Users/jennamanley/subject-5203795.csv","legacy","Lentiform Loewenfeld","3.3.7","yes","yes","600bd7cfb6416f0113b04181","602110864497cf011d9c0822","0","f","NA","j","j","j","NA","f","563","NA","3524","12002","2753","NA","563","2","legacy","1024","2","48000","-16","task","5203795","odd","NA","27042","32569","29044","54479","4930","19698","16944","54984","NA","54477","54984","54416","32569","55548","25374","53916","4889","NA","Lexical Decision Task","17","11663","18","yes","1024"
"2.695770526","7.34","6","pawn","word","94.73684210526316","94.73684210526316","655.2105263157895","655.2105263157895","black","no","legacy","legacy","legacy","0","uniform","1","undefined","undefined","undefined","1","j","0","0","0","0","18","0","0","0","18","NA","14","18","14","0","14","3","18","0","18","Fri Feb 19 12:48:35 2021","The main experiment item","yes","Lexical_Decision_Task.osexp","/Users/jennamanley","no","Andale Mono","no","18","no","white","no","yes","576","legacy","14","14","3","/Users/jennamanley/subject-5203795.csv","legacy","Lentiform Loewenfeld","3.3.7","yes","yes","600bd7cfb6416f0113b04181","602110864497cf011d9c0822","0","j","NA","j","j","j","NA","j","786","NA","3524","12002","2753","NA","786","2","legacy","1024","2","48000","-16","task","5203795","odd","NA","27042","32569","29044","57117","4930","19698","16944","57620","NA","57115","57620","57051","32569","58407","25374","53916","4889","55551","Lexical Decision Task","18","12449","19","yes","1024"
"3.316948329","0","1","besc","non-word","95","95","649.5","649.5","black","no","legacy","legacy","legacy","0","uniform","1","undefined","undefined","undefined","1","f","0","0","0","0","19","0","0","0","19","NA","15","19","15","0","15","3","19","0","19","Fri Feb 19 12:48:35 2021","The main experiment item","yes","Lexical_Decision_Task.osexp","/Users/jennamanley","no","Andale Mono","no","18","no","white","no","yes","576","legacy","15","15","3","/Users/jennamanley/subject-5203795.csv","legacy","Lentiform Loewenfeld","3.3.7","yes","yes","600bd7cfb6416f0113b04181","602110864497cf011d9c0822","0","f","NA","j","j","j","NA","f","541","NA","3524","12002","2753","NA","541","2","legacy","1024","2","48000","-16","task","5203795","odd","NA","27042","32569","29044","58975","4930","19698","16944","59477","NA","58972","59477","58910","32569","60019","25374","58410","4889","55551","Lexical Decision Task","19","12990","20","yes","1024"
"3.353210739","0","9","reet","non-word","95.23809523809524","95.23809523809524","646.6190476190476","646.6190476190476","black","no","legacy","legacy","legacy","0","uniform","1","undefined","undefined","undefined","1","f","0","0","0","0","20","0","0","0","20","NA","16","20","16","0","16","3","20","0","20","Fri Feb 19 12:48:35 2021","The main experiment item","yes","Lexical_Decision_Task.osexp","/Users/jennamanley","no","Andale Mono","no","18","no","white","no","yes","576","legacy","16","16","3","/Users/jennamanley/subject-5203795.csv","legacy","Lentiform Loewenfeld","3.3.7","yes","yes","600bd7cfb6416f0113b04181","602110864497cf011d9c0822","0","f","NA","j","j","j","NA","f","589","NA","3524","12002","2753","NA","589","2","legacy","1024","2","48000","-16","task","5203795","odd","NA","27042","32569","29044","60585","4930","19698","16944","61088","NA","60582","61088","60523","32569","61678","25374","60022","4889","55551","Lexical Decision Task","20","13579","21","yes","1024"
"2.708989954","9.28","9","bowl","word","90.9090909090909","90.9090909090909","647.9545454545455","647.9545454545455","black","no","legacy","legacy","legacy","0","uniform","0","undefined","undefined","undefined","0","j","0","0","0","0","21","0","0","0","21","NA","17","21","17","0","17","3","21","0","21","Fri Feb 19 12:48:35 2021","The main experiment item","yes","Lexical_Decision_Task.osexp","/Users/jennamanley","no","Andale Mono","no","18","no","white","no","yes","576","legacy","17","17","3","/Users/jennamanley/subject-5203795.csv","legacy","Lentiform Loewenfeld","3.3.7","yes","yes","600bd7cfb6416f0113b04181","602110864497cf011d9c0822","0","f","NA","j","j","j","NA","f","676","NA","3524","12002","2753","NA","676","2","legacy","1024","2","48000","-16","task","5203795","odd","NA","27042","32569","29044","62246","4930","19698","16944","62749","NA","62243","62749","62182","32569","63426","25374","61682","4889","55551","Lexical Decision Task","20","14255","22","yes","1024"
"3.049218023","7.4","9","robe","word","91.30434782608695","91.30434782608695","647.5217391304348","647.5217391304348","black","no","legacy","legacy","legacy","0","uniform","1","undefined","undefined","undefined","1","j","0","0","0","0","22","0","0","0","22","NA","18","22","18","0","18","3","22","0","22","Fri Feb 19 12:48:35 2021","The main experiment item","yes","Lexical_Decision_Task.osexp","/Users/jennamanley","no","Andale Mono","no","18","no","white","no","yes","576","legacy","18","18","3","/Users/jennamanley/subject-5203795.csv","legacy","Lentiform Loewenfeld","3.3.7","yes","yes","600bd7cfb6416f0113b04181","602110864497cf011d9c0822","0","j","NA","j","j","j","NA","j","638","NA","3524","12002","2753","NA","638","2","legacy","1024","2","48000","-16","task","5203795","odd","NA","27042","32569","29044","64995","4930","19698","16944","65498","NA","64993","65499","64930","32569","66138","25374","61682","4889","63430","Lexical Decision Task","21","14893","23","yes","1024"
"3.347850856","10.51","2","rich","word","91.66666666666667","91.66666666666667","676.0416666666666","676.0416666666666","black","no","legacy","legacy","legacy","0","uniform","1","undefined","undefined","undefined","1","j","0","0","0","0","23","0","0","0","23","NA","19","23","19","0","19","3","23","0","23","Fri Feb 19 12:48:35 2021","The main experiment item","yes","Lexical_Decision_Task.osexp","/Users/jennamanley","no","Andale Mono","no","18","no","white","no","yes","576","legacy","19","19","3","/Users/jennamanley/subject-5203795.csv","legacy","Lentiform Loewenfeld","3.3.7","yes","yes","600bd7cfb6416f0113b04181","602110864497cf011d9c0822","0","j","NA","j","j","j","NA","j","1332","NA","3524","12002","2753","NA","1332","2","legacy","1024","2","48000","-16","task","5203795","odd","NA","27042","32569","29044","66703","4930","19698","16944","67206","NA","66701","67207","66642","32569","68540","25374","66142","4889","63430","Lexical Decision Task","22","16225","24","yes","1024"
"3.299579929","0","2","flis","non-word","92","92","683.52","683.52","black","no","legacy","legacy","legacy","0","uniform","1","undefined","undefined","undefined","1","f","0","0","0","0","24","0","0","0","24","NA","20","24","20","0","20","3","24","0","24","Fri Feb 19 12:48:35 2021","The main experiment item","yes","Lexical_Decision_Task.osexp","/Users/jennamanley","no","Andale Mono","no","18","no","white","no","yes","576","legacy","20","20","3","/Users/jennamanley/subject-5203795.csv","legacy","Lentiform Loewenfeld","3.3.7","yes","yes","600bd7cfb6416f0113b04181","602110864497cf011d9c0822","0","f","NA","j","j","j","NA","f","863","NA","3524","12002","2753","NA","863","2","legacy","1024","2","48000","-16","task","5203795","odd","NA","27042","32569","29044","69107","4930","19698","16944","69609","NA","69104","69609","69044","32569","70473","25374","68544","4889","63430","Lexical Decision Task","23","17088","25","yes","1024"
"2.784379519","0","2","snaf","non-word","92.3076923076923","92.3076923076923","689.8461538461538","689.8461538461538","black","no","legacy","legacy","legacy","0","uniform","1","undefined","undefined","undefined","1","f","0","0","0","0","25","0","0","0","25","NA","21","25","21","0","21","3","25","0","25","Fri Feb 19 12:48:35 2021","The main experiment item","yes","Lexical_Decision_Task.osexp","/Users/jennamanley","no","Andale Mono","no","18","no","white","no","yes","576","legacy","21","21","3","/Users/jennamanley/subject-5203795.csv","legacy","Lentiform Loewenfeld","3.3.7","yes","yes","600bd7cfb6416f0113b04181","602110864497cf011d9c0822","0","f","NA","j","j","j","NA","f","848","NA","3524","12002","2753","NA","848","2","legacy","1024","2","48000","-16","task","5203795","odd","NA","27042","32569","29044","71039","4930","19698","16944","71541","NA","71037","71542","70976","32569","72391","25374","70476","4889","63430","Lexical Decision Task","24","17936","26","yes","1024"
"2.664328519","0","4","plux","non-word","92.5925925925926","92.5925925925926","689.0370370370371","689.0370370370371","black","no","legacy","legacy","legacy","0","uniform","1","undefined","undefined","undefined","1","f","0","0","0","0","26","0","0","0","26","NA","22","26","22","0","22","3","26","0","26","Fri Feb 19 12:48:35 2021","The main experiment item","yes","Lexical_Decision_Task.osexp","/Users/jennamanley","no","Andale Mono","no","18","no","white","no","yes","576","legacy","22","22","3","/Users/jennamanley/subject-5203795.csv","legacy","Lentiform Loewenfeld","3.3.7","yes","yes","600bd7cfb6416f0113b04181","602110864497cf011d9c0822","0","f","NA","j","j","j","NA","f","668","NA","3524","12002","2753","NA","668","2","legacy","1024","2","48000","-16","task","5203795","odd","NA","27042","32569","29044","72958","4930","19698","16944","73460","NA","72955","73461","72895","32569","74130","25374","72395","4889","63430","Lexical Decision Task","25","18604","27","yes","1024"
"3.263399331","0","8","cour","non-word","92.85714285714286","92.85714285714286","691.3928571428571","691.3928571428571","black","no","legacy","legacy","legacy","0","uniform","1","undefined","undefined","undefined","1","f","0","0","0","0","27","0","0","0","27","NA","23","27","23","0","23","3","27","0","27","Fri Feb 19 12:48:35 2021","The main experiment item","yes","Lexical_Decision_Task.osexp","/Users/jennamanley","no","Andale Mono","no","18","no","white","no","yes","576","legacy","23","23","3","/Users/jennamanley/subject-5203795.csv","legacy","Lentiform Loewenfeld","3.3.7","yes","yes","600bd7cfb6416f0113b04181","602110864497cf011d9c0822","0","f","NA","j","j","j","NA","f","755","NA","3524","12002","2753","NA","755","2","legacy","1024","2","48000","-16","task","5203795","odd","NA","27042","32569","29044","74697","4930","19698","16944","75200","NA","74694","75200","74634","32569","75956","25374","74133","4889","63430","Lexical Decision Task","26","19359","28","yes","1024"
"3.460446784","0","5","dess","non-word","93.10344827586206","93.10344827586206","703.9655172413793","703.9655172413793","black","no","legacy","legacy","legacy","0","uniform","1","undefined","undefined","undefined","1","f","0","0","0","0","28","0","0","0","28","NA","24","28","24","0","24","3","28","0","28","Fri Feb 19 12:48:35 2021","The main experiment item","yes","Lexical_Decision_Task.osexp","/Users/jennamanley","no","Andale Mono","no","18","no","white","no","yes","576","legacy","24","24","3","/Users/jennamanley/subject-5203795.csv","legacy","Lentiform Loewenfeld","3.3.7","yes","yes","600bd7cfb6416f0113b04181","602110864497cf011d9c0822","0","f","NA","j","j","j","NA","f","1056","NA","3524","12002","2753","NA","1056","2","legacy","1024","2","48000","-16","task","5203795","odd","NA","27042","32569","29044","76523","4930","19698","16944","77026","NA","76520","77026","76461","32569","78083","25374","75960","4889","63430","Lexical Decision Task","27","20415","29","yes","1024"
"2.695481676","0","7","goke","non-word","93.33333333333333","93.33333333333333","710.1333333333333","710.1333333333333","black","no","legacy","legacy","legacy","0","uniform","1","undefined","undefined","undefined","1","f","0","0","0","0","29","0","0","0","29","NA","25","29","25","0","25","3","29","0","29","Fri Feb 19 12:48:35 2021","The main experiment item","yes","Lexical_Decision_Task.osexp","/Users/jennamanley","no","Andale Mono","no","18","no","white","no","yes","576","legacy","25","25","3","/Users/jennamanley/subject-5203795.csv","legacy","Lentiform Loewenfeld","3.3.7","yes","yes","600bd7cfb6416f0113b04181","602110864497cf011d9c0822","0","f","NA","j","j","j","NA","f","889","NA","3524","12002","2753","NA","889","2","legacy","1024","2","48000","-16","task","5203795","odd","NA","27042","32569","29044","78651","4930","19698","16944","79154","NA","78648","79154","78587","32569","80044","25374","78087","4889","63430","Lexical Decision Task","28","21304","30","yes","1024"
"3.091901331","0","9","nipe","non-word","93.54838709677419","93.54838709677419","721.3870967741935","721.3870967741935","black","no","legacy","legacy","legacy","0","uniform","1","undefined","undefined","undefined","1","f","0","0","0","0","30","0","0","0","30","NA","26","30","26","0","26","3","30","0","30","Fri Feb 19 12:48:35 2021","The main experiment item","yes","Lexical_Decision_Task.osexp","/Users/jennamanley","no","Andale Mono","no","18","no","white","no","yes","576","legacy","26","26","3","/Users/jennamanley/subject-5203795.csv","legacy","Lentiform Loewenfeld","3.3.7","yes","yes","600bd7cfb6416f0113b04181","602110864497cf011d9c0822","0","f","NA","j","j","j","NA","f","1059","NA","3524","12002","2753","NA","1059","2","legacy","1024","2","48000","-16","task","5203795","odd","NA","27042","32569","29044","80610","4930","19698","16944","81112","NA","80607","81112","80547","32569","82173","25374","80047","4889","63430","Lexical Decision Task","29","22363","31","yes","1024"
"3.1430148","7.92","8","bald","word","90.625","90.625","725.1875","725.1875","black","no","legacy","legacy","legacy","0","uniform","0","undefined","undefined","undefined","0","j","0","0","0","0","31","0","0","0","31","NA","27","31","27","0","27","3","31","0","31","Fri Feb 19 12:48:35 2021","The main experiment item","yes","Lexical_Decision_Task.osexp","/Users/jennamanley","no","Andale Mono","no","18","no","white","no","yes","576","legacy","27","27","3","/Users/jennamanley/subject-5203795.csv","legacy","Lentiform Loewenfeld","3.3.7","yes","yes","600bd7cfb6416f0113b04181","602110864497cf011d9c0822","0","f","NA","j","j","j","NA","f","843","NA","3524","12002","2753","NA","843","2","legacy","1024","2","48000","-16","task","5203795","odd","NA","27042","32569","29044","82740","4930","19698","16944","83243","NA","82737","83243","82676","32569","84088","25374","82176","4889","63430","Lexical Decision Task","29","23206","32","yes","1024"
"3.031812271","6.52","3","gulp","word","87.87878787878788","87.87878787878788","721.8787878787879","721.8787878787879","black","no","legacy","legacy","legacy","0","uniform","0","undefined","undefined","undefined","0","j","0","0","0","0","32","0","0","0","32","NA","28","32","28","0","28","3","32","0","32","Fri Feb 19 12:48:35 2021","The main experiment item","yes","Lexical_Decision_Task.osexp","/Users/jennamanley","no","Andale Mono","no","18","no","white","no","yes","576","legacy","28","28","3","/Users/jennamanley/subject-5203795.csv","legacy","Lentiform Loewenfeld","3.3.7","yes","yes","600bd7cfb6416f0113b04181","602110864497cf011d9c0822","0","f","NA","j","j","j","NA","f","616","NA","3524","12002","2753","NA","616","2","legacy","1024","2","48000","-16","task","5203795","odd","NA","27042","32569","29044","85657","4930","19698","16944","86159","NA","85655","86160","85591","32569","86778","25374","82176","4889","84091","Lexical Decision Task","29","23822","33","yes","1024"
"2.698387659","6.66","7","skid","word","88.23529411764706","88.23529411764706","724.5588235294117","724.5588235294117","black","no","legacy","legacy","legacy","0","uniform","1","undefined","undefined","undefined","1","j","0","0","0","0","33","0","0","0","33","NA","29","33","29","0","29","3","33","0","33","Fri Feb 19 12:48:35 2021","The main experiment item","yes","Lexical_Decision_Task.osexp","/Users/jennamanley","no","Andale Mono","no","18","no","white","no","yes","576","legacy","29","29","3","/Users/jennamanley/subject-5203795.csv","legacy","Lentiform Loewenfeld","3.3.7","yes","yes","600bd7cfb6416f0113b04181","602110864497cf011d9c0822","0","j","NA","j","j","j","NA","j","813","NA","3524","12002","2753","NA","813","2","legacy","1024","2","48000","-16","task","5203795","odd","NA","27042","32569","29044","88349","4930","19698","16944","88852","NA","88346","88852","88282","32569","89666","25374","82176","4889","86782","Lexical Decision Task","30","24635","34","yes","1024"
"3.303771854","0","9","dath","non-word","88.57142857142857","88.57142857142857","721.7428571428571","721.7428571428571","black","no","legacy","legacy","legacy","0","uniform","1","undefined","undefined","undefined","1","f","0","0","0","0","34","0","0","0","34","NA","30","34","30","0","30","3","34","0","34","Fri Feb 19 12:48:35 2021","The main experiment item","yes","Lexical_Decision_Task.osexp","/Users/jennamanley","no","Andale Mono","no","18","no","white","no","yes","576","legacy","30","30","3","/Users/jennamanley/subject-5203795.csv","legacy","Lentiform Loewenfeld","3.3.7","yes","yes","600bd7cfb6416f0113b04181","602110864497cf011d9c0822","0","f","NA","j","j","j","NA","f","626","NA","3524","12002","2753","NA","626","2","legacy","1024","2","48000","-16","task","5203795","odd","NA","27042","32569","29044","90234","4930","19698","16944","90737","NA","90231","90737","90170","32569","91365","25374","89670","4889","86782","Lexical Decision Task","31","25261","35","yes","1024"
"2.983324025","9.56","2","debt","word","88.88888888888889","88.88888888888889","717.0555555555555","717.0555555555555","black","no","legacy","legacy","legacy","0","uniform","1","undefined","undefined","undefined","1","j","0","0","0","0","35","0","0","0","35","NA","31","35","31","0","31","3","35","0","35","Fri Feb 19 12:48:35 2021","The main experiment item","yes","Lexical_Decision_Task.osexp","/Users/jennamanley","no","Andale Mono","no","18","no","white","no","yes","576","legacy","31","31","3","/Users/jennamanley/subject-5203795.csv","legacy","Lentiform Loewenfeld","3.3.7","yes","yes","600bd7cfb6416f0113b04181","602110864497cf011d9c0822","0","j","NA","j","j","j","NA","j","553","NA","3524","12002","2753","NA","553","2","legacy","1024","2","48000","-16","task","5203795","odd","NA","27042","32569","29044","91931","4930","19698","16944","92434","NA","91929","92434","91868","32569","92988","25374","91368","4889","86782","Lexical Decision Task","32","25814","36","yes","1024"
"3.077974404","10.41","8","tool","word","89.1891891891892","89.1891891891892","712.8648648648649","712.8648648648649","black","no","legacy","legacy","legacy","0","uniform","1","undefined","undefined","undefined","1","j","0","0","0","0","36","0","0","0","36","NA","32","36","32","0","32","3","36","0","36","Fri Feb 19 12:48:35 2021","The main experiment item","yes","Lexical_Decision_Task.osexp","/Users/jennamanley","no","Andale Mono","no","18","no","white","no","yes","576","legacy","32","32","3","/Users/jennamanley/subject-5203795.csv","legacy","Lentiform Loewenfeld","3.3.7","yes","yes","600bd7cfb6416f0113b04181","602110864497cf011d9c0822","0","j","NA","j","j","j","NA","j","562","NA","3524","12002","2753","NA","562","2","legacy","1024","2","48000","-16","task","5203795","odd","NA","27042","32569","29044","93555","4930","19698","16944","94057","NA","93552","94057","93492","32569","94620","25374","92992","4889","86782","Lexical Decision Task","33","26376","37","yes","1024"
"3.307211407","6.07","7","honk","word","89.47368421052632","89.47368421052632","712.6842105263158","712.6842105263158","black","no","legacy","legacy","legacy","0","uniform","1","undefined","undefined","undefined","1","j","0","0","0","0","37","0","0","0","37","NA","33","37","33","0","33","3","37","0","37","Fri Feb 19 12:48:35 2021","The main experiment item","yes","Lexical_Decision_Task.osexp","/Users/jennamanley","no","Andale Mono","no","18","no","white","no","yes","576","legacy","33","33","3","/Users/jennamanley/subject-5203795.csv","legacy","Lentiform Loewenfeld","3.3.7","yes","yes","600bd7cfb6416f0113b04181","602110864497cf011d9c0822","0","j","NA","j","j","j","NA","j","706","NA","3524","12002","2753","NA","706","2","legacy","1024","2","48000","-16","task","5203795","odd","NA","27042","32569","29044","95188","4930","19698","16944","95691","NA","95186","95691","95124","32569","96399","25374","94624","4889","86782","Lexical Decision Task","34","27082","38","yes","1024"
"2.899092422","7.27","6","snag","word","89.74358974358974","89.74358974358974","711.4102564102565","711.4102564102565","black","no","legacy","legacy","legacy","0","uniform","1","undefined","undefined","undefined","1","j","0","0","0","0","38","0","0","0","38","NA","34","38","34","0","34","3","38","0","38","Fri Feb 19 12:48:35 2021","The main experiment item","yes","Lexical_Decision_Task.osexp","/Users/jennamanley","no","Andale Mono","no","18","no","white","no","yes","576","legacy","34","34","3","/Users/jennamanley/subject-5203795.csv","legacy","Lentiform Loewenfeld","3.3.7","yes","yes","600bd7cfb6416f0113b04181","602110864497cf011d9c0822","0","j","NA","j","j","j","NA","j","663","NA","3524","12002","2753","NA","663","2","legacy","1024","2","48000","-16","task","5203795","odd","NA","27042","32569","29044","96964","4930","19698","16944","97467","NA","96961","97467","96903","32569","98131","25374","96402","4889","86782","Lexical Decision Task","35","27745","39","yes","1024"
"3.010582609","0","2","drod","non-word","90","90","711.95","711.95","black","no","legacy","legacy","legacy","0","uniform","1","undefined","undefined","undefined","1","f","0","0","0","0","39","0","0","0","39","NA","35","39","35","0","35","3","39","0","39","Fri Feb 19 12:48:35 2021","The main experiment item","yes","Lexical_Decision_Task.osexp","/Users/jennamanley","no","Andale Mono","no","18","no","white","no","yes","576","legacy","35","35","3","/Users/jennamanley/subject-5203795.csv","legacy","Lentiform Loewenfeld","3.3.7","yes","yes","600bd7cfb6416f0113b04181","602110864497cf011d9c0822","0","f","NA","j","j","j","NA","f","733","NA","3524","12002","2753","NA","733","2","legacy","1024","2","48000","-16","task","5203795","odd","NA","27042","32569","29044","98697","4930","19698","16944","99199","NA","98694","99199","98635","32569","99933","25374","98135","4889","86782","Lexical Decision Task","36","28478","40","yes","1024"
"3.29439347","8.6","9","wand","word","90.2439024390244","90.2439024390244","708.780487804878","708.780487804878","black","no","legacy","legacy","legacy","0","uniform","1","undefined","undefined","undefined","1","j","0","0","0","0","40","0","0","0","40","NA","36","40","36","0","36","3","40","0","40","Fri Feb 19 12:48:35 2021","The main experiment item","yes","Lexical_Decision_Task.osexp","/Users/jennamanley","no","Andale Mono","no","18","no","white","no","yes","576","legacy","36","36","3","/Users/jennamanley/subject-5203795.csv","legacy","Lentiform Loewenfeld","3.3.7","yes","yes","600bd7cfb6416f0113b04181","602110864497cf011d9c0822","0","j","NA","j","j","j","NA","j","582","NA","3524","12002","2753","NA","582","2","legacy","1024","2","48000","-16","task","5203795","odd","NA","27042","32569","29044","100499","4930","19698","16944","101002","NA","100496","101002","100436","32569","101585","25374","99936","4889","86782","Lexical Decision Task","37","29060","41","yes","1024"
"2.675164031","8.57","6","glue","word","90.47619047619048","90.47619047619048","709.3095238095239","709.3095238095239","black","no","legacy","legacy","legacy","0","uniform","1","undefined","undefined","undefined","1","j","0","0","0","0","41","0","0","0","41","NA","37","41","37","0","37","3","41","0","41","Fri Feb 19 12:48:35 2021","The main experiment item","yes","Lexical_Decision_Task.osexp","/Users/jennamanley","no","Andale Mono","no","18","no","white","no","yes","576","legacy","37","37","3","/Users/jennamanley/subject-5203795.csv","legacy","Lentiform Loewenfeld","3.3.7","yes","yes","600bd7cfb6416f0113b04181","602110864497cf011d9c0822","0","j","NA","j","j","j","NA","j","731","NA","3524","12002","2753","NA","731","2","legacy","1024","2","48000","-16","task","5203795","odd","NA","27042","32569","29044","102153","4930","19698","16944","102655","NA","102150","102655","102089","32569","103387","25374","101589","4889","86782","Lexical Decision Task","38","29791","42","yes","1024"
"3.440331212","7.35","6","stew","word","90.69767441860465","90.69767441860465","711.9302325581396","711.9302325581396","black","no","legacy","legacy","legacy","0","uniform","1","undefined","undefined","undefined","1","j","0","0","0","0","42","0","0","0","42","NA","38","42","38","0","38","3","42","0","42","Fri Feb 19 12:48:35 2021","The main experiment item","yes","Lexical_Decision_Task.osexp","/Users/jennamanley","no","Andale Mono","no","18","no","white","no","yes","576","legacy","38","38","3","/Users/jennamanley/subject-5203795.csv","legacy","Lentiform Loewenfeld","3.3.7","yes","yes","600bd7cfb6416f0113b04181","602110864497cf011d9c0822","0","j","NA","j","j","j","NA","j","822","NA","3524","12002","2753","NA","822","2","legacy","1024","2","48000","-16","task","5203795","odd","NA","27042","32569","29044","103954","4930","19698","16944","104456","NA","103951","104456","103891","32569","105280","25374","103391","4889","86782","Lexical Decision Task","39","30613","43","yes","1024"
"3.252447662","9.67","9","boat","word","90.9090909090909","90.9090909090909","713.1818181818181","713.1818181818181","black","no","legacy","legacy","legacy","0","uniform","1","undefined","undefined","undefined","1","j","0","0","0","0","43","0","0","0","43","NA","39","43","39","0","39","3","43","0","43","Fri Feb 19 12:48:35 2021","The main experiment item","yes","Lexical_Decision_Task.osexp","/Users/jennamanley","no","Andale Mono","no","18","no","white","no","yes","576","legacy","39","39","3","/Users/jennamanley/subject-5203795.csv","legacy","Lentiform Loewenfeld","3.3.7","yes","yes","600bd7cfb6416f0113b04181","602110864497cf011d9c0822","0","j","NA","j","j","j","NA","j","767","NA","3524","12002","2753","NA","767","2","legacy","1024","2","48000","-16","task","5203795","odd","NA","27042","32569","29044","105849","4930","19698","16944","106352","NA","105846","106352","105784","32569","107121","25374","105284","4889","86782","Lexical Decision Task","40","31380","44","yes","1024"
"3.131833513","7.66","4","limb","word","91.11111111111111","91.11111111111111","712.8222222222222","712.8222222222222","black","no","legacy","legacy","legacy","0","uniform","1","undefined","undefined","undefined","1","j","0","0","0","0","44","0","0","0","44","NA","40","44","40","0","40","3","44","0","44","Fri Feb 19 12:48:35 2021","The main experiment item","yes","Lexical_Decision_Task.osexp","/Users/jennamanley","no","Andale Mono","no","18","no","white","no","yes","576","legacy","40","40","3","/Users/jennamanley/subject-5203795.csv","legacy","Lentiform Loewenfeld","3.3.7","yes","yes","600bd7cfb6416f0113b04181","602110864497cf011d9c0822","0","j","NA","j","j","j","NA","j","697","NA","3524","12002","2753","NA","697","2","legacy","1024","2","48000","-16","task","5203795","odd","NA","27042","32569","29044","107689","4930","19698","16944","108192","NA","107687","108192","107625","32569","108891","25374","107124","4889","86782","Lexical Decision Task","41","32077","45","yes","1024"
"3.274543461","7.46","7","scar","word","91.30434782608695","91.30434782608695","711.1304347826087","711.1304347826087","black","no","legacy","legacy","legacy","0","uniform","1","undefined","undefined","undefined","1","j","0","0","0","0","45","0","0","0","45","NA","41","45","41","0","41","3","45","0","45","Fri Feb 19 12:48:35 2021","The main experiment item","yes","Lexical_Decision_Task.osexp","/Users/jennamanley","no","Andale Mono","no","18","no","white","no","yes","576","legacy","41","41","3","/Users/jennamanley/subject-5203795.csv","legacy","Lentiform Loewenfeld","3.3.7","yes","yes","600bd7cfb6416f0113b04181","602110864497cf011d9c0822","0","j","NA","j","j","j","NA","j","635","NA","3524","12002","2753","NA","635","2","legacy","1024","2","48000","-16","task","5203795","odd","NA","27042","32569","29044","109457","4930","19698","16944","109959","NA","109454","109959","109394","32569","110596","25374","108894","4889","86782","Lexical Decision Task","42","32712","46","yes","1024"
"3.153001286","8.7","5","palm","word","91.48936170212765","91.48936170212765","706.8297872340426","706.8297872340426","black","no","legacy","legacy","legacy","0","uniform","1","undefined","undefined","undefined","1","j","0","0","0","0","46","0","0","0","46","NA","42","46","42","0","42","3","46","0","46","Fri Feb 19 12:48:35 2021","The main experiment item","yes","Lexical_Decision_Task.osexp","/Users/jennamanley","no","Andale Mono","no","18","no","white","no","yes","576","legacy","42","42","3","/Users/jennamanley/subject-5203795.csv","legacy","Lentiform Loewenfeld","3.3.7","yes","yes","600bd7cfb6416f0113b04181","602110864497cf011d9c0822","0","j","NA","j","j","j","NA","j","509","NA","3524","12002","2753","NA","509","2","legacy","1024","2","48000","-16","task","5203795","odd","NA","27042","32569","29044","111163","4930","19698","16944","111666","NA","111159","111667","111099","32569","112178","25374","110599","4889","86782","Lexical Decision Task","43","33221","47","yes","1024"
"3.159867847","5.98","5","brim","word","91.66666666666667","91.66666666666667","706.3541666666666","706.3541666666666","black","no","legacy","legacy","legacy","0","uniform","1","undefined","undefined","undefined","1","j","0","0","0","0","47","0","0","0","47","NA","43","47","43","0","43","3","47","0","47","Fri Feb 19 12:48:35 2021","The main experiment item","yes","Lexical_Decision_Task.osexp","/Users/jennamanley","no","Andale Mono","no","18","no","white","no","yes","576","legacy","43","43","3","/Users/jennamanley/subject-5203795.csv","legacy","Lentiform Loewenfeld","3.3.7","yes","yes","600bd7cfb6416f0113b04181","602110864497cf011d9c0822","0","j","NA","j","j","j","NA","j","684","NA","3524","12002","2753","NA","684","2","legacy","1024","2","48000","-16","task","5203795","odd","NA","27042","32569","29044","112744","4930","19698","16944","113249","NA","112741","113249","112681","32569","113937","25374","112181","4889","86782","Lexical Decision Task","44","33905","48","yes","1024"
"2.696356389","0","1","pizz","non-word","91.83673469387755","91.83673469387755","705.1224489795918","705.1224489795918","black","no","legacy","legacy","legacy","0","uniform","1","undefined","undefined","undefined","1","f","0","0","0","0","48","0","0","0","48","NA","44","48","44","0","44","3","48","0","48","Fri Feb 19 12:48:35 2021","The main experiment item","yes","Lexical_Decision_Task.osexp","/Users/jennamanley","no","Andale Mono","no","18","no","white","no","yes","576","legacy","44","44","3","/Users/jennamanley/subject-5203795.csv","legacy","Lentiform Loewenfeld","3.3.7","yes","yes","600bd7cfb6416f0113b04181","602110864497cf011d9c0822","0","f","NA","j","j","j","NA","f","646","NA","3524","12002","2753","NA","646","2","legacy","1024","2","48000","-16","task","5203795","odd","NA","27042","32569","29044","114517","4930","19698","16944","115019","NA","114514","115019","114443","32569","115666","25374","113942","4889","86782","Lexical Decision Task","45","34551","49","yes","1024"
"3.269668578","0","7","trag","non-word","92","92","703.58","703.58","black","no","legacy","legacy","legacy","0","uniform","1","undefined","undefined","undefined","1","f","0","0","0","0","49","0","0","0","49","NA","45","49","45","0","45","3","49","0","49","Fri Feb 19 12:48:35 2021","The main experiment item","yes","Lexical_Decision_Task.osexp","/Users/jennamanley","no","Andale Mono","no","18","no","white","no","yes","576","legacy","45","45","3","/Users/jennamanley/subject-5203795.csv","legacy","Lentiform Loewenfeld","3.3.7","yes","yes","600bd7cfb6416f0113b04181","602110864497cf011d9c0822","0","f","NA","j","j","j","NA","f","628","NA","3524","12002","2753","NA","628","2","legacy","1024","2","48000","-16","task","5203795","odd","NA","27042","32569","29044","116236","4930","19698","16944","116738","NA","116233","116739","116170","32569","117368","25374","115670","4889","86782","Lexical Decision Task","46","35179","50","yes","1024"
"2.843025032","0","9","pusk","non-word","92.15686274509804","92.15686274509804","700.8823529411765","700.8823529411765","black","no","legacy","legacy","legacy","0","uniform","1","undefined","undefined","undefined","1","f","0","0","0","0","50","0","0","0","50","NA","46","50","46","0","46","3","50","0","50","Fri Feb 19 12:48:35 2021","The main experiment item","yes","Lexical_Decision_Task.osexp","/Users/jennamanley","no","Andale Mono","no","18","no","white","no","yes","576","legacy","46","46","3","/Users/jennamanley/subject-5203795.csv","legacy","Lentiform Loewenfeld","3.3.7","yes","yes","600bd7cfb6416f0113b04181","602110864497cf011d9c0822","0","f","NA","j","j","j","NA","f","566","NA","3524","12002","2753","NA","566","2","legacy","1024","2","48000","-16","task","5203795","odd","NA","27042","32569","29044","117935","4930","19698","16944","118437","NA","117932","118438","117872","32569","119005","25374","117372","4889","86782","Lexical Decision Task","47","35745","51","yes","1024"
"3.149629599","0","2","cleb","non-word","92.3076923076923","92.3076923076923","704.2307692307693","704.2307692307693","black","no","legacy","legacy","legacy","0","uniform","1","undefined","undefined","undefined","1","f","0","0","0","0","51","0","0","0","51","NA","47","51","47","0","47","3","51","0","51","Fri Feb 19 12:48:35 2021","The main experiment item","yes","Lexical_Decision_Task.osexp","/Users/jennamanley","no","Andale Mono","no","18","no","white","no","yes","576","legacy","47","47","3","/Users/jennamanley/subject-5203795.csv","legacy","Lentiform Loewenfeld","3.3.7","yes","yes","600bd7cfb6416f0113b04181","602110864497cf011d9c0822","0","f","NA","j","j","j","NA","f","875","NA","3524","12002","2753","NA","875","2","legacy","1024","2","48000","-16","task","5203795","odd","NA","27042","32569","29044","119572","4930","19698","16944","120074","NA","119569","120075","119508","32569","120951","25374","119008","4889","86782","Lexical Decision Task","48","36620","52","yes","1024"
"2.875447132","0","9","jelt","non-word","92.45283018867924","92.45283018867924","707.0377358490566","707.0377358490566","black","no","legacy","legacy","legacy","0","uniform","1","undefined","undefined","undefined","1","f","0","0","0","0","52","0","0","0","52","NA","48","52","48","0","48","3","52","0","52","Fri Feb 19 12:48:35 2021","The main experiment item","yes","Lexical_Decision_Task.osexp","/Users/jennamanley","no","Andale Mono","no","18","no","white","no","yes","576","legacy","48","48","3","/Users/jennamanley/subject-5203795.csv","legacy","Lentiform Loewenfeld","3.3.7","yes","yes","600bd7cfb6416f0113b04181","602110864497cf011d9c0822","0","f","NA","j","j","j","NA","f","853","NA","3524","12002","2753","NA","853","2","legacy","1024","2","48000","-16","task","5203795","odd","NA","27042","32569","29044","121519","4930","19698","16944","122022","NA","121516","122022","121455","32569","122877","25374","120955","4889","86782","Lexical Decision Task","49","37473","53","yes","1024"
"3.153104174","10.89","6","door","word","92.5925925925926","92.5925925925926","706.0555555555555","706.0555555555555","black","no","legacy","legacy","legacy","0","uniform","1","undefined","undefined","undefined","1","j","0","0","0","0","53","0","0","0","53","NA","49","53","49","0","49","3","53","0","53","Fri Feb 19 12:48:35 2021","The main experiment item","yes","Lexical_Decision_Task.osexp","/Users/jennamanley","no","Andale Mono","no","18","no","white","no","yes","576","legacy","49","49","3","/Users/jennamanley/subject-5203795.csv","legacy","Lentiform Loewenfeld","3.3.7","yes","yes","600bd7cfb6416f0113b04181","602110864497cf011d9c0822","0","j","NA","j","j","j","NA","j","654","NA","3524","12002","2753","NA","654","2","legacy","1024","2","48000","-16","task","5203795","odd","NA","27042","32569","29044","123443","4930","19698","16944","123946","NA","123440","123946","123380","32569","124602","25374","122880","4889","86782","Lexical Decision Task","50","38127","54","yes","1024"
"3.368162872","0","4","ferk","non-word","92.72727272727273","92.72727272727273","706.2","706.2","black","no","legacy","legacy","legacy","0","uniform","1","undefined","undefined","undefined","1","f","0","0","0","0","54","0","0","0","54","0","50","54","50","0","50","3","54","0","54","Fri Feb 19 12:48:35 2021","The main experiment item","yes","Lexical_Decision_Task.osexp","/Users/jennamanley","no","Andale Mono","no","18","no","white","no","yes","576","legacy","50","50","3","/Users/jennamanley/subject-5203795.csv","legacy","Lentiform Loewenfeld","3.3.7","yes","yes","600bd7cfb6416f0113b04181","602110864497cf011d9c0822","0","f","NA","j","j","j","j","f","714","NA","3524","12002","2753","5349","714","2","legacy","1024","2","48000","-16","task","5203795","odd","NA","27042","32569","29044","130540","4930","19698","16944","131044","125136","130538","131044","125106","32569","131759","25374","124606","4889","86782","Lexical Decision Task","51","38841","55","yes","1024"
"3.20871002","7.15","8","cram","word","91.07142857142857","91.07142857142857","707.6428571428571","707.6428571428571","black","no","legacy","legacy","legacy","0","uniform","0","undefined","undefined","undefined","0","j","0","0","0","0","55","0","0","0","55","0","51","55","51","0","51","3","55","0","55","Fri Feb 19 12:48:35 2021","The main experiment item","yes","Lexical_Decision_Task.osexp","/Users/jennamanley","no","Andale Mono","no","18","no","white","no","yes","576","legacy","51","51","3","/Users/jennamanley/subject-5203795.csv","legacy","Lentiform Loewenfeld","3.3.7","yes","yes","600bd7cfb6416f0113b04181","602110864497cf011d9c0822","0","f","NA","j","j","j","j","f","787","NA","3524","12002","2753","5349","787","2","legacy","1024","2","48000","-16","task","5203795","odd","NA","27042","32569","29044","132320","4930","19698","16944","132823","125136","132317","132823","132263","32569","133612","25374","131763","4889","86782","Lexical Decision Task","51","39628","56","yes","1024"
"3.208978517","10.33","4","fish","word","91.2280701754386","91.2280701754386","703.6842105263158","703.6842105263158","black","no","legacy","legacy","legacy","0","uniform","1","undefined","undefined","undefined","1","j","0","0","0","0","56","0","0","0","56","0","52","56","52","0","52","3","56","0","56","Fri Feb 19 12:48:35 2021","The main experiment item","yes","Lexical_Decision_Task.osexp","/Users/jennamanley","no","Andale Mono","no","18","no","white","no","yes","576","legacy","52","52","3","/Users/jennamanley/subject-5203795.csv","legacy","Lentiform Loewenfeld","3.3.7","yes","yes","600bd7cfb6416f0113b04181","602110864497cf011d9c0822","0","j","NA","j","j","j","j","j","482","NA","3524","12002","2753","5349","482","2","legacy","1024","2","48000","-16","task","5203795","odd","NA","27042","32569","29044","135178","4930","19698","16944","135681","125136","135175","135681","135115","32569","136164","25374","131763","4889","133615","Lexical Decision Task","52","40110","57","yes","1024"
"2.714888338","0","3","brug","non-word","89.65517241379311","89.65517241379311","701.7068965517242","701.7068965517242","black","no","legacy","legacy","legacy","0","uniform","0","undefined","undefined","undefined","0","f","0","0","0","0","57","0","0","0","57","0","53","57","53","0","53","3","57","0","57","Fri Feb 19 12:48:35 2021","The main experiment item","yes","Lexical_Decision_Task.osexp","/Users/jennamanley","no","Andale Mono","no","18","no","white","no","yes","576","legacy","53","53","3","/Users/jennamanley/subject-5203795.csv","legacy","Lentiform Loewenfeld","3.3.7","yes","yes","600bd7cfb6416f0113b04181","602110864497cf011d9c0822","0","j","NA","j","j","j","j","j","589","NA","3524","12002","2753","5349","589","2","legacy","1024","2","48000","-16","task","5203795","odd","NA","27042","32569","29044","136733","4930","19698","16944","137235","125136","136731","137235","136669","32569","137825","25374","136168","4889","133615","Lexical Decision Task","52","40699","58","yes","1024"
"3.366547468","0","6","plat","non-word","89.83050847457628","89.83050847457628","700.8305084745763","700.8305084745763","black","no","legacy","legacy","legacy","0","uniform","1","undefined","undefined","undefined","1","f","0","0","0","0","58","0","0","0","58","0","54","58","54","0","54","3","58","0","58","Fri Feb 19 12:48:35 2021","The main experiment item","yes","Lexical_Decision_Task.osexp","/Users/jennamanley","no","Andale Mono","no","18","no","white","no","yes","576","legacy","54","54","3","/Users/jennamanley/subject-5203795.csv","legacy","Lentiform Loewenfeld","3.3.7","yes","yes","600bd7cfb6416f0113b04181","602110864497cf011d9c0822","0","f","NA","j","j","j","j","f","650","NA","3524","12002","2753","5349","650","2","legacy","1024","2","48000","-16","task","5203795","odd","NA","27042","32569","29044","139393","4930","19698","16944","139895","125136","139390","139895","139329","32569","140546","25374","136168","4889","137829","Lexical Decision Task","53","41349","59","yes","1024"
"3.488597715","0","9","nain","non-word","90","90","702.7","702.7","black","no","legacy","legacy","legacy","0","uniform","1","undefined","undefined","undefined","1","f","0","0","0","0","59","0","0","0","59","0","55","59","55","0","55","3","59","0","59","Fri Feb 19 12:48:35 2021","The main experiment item","yes","Lexical_Decision_Task.osexp","/Users/jennamanley","no","Andale Mono","no","18","no","white","no","yes","576","legacy","55","55","3","/Users/jennamanley/subject-5203795.csv","legacy","Lentiform Loewenfeld","3.3.7","yes","yes","600bd7cfb6416f0113b04181","602110864497cf011d9c0822","0","f","NA","j","j","j","j","f","813","NA","3524","12002","2753","5349","813","2","legacy","1024","2","48000","-16","task","5203795","odd","NA","27042","32569","29044","141110","4930","19698","16944","141613","125136","141108","141613","141050","32569","142427","25374","140550","4889","137829","Lexical Decision Task","54","42162","60","yes","1024"
"3.397302518","7.01","2","knit","word","88.52459016393442","88.52459016393442","702.4918032786885","702.4918032786885","black","no","legacy","legacy","legacy","0","uniform","0","undefined","undefined","undefined","0","j","0","0","0","0","60","0","0","0","60","0","56","60","56","0","56","3","60","0","60","Fri Feb 19 12:48:35 2021","The main experiment item","yes","Lexical_Decision_Task.osexp","/Users/jennamanley","no","Andale Mono","no","18","no","white","no","yes","576","legacy","56","56","3","/Users/jennamanley/subject-5203795.csv","legacy","Lentiform Loewenfeld","3.3.7","yes","yes","600bd7cfb6416f0113b04181","602110864497cf011d9c0822","0","f","NA","j","j","j","j","f","690","NA","3524","12002","2753","5349","690","2","legacy","1024","2","48000","-16","task","5203795","odd","NA","27042","32569","29044","142991","4930","19698","16944","143493","125136","142988","143494","142931","32569","144186","25374","142431","4889","137829","Lexical Decision Task","54","42852","61","yes","1024"
"2.668385917","5.48","4","twig","word","88.70967741935483","88.70967741935483","701.7096774193549","701.7096774193549","black","no","legacy","legacy","legacy","0","uniform","1","undefined","undefined","undefined","1","j","0","0","0","0","61","0","0","0","61","0","57","61","57","0","57","3","61","0","61","Fri Feb 19 12:48:35 2021","The main experiment item","yes","Lexical_Decision_Task.osexp","/Users/jennamanley","no","Andale Mono","no","18","no","white","no","yes","576","legacy","57","57","3","/Users/jennamanley/subject-5203795.csv","legacy","Lentiform Loewenfeld","3.3.7","yes","yes","600bd7cfb6416f0113b04181","602110864497cf011d9c0822","0","j","NA","j","j","j","j","j","654","NA","3524","12002","2753","5349","654","2","legacy","1024","2","48000","-16","task","5203795","odd","NA","27042","32569","29044","145754","4930","19698","16944","146256","125136","145751","146256","145690","32569","146912","25374","142431","4889","144190","Lexical Decision Task","55","43506","62","yes","1024"
"3.039414119","0","9","meep","non-word","88.88888888888889","88.88888888888889","705.4761904761905","705.4761904761905","black","no","legacy","legacy","legacy","0","uniform","1","undefined","undefined","undefined","1","f","0","0","0","0","62","0","0","0","62","0","58","62","58","0","58","3","62","0","62","Fri Feb 19 12:48:35 2021","The main experiment item","yes","Lexical_Decision_Task.osexp","/Users/jennamanley","no","Andale Mono","no","18","no","white","no","yes","576","legacy","58","58","3","/Users/jennamanley/subject-5203795.csv","legacy","Lentiform Loewenfeld","3.3.7","yes","yes","600bd7cfb6416f0113b04181","602110864497cf011d9c0822","0","f","NA","j","j","j","j","f","939","NA","3524","12002","2753","5349","939","2","legacy","1024","2","48000","-16","task","5203795","odd","NA","27042","32569","29044","147474","4930","19698","16944","147976","125136","147472","147976","147415","32569","148917","25374","146915","4889","144190","Lexical Decision Task","56","44445","63","yes","1024"
"2.809559715","8.44","4","volt","word","89.0625","89.0625","709.53125","709.53125","black","no","legacy","legacy","legacy","0","uniform","1","undefined","undefined","undefined","1","j","0","0","0","0","63","0","0","0","63","0","59","63","59","0","59","3","63","0","63","Fri Feb 19 12:48:35 2021","The main experiment item","yes","Lexical_Decision_Task.osexp","/Users/jennamanley","no","Andale Mono","no","18","no","white","no","yes","576","legacy","59","59","3","/Users/jennamanley/subject-5203795.csv","legacy","Lentiform Loewenfeld","3.3.7","yes","yes","600bd7cfb6416f0113b04181","602110864497cf011d9c0822","0","j","NA","j","j","j","j","j","965","NA","3524","12002","2753","5349","965","2","legacy","1024","2","48000","-16","task","5203795","odd","NA","27042","32569","29044","149480","4930","19698","16944","149984","125136","149478","149984","149422","32569","150950","25374","148921","4889","144190","Lexical Decision Task","57","45410","64","yes","1024"
"3.2757719","0","5","slea","non-word","89.23076923076923","89.23076923076923","708.4307692307692","708.4307692307692","black","no","legacy","legacy","legacy","0","uniform","1","undefined","undefined","undefined","1","f","0","0","0","0","64","0","0","0","64","0","60","64","60","0","60","3","64","0","64","Fri Feb 19 12:48:35 2021","The main experiment item","yes","Lexical_Decision_Task.osexp","/Users/jennamanley","no","Andale Mono","no","18","no","white","no","yes","576","legacy","60","60","3","/Users/jennamanley/subject-5203795.csv","legacy","Lentiform Loewenfeld","3.3.7","yes","yes","600bd7cfb6416f0113b04181","602110864497cf011d9c0822","0","f","NA","j","j","j","j","f","638","NA","3524","12002","2753","5349","638","2","legacy","1024","2","48000","-16","task","5203795","odd","NA","27042","32569","29044","151512","4930","19698","16944","152014","125136","151509","152015","151453","32569","152655","25374","150953","4889","144190","Lexical Decision Task","58","46048","65","yes","1024"
"2.980911938","7.15","7","hoop","word","89.39393939393939","89.39393939393939","707.6363636363636","707.6363636363636","black","no","legacy","legacy","legacy","0","uniform","1","undefined","undefined","undefined","1","j","0","0","0","0","65","0","0","0","65","0","61","65","61","0","61","3","65","0","65","Fri Feb 19 12:48:35 2021","The main experiment item","yes","Lexical_Decision_Task.osexp","/Users/jennamanley","no","Andale Mono","no","18","no","white","no","yes","576","legacy","61","61","3","/Users/jennamanley/subject-5203795.csv","legacy","Lentiform Loewenfeld","3.3.7","yes","yes","600bd7cfb6416f0113b04181","602110864497cf011d9c0822","0","j","NA","j","j","j","j","j","656","NA","3524","12002","2753","5349","656","2","legacy","1024","2","48000","-16","task","5203795","odd","NA","27042","32569","29044","153216","4930","19698","16944","153718","125136","153213","153719","153158","32569","154376","25374","152658","4889","144190","Lexical Decision Task","59","46704","66","yes","1024"
"2.709837904","6.85","8","skim","word","88.05970149253731","88.05970149253731","714.8507462686567","714.8507462686567","black","no","legacy","legacy","legacy","0","uniform","0","undefined","undefined","undefined","0","j","0","0","0","0","66","0","0","0","66","0","62","66","62","0","62","3","66","0","66","Fri Feb 19 12:48:35 2021","The main experiment item","yes","Lexical_Decision_Task.osexp","/Users/jennamanley","no","Andale Mono","no","18","no","white","no","yes","576","legacy","62","62","3","/Users/jennamanley/subject-5203795.csv","legacy","Lentiform Loewenfeld","3.3.7","yes","yes","600bd7cfb6416f0113b04181","602110864497cf011d9c0822","0","f","NA","j","j","j","j","f","1191","NA","3524","12002","2753","5349","1191","2","legacy","1024","2","48000","-16","task","5203795","odd","NA","27042","32569","29044","154941","4930","19698","16944","155444","125136","154938","155444","154880","32569","156637","25374","154380","4889","144190","Lexical Decision Task","59","47895","67","yes","1024"
"2.803231716","5.26","3","kiln","word","86.76470588235294","86.76470588235294","715.5147058823529","715.5147058823529","black","no","legacy","legacy","legacy","0","uniform","0","undefined","undefined","undefined","0","j","0","0","0","0","67","0","0","0","67","0","63","67","63","0","63","3","67","0","67","Fri Feb 19 12:48:35 2021","The main experiment item","yes","Lexical_Decision_Task.osexp","/Users/jennamanley","no","Andale Mono","no","18","no","white","no","yes","576","legacy","63","63","3","/Users/jennamanley/subject-5203795.csv","legacy","Lentiform Loewenfeld","3.3.7","yes","yes","600bd7cfb6416f0113b04181","602110864497cf011d9c0822","0","f","NA","j","j","j","j","f","760","NA","3524","12002","2753","5349","760","2","legacy","1024","2","48000","-16","task","5203795","odd","NA","27042","32569","29044","158207","4930","19698","16944","158710","125136","158204","158710","158140","32569","159471","25374","154380","4889","156640","Lexical Decision Task","59","48655","68","yes","1024"
"2.755364069","7.72","2","hoax","word","86.95652173913044","86.95652173913044","716.4927536231884","716.4927536231884","black","no","legacy","legacy","legacy","0","uniform","1","undefined","undefined","undefined","1","j","0","0","0","0","68","0","0","0","68","0","64","68","64","0","64","3","68","0","68","Fri Feb 19 12:48:35 2021","The main experiment item","yes","Lexical_Decision_Task.osexp","/Users/jennamanley","no","Andale Mono","no","18","no","white","no","yes","576","legacy","64","64","3","/Users/jennamanley/subject-5203795.csv","legacy","Lentiform Loewenfeld","3.3.7","yes","yes","600bd7cfb6416f0113b04181","602110864497cf011d9c0822","0","j","NA","j","j","j","j","j","783","NA","3524","12002","2753","5349","783","2","legacy","1024","2","48000","-16","task","5203795","odd","NA","27042","32569","29044","161040","4930","19698","16944","161543","125136","161037","161543","160974","32569","162328","25374","154380","4889","159474","Lexical Decision Task","60","49438","69","yes","1024"
"3.100255637","0","6","brax","non-word","85.71428571428571","85.71428571428571","729.4714285714285","729.4714285714285","black","no","legacy","legacy","legacy","0","uniform","0","undefined","undefined","undefined","0","f","0","0","0","0","69","0","0","0","69","0","65","69","65","0","65","3","69","0","69","Fri Feb 19 12:48:35 2021","The main experiment item","yes","Lexical_Decision_Task.osexp","/Users/jennamanley","no","Andale Mono","no","18","no","white","no","yes","576","legacy","65","65","3","/Users/jennamanley/subject-5203795.csv","legacy","Lentiform Loewenfeld","3.3.7","yes","yes","600bd7cfb6416f0113b04181","602110864497cf011d9c0822","0","j","NA","j","j","j","j","j","1625","NA","3524","12002","2753","5349","1625","2","legacy","1024","2","48000","-16","task","5203795","odd","NA","27042","32569","29044","162895","4930","19698","16944","163397","125136","162893","163398","162831","32569","165024","25374","162331","4889","159474","Lexical Decision Task","60","51063","70","yes","1024"
"2.696644658","5.78","2","yolk","word","84.50704225352112","84.50704225352112","732.7887323943662","732.7887323943662","black","no","legacy","legacy","legacy","0","uniform","0","undefined","undefined","undefined","0","j","0","0","0","0","70","0","0","0","70","0","66","70","66","0","66","3","70","0","70","Fri Feb 19 12:48:35 2021","The main experiment item","yes","Lexical_Decision_Task.osexp","/Users/jennamanley","no","Andale Mono","no","18","no","white","no","yes","576","legacy","66","66","3","/Users/jennamanley/subject-5203795.csv","legacy","Lentiform Loewenfeld","3.3.7","yes","yes","600bd7cfb6416f0113b04181","602110864497cf011d9c0822","0","f","NA","j","j","j","j","f","965","NA","3524","12002","2753","5349","965","2","legacy","1024","2","48000","-16","task","5203795","odd","NA","27042","32569","29044","166589","4930","19698","16944","167092","125136","166587","167092","166528","32569","168058","25374","162331","4889","165027","Lexical Decision Task","60","52028","71","yes","1024"
"3.230789326","5.38","5","prim","word","83.33333333333333","83.33333333333333","735.875","735.875","black","no","legacy","legacy","legacy","0","uniform","0","undefined","undefined","undefined","0","j","0","0","0","0","71","0","0","0","71","0","67","71","67","0","67","3","71","0","71","Fri Feb 19 12:48:35 2021","The main experiment item","yes","Lexical_Decision_Task.osexp","/Users/jennamanley","no","Andale Mono","no","18","no","white","no","yes","576","legacy","67","67","3","/Users/jennamanley/subject-5203795.csv","legacy","Lentiform Loewenfeld","3.3.7","yes","yes","600bd7cfb6416f0113b04181","602110864497cf011d9c0822","0","f","NA","j","j","j","j","f","955","NA","3524","12002","2753","5349","955","2","legacy","1024","2","48000","-16","task","5203795","odd","NA","27042","32569","29044","169625","4930","19698","16944","170128","125136","169622","170129","169562","32569","171086","25374","162331","4889","168062","Lexical Decision Task","60","52983","72","yes","1024"
"2.893578687","8.69","3","surf","word","83.56164383561644","83.56164383561644","731.2191780821918","731.2191780821918","black","no","legacy","legacy","legacy","0","uniform","1","undefined","undefined","undefined","1","j","0","0","0","0","72","0","0","0","72","0","68","72","68","0","68","3","72","0","72","Fri Feb 19 12:48:35 2021","The main experiment item","yes","Lexical_Decision_Task.osexp","/Users/jennamanley","no","Andale Mono","no","18","no","white","no","yes","576","legacy","68","68","3","/Users/jennamanley/subject-5203795.csv","legacy","Lentiform Loewenfeld","3.3.7","yes","yes","600bd7cfb6416f0113b04181","602110864497cf011d9c0822","0","j","NA","j","j","j","j","j","396","NA","3524","12002","2753","5349","396","2","legacy","1024","2","48000","-16","task","5203795","odd","NA","27042","32569","29044","172652","4930","19698","16944","173154","125136","172650","173154","172590","32569","173551","25374","162331","4889","171089","Lexical Decision Task","61","53379","73","yes","1024"
"3.443783828","7.65","3","verb","word","83.78378378378379","83.78378378378379","728.8648648648649","728.8648648648649","black","no","legacy","legacy","legacy","0","uniform","1","undefined","undefined","undefined","1","j","0","0","0","0","73","0","0","0","73","0","69","73","69","0","69","3","73","0","73","Fri Feb 19 12:48:35 2021","The main experiment item","yes","Lexical_Decision_Task.osexp","/Users/jennamanley","no","Andale Mono","no","18","no","white","no","yes","576","legacy","69","69","3","/Users/jennamanley/subject-5203795.csv","legacy","Lentiform Loewenfeld","3.3.7","yes","yes","600bd7cfb6416f0113b04181","602110864497cf011d9c0822","0","j","NA","j","j","j","j","j","557","NA","3524","12002","2753","5349","557","2","legacy","1024","2","48000","-16","task","5203795","odd","NA","27042","32569","29044","174115","4930","19698","16944","174618","125136","174113","174618","174054","32569","175176","25374","173554","4889","171089","Lexical Decision Task","62","53936","74","yes","1024"
"3.168400243","9.12","6","horn","word","84","84","726.1466666666666","726.1466666666666","black","no","legacy","legacy","legacy","0","uniform","1","undefined","undefined","undefined","1","j","0","0","0","0","74","0","0","0","74","0","70","74","70","0","70","3","74","0","74","Fri Feb 19 12:48:35 2021","The main experiment item","yes","Lexical_Decision_Task.osexp","/Users/jennamanley","no","Andale Mono","no","18","no","white","no","yes","576","legacy","70","70","3","/Users/jennamanley/subject-5203795.csv","legacy","Lentiform Loewenfeld","3.3.7","yes","yes","600bd7cfb6416f0113b04181","602110864497cf011d9c0822","0","j","NA","j","j","j","j","j","525","NA","3524","12002","2753","5349","525","2","legacy","1024","2","48000","-16","task","5203795","odd","NA","27042","32569","29044","175742","4930","19698","16944","176245","125136","175739","176245","175680","32569","176772","25374","175179","4889","171089","Lexical Decision Task","63","54461","75","yes","1024"
"3.121778632","0","9","sark","non-word","84.21052631578948","84.21052631578948","725.2105263157895","725.2105263157895","black","no","legacy","legacy","legacy","0","uniform","1","undefined","undefined","undefined","1","f","0","0","0","0","75","0","0","0","75","0","71","75","71","0","71","3","75","0","75","Fri Feb 19 12:48:35 2021","The main experiment item","yes","Lexical_Decision_Task.osexp","/Users/jennamanley","no","Andale Mono","no","18","no","white","no","yes","576","legacy","71","71","3","/Users/jennamanley/subject-5203795.csv","legacy","Lentiform Loewenfeld","3.3.7","yes","yes","600bd7cfb6416f0113b04181","602110864497cf011d9c0822","0","f","NA","j","j","j","j","f","655","NA","3524","12002","2753","5349","655","2","legacy","1024","2","48000","-16","task","5203795","odd","NA","27042","32569","29044","177338","4930","19698","16944","177840","125136","177336","177841","177275","32569","178497","25374","176775","4889","171089","Lexical Decision Task","64","55116","76","yes","1024"
"3.382617311","0","4","pret","non-word","84.41558441558442","84.41558441558442","726.6623376623377","726.6623376623377","black","no","legacy","legacy","legacy","0","uniform","1","undefined","undefined","undefined","1","f","0","0","0","0","76","0","0","0","76","0","72","76","72","0","72","3","76","0","76","Fri Feb 19 12:48:35 2021","The main experiment item","yes","Lexical_Decision_Task.osexp","/Users/jennamanley","no","Andale Mono","no","18","no","white","no","yes","576","legacy","72","72","3","/Users/jennamanley/subject-5203795.csv","legacy","Lentiform Loewenfeld","3.3.7","yes","yes","600bd7cfb6416f0113b04181","602110864497cf011d9c0822","0","f","NA","j","j","j","j","f","837","NA","3524","12002","2753","5349","837","2","legacy","1024","2","48000","-16","task","5203795","odd","NA","27042","32569","29044","179062","4930","19698","16944","179565","125136","179059","179565","179000","32569","180404","25374","178500","4889","171089","Lexical Decision Task","65","55953","77","yes","1024"
"3.197740804","6.74","3","ache","word","83.33333333333333","83.33333333333333","724.9871794871794","724.9871794871794","black","no","legacy","legacy","legacy","0","uniform","0","undefined","undefined","undefined","0","j","0","0","0","0","77","0","0","0","77","0","73","77","73","0","73","3","77","0","77","Fri Feb 19 12:48:35 2021","The main experiment item","yes","Lexical_Decision_Task.osexp","/Users/jennamanley","no","Andale Mono","no","18","no","white","no","yes","576","legacy","73","73","3","/Users/jennamanley/subject-5203795.csv","legacy","Lentiform Loewenfeld","3.3.7","yes","yes","600bd7cfb6416f0113b04181","602110864497cf011d9c0822","0","f","NA","j","j","j","j","f","596","NA","3524","12002","2753","5349","596","2","legacy","1024","2","48000","-16","task","5203795","odd","NA","27042","32569","29044","180967","4930","19698","16944","181470","125136","180965","181470","180906","32569","182067","25374","180406","4889","171089","Lexical Decision Task","65","56549","78","yes","1024"
"3.261341392","5.08","8","reek","word","83.54430379746836","83.54430379746836","725.6835443037975","725.6835443037975","black","no","legacy","legacy","legacy","0","uniform","1","undefined","undefined","undefined","1","j","0","0","0","0","78","0","0","0","78","0","74","78","74","0","74","3","78","0","78","Fri Feb 19 12:48:35 2021","The main experiment item","yes","Lexical_Decision_Task.osexp","/Users/jennamanley","no","Andale Mono","no","18","no","white","no","yes","576","legacy","74","74","3","/Users/jennamanley/subject-5203795.csv","legacy","Lentiform Loewenfeld","3.3.7","yes","yes","600bd7cfb6416f0113b04181","602110864497cf011d9c0822","0","j","NA","j","j","j","j","j","780","NA","3524","12002","2753","5349","780","2","legacy","1024","2","48000","-16","task","5203795","odd","NA","27042","32569","29044","183635","4930","19698","16944","184137","125136","183632","184137","183571","32569","184918","25374","180406","4889","182071","Lexical Decision Task","66","57329","79","yes","1024"
"2.819763221","0","2","durp","non-word","82.5","82.5","728.9125","728.9125","black","no","legacy","legacy","legacy","0","uniform","0","undefined","undefined","undefined","0","f","0","0","0","0","79","0","0","0","79","0","75","79","75","0","75","3","79","0","79","Fri Feb 19 12:48:35 2021","The main experiment item","yes","Lexical_Decision_Task.osexp","/Users/jennamanley","no","Andale Mono","no","18","no","white","no","yes","576","legacy","75","75","3","/Users/jennamanley/subject-5203795.csv","legacy","Lentiform Loewenfeld","3.3.7","yes","yes","600bd7cfb6416f0113b04181","602110864497cf011d9c0822","0","j","NA","j","j","j","j","j","984","NA","3524","12002","2753","5349","984","2","legacy","1024","2","48000","-16","task","5203795","odd","NA","27042","32569","29044","185482","4930","19698","16944","185985","125136","185479","185985","185422","32569","186971","25374","184922","4889","182071","Lexical Decision Task","66","58313","80","yes","1024"
"3.481012421","8.34","5","teen","word","81.48148148148148","81.48148148148148","729.7407407407408","729.7407407407408","black","no","legacy","legacy","legacy","0","uniform","0","undefined","undefined","undefined","0","j","0","0","0","0","80","0","0","0","80","0","76","80","76","0","76","3","80","0","80","Fri Feb 19 12:48:35 2021","The main experiment item","yes","Lexical_Decision_Task.osexp","/Users/jennamanley","no","Andale Mono","no","18","no","white","no","yes","576","legacy","76","76","3","/Users/jennamanley/subject-5203795.csv","legacy","Lentiform Loewenfeld","3.3.7","yes","yes","600bd7cfb6416f0113b04181","602110864497cf011d9c0822","0","f","NA","j","j","j","j","f","796","NA","3524","12002","2753","5349","796","2","legacy","1024","2","48000","-16","task","5203795","odd","NA","27042","32569","29044","188540","4930","19698","16944","189043","125136","188537","189043","188474","32569","189841","25374","184922","4889","186974","Lexical Decision Task","66","59109","81","yes","1024"
"2.966923697","5.4","2","fume","word","81.70731707317073","81.70731707317073","728.0487804878048","728.0487804878048","black","no","legacy","legacy","legacy","0","uniform","1","undefined","undefined","undefined","1","j","0","0","0","0","81","0","0","0","81","0","77","81","77","0","77","3","81","0","81","Fri Feb 19 12:48:35 2021","The main experiment item","yes","Lexical_Decision_Task.osexp","/Users/jennamanley","no","Andale Mono","no","18","no","white","no","yes","576","legacy","77","77","3","/Users/jennamanley/subject-5203795.csv","legacy","Lentiform Loewenfeld","3.3.7","yes","yes","600bd7cfb6416f0113b04181","602110864497cf011d9c0822","0","j","NA","j","j","j","j","j","591","NA","3524","12002","2753","5349","591","2","legacy","1024","2","48000","-16","task","5203795","odd","NA","27042","32569","29044","191410","4930","19698","16944","191912","125136","191407","191912","191344","32569","192504","25374","184922","4889","189844","Lexical Decision Task","67","59700","82","yes","1024"
"2.972819734","0","4","scew","non-word","80.72289156626506","80.72289156626506","726.5903614457832","726.5903614457832","black","no","legacy","legacy","legacy","0","uniform","0","undefined","undefined","undefined","0","f","0","0","0","0","82","0","0","0","82","0","78","82","78","0","78","3","82","0","82","Fri Feb 19 12:48:35 2021","The main experiment item","yes","Lexical_Decision_Task.osexp","/Users/jennamanley","no","Andale Mono","no","18","no","white","no","yes","576","legacy","78","78","3","/Users/jennamanley/subject-5203795.csv","legacy","Lentiform Loewenfeld","3.3.7","yes","yes","600bd7cfb6416f0113b04181","602110864497cf011d9c0822","0","j","NA","j","j","j","j","j","607","NA","3524","12002","2753","5349","607","2","legacy","1024","2","48000","-16","task","5203795","odd","NA","27042","32569","29044","193073","4930","19698","16944","193575","125136","193070","193576","193008","32569","194185","25374","192508","4889","189844","Lexical Decision Task","67","60307","83","yes","1024"
"3.081107167","0","6","chot","non-word","80.95238095238095","80.95238095238095","724.7380952380952","724.7380952380952","black","no","legacy","legacy","legacy","0","uniform","1","undefined","undefined","undefined","1","f","0","0","0","0","83","0","0","0","83","0","79","83","79","0","79","3","83","0","83","Fri Feb 19 12:48:35 2021","The main experiment item","yes","Lexical_Decision_Task.osexp","/Users/jennamanley","no","Andale Mono","no","18","no","white","no","yes","576","legacy","79","79","3","/Users/jennamanley/subject-5203795.csv","legacy","Lentiform Loewenfeld","3.3.7","yes","yes","600bd7cfb6416f0113b04181","602110864497cf011d9c0822","0","f","NA","j","j","j","j","f","571","NA","3524","12002","2753","5349","571","2","legacy","1024","2","48000","-16","task","5203795","odd","NA","27042","32569","29044","195756","4930","19698","16944","196258","125136","195753","196259","195688","32569","196832","25374","192508","4889","194188","Lexical Decision Task","68","60878","84","yes","1024"
"3.276537627","9.15","5","trap","word","81.17647058823529","81.17647058823529","725.5411764705882","725.5411764705882","black","no","legacy","legacy","legacy","0","uniform","1","undefined","undefined","undefined","1","j","0","0","0","0","84","0","0","0","84","0","80","84","80","0","80","3","84","0","84","Fri Feb 19 12:48:35 2021","The main experiment item","yes","Lexical_Decision_Task.osexp","/Users/jennamanley","no","Andale Mono","no","18","no","white","no","yes","576","legacy","80","80","3","/Users/jennamanley/subject-5203795.csv","legacy","Lentiform Loewenfeld","3.3.7","yes","yes","600bd7cfb6416f0113b04181","602110864497cf011d9c0822","0","j","NA","j","j","j","j","j","793","NA","3524","12002","2753","5349","793","2","legacy","1024","2","48000","-16","task","5203795","odd","NA","27042","32569","29044","197399","4930","19698","16944","197901","125136","197396","197901","197336","32569","198696","25374","196836","4889","194188","Lexical Decision Task","69","61671","85","yes","1024"
"2.953276337","6.32","4","thaw","word","81.3953488372093","81.3953488372093","724.6279069767442","724.6279069767442","black","no","legacy","legacy","legacy","0","uniform","1","undefined","undefined","undefined","1","j","0","0","0","0","85","0","0","0","85","0","81","85","81","0","81","3","85","0","85","Fri Feb 19 12:48:35 2021","The main experiment item","yes","Lexical_Decision_Task.osexp","/Users/jennamanley","no","Andale Mono","no","18","no","white","no","yes","576","legacy","81","81","3","/Users/jennamanley/subject-5203795.csv","legacy","Lentiform Loewenfeld","3.3.7","yes","yes","600bd7cfb6416f0113b04181","602110864497cf011d9c0822","0","j","NA","j","j","j","j","j","647","NA","3524","12002","2753","5349","647","2","legacy","1024","2","48000","-16","task","5203795","odd","NA","27042","32569","29044","199262","4930","19698","16944","199766","125136","199259","199766","199199","32569","200415","25374","198699","4889","194188","Lexical Decision Task","70","62318","86","yes","1024"
"3.14849993","10.75","7","hour","word","81.60919540229885","81.60919540229885","724.4827586206897","724.4827586206897","black","no","legacy","legacy","legacy","0","uniform","1","undefined","undefined","undefined","1","j","0","0","0","0","86","0","0","0","86","0","82","86","82","0","82","3","86","0","86","Fri Feb 19 12:48:35 2021","The main experiment item","yes","Lexical_Decision_Task.osexp","/Users/jennamanley","no","Andale Mono","no","18","no","white","no","yes","576","legacy","82","82","3","/Users/jennamanley/subject-5203795.csv","legacy","Lentiform Loewenfeld","3.3.7","yes","yes","600bd7cfb6416f0113b04181","602110864497cf011d9c0822","0","j","NA","j","j","j","j","j","712","NA","3524","12002","2753","5349","712","2","legacy","1024","2","48000","-16","task","5203795","odd","NA","27042","32569","29044","200981","4930","19698","16944","201483","125136","200978","201483","200918","32569","202197","25374","200418","4889","194188","Lexical Decision Task","71","63030","87","yes","1024"
"3.090140555","5.81","8","pout","word","81.81818181818181","81.81818181818181","723.3295454545455","723.3295454545455","black","no","legacy","legacy","legacy","0","uniform","1","undefined","undefined","undefined","1","j","0","0","0","0","87","0","0","0","87","0","83","87","83","0","83","3","87","0","87","Fri Feb 19 12:48:35 2021","The main experiment item","yes","Lexical_Decision_Task.osexp","/Users/jennamanley","no","Andale Mono","no","18","no","white","no","yes","576","legacy","83","83","3","/Users/jennamanley/subject-5203795.csv","legacy","Lentiform Loewenfeld","3.3.7","yes","yes","600bd7cfb6416f0113b04181","602110864497cf011d9c0822","0","j","NA","j","j","j","j","j","623","NA","3524","12002","2753","5349","623","2","legacy","1024","2","48000","-16","task","5203795","odd","NA","27042","32569","29044","202758","4930","19698","16944","203261","125136","202756","203261","202700","32569","203886","25374","202200","4889","194188","Lexical Decision Task","72","63653","88","yes","1024"
"2.873320602","0","4","lurg","non-word","80.89887640449439","80.89887640449439","723.9101123595506","723.9101123595506","black","no","legacy","legacy","legacy","0","uniform","0","undefined","undefined","undefined","0","f","0","0","0","0","88","0","0","0","88","0","84","88","84","0","84","3","88","0","88","Fri Feb 19 12:48:35 2021","The main experiment item","yes","Lexical_Decision_Task.osexp","/Users/jennamanley","no","Andale Mono","no","18","no","white","no","yes","576","legacy","84","84","3","/Users/jennamanley/subject-5203795.csv","legacy","Lentiform Loewenfeld","3.3.7","yes","yes","600bd7cfb6416f0113b04181","602110864497cf011d9c0822","0","j","NA","j","j","j","j","j","775","NA","3524","12002","2753","5349","775","2","legacy","1024","2","48000","-16","task","5203795","odd","NA","27042","32569","29044","204454","4930","19698","16944","204956","125136","204451","204956","204389","32569","205732","25374","203889","4889","194188","Lexical Decision Task","72","64428","89","yes","1024"
"2.68604012","0","4","pumb","non-word","80","80","722.0666666666667","722.0666666666667","black","no","legacy","legacy","legacy","0","uniform","0","undefined","undefined","undefined","0","f","0","0","0","0","89","0","0","0","89","0","85","89","85","0","85","3","89","0","89","Fri Feb 19 12:48:35 2021","The main experiment item","yes","Lexical_Decision_Task.osexp","/Users/jennamanley","no","Andale Mono","no","18","no","white","no","yes","576","legacy","85","85","3","/Users/jennamanley/subject-5203795.csv","legacy","Lentiform Loewenfeld","3.3.7","yes","yes","600bd7cfb6416f0113b04181","602110864497cf011d9c0822","0","j","NA","j","j","j","j","j","558","NA","3524","12002","2753","5349","558","2","legacy","1024","2","48000","-16","task","5203795","odd","NA","27042","32569","29044","207301","4930","19698","16944","207805","125136","207298","207806","207235","32569","208366","25374","203889","4889","205735","Lexical Decision Task","72","64986","90","yes","1024"
"2.8162413","0","5","nusk","non-word","80.21978021978022","80.21978021978022","720.0989010989011","720.0989010989011","black","no","legacy","legacy","legacy","0","uniform","1","undefined","undefined","undefined","1","f","0","0","0","0","90","0","0","0","90","0","86","90","86","0","86","3","90","0","90","Fri Feb 19 12:48:35 2021","The main experiment item","yes","Lexical_Decision_Task.osexp","/Users/jennamanley","no","Andale Mono","no","18","no","white","no","yes","576","legacy","86","86","3","/Users/jennamanley/subject-5203795.csv","legacy","Lentiform Loewenfeld","3.3.7","yes","yes","600bd7cfb6416f0113b04181","602110864497cf011d9c0822","0","f","NA","j","j","j","j","f","543","NA","3524","12002","2753","5349","543","2","legacy","1024","2","48000","-16","task","5203795","odd","NA","27042","32569","29044","209937","4930","19698","16944","210439","125136","209934","210440","209870","32569","210984","25374","203889","4889","208369","Lexical Decision Task","73","65529","91","yes","1024"
"2.86332286","6.71","2","feud","word","80.43478260869566","80.43478260869566","719.5434782608696","719.5434782608696","black","no","legacy","legacy","legacy","0","uniform","1","undefined","undefined","undefined","1","j","0","0","0","0","91","0","0","0","91","0","87","91","87","0","87","3","91","0","91","Fri Feb 19 12:48:35 2021","The main experiment item","yes","Lexical_Decision_Task.osexp","/Users/jennamanley","no","Andale Mono","no","18","no","white","no","yes","576","legacy","87","87","3","/Users/jennamanley/subject-5203795.csv","legacy","Lentiform Loewenfeld","3.3.7","yes","yes","600bd7cfb6416f0113b04181","602110864497cf011d9c0822","0","j","NA","j","j","j","j","j","669","NA","3524","12002","2753","5349","669","2","legacy","1024","2","48000","-16","task","5203795","odd","NA","27042","32569","29044","211552","4930","19698","16944","212054","125136","211549","212054","211488","32569","212724","25374","210988","4889","208369","Lexical Decision Task","74","66198","92","yes","1024"
"3.15462682","0","6","noal","non-word","79.56989247311827","79.56989247311827","719.3548387096774","719.3548387096774","black","no","legacy","legacy","legacy","0","uniform","0","undefined","undefined","undefined","0","f","0","0","0","0","92","0","0","0","92","0","88","92","88","0","88","3","92","0","92","Fri Feb 19 12:48:35 2021","The main experiment item","yes","Lexical_Decision_Task.osexp","/Users/jennamanley","no","Andale Mono","no","18","no","white","no","yes","576","legacy","88","88","3","/Users/jennamanley/subject-5203795.csv","legacy","Lentiform Loewenfeld","3.3.7","yes","yes","600bd7cfb6416f0113b04181","602110864497cf011d9c0822","0","j","NA","j","j","j","j","j","702","NA","3524","12002","2753","5349","702","2","legacy","1024","2","48000","-16","task","5203795","odd","NA","27042","32569","29044","213290","4930","19698","16944","213792","125136","213287","213792","213228","32569","214495","25374","212728","4889","208369","Lexical Decision Task","74","66900","93","yes","1024"
"2.799799878","0","4","ciff","non-word","78.72340425531915","78.72340425531915","719.7553191489362","719.7553191489362","black","no","legacy","legacy","legacy","0","uniform","0","undefined","undefined","undefined","0","f","0","0","0","0","93","0","0","0","93","0","89","93","89","0","89","3","93","0","93","Fri Feb 19 12:48:35 2021","The main experiment item","yes","Lexical_Decision_Task.osexp","/Users/jennamanley","no","Andale Mono","no","18","no","white","no","yes","576","legacy","89","89","3","/Users/jennamanley/subject-5203795.csv","legacy","Lentiform Loewenfeld","3.3.7","yes","yes","600bd7cfb6416f0113b04181","602110864497cf011d9c0822","0","j","NA","j","j","j","j","j","757","NA","3524","12002","2753","5349","757","2","legacy","1024","2","48000","-16","task","5203795","odd","NA","27042","32569","29044","216066","4930","19698","16944","216569","125136","216063","216569","215999","32569","217327","25374","212728","4889","214499","Lexical Decision Task","74","67657","94","yes","1024"
"3.195807436","0","6","stup","non-word","78.94736842105263","78.94736842105263","720.2315789473685","720.2315789473685","black","no","legacy","legacy","legacy","0","uniform","1","undefined","undefined","undefined","1","f","0","0","0","0","94","0","0","0","94","0","90","94","90","0","90","3","94","0","94","Fri Feb 19 12:48:35 2021","The main experiment item","yes","Lexical_Decision_Task.osexp","/Users/jennamanley","no","Andale Mono","no","18","no","white","no","yes","576","legacy","90","90","3","/Users/jennamanley/subject-5203795.csv","legacy","Lentiform Loewenfeld","3.3.7","yes","yes","600bd7cfb6416f0113b04181","602110864497cf011d9c0822","0","f","NA","j","j","j","j","f","765","NA","3524","12002","2753","5349","765","2","legacy","1024","2","48000","-16","task","5203795","odd","NA","27042","32569","29044","218895","4930","19698","16944","219397","125136","218893","219398","218831","32569","220165","25374","212728","4889","217331","Lexical Decision Task","75","68422","95","yes","1024"
"2.812467698","0","7","hafe","non-word","79.16666666666667","79.16666666666667","716.0104166666666","716.0104166666666","black","no","legacy","legacy","legacy","0","uniform","1","undefined","undefined","undefined","1","f","0","0","0","0","95","0","0","0","95","0","91","95","91","0","91","3","95","0","95","Fri Feb 19 12:48:35 2021","The main experiment item","yes","Lexical_Decision_Task.osexp","/Users/jennamanley","no","Andale Mono","no","18","no","white","no","yes","576","legacy","91","91","3","/Users/jennamanley/subject-5203795.csv","legacy","Lentiform Loewenfeld","3.3.7","yes","yes","600bd7cfb6416f0113b04181","602110864497cf011d9c0822","0","f","NA","j","j","j","j","f","315","NA","3524","12002","2753","5349","315","2","legacy","1024","2","48000","-16","task","5203795","odd","NA","27042","32569","29044","220731","4930","19698","16944","221234","125136","220729","221234","220668","32569","221550","25374","220168","4889","217331","Lexical Decision Task","76","68737","96","yes","1024"
"2.907588697","8.91","9","mood","word","79.38144329896907","79.38144329896907","715.2268041237113","715.2268041237113","black","no","legacy","legacy","legacy","0","uniform","1","undefined","undefined","undefined","1","j","0","0","0","0","96","0","0","0","96","0","92","96","92","0","92","3","96","0","96","Fri Feb 19 12:48:35 2021","The main experiment item","yes","Lexical_Decision_Task.osexp","/Users/jennamanley","no","Andale Mono","no","18","no","white","no","yes","576","legacy","92","92","3","/Users/jennamanley/subject-5203795.csv","legacy","Lentiform Loewenfeld","3.3.7","yes","yes","600bd7cfb6416f0113b04181","602110864497cf011d9c0822","0","j","NA","j","j","j","j","j","640","NA","3524","12002","2753","5349","640","2","legacy","1024","2","48000","-16","task","5203795","odd","NA","27042","32569","29044","222115","4930","19698","16944","222617","125136","222112","222618","222053","32569","223260","25374","221553","4889","217331","Lexical Decision Task","77","69377","97","yes","1024"
"3.16326079","0","5","parg","non-word","78.57142857142857","78.57142857142857","713.3163265306123","713.3163265306123","black","no","legacy","legacy","legacy","0","uniform","0","undefined","undefined","undefined","0","f","0","0","0","0","97","0","0","0","97","0","93","97","93","0","93","3","97","0","97","Fri Feb 19 12:48:35 2021","The main experiment item","yes","Lexical_Decision_Task.osexp","/Users/jennamanley","no","Andale Mono","no","18","no","white","no","yes","576","legacy","93","93","3","/Users/jennamanley/subject-5203795.csv","legacy","Lentiform Loewenfeld","3.3.7","yes","yes","600bd7cfb6416f0113b04181","602110864497cf011d9c0822","0","j","NA","j","j","j","j","j","528","NA","3524","12002","2753","5349","528","2","legacy","1024","2","48000","-16","task","5203795","odd","NA","27042","32569","29044","223828","4930","19698","16944","224331","125136","223826","224332","223764","32569","224861","25374","223264","4889","217331","Lexical Decision Task","77","69905","98","yes","1024"
"2.937852093","0","7","bamp","non-word","77.77777777777777","77.77777777777777","713.6161616161617","713.6161616161617","black","no","legacy","legacy","legacy","0","uniform","0","undefined","undefined","undefined","0","f","0","0","0","0","98","0","0","0","98","0","94","98","94","0","94","3","98","0","98","Fri Feb 19 12:48:35 2021","The main experiment item","yes","Lexical_Decision_Task.osexp","/Users/jennamanley","no","Andale Mono","no","18","no","white","no","yes","576","legacy","94","94","3","/Users/jennamanley/subject-5203795.csv","legacy","Lentiform Loewenfeld","3.3.7","yes","yes","600bd7cfb6416f0113b04181","602110864497cf011d9c0822","0","j","NA","j","j","j","j","j","743","NA","3524","12002","2753","5349","743","2","legacy","1024","2","48000","-16","task","5203795","odd","NA","27042","32569","29044","226430","4930","19698","16944","226932","125136","226427","226932","226365","32569","227677","25374","223264","4889","224865","Lexical Decision Task","77","70648","99","yes","1024"
"3.374198258","0","8","vist","non-word","77","77","712.78","712.78","black","no","legacy","legacy","legacy","0","uniform","0","undefined","undefined","undefined","0","f","0","0","0","0","99","0","0","0","99","0","95","99","95","0","95","3","99","0","99","Fri Feb 19 12:48:35 2021","The main experiment item","yes","Lexical_Decision_Task.osexp","/Users/jennamanley","no","Andale Mono","no","18","no","white","no","yes","576","legacy","95","95","3","/Users/jennamanley/subject-5203795.csv","legacy","Lentiform Loewenfeld","3.3.7","yes","yes","600bd7cfb6416f0113b04181","602110864497cf011d9c0822","0","j","NA","j","j","j","j","j","630","NA","3524","12002","2753","5349","630","2","legacy","1024","2","48000","-16","task","5203795","odd","NA","27042","32569","29044","229246","4930","19698","16944","229749","125136","229243","229749","229181","32569","230381","25374","223264","4889","227681","Lexical Decision Task","77","71278","100","yes","1024"
"2.981215883","10.66","5","hair","word","77.22772277227723","77.22772277227723","713.8316831683169","713.8316831683169","black","no","legacy","legacy","legacy","0","uniform","1","undefined","undefined","undefined","1","j","0","0","0","0","100","0","0","0","100","0","96","100","96","0","96","3","100","0","100","Fri Feb 19 12:48:35 2021","The main experiment item","yes","Lexical_Decision_Task.osexp","/Users/jennamanley","no","Andale Mono","no","18","no","white","no","yes","576","legacy","96","96","3","/Users/jennamanley/subject-5203795.csv","legacy","Lentiform Loewenfeld","3.3.7","yes","yes","600bd7cfb6416f0113b04181","602110864497cf011d9c0822","0","j","NA","j","j","j","j","j","819","NA","3524","12002","2753","5349","819","2","legacy","1024","2","48000","-16","task","5203795","odd","NA","27042","32569","29044","231950","4930","19698","16944","232452","125136","231948","232453","231884","32569","233274","25374","223264","4889","230384","Lexical Decision Task","78","72097","101","yes","1024"
"3.208172527","10.27","7","deck","word","77.45098039215686","77.45098039215686","713.4607843137255","713.4607843137255","black","no","legacy","legacy","legacy","0","uniform","1","undefined","undefined","undefined","1","j","0","0","0","0","101","0","0","0","101","0","97","101","97","0","97","3","101","0","101","Fri Feb 19 12:48:35 2021","The main experiment item","yes","Lexical_Decision_Task.osexp","/Users/jennamanley","no","Andale Mono","no","18","no","white","no","yes","576","legacy","97","97","3","/Users/jennamanley/subject-5203795.csv","legacy","Lentiform Loewenfeld","3.3.7","yes","yes","600bd7cfb6416f0113b04181","602110864497cf011d9c0822","0","j","NA","j","j","j","j","j","676","NA","3524","12002","2753","5349","676","2","legacy","1024","2","48000","-16","task","5203795","odd","NA","27042","32569","29044","233840","4930","19698","16944","234343","125136","233838","234344","233778","32569","235022","25374","233278","4889","230384","Lexical Decision Task","79","72773","102","yes","1024"
"3.282244367","0","6","fute","non-word","76.69902912621359","76.69902912621359","715.0485436893204","715.0485436893204","black","no","legacy","legacy","legacy","0","uniform","0","undefined","undefined","undefined","0","f","0","0","0","0","102","0","0","0","102","0","98","102","98","0","98","3","102","0","102","Fri Feb 19 12:48:35 2021","The main experiment item","yes","Lexical_Decision_Task.osexp","/Users/jennamanley","no","Andale Mono","no","18","no","white","no","yes","576","legacy","98","98","3","/Users/jennamanley/subject-5203795.csv","legacy","Lentiform Loewenfeld","3.3.7","yes","yes","600bd7cfb6416f0113b04181","602110864497cf011d9c0822","0","j","NA","j","j","j","j","j","877","NA","3524","12002","2753","5349","877","2","legacy","1024","2","48000","-16","task","5203795","odd","NA","27042","32569","29044","235589","4930","19698","16944","236091","125136","235586","236091","235525","32569","236969","25374","235025","4889","230384","Lexical Decision Task","79","73650","103","yes","1024"
