"Log_BG","Log_Freq_HAL","Ortho_N","Stimulus","Type","acc","accuracy","average_response_time","avg_rt","background","bidi","canvas_backend","clock_backend","color_backend","compensation","coordinates","correct","correct_Experimental_intro","correct_Introduction","correct_Practice_intro","correct_experimenter_kb","correct_response","count_End_Of_Experiment","count_End_Of_Practice","count_Experimental_Loop","count_Experimental_intro","count_Fixation","count_Introduction","count_Practice_Loop","count_Practice_intro","count_Stimulus","count_block_break_feedback","count_experimental_sequence","count_experimenter_kb","count_increment_trial_count","count_init_trial_count","count_logger","count_practice_sequence","count_right","count_task","count_wrong","datetime","description","disable_garbage_collection","experiment_file","experiment_path","font_bold","font_family","font_italic","font_size","font_underline","foreground","form_clicks","fullscreen","height","keyboard_backend","live_row","live_row_Experimental_Loop","live_row_Practice_Loop","logfile","mouse_backend","opensesame_codename","opensesame_version","osf_always_upload_data","osf_always_upload_experiment","osf_datanode_id","osf_id","repeat_cycle","response","response_End_Of_Experiment","response_Experimental_intro","response_Introduction","response_Practice_intro","response_block_break_feedback","response_experimenter_kb","response_time","response_time_End_Of_Experiment","response_time_Experimental_intro","response_time_Introduction","response_time_Practice_intro","response_time_block_break_feedback","response_time_experimenter_kb","round_decimals","sampler_backend","sound_buf_size","sound_channels","sound_freq","sound_sample_size","start","subject_nr","subject_parity","time_End_Of_Experiment","time_End_Of_Practice","time_Experimental_Loop","time_Experimental_intro","time_Fixation","time_Introduction","time_Practice_Loop","time_Practice_intro","time_Stimulus","time_block_break_feedback","time_experimental_sequence","time_experimenter_kb","time_increment_trial_count","time_init_trial_count","time_logger","time_practice_sequence","time_right","time_task","time_wrong","title","total_correct","total_response_time","total_responses","uniform_coordinates","width"
"3.068433376","8.09","2","bulb","word","100","100","1050.6","1050.6","black","no","legacy","legacy","legacy","0","uniform","1","undefined","undefined","undefined","1","j","0","0","0","0","4","0","0","0","4","NA","0","4","0","0","0","3","4","0","4","Wed Feb 17 11:34:48 2021","The main experiment item","yes","Lexical_Decision_Task.osexp","C:/Users/jessw","no","Andale Mono","no","18","no","white","no","yes","576","legacy","0","0","3","C:/Users/jessw/subject-5206553.csv","legacy","Lentiform Loewenfeld","3.3.7","yes","yes","600bd7cfb6416f0113b04181","602110864497cf011d9c0822","0","J","NA","space","","H","NA","J","573","NA","3977","17849","11020","NA","573","2","legacy","1024","2","48000","-16","task","5206553","odd","NA","54807","60788","56810","60882","10219","45142","34121","61385","NA","60879","61386","NA","60788","61960","53133","54243","10204","NA","Lexical Decision Task","5","5253","5","yes","1024"
"2.807758206","6.25","4","hurl","word","100","100","994.1666666666666","994.1666666666666","black","no","legacy","legacy","legacy","0","uniform","1","undefined","undefined","undefined","1","j","0","0","0","0","5","0","0","0","5","NA","1","5","1","0","1","3","5","0","5","Wed Feb 17 11:34:48 2021","The main experiment item","yes","Lexical_Decision_Task.osexp","C:/Users/jessw","no","Andale Mono","no","18","no","white","no","yes","576","legacy","1","1","3","C:/Users/jessw/subject-5206553.csv","legacy","Lentiform Loewenfeld","3.3.7","yes","yes","600bd7cfb6416f0113b04181","602110864497cf011d9c0822","0","J","NA","space","","H","NA","J","712","NA","3977","17849","11020","NA","712","2","legacy","1024","2","48000","-16","task","5206553","odd","NA","54807","60788","56810","62744","10219","45142","34121","63247","NA","62742","63248","62477","60788","63961","53133","61976","10204","NA","Lexical Decision Task","6","5965","6","yes","1024"
"2.594027722","9.08","8","skip","word","100","100","926.7142857142857","926.7142857142857","black","no","legacy","legacy","legacy","0","uniform","1","undefined","undefined","undefined","1","j","0","0","0","0","6","0","0","0","6","NA","2","6","2","0","2","3","6","0","6","Wed Feb 17 11:34:48 2021","The main experiment item","yes","Lexical_Decision_Task.osexp","C:/Users/jessw","no","Andale Mono","no","18","no","white","no","yes","576","legacy","2","2","3","C:/Users/jessw/subject-5206553.csv","legacy","Lentiform Loewenfeld","3.3.7","yes","yes","600bd7cfb6416f0113b04181","602110864497cf011d9c0822","0","J","NA","space","","H","NA","J","522","NA","3977","17849","11020","NA","522","2","legacy","1024","2","48000","-16","task","5206553","odd","NA","54807","60788","56810","64695","10219","45142","34121","65198","NA","64691","65199","64541","60788","65721","53133","64041","10204","NA","Lexical Decision Task","7","6487","7","yes","1024"
"3.043885998","0","9","gome","non-word","100","100","941.625","941.625","black","no","legacy","legacy","legacy","0","uniform","1","undefined","undefined","undefined","1","f","0","0","0","0","7","0","0","0","7","NA","3","7","3","0","3","3","7","0","7","Wed Feb 17 11:34:48 2021","The main experiment item","yes","Lexical_Decision_Task.osexp","C:/Users/jessw","no","Andale Mono","no","18","no","white","no","yes","576","legacy","3","3","3","C:/Users/jessw/subject-5206553.csv","legacy","Lentiform Loewenfeld","3.3.7","yes","yes","600bd7cfb6416f0113b04181","602110864497cf011d9c0822","0","F","NA","space","","H","NA","F","1046","NA","3977","17849","11020","NA","1046","2","legacy","1024","2","48000","-16","task","5206553","odd","NA","54807","60788","56810","66486","10219","45142","34121","66990","NA","66481","66990","66297","60788","68038","53133","65796","10204","NA","Lexical Decision Task","8","7533","8","yes","1024"
"3.037294994","8.64","7","roof","word","100","100","913","913","black","no","legacy","legacy","legacy","0","uniform","1","undefined","undefined","undefined","1","j","0","0","0","0","8","0","0","0","8","NA","4","8","4","0","4","3","8","0","8","Wed Feb 17 11:34:48 2021","The main experiment item","yes","Lexical_Decision_Task.osexp","C:/Users/jessw","no","Andale Mono","no","18","no","white","no","yes","576","legacy","4","4","3","C:/Users/jessw/subject-5206553.csv","legacy","Lentiform Loewenfeld","3.3.7","yes","yes","600bd7cfb6416f0113b04181","602110864497cf011d9c0822","0","J","NA","space","","H","NA","J","684","NA","3977","17849","11020","NA","684","2","legacy","1024","2","48000","-16","task","5206553","odd","NA","54807","60788","56810","68718","10219","45142","34121","69222","NA","68714","69222","68547","60788","69907","53133","68047","10204","NA","Lexical Decision Task","9","8217","9","yes","1024"
"2.842815106","7.86","8","lump","word","100","100","875.6","875.6","black","no","legacy","legacy","legacy","0","uniform","1","undefined","undefined","undefined","1","j","0","0","0","0","9","0","0","0","9","NA","5","9","5","0","5","3","9","0","9","Wed Feb 17 11:34:48 2021","The main experiment item","yes","Lexical_Decision_Task.osexp","C:/Users/jessw","no","Andale Mono","no","18","no","white","no","yes","576","legacy","5","5","3","C:/Users/jessw/subject-5206553.csv","legacy","Lentiform Loewenfeld","3.3.7","yes","yes","600bd7cfb6416f0113b04181","602110864497cf011d9c0822","0","J","NA","space","","H","NA","J","539","NA","3977","17849","11020","NA","539","2","legacy","1024","2","48000","-16","task","5206553","odd","NA","54807","60788","56810","70616","10219","45142","34121","71120","NA","70610","71120","70414","60788","71660","53133","69914","10204","NA","Lexical Decision Task","10","8756","10","yes","1024"
"3.363486562","6.93","9","lush","word","100","100","842.2727272727273","842.2727272727273","black","no","legacy","legacy","legacy","0","uniform","1","undefined","undefined","undefined","1","j","0","0","0","0","10","0","0","0","10","NA","6","10","6","0","6","3","10","0","10","Wed Feb 17 11:34:48 2021","The main experiment item","yes","Lexical_Decision_Task.osexp","C:/Users/jessw","no","Andale Mono","no","18","no","white","no","yes","576","legacy","6","6","3","C:/Users/jessw/subject-5206553.csv","legacy","Lentiform Loewenfeld","3.3.7","yes","yes","600bd7cfb6416f0113b04181","602110864497cf011d9c0822","0","J","NA","space","","H","NA","J","509","NA","3977","17849","11020","NA","509","2","legacy","1024","2","48000","-16","task","5206553","odd","NA","54807","60788","56810","72370","10219","45142","34121","72873","NA","72365","72874","72174","60788","73384","53133","71674","10204","NA","Lexical Decision Task","11","9265","11","yes","1024"
"2.839898939","8.99","6","soap","word","100","100","816.5833333333334","816.5833333333334","black","no","legacy","legacy","legacy","0","uniform","1","undefined","undefined","undefined","1","j","0","0","0","0","11","0","0","0","11","NA","7","11","7","0","7","3","11","0","11","Wed Feb 17 11:34:48 2021","The main experiment item","yes","Lexical_Decision_Task.osexp","C:/Users/jessw","no","Andale Mono","no","18","no","white","no","yes","576","legacy","7","7","3","C:/Users/jessw/subject-5206553.csv","legacy","Lentiform Loewenfeld","3.3.7","yes","yes","600bd7cfb6416f0113b04181","602110864497cf011d9c0822","0","J","NA","space","","H","NA","J","534","NA","3977","17849","11020","NA","534","2","legacy","1024","2","48000","-16","task","5206553","odd","NA","54807","60788","56810","74026","10219","45142","34121","74529","NA","74024","74530","73891","60788","75065","53133","73391","10204","NA","Lexical Decision Task","12","9799","12","yes","1024"
"3.248054965","7.86","5","glow","word","100","100","792.1538461538462","792.1538461538462","black","no","legacy","legacy","legacy","0","uniform","1","undefined","undefined","undefined","1","j","0","0","0","0","12","0","0","0","12","NA","8","12","8","0","8","3","12","0","12","Wed Feb 17 11:34:48 2021","The main experiment item","yes","Lexical_Decision_Task.osexp","C:/Users/jessw","no","Andale Mono","no","18","no","white","no","yes","576","legacy","8","8","3","C:/Users/jessw/subject-5206553.csv","legacy","Lentiform Loewenfeld","3.3.7","yes","yes","600bd7cfb6416f0113b04181","602110864497cf011d9c0822","0","J","NA","space","","H","NA","J","499","NA","3977","17849","11020","NA","499","2","legacy","1024","2","48000","-16","task","5206553","odd","NA","54807","60788","56810","75735","10219","45142","34121","76239","NA","75732","76239","75573","60788","76738","53133","75073","10204","NA","Lexical Decision Task","13","10298","13","yes","1024"
"3.374198258","0","8","vist","non-word","92.85714285714286","92.85714285714286","770.2857142857143","770.2857142857143","black","no","legacy","legacy","legacy","0","uniform","0","undefined","undefined","undefined","0","f","0","0","0","0","13","0","0","0","13","NA","9","13","9","0","9","3","13","0","13","Wed Feb 17 11:34:48 2021","The main experiment item","yes","Lexical_Decision_Task.osexp","C:/Users/jessw","no","Andale Mono","no","18","no","white","no","yes","576","legacy","9","9","3","C:/Users/jessw/subject-5206553.csv","legacy","Lentiform Loewenfeld","3.3.7","yes","yes","600bd7cfb6416f0113b04181","602110864497cf011d9c0822","0","J","NA","space","","H","NA","J","486","NA","3977","17849","11020","NA","486","2","legacy","1024","2","48000","-16","task","5206553","odd","NA","54807","60788","56810","77506","10219","45142","34121","78010","NA","77502","78011","77312","60788","78498","53133","76812","10204","NA","Lexical Decision Task","13","10784","14","yes","1024"
"3.263399331","0","8","cour","non-word","93.33333333333333","93.33333333333333","792.8666666666667","792.8666666666667","black","no","legacy","legacy","legacy","0","uniform","1","undefined","undefined","undefined","1","f","0","0","0","0","14","0","0","0","14","NA","10","14","10","0","10","3","14","0","14","Wed Feb 17 11:34:48 2021","The main experiment item","yes","Lexical_Decision_Task.osexp","C:/Users/jessw","no","Andale Mono","no","18","no","white","no","yes","576","legacy","10","10","3","C:/Users/jessw/subject-5206553.csv","legacy","Lentiform Loewenfeld","3.3.7","yes","yes","600bd7cfb6416f0113b04181","602110864497cf011d9c0822","0","F","NA","space","","H","NA","F","1109","NA","3977","17849","11020","NA","1109","2","legacy","1024","2","48000","-16","task","5206553","odd","NA","54807","60788","56810","80251","10219","45142","34121","80755","NA","80249","80755","80087","60788","81865","53133","76812","10204","78587","Lexical Decision Task","14","11893","15","yes","1024"
"2.771097306","0","9","jold","non-word","93.75","93.75","793.375","793.375","black","no","legacy","legacy","legacy","0","uniform","1","undefined","undefined","undefined","1","f","0","0","0","0","15","0","0","0","15","NA","11","15","11","0","11","3","15","0","15","Wed Feb 17 11:34:48 2021","The main experiment item","yes","Lexical_Decision_Task.osexp","C:/Users/jessw","no","Andale Mono","no","18","no","white","no","yes","576","legacy","11","11","3","C:/Users/jessw/subject-5206553.csv","legacy","Lentiform Loewenfeld","3.3.7","yes","yes","600bd7cfb6416f0113b04181","602110864497cf011d9c0822","0","F","NA","space","","H","NA","F","801","NA","3977","17849","11020","NA","801","2","legacy","1024","2","48000","-16","task","5206553","odd","NA","54807","60788","56810","82621","10219","45142","34121","83125","NA","82617","83125","82437","60788","83928","53133","81937","10204","78587","Lexical Decision Task","15","12694","16","yes","1024"
"2.9737419","7.69","7","claw","word","94.11764705882354","94.11764705882354","782.1176470588235","782.1176470588235","black","no","legacy","legacy","legacy","0","uniform","1","undefined","undefined","undefined","1","j","0","0","0","0","16","0","0","0","16","NA","12","16","12","0","12","3","16","0","16","Wed Feb 17 11:34:48 2021","The main experiment item","yes","Lexical_Decision_Task.osexp","C:/Users/jessw","no","Andale Mono","no","18","no","white","no","yes","576","legacy","12","12","3","C:/Users/jessw/subject-5206553.csv","legacy","Lentiform Loewenfeld","3.3.7","yes","yes","600bd7cfb6416f0113b04181","602110864497cf011d9c0822","0","J","NA","space","","H","NA","J","602","NA","3977","17849","11020","NA","602","2","legacy","1024","2","48000","-16","task","5206553","odd","NA","54807","60788","56810","84636","10219","45142","34121","85139","NA","84632","85140","84473","60788","85743","53133","83973","10204","78587","Lexical Decision Task","16","13296","17","yes","1024"
"3.347850856","10.51","2","rich","word","94.44444444444444","94.44444444444444","770","770","black","no","legacy","legacy","legacy","0","uniform","1","undefined","undefined","undefined","1","j","0","0","0","0","17","0","0","0","17","NA","13","17","13","0","13","3","17","0","17","Wed Feb 17 11:34:48 2021","The main experiment item","yes","Lexical_Decision_Task.osexp","C:/Users/jessw","no","Andale Mono","no","18","no","white","no","yes","576","legacy","13","13","3","C:/Users/jessw/subject-5206553.csv","legacy","Lentiform Loewenfeld","3.3.7","yes","yes","600bd7cfb6416f0113b04181","602110864497cf011d9c0822","0","J","NA","space","","H","NA","J","564","NA","3977","17849","11020","NA","564","2","legacy","1024","2","48000","-16","task","5206553","odd","NA","54807","60788","56810","86384","10219","45142","34121","86888","NA","86381","86888","86251","60788","87453","53133","85751","10204","78587","Lexical Decision Task","17","13860","18","yes","1024"
"3.064581521","5.51","6","cask","word","89.47368421052632","89.47368421052632","789.0526315789474","789.0526315789474","black","no","legacy","legacy","legacy","0","uniform","0","undefined","undefined","undefined","0","j","0","0","0","0","18","0","0","0","18","NA","14","18","14","0","14","3","18","0","18","Wed Feb 17 11:34:48 2021","The main experiment item","yes","Lexical_Decision_Task.osexp","C:/Users/jessw","no","Andale Mono","no","18","no","white","no","yes","576","legacy","14","14","3","C:/Users/jessw/subject-5206553.csv","legacy","Lentiform Loewenfeld","3.3.7","yes","yes","600bd7cfb6416f0113b04181","602110864497cf011d9c0822","0","F","NA","space","","H","NA","F","1132","NA","3977","17849","11020","NA","1132","2","legacy","1024","2","48000","-16","task","5206553","odd","NA","54807","60788","56810","88161","10219","45142","34121","88665","NA","88155","88665","87961","60788","89798","53133","87461","10204","78587","Lexical Decision Task","17","14992","19","yes","1024"
"2.7084209","0","8","vump","non-word","90","90","800.2","800.2","black","no","legacy","legacy","legacy","0","uniform","1","undefined","undefined","undefined","1","f","0","0","0","0","19","0","0","0","19","NA","15","19","15","0","15","3","19","0","19","Wed Feb 17 11:34:48 2021","The main experiment item","yes","Lexical_Decision_Task.osexp","C:/Users/jessw","no","Andale Mono","no","18","no","white","no","yes","576","legacy","15","15","3","C:/Users/jessw/subject-5206553.csv","legacy","Lentiform Loewenfeld","3.3.7","yes","yes","600bd7cfb6416f0113b04181","602110864497cf011d9c0822","0","F","NA","space","","H","NA","F","1012","NA","3977","17849","11020","NA","1012","2","legacy","1024","2","48000","-16","task","5206553","odd","NA","54807","60788","56810","91568","10219","45142","34121","92071","NA","91563","92072","91372","60788","93085","53133","87461","10204","89871","Lexical Decision Task","18","16004","20","yes","1024"
"2.714888338","0","3","brug","non-word","90.47619047619048","90.47619047619048","802.952380952381","802.952380952381","black","no","legacy","legacy","legacy","0","uniform","1","undefined","undefined","undefined","1","f","0","0","0","0","20","0","0","0","20","NA","16","20","16","0","16","3","20","0","20","Wed Feb 17 11:34:48 2021","The main experiment item","yes","Lexical_Decision_Task.osexp","C:/Users/jessw","no","Andale Mono","no","18","no","white","no","yes","576","legacy","16","16","3","C:/Users/jessw/subject-5206553.csv","legacy","Lentiform Loewenfeld","3.3.7","yes","yes","600bd7cfb6416f0113b04181","602110864497cf011d9c0822","0","F","NA","space","","H","NA","F","858","NA","3977","17849","11020","NA","858","2","legacy","1024","2","48000","-16","task","5206553","odd","NA","54807","60788","56810","93771","10219","45142","34121","94275","NA","93767","94276","93591","60788","95134","53133","93091","10204","89871","Lexical Decision Task","19","16862","21","yes","1024"
"2.972819734","0","4","scew","non-word","90.9090909090909","90.9090909090909","804.1818181818181","804.1818181818181","black","no","legacy","legacy","legacy","0","uniform","1","undefined","undefined","undefined","1","f","0","0","0","0","21","0","0","0","21","NA","17","21","17","0","17","3","21","0","21","Wed Feb 17 11:34:48 2021","The main experiment item","yes","Lexical_Decision_Task.osexp","C:/Users/jessw","no","Andale Mono","no","18","no","white","no","yes","576","legacy","17","17","3","C:/Users/jessw/subject-5206553.csv","legacy","Lentiform Loewenfeld","3.3.7","yes","yes","600bd7cfb6416f0113b04181","602110864497cf011d9c0822","0","F","NA","space","","H","NA","F","830","NA","3977","17849","11020","NA","830","2","legacy","1024","2","48000","-16","task","5206553","odd","NA","54807","60788","56810","95772","10219","45142","34121","96276","NA","95770","96276","95641","60788","97106","53133","95141","10204","89871","Lexical Decision Task","20","17692","22","yes","1024"
"2.907588697","8.91","9","mood","word","91.30434782608695","91.30434782608695","797.2608695652174","797.2608695652174","black","no","legacy","legacy","legacy","0","uniform","1","undefined","undefined","undefined","1","j","0","0","0","0","22","0","0","0","22","NA","18","22","18","0","18","3","22","0","22","Wed Feb 17 11:34:48 2021","The main experiment item","yes","Lexical_Decision_Task.osexp","C:/Users/jessw","no","Andale Mono","no","18","no","white","no","yes","576","legacy","18","18","3","C:/Users/jessw/subject-5206553.csv","legacy","Lentiform Loewenfeld","3.3.7","yes","yes","600bd7cfb6416f0113b04181","602110864497cf011d9c0822","0","J","NA","space","","H","NA","J","645","NA","3977","17849","11020","NA","645","2","legacy","1024","2","48000","-16","task","5206553","odd","NA","54807","60788","56810","97758","10219","45142","34121","98262","NA","97756","98262","97616","60788","98908","53133","97116","10204","89871","Lexical Decision Task","21","18337","23","yes","1024"
"2.8162413","0","5","nusk","non-word","91.66666666666667","91.66666666666667","840.5","840.5","black","no","legacy","legacy","legacy","0","uniform","1","undefined","undefined","undefined","1","f","0","0","0","0","23","0","0","0","23","NA","19","23","19","0","19","3","23","0","23","Wed Feb 17 11:34:48 2021","The main experiment item","yes","Lexical_Decision_Task.osexp","C:/Users/jessw","no","Andale Mono","no","18","no","white","no","yes","576","legacy","19","19","3","C:/Users/jessw/subject-5206553.csv","legacy","Lentiform Loewenfeld","3.3.7","yes","yes","600bd7cfb6416f0113b04181","602110864497cf011d9c0822","0","F","NA","space","","H","NA","F","1835","NA","3977","17849","11020","NA","1835","2","legacy","1024","2","48000","-16","task","5206553","odd","NA","54807","60788","56810","99619","10219","45142","34121","100123","NA","99617","100123","99482","60788","101960","53133","98981","10204","89871","Lexical Decision Task","22","20172","24","yes","1024"
"2.996511672","0","7","hoil","non-word","92","92","849.92","849.92","black","no","legacy","legacy","legacy","0","uniform","1","undefined","undefined","undefined","1","f","0","0","0","0","24","0","0","0","24","NA","20","24","20","0","20","3","24","0","24","Wed Feb 17 11:34:48 2021","The main experiment item","yes","Lexical_Decision_Task.osexp","C:/Users/jessw","no","Andale Mono","no","18","no","white","no","yes","576","legacy","20","20","3","C:/Users/jessw/subject-5206553.csv","legacy","Lentiform Loewenfeld","3.3.7","yes","yes","600bd7cfb6416f0113b04181","602110864497cf011d9c0822","0","F","NA","space","","H","NA","F","1076","NA","3977","17849","11020","NA","1076","2","legacy","1024","2","48000","-16","task","5206553","odd","NA","54807","60788","56810","102708","10219","45142","34121","103212","NA","102704","103212","102533","60788","104289","53133","102033","10204","89871","Lexical Decision Task","23","21248","25","yes","1024"
"3.100255637","0","6","brax","non-word","92.3076923076923","92.3076923076923","844.4615384615385","844.4615384615385","black","no","legacy","legacy","legacy","0","uniform","1","undefined","undefined","undefined","1","f","0","0","0","0","25","0","0","0","25","NA","21","25","21","0","21","3","25","0","25","Wed Feb 17 11:34:48 2021","The main experiment item","yes","Lexical_Decision_Task.osexp","C:/Users/jessw","no","Andale Mono","no","18","no","white","no","yes","576","legacy","21","21","3","C:/Users/jessw/subject-5206553.csv","legacy","Lentiform Loewenfeld","3.3.7","yes","yes","600bd7cfb6416f0113b04181","602110864497cf011d9c0822","0","F","NA","space","","H","NA","F","708","NA","3977","17849","11020","NA","708","2","legacy","1024","2","48000","-16","task","5206553","odd","NA","54807","60788","56810","105021","10219","45142","34121","105525","NA","105018","105525","104862","60788","106234","53133","104361","10204","89871","Lexical Decision Task","24","21956","26","yes","1024"
"2.897810299","0","5","glur","non-word","92.5925925925926","92.5925925925926","837.5185185185185","837.5185185185185","black","no","legacy","legacy","legacy","0","uniform","1","undefined","undefined","undefined","1","f","0","0","0","0","26","0","0","0","26","NA","22","26","22","0","22","3","26","0","26","Wed Feb 17 11:34:48 2021","The main experiment item","yes","Lexical_Decision_Task.osexp","C:/Users/jessw","no","Andale Mono","no","18","no","white","no","yes","576","legacy","22","22","3","C:/Users/jessw/subject-5206553.csv","legacy","Lentiform Loewenfeld","3.3.7","yes","yes","600bd7cfb6416f0113b04181","602110864497cf011d9c0822","0","F","NA","space","","H","NA","F","657","NA","3977","17849","11020","NA","657","2","legacy","1024","2","48000","-16","task","5206553","odd","NA","54807","60788","56810","106984","10219","45142","34121","107488","NA","106981","107488","106807","60788","108146","53133","106306","10204","89871","Lexical Decision Task","25","22613","27","yes","1024"
"2.698100546","0","9","mulk","non-word","92.85714285714286","92.85714285714286","832.7857142857143","832.7857142857143","black","no","legacy","legacy","legacy","0","uniform","1","undefined","undefined","undefined","1","f","0","0","0","0","27","0","0","0","27","NA","23","27","23","0","23","3","27","0","27","Wed Feb 17 11:34:48 2021","The main experiment item","yes","Lexical_Decision_Task.osexp","C:/Users/jessw","no","Andale Mono","no","18","no","white","no","yes","576","legacy","23","23","3","C:/Users/jessw/subject-5206553.csv","legacy","Lentiform Loewenfeld","3.3.7","yes","yes","600bd7cfb6416f0113b04181","602110864497cf011d9c0822","0","F","NA","space","","H","NA","F","705","NA","3977","17849","11020","NA","705","2","legacy","1024","2","48000","-16","task","5206553","odd","NA","54807","60788","56810","108848","10219","45142","34121","109351","NA","108845","109352","108719","60788","110058","53133","108219","10204","89871","Lexical Decision Task","26","23318","28","yes","1024"
"2.809559715","8.44","4","volt","word","93.10344827586206","93.10344827586206","834.2413793103449","834.2413793103449","black","no","legacy","legacy","legacy","0","uniform","1","undefined","undefined","undefined","1","j","0","0","0","0","28","0","0","0","28","NA","24","28","24","0","24","3","28","0","28","Wed Feb 17 11:34:48 2021","The main experiment item","yes","Lexical_Decision_Task.osexp","C:/Users/jessw","no","Andale Mono","no","18","no","white","no","yes","576","legacy","24","24","3","C:/Users/jessw/subject-5206553.csv","legacy","Lentiform Loewenfeld","3.3.7","yes","yes","600bd7cfb6416f0113b04181","602110864497cf011d9c0822","0","J","NA","space","","H","NA","J","875","NA","3977","17849","11020","NA","875","2","legacy","1024","2","48000","-16","task","5206553","odd","NA","54807","60788","56810","110792","10219","45142","34121","111295","NA","110789","111295","110633","60788","112171","53133","110133","10204","89871","Lexical Decision Task","27","24193","29","yes","1024"
"3.137775856","7.39","5","comb","word","93.33333333333333","93.33333333333333","828.0666666666667","828.0666666666667","black","no","legacy","legacy","legacy","0","uniform","1","undefined","undefined","undefined","1","j","0","0","0","0","29","0","0","0","29","NA","25","29","25","0","25","3","29","0","29","Wed Feb 17 11:34:48 2021","The main experiment item","yes","Lexical_Decision_Task.osexp","C:/Users/jessw","no","Andale Mono","no","18","no","white","no","yes","576","legacy","25","25","3","C:/Users/jessw/subject-5206553.csv","legacy","Lentiform Loewenfeld","3.3.7","yes","yes","600bd7cfb6416f0113b04181","602110864497cf011d9c0822","0","J","NA","space","","H","NA","J","649","NA","3977","17849","11020","NA","649","2","legacy","1024","2","48000","-16","task","5206553","odd","NA","54807","60788","56810","112882","10219","45142","34121","113386","NA","112880","113386","112744","60788","114036","53133","112244","10204","89871","Lexical Decision Task","28","24842","30","yes","1024"
"3.230789326","5.38","5","prim","word","93.54838709677419","93.54838709677419","837.6129032258065","837.6129032258065","black","no","legacy","legacy","legacy","0","uniform","1","undefined","undefined","undefined","1","j","0","0","0","0","30","0","0","0","30","NA","26","30","26","0","26","3","30","0","30","Wed Feb 17 11:34:48 2021","The main experiment item","yes","Lexical_Decision_Task.osexp","C:/Users/jessw","no","Andale Mono","no","18","no","white","no","yes","576","legacy","26","26","3","C:/Users/jessw/subject-5206553.csv","legacy","Lentiform Loewenfeld","3.3.7","yes","yes","600bd7cfb6416f0113b04181","602110864497cf011d9c0822","0","J","NA","space","","H","NA","J","1124","NA","3977","17849","11020","NA","1124","2","legacy","1024","2","48000","-16","task","5206553","odd","NA","54807","60788","56810","114771","10219","45142","34121","115274","NA","114767","115275","114608","60788","116400","53133","114108","10204","89871","Lexical Decision Task","29","25966","31","yes","1024"
"2.858136002","0","4","phip","non-word","93.75","93.75","841.9375","841.9375","black","no","legacy","legacy","legacy","0","uniform","1","undefined","undefined","undefined","1","f","0","0","0","0","31","0","0","0","31","NA","27","31","27","0","27","3","31","0","31","Wed Feb 17 11:34:48 2021","The main experiment item","yes","Lexical_Decision_Task.osexp","C:/Users/jessw","no","Andale Mono","no","18","no","white","no","yes","576","legacy","27","27","3","C:/Users/jessw/subject-5206553.csv","legacy","Lentiform Loewenfeld","3.3.7","yes","yes","600bd7cfb6416f0113b04181","602110864497cf011d9c0822","0","F","NA","space","","H","NA","F","976","NA","3977","17849","11020","NA","976","2","legacy","1024","2","48000","-16","task","5206553","odd","NA","54807","60788","56810","117142","10219","45142","34121","117646","NA","117140","117646","116974","60788","118623","53133","116473","10204","89871","Lexical Decision Task","30","26942","32","yes","1024"
"3.302475237","0","7","leel","non-word","93.93939393939394","93.93939393939394","839.5757575757576","839.5757575757576","black","no","legacy","legacy","legacy","0","uniform","1","undefined","undefined","undefined","1","f","0","0","0","0","32","0","0","0","32","NA","28","32","28","0","28","3","32","0","32","Wed Feb 17 11:34:48 2021","The main experiment item","yes","Lexical_Decision_Task.osexp","C:/Users/jessw","no","Andale Mono","no","18","no","white","no","yes","576","legacy","28","28","3","C:/Users/jessw/subject-5206553.csv","legacy","Lentiform Loewenfeld","3.3.7","yes","yes","600bd7cfb6416f0113b04181","602110864497cf011d9c0822","0","F","NA","space","","H","NA","F","764","NA","3977","17849","11020","NA","764","2","legacy","1024","2","48000","-16","task","5206553","odd","NA","54807","60788","56810","119378","10219","45142","34121","119882","NA","119374","119882","119129","60788","120648","53133","118629","10204","89871","Lexical Decision Task","31","27706","33","yes","1024"
"2.746890964","9.67","3","plug","word","94.11764705882354","94.11764705882354","848.5588235294117","848.5588235294117","black","no","legacy","legacy","legacy","0","uniform","1","undefined","undefined","undefined","1","j","0","0","0","0","33","0","0","0","33","NA","29","33","29","0","29","3","33","0","33","Wed Feb 17 11:34:48 2021","The main experiment item","yes","Lexical_Decision_Task.osexp","C:/Users/jessw","no","Andale Mono","no","18","no","white","no","yes","576","legacy","29","29","3","C:/Users/jessw/subject-5206553.csv","legacy","Lentiform Loewenfeld","3.3.7","yes","yes","600bd7cfb6416f0113b04181","602110864497cf011d9c0822","0","J","NA","space","","H","NA","J","1145","NA","3977","17849","11020","NA","1145","2","legacy","1024","2","48000","-16","task","5206553","odd","NA","54807","60788","56810","121395","10219","45142","34121","121898","NA","121390","121899","121219","60788","123045","53133","120719","10204","89871","Lexical Decision Task","32","28851","34","yes","1024"
"2.821076612","0","4","lult","non-word","94.28571428571429","94.28571428571429","851.9714285714285","851.9714285714285","black","no","legacy","legacy","legacy","0","uniform","1","undefined","undefined","undefined","1","f","0","0","0","0","34","0","0","0","34","NA","30","34","30","0","30","3","34","0","34","Wed Feb 17 11:34:48 2021","The main experiment item","yes","Lexical_Decision_Task.osexp","C:/Users/jessw","no","Andale Mono","no","18","no","white","no","yes","576","legacy","30","30","3","C:/Users/jessw/subject-5206553.csv","legacy","Lentiform Loewenfeld","3.3.7","yes","yes","600bd7cfb6416f0113b04181","602110864497cf011d9c0822","0","F","NA","space","","H","NA","F","968","NA","3977","17849","11020","NA","968","2","legacy","1024","2","48000","-16","task","5206553","odd","NA","54807","60788","56810","123793","10219","45142","34121","124297","NA","123789","124297","123619","60788","125267","53133","123119","10204","89871","Lexical Decision Task","33","29819","35","yes","1024"
"2.937852093","0","7","bamp","non-word","94.44444444444444","94.44444444444444","849.3333333333334","849.3333333333334","black","no","legacy","legacy","legacy","0","uniform","1","undefined","undefined","undefined","1","f","0","0","0","0","35","0","0","0","35","NA","31","35","31","0","31","3","35","0","35","Wed Feb 17 11:34:48 2021","The main experiment item","yes","Lexical_Decision_Task.osexp","C:/Users/jessw","no","Andale Mono","no","18","no","white","no","yes","576","legacy","31","31","3","C:/Users/jessw/subject-5206553.csv","legacy","Lentiform Loewenfeld","3.3.7","yes","yes","600bd7cfb6416f0113b04181","602110864497cf011d9c0822","0","F","NA","space","","H","NA","F","757","NA","3977","17849","11020","NA","757","2","legacy","1024","2","48000","-16","task","5206553","odd","NA","54807","60788","56810","125986","10219","45142","34121","126490","NA","125982","126490","125814","60788","127248","53133","125314","10204","89871","Lexical Decision Task","34","30576","36","yes","1024"
"3.066077331","0","7","vorn","non-word","94.5945945945946","94.5945945945946","846.0540540540541","846.0540540540541","black","no","legacy","legacy","legacy","0","uniform","1","undefined","undefined","undefined","1","f","0","0","0","0","36","0","0","0","36","NA","32","36","32","0","32","3","36","0","36","Wed Feb 17 11:34:48 2021","The main experiment item","yes","Lexical_Decision_Task.osexp","C:/Users/jessw","no","Andale Mono","no","18","no","white","no","yes","576","legacy","32","32","3","C:/Users/jessw/subject-5206553.csv","legacy","Lentiform Loewenfeld","3.3.7","yes","yes","600bd7cfb6416f0113b04181","602110864497cf011d9c0822","0","F","NA","space","","H","NA","F","728","NA","3977","17849","11020","NA","728","2","legacy","1024","2","48000","-16","task","5206553","odd","NA","54807","60788","56810","127917","10219","45142","34121","128421","NA","127915","128421","127764","60788","129150","53133","127264","10204","89871","Lexical Decision Task","35","31304","37","yes","1024"
"2.6599162","0","6","flug","non-word","94.73684210526316","94.73684210526316","841.8684210526316","841.8684210526316","black","no","legacy","legacy","legacy","0","uniform","1","undefined","undefined","undefined","1","f","0","0","0","0","37","0","0","0","37","NA","33","37","33","0","33","3","37","0","37","Wed Feb 17 11:34:48 2021","The main experiment item","yes","Lexical_Decision_Task.osexp","C:/Users/jessw","no","Andale Mono","no","18","no","white","no","yes","576","legacy","33","33","3","C:/Users/jessw/subject-5206553.csv","legacy","Lentiform Loewenfeld","3.3.7","yes","yes","600bd7cfb6416f0113b04181","602110864497cf011d9c0822","0","F","NA","space","","H","NA","F","687","NA","3977","17849","11020","NA","687","2","legacy","1024","2","48000","-16","task","5206553","odd","NA","54807","60788","56810","129854","10219","45142","34121","130357","NA","129852","130358","129723","60788","131047","53133","129223","10204","89871","Lexical Decision Task","36","31991","38","yes","1024"
"2.813801082","5.47","7","nook","word","94.87179487179488","94.87179487179488","838.2564102564103","838.2564102564103","black","no","legacy","legacy","legacy","0","uniform","1","undefined","undefined","undefined","1","j","0","0","0","0","38","0","0","0","38","NA","34","38","34","0","34","3","38","0","38","Wed Feb 17 11:34:48 2021","The main experiment item","yes","Lexical_Decision_Task.osexp","C:/Users/jessw","no","Andale Mono","no","18","no","white","no","yes","576","legacy","34","34","3","C:/Users/jessw/subject-5206553.csv","legacy","Lentiform Loewenfeld","3.3.7","yes","yes","600bd7cfb6416f0113b04181","602110864497cf011d9c0822","0","J","NA","space","","H","NA","J","701","NA","3977","17849","11020","NA","701","2","legacy","1024","2","48000","-16","task","5206553","odd","NA","54807","60788","56810","131795","10219","45142","34121","132299","NA","131791","132300","131621","60788","133003","53133","131121","10204","89871","Lexical Decision Task","37","32692","39","yes","1024"
"3.303771854","0","9","dath","non-word","95","95","834.475","834.475","black","no","legacy","legacy","legacy","0","uniform","1","undefined","undefined","undefined","1","f","0","0","0","0","39","0","0","0","39","NA","35","39","35","0","35","3","39","0","39","Wed Feb 17 11:34:48 2021","The main experiment item","yes","Lexical_Decision_Task.osexp","C:/Users/jessw","no","Andale Mono","no","18","no","white","no","yes","576","legacy","35","35","3","C:/Users/jessw/subject-5206553.csv","legacy","Lentiform Loewenfeld","3.3.7","yes","yes","600bd7cfb6416f0113b04181","602110864497cf011d9c0822","0","F","NA","space","","H","NA","F","687","NA","3977","17849","11020","NA","687","2","legacy","1024","2","48000","-16","task","5206553","odd","NA","54807","60788","56810","133725","10219","45142","34121","134228","NA","133723","134229","133577","60788","134917","53133","133077","10204","89871","Lexical Decision Task","38","33379","40","yes","1024"
"2.980911938","7.15","7","hoop","word","95.1219512195122","95.1219512195122","830.9512195121952","830.9512195121952","black","no","legacy","legacy","legacy","0","uniform","1","undefined","undefined","undefined","1","j","0","0","0","0","40","0","0","0","40","NA","36","40","36","0","36","3","40","0","40","Wed Feb 17 11:34:48 2021","The main experiment item","yes","Lexical_Decision_Task.osexp","C:/Users/jessw","no","Andale Mono","no","18","no","white","no","yes","576","legacy","36","36","3","C:/Users/jessw/subject-5206553.csv","legacy","Lentiform Loewenfeld","3.3.7","yes","yes","600bd7cfb6416f0113b04181","602110864497cf011d9c0822","0","J","NA","space","","H","NA","J","690","NA","3977","17849","11020","NA","690","2","legacy","1024","2","48000","-16","task","5206553","odd","NA","54807","60788","56810","135657","10219","45142","34121","136160","NA","135654","136161","135492","60788","136852","53133","134991","10204","89871","Lexical Decision Task","39","34069","41","yes","1024"
"2.980306438","0","7","slun","non-word","95.23809523809524","95.23809523809524","828.5","828.5","black","no","legacy","legacy","legacy","0","uniform","1","undefined","undefined","undefined","1","f","0","0","0","0","41","0","0","0","41","NA","37","41","37","0","37","3","41","0","41","Wed Feb 17 11:34:48 2021","The main experiment item","yes","Lexical_Decision_Task.osexp","C:/Users/jessw","no","Andale Mono","no","18","no","white","no","yes","576","legacy","37","37","3","C:/Users/jessw/subject-5206553.csv","legacy","Lentiform Loewenfeld","3.3.7","yes","yes","600bd7cfb6416f0113b04181","602110864497cf011d9c0822","0","F","NA","space","","H","NA","F","728","NA","3977","17849","11020","NA","728","2","legacy","1024","2","48000","-16","task","5206553","odd","NA","54807","60788","56810","137616","10219","45142","34121","138119","NA","137611","138119","137426","60788","138848","53133","136925","10204","89871","Lexical Decision Task","40","34797","42","yes","1024"
"3.003891166","8.05","2","frog","word","95.34883720930233","95.34883720930233","819.1627906976744","819.1627906976744","black","no","legacy","legacy","legacy","0","uniform","1","undefined","undefined","undefined","1","j","0","0","0","0","42","0","0","0","42","NA","38","42","38","0","38","3","42","0","42","Wed Feb 17 11:34:48 2021","The main experiment item","yes","Lexical_Decision_Task.osexp","C:/Users/jessw","no","Andale Mono","no","18","no","white","no","yes","576","legacy","38","38","3","C:/Users/jessw/subject-5206553.csv","legacy","Lentiform Loewenfeld","3.3.7","yes","yes","600bd7cfb6416f0113b04181","602110864497cf011d9c0822","0","J","NA","space","","H","NA","J","427","NA","3977","17849","11020","NA","427","2","legacy","1024","2","48000","-16","task","5206553","odd","NA","54807","60788","56810","139522","10219","45142","34121","140026","NA","139520","140026","139374","60788","140454","53133","138874","10204","89871","Lexical Decision Task","41","35224","43","yes","1024"
"2.952953801","0","8","clax","non-word","93.18181818181819","93.18181818181819","826.0909090909091","826.0909090909091","black","no","legacy","legacy","legacy","0","uniform","0","undefined","undefined","undefined","0","f","0","0","0","0","43","0","0","0","43","NA","39","43","39","0","39","3","43","0","43","Wed Feb 17 11:34:48 2021","The main experiment item","yes","Lexical_Decision_Task.osexp","C:/Users/jessw","no","Andale Mono","no","18","no","white","no","yes","576","legacy","39","39","3","C:/Users/jessw/subject-5206553.csv","legacy","Lentiform Loewenfeld","3.3.7","yes","yes","600bd7cfb6416f0113b04181","602110864497cf011d9c0822","0","J","NA","space","","H","NA","J","1124","NA","3977","17849","11020","NA","1124","2","legacy","1024","2","48000","-16","task","5206553","odd","NA","54807","60788","56810","141224","10219","45142","34121","141727","NA","141219","141728","141027","60788","142853","53133","140527","10204","89871","Lexical Decision Task","41","36348","44","yes","1024"
"3.269668578","0","7","trag","non-word","93.33333333333333","93.33333333333333","830.4666666666667","830.4666666666667","black","no","legacy","legacy","legacy","0","uniform","1","undefined","undefined","undefined","1","f","0","0","0","0","44","0","0","0","44","NA","40","44","40","0","40","3","44","0","44","Wed Feb 17 11:34:48 2021","The main experiment item","yes","Lexical_Decision_Task.osexp","C:/Users/jessw","no","Andale Mono","no","18","no","white","no","yes","576","legacy","40","40","3","C:/Users/jessw/subject-5206553.csv","legacy","Lentiform Loewenfeld","3.3.7","yes","yes","600bd7cfb6416f0113b04181","602110864497cf011d9c0822","0","F","NA","space","","H","NA","F","1023","NA","3977","17849","11020","NA","1023","2","legacy","1024","2","48000","-16","task","5206553","odd","NA","54807","60788","56810","144624","10219","45142","34121","145128","NA","144619","145128","144428","60788","146152","53133","140527","10204","142928","Lexical Decision Task","42","37371","45","yes","1024"
"3.353210739","0","9","reet","non-word","93.47826086956522","93.47826086956522","825.4347826086956","825.4347826086956","black","no","legacy","legacy","legacy","0","uniform","1","undefined","undefined","undefined","1","f","0","0","0","0","45","0","0","0","45","NA","41","45","41","0","41","3","45","0","45","Wed Feb 17 11:34:48 2021","The main experiment item","yes","Lexical_Decision_Task.osexp","C:/Users/jessw","no","Andale Mono","no","18","no","white","no","yes","576","legacy","41","41","3","C:/Users/jessw/subject-5206553.csv","legacy","Lentiform Loewenfeld","3.3.7","yes","yes","600bd7cfb6416f0113b04181","602110864497cf011d9c0822","0","F","NA","space","","H","NA","F","599","NA","3977","17849","11020","NA","599","2","legacy","1024","2","48000","-16","task","5206553","odd","NA","54807","60788","56810","146803","10219","45142","34121","147307","NA","146799","147307","146659","60788","147909","53133","146159","10204","142928","Lexical Decision Task","43","37970","46","yes","1024"
"3.259832699","0","9","flar","non-word","93.61702127659575","93.61702127659575","821.3617021276596","821.3617021276596","black","no","legacy","legacy","legacy","0","uniform","1","undefined","undefined","undefined","1","f","0","0","0","0","46","0","0","0","46","NA","42","46","42","0","42","3","46","0","46","Wed Feb 17 11:34:48 2021","The main experiment item","yes","Lexical_Decision_Task.osexp","C:/Users/jessw","no","Andale Mono","no","18","no","white","no","yes","576","legacy","42","42","3","C:/Users/jessw/subject-5206553.csv","legacy","Lentiform Loewenfeld","3.3.7","yes","yes","600bd7cfb6416f0113b04181","602110864497cf011d9c0822","0","F","NA","space","","H","NA","F","634","NA","3977","17849","11020","NA","634","2","legacy","1024","2","48000","-16","task","5206553","odd","NA","54807","60788","56810","148630","10219","45142","34121","149134","NA","148628","149134","148483","60788","149769","53133","147983","10204","142928","Lexical Decision Task","44","38604","47","yes","1024"
"3.208978517","10.33","4","fish","word","93.75","93.75","816.7708333333334","816.7708333333334","black","no","legacy","legacy","legacy","0","uniform","1","undefined","undefined","undefined","1","j","0","0","0","0","47","0","0","0","47","NA","43","47","43","0","43","3","47","0","47","Wed Feb 17 11:34:48 2021","The main experiment item","yes","Lexical_Decision_Task.osexp","C:/Users/jessw","no","Andale Mono","no","18","no","white","no","yes","576","legacy","43","43","3","C:/Users/jessw/subject-5206553.csv","legacy","Lentiform Loewenfeld","3.3.7","yes","yes","600bd7cfb6416f0113b04181","602110864497cf011d9c0822","0","J","NA","space","","H","NA","J","601","NA","3977","17849","11020","NA","601","2","legacy","1024","2","48000","-16","task","5206553","odd","NA","54807","60788","56810","150421","10219","45142","34121","150925","NA","150418","150925","150278","60788","151527","53133","149778","10204","142928","Lexical Decision Task","45","39205","48","yes","1024"
"2.68604012","0","3","mulb","non-word","93.87755102040816","93.87755102040816","820.6326530612245","820.6326530612245","black","no","legacy","legacy","legacy","0","uniform","1","undefined","undefined","undefined","1","f","0","0","0","0","48","0","0","0","48","NA","44","48","44","0","44","3","48","0","48","Wed Feb 17 11:34:48 2021","The main experiment item","yes","Lexical_Decision_Task.osexp","C:/Users/jessw","no","Andale Mono","no","18","no","white","no","yes","576","legacy","44","44","3","C:/Users/jessw/subject-5206553.csv","legacy","Lentiform Loewenfeld","3.3.7","yes","yes","600bd7cfb6416f0113b04181","602110864497cf011d9c0822","0","F","NA","space","","H","NA","F","1006","NA","3977","17849","11020","NA","1006","2","legacy","1024","2","48000","-16","task","5206553","odd","NA","54807","60788","56810","152263","10219","45142","34121","152767","NA","152260","152767","152101","60788","153775","53133","151601","10204","142928","Lexical Decision Task","46","40211","49","yes","1024"
"2.67699827","0","6","hulf","non-word","94","94","822.88","822.88","black","no","legacy","legacy","legacy","0","uniform","1","undefined","undefined","undefined","1","f","0","0","0","0","49","0","0","0","49","NA","45","49","45","0","45","3","49","0","49","Wed Feb 17 11:34:48 2021","The main experiment item","yes","Lexical_Decision_Task.osexp","C:/Users/jessw","no","Andale Mono","no","18","no","white","no","yes","576","legacy","45","45","3","C:/Users/jessw/subject-5206553.csv","legacy","Lentiform Loewenfeld","3.3.7","yes","yes","600bd7cfb6416f0113b04181","602110864497cf011d9c0822","0","F","NA","space","","H","NA","F","933","NA","3977","17849","11020","NA","933","2","legacy","1024","2","48000","-16","task","5206553","odd","NA","54807","60788","56810","154532","10219","45142","34121","155035","NA","154527","155036","154349","60788","155971","53133","153849","10204","142928","Lexical Decision Task","47","41144","50","yes","1024"
"2.793790385","5.67","9","swab","word","94.11764705882354","94.11764705882354","822.2745098039215","822.2745098039215","black","no","legacy","legacy","legacy","0","uniform","1","undefined","undefined","undefined","1","j","0","0","0","0","50","0","0","0","50","NA","46","50","46","0","46","3","50","0","50","Wed Feb 17 11:34:48 2021","The main experiment item","yes","Lexical_Decision_Task.osexp","C:/Users/jessw","no","Andale Mono","no","18","no","white","no","yes","576","legacy","46","46","3","C:/Users/jessw/subject-5206553.csv","legacy","Lentiform Loewenfeld","3.3.7","yes","yes","600bd7cfb6416f0113b04181","602110864497cf011d9c0822","0","J","NA","space","","H","NA","J","792","NA","3977","17849","11020","NA","792","2","legacy","1024","2","48000","-16","task","5206553","odd","NA","54807","60788","56810","156682","10219","45142","34121","157186","NA","156679","157186","156550","60788","157980","53133","156050","10204","142928","Lexical Decision Task","48","41936","51","yes","1024"
"3.14849993","10.75","7","hour","word","94.23076923076923","94.23076923076923","822.1346153846154","822.1346153846154","black","no","legacy","legacy","legacy","0","uniform","1","undefined","undefined","undefined","1","j","0","0","0","0","51","0","0","0","51","NA","47","51","47","0","47","3","51","0","51","Wed Feb 17 11:34:48 2021","The main experiment item","yes","Lexical_Decision_Task.osexp","C:/Users/jessw","no","Andale Mono","no","18","no","white","no","yes","576","legacy","47","47","3","C:/Users/jessw/subject-5206553.csv","legacy","Lentiform Loewenfeld","3.3.7","yes","yes","600bd7cfb6416f0113b04181","602110864497cf011d9c0822","0","J","NA","space","","H","NA","J","815","NA","3977","17849","11020","NA","815","2","legacy","1024","2","48000","-16","task","5206553","odd","NA","54807","60788","56810","158711","10219","45142","34121","159214","NA","158709","159215","158552","60788","160032","53133","158052","10204","142928","Lexical Decision Task","49","42751","52","yes","1024"
"2.68604012","0","4","pumb","non-word","94.33962264150944","94.33962264150944","823.2264150943396","823.2264150943396","black","no","legacy","legacy","legacy","0","uniform","1","undefined","undefined","undefined","1","f","0","0","0","0","52","0","0","0","52","NA","48","52","48","0","48","3","52","0","52","Wed Feb 17 11:34:48 2021","The main experiment item","yes","Lexical_Decision_Task.osexp","C:/Users/jessw","no","Andale Mono","no","18","no","white","no","yes","576","legacy","48","48","3","C:/Users/jessw/subject-5206553.csv","legacy","Lentiform Loewenfeld","3.3.7","yes","yes","600bd7cfb6416f0113b04181","602110864497cf011d9c0822","0","F","NA","space","","H","NA","F","880","NA","3977","17849","11020","NA","880","2","legacy","1024","2","48000","-16","task","5206553","odd","NA","54807","60788","56810","160747","10219","45142","34121","161250","NA","160744","161251","160605","60788","162132","53133","160105","10204","142928","Lexical Decision Task","50","43631","53","yes","1024"
"2.899092422","7.27","6","snag","word","94.44444444444444","94.44444444444444","824.0925925925926","824.0925925925926","black","no","legacy","legacy","legacy","0","uniform","1","undefined","undefined","undefined","1","j","0","0","0","0","53","0","0","0","53","NA","49","53","49","0","49","3","53","0","53","Wed Feb 17 11:34:48 2021","The main experiment item","yes","Lexical_Decision_Task.osexp","C:/Users/jessw","no","Andale Mono","no","18","no","white","no","yes","576","legacy","49","49","3","C:/Users/jessw/subject-5206553.csv","legacy","Lentiform Loewenfeld","3.3.7","yes","yes","600bd7cfb6416f0113b04181","602110864497cf011d9c0822","0","J","NA","space","","H","NA","J","870","NA","3977","17849","11020","NA","870","2","legacy","1024","2","48000","-16","task","5206553","odd","NA","54807","60788","56810","162815","10219","45142","34121","163319","NA","162812","163319","162670","60788","164191","53133","162170","10204","142928","Lexical Decision Task","51","44501","54","yes","1024"
"3.529815197","0","3","lerm","non-word","94.54545454545455","94.54545454545455","821.6181818181818","821.6181818181818","black","no","legacy","legacy","legacy","0","uniform","1","undefined","undefined","undefined","1","f","0","0","0","0","54","0","0","0","54","0","50","54","50","0","50","3","54","0","54","Wed Feb 17 11:34:48 2021","The main experiment item","yes","Lexical_Decision_Task.osexp","C:/Users/jessw","no","Andale Mono","no","18","no","white","no","yes","576","legacy","50","50","3","C:/Users/jessw/subject-5206553.csv","legacy","Lentiform Loewenfeld","3.3.7","yes","yes","600bd7cfb6416f0113b04181","602110864497cf011d9c0822","0","F","NA","space","","H","B","F","688","NA","3977","17849","11020","6576","688","2","legacy","1024","2","48000","-16","task","5206553","odd","NA","54807","60788","56810","171542","10219","45142","34121","172045","164880","171541","172047","164763","60788","172736","53133","164263","10204","142928","Lexical Decision Task","52","45189","55","yes","1024"
"2.981215883","10.66","5","hair","word","94.64285714285714","94.64285714285714","815.625","815.625","black","no","legacy","legacy","legacy","0","uniform","1","undefined","undefined","undefined","1","j","0","0","0","0","55","0","0","0","55","0","51","55","51","0","51","3","55","0","55","Wed Feb 17 11:34:48 2021","The main experiment item","yes","Lexical_Decision_Task.osexp","C:/Users/jessw","no","Andale Mono","no","18","no","white","no","yes","576","legacy","51","51","3","C:/Users/jessw/subject-5206553.csv","legacy","Lentiform Loewenfeld","3.3.7","yes","yes","600bd7cfb6416f0113b04181","602110864497cf011d9c0822","0","J","NA","space","","H","B","J","486","NA","3977","17849","11020","6576","486","2","legacy","1024","2","48000","-16","task","5206553","odd","NA","54807","60788","56810","173455","10219","45142","34121","173958","164880","173453","173959","173310","60788","174446","53133","172810","10204","142928","Lexical Decision Task","53","45675","56","yes","1024"
"3.067070856","9.39","3","loud","word","94.73684210526316","94.73684210526316","810.6315789473684","810.6315789473684","black","no","legacy","legacy","legacy","0","uniform","1","undefined","undefined","undefined","1","j","0","0","0","0","56","0","0","0","56","0","52","56","52","0","52","3","56","0","56","Wed Feb 17 11:34:48 2021","The main experiment item","yes","Lexical_Decision_Task.osexp","C:/Users/jessw","no","Andale Mono","no","18","no","white","no","yes","576","legacy","52","52","3","C:/Users/jessw/subject-5206553.csv","legacy","Lentiform Loewenfeld","3.3.7","yes","yes","600bd7cfb6416f0113b04181","602110864497cf011d9c0822","0","J","NA","space","","H","B","J","531","NA","3977","17849","11020","6576","531","2","legacy","1024","2","48000","-16","task","5206553","odd","NA","54807","60788","56810","175195","10219","45142","34121","175698","164880","175192","175699","175018","60788","176232","53133","174518","10204","142928","Lexical Decision Task","54","46206","57","yes","1024"
"2.953276337","6.32","4","thaw","word","94.82758620689656","94.82758620689656","808.1896551724138","808.1896551724138","black","no","legacy","legacy","legacy","0","uniform","1","undefined","undefined","undefined","1","j","0","0","0","0","57","0","0","0","57","0","53","57","53","0","53","3","57","0","57","Wed Feb 17 11:34:48 2021","The main experiment item","yes","Lexical_Decision_Task.osexp","C:/Users/jessw","no","Andale Mono","no","18","no","white","no","yes","576","legacy","53","53","3","C:/Users/jessw/subject-5206553.csv","legacy","Lentiform Loewenfeld","3.3.7","yes","yes","600bd7cfb6416f0113b04181","602110864497cf011d9c0822","0","J","NA","space","","H","B","J","669","NA","3977","17849","11020","6576","669","2","legacy","1024","2","48000","-16","task","5206553","odd","NA","54807","60788","56810","176999","10219","45142","34121","177502","164880","176994","177503","176806","60788","178174","53133","176305","10204","142928","Lexical Decision Task","55","46875","58","yes","1024"
"2.6599162","0","2","saff","non-word","94.91525423728814","94.91525423728814","804.3050847457627","804.3050847457627","black","no","legacy","legacy","legacy","0","uniform","1","undefined","undefined","undefined","1","f","0","0","0","0","58","0","0","0","58","0","54","58","54","0","54","3","58","0","58","Wed Feb 17 11:34:48 2021","The main experiment item","yes","Lexical_Decision_Task.osexp","C:/Users/jessw","no","Andale Mono","no","18","no","white","no","yes","576","legacy","54","54","3","C:/Users/jessw/subject-5206553.csv","legacy","Lentiform Loewenfeld","3.3.7","yes","yes","600bd7cfb6416f0113b04181","602110864497cf011d9c0822","0","F","NA","space","","H","B","F","579","NA","3977","17849","11020","6576","579","2","legacy","1024","2","48000","-16","task","5206553","odd","NA","54807","60788","56810","178942","10219","45142","34121","179446","164880","178937","179446","178748","60788","180026","53133","178247","10204","142928","Lexical Decision Task","56","47454","59","yes","1024"
"2.784379519","0","2","snaf","non-word","95","95","801.1666666666666","801.1666666666666","black","no","legacy","legacy","legacy","0","uniform","1","undefined","undefined","undefined","1","f","0","0","0","0","59","0","0","0","59","0","55","59","55","0","55","3","59","0","59","Wed Feb 17 11:34:48 2021","The main experiment item","yes","Lexical_Decision_Task.osexp","C:/Users/jessw","no","Andale Mono","no","18","no","white","no","yes","576","legacy","55","55","3","C:/Users/jessw/subject-5206553.csv","legacy","Lentiform Loewenfeld","3.3.7","yes","yes","600bd7cfb6416f0113b04181","602110864497cf011d9c0822","0","F","NA","space","","H","B","F","616","NA","3977","17849","11020","6576","616","2","legacy","1024","2","48000","-16","task","5206553","odd","NA","54807","60788","56810","180737","10219","45142","34121","181242","164880","180736","181242","180600","60788","181860","53133","180100","10204","142928","Lexical Decision Task","57","48070","60","yes","1024"
"2.719886232","7.98","2","quiz","word","95.08196721311475","95.08196721311475","797.3770491803278","797.3770491803278","black","no","legacy","legacy","legacy","0","uniform","1","undefined","undefined","undefined","1","j","0","0","0","0","60","0","0","0","60","0","56","60","56","0","56","3","60","0","60","Wed Feb 17 11:34:48 2021","The main experiment item","yes","Lexical_Decision_Task.osexp","C:/Users/jessw","no","Andale Mono","no","18","no","white","no","yes","576","legacy","56","56","3","C:/Users/jessw/subject-5206553.csv","legacy","Lentiform Loewenfeld","3.3.7","yes","yes","600bd7cfb6416f0113b04181","602110864497cf011d9c0822","0","J","NA","space","","H","B","J","570","NA","3977","17849","11020","6576","570","2","legacy","1024","2","48000","-16","task","5206553","odd","NA","54807","60788","56810","182622","10219","45142","34121","183126","164880","182619","183126","182432","60788","183696","53133","181931","10204","142928","Lexical Decision Task","58","48640","61","yes","1024"
"3.168400243","9.12","6","horn","word","95.16129032258064","95.16129032258064","792.258064516129","792.258064516129","black","no","legacy","legacy","legacy","0","uniform","1","undefined","undefined","undefined","1","j","0","0","0","0","61","0","0","0","61","0","57","61","57","0","57","3","61","0","61","Wed Feb 17 11:34:48 2021","The main experiment item","yes","Lexical_Decision_Task.osexp","C:/Users/jessw","no","Andale Mono","no","18","no","white","no","yes","576","legacy","57","57","3","C:/Users/jessw/subject-5206553.csv","legacy","Lentiform Loewenfeld","3.3.7","yes","yes","600bd7cfb6416f0113b04181","602110864497cf011d9c0822","0","J","NA","space","","H","B","J","480","NA","3977","17849","11020","6576","480","2","legacy","1024","2","48000","-16","task","5206553","odd","NA","54807","60788","56810","184448","10219","45142","34121","184952","164880","184443","184952","184269","60788","185435","53133","183769","10204","142928","Lexical Decision Task","59","49120","62","yes","1024"
"3.120025233","0","2","nyst","non-word","95.23809523809524","95.23809523809524","788.4444444444445","788.4444444444445","black","no","legacy","legacy","legacy","0","uniform","1","undefined","undefined","undefined","1","f","0","0","0","0","62","0","0","0","62","0","58","62","58","0","58","3","62","0","62","Wed Feb 17 11:34:48 2021","The main experiment item","yes","Lexical_Decision_Task.osexp","C:/Users/jessw","no","Andale Mono","no","18","no","white","no","yes","576","legacy","58","58","3","C:/Users/jessw/subject-5206553.csv","legacy","Lentiform Loewenfeld","3.3.7","yes","yes","600bd7cfb6416f0113b04181","602110864497cf011d9c0822","0","F","NA","space","","H","B","F","552","NA","3977","17849","11020","6576","552","2","legacy","1024","2","48000","-16","task","5206553","odd","NA","54807","60788","56810","186199","10219","45142","34121","186702","164880","186194","186703","186002","60788","187257","53133","185502","10204","142928","Lexical Decision Task","60","49672","63","yes","1024"
"2.966923697","5.4","2","fume","word","95.3125","95.3125","787.546875","787.546875","black","no","legacy","legacy","legacy","0","uniform","1","undefined","undefined","undefined","1","j","0","0","0","0","63","0","0","0","63","0","59","63","59","0","59","3","63","0","63","Wed Feb 17 11:34:48 2021","The main experiment item","yes","Lexical_Decision_Task.osexp","C:/Users/jessw","no","Andale Mono","no","18","no","white","no","yes","576","legacy","59","59","3","C:/Users/jessw/subject-5206553.csv","legacy","Lentiform Loewenfeld","3.3.7","yes","yes","600bd7cfb6416f0113b04181","602110864497cf011d9c0822","0","J","NA","space","","H","B","J","731","NA","3977","17849","11020","6576","731","2","legacy","1024","2","48000","-16","task","5206553","odd","NA","54807","60788","56810","187956","10219","45142","34121","188459","164880","187950","188459","187764","60788","189191","53133","187264","10204","142928","Lexical Decision Task","61","50403","64","yes","1024"
"3.082307743","9.68","8","camp","word","93.84615384615384","93.84615384615384","783.6461538461539","783.6461538461539","black","no","legacy","legacy","legacy","0","uniform","0","undefined","undefined","undefined","0","j","0","0","0","0","64","0","0","0","64","0","60","64","60","0","60","3","64","0","64","Wed Feb 17 11:34:48 2021","The main experiment item","yes","Lexical_Decision_Task.osexp","C:/Users/jessw","no","Andale Mono","no","18","no","white","no","yes","576","legacy","60","60","3","C:/Users/jessw/subject-5206553.csv","legacy","Lentiform Loewenfeld","3.3.7","yes","yes","600bd7cfb6416f0113b04181","602110864497cf011d9c0822","0","F","NA","space","","H","B","F","534","NA","3977","17849","11020","6576","534","2","legacy","1024","2","48000","-16","task","5206553","odd","NA","54807","60788","56810","189934","10219","45142","34121","190437","164880","189932","190438","189767","60788","190975","53133","189266","10204","142928","Lexical Decision Task","61","50937","65","yes","1024"
"2.803231716","5.26","3","kiln","word","92.42424242424242","92.42424242424242","783","783","black","no","legacy","legacy","legacy","0","uniform","0","undefined","undefined","undefined","0","j","0","0","0","0","65","0","0","0","65","0","61","65","61","0","61","3","65","0","65","Wed Feb 17 11:34:48 2021","The main experiment item","yes","Lexical_Decision_Task.osexp","C:/Users/jessw","no","Andale Mono","no","18","no","white","no","yes","576","legacy","61","61","3","C:/Users/jessw/subject-5206553.csv","legacy","Lentiform Loewenfeld","3.3.7","yes","yes","600bd7cfb6416f0113b04181","602110864497cf011d9c0822","0","F","NA","space","","H","B","F","741","NA","3977","17849","11020","6576","741","2","legacy","1024","2","48000","-16","task","5206553","odd","NA","54807","60788","56810","192717","10219","45142","34121","193221","164880","192714","193221","192550","60788","193964","53133","189266","10204","191050","Lexical Decision Task","61","51678","66","yes","1024"
"3.194328374","9.42","6","harm","word","92.53731343283582","92.53731343283582","779.2537313432836","779.2537313432836","black","no","legacy","legacy","legacy","0","uniform","1","undefined","undefined","undefined","1","j","0","0","0","0","66","0","0","0","66","0","62","66","62","0","62","3","66","0","66","Wed Feb 17 11:34:48 2021","The main experiment item","yes","Lexical_Decision_Task.osexp","C:/Users/jessw","no","Andale Mono","no","18","no","white","no","yes","576","legacy","62","62","3","C:/Users/jessw/subject-5206553.csv","legacy","Lentiform Loewenfeld","3.3.7","yes","yes","600bd7cfb6416f0113b04181","602110864497cf011d9c0822","0","J","NA","space","","H","B","J","532","NA","3977","17849","11020","6576","532","2","legacy","1024","2","48000","-16","task","5206553","odd","NA","54807","60788","56810","195620","10219","45142","34121","196123","164880","195618","196124","195472","60788","196657","53133","189266","10204","193972","Lexical Decision Task","62","52210","67","yes","1024"
"3.276537627","9.15","5","trap","word","92.6470588235294","92.6470588235294","775.1617647058823","775.1617647058823","black","no","legacy","legacy","legacy","0","uniform","1","undefined","undefined","undefined","1","j","0","0","0","0","67","0","0","0","67","0","63","67","63","0","63","3","67","0","67","Wed Feb 17 11:34:48 2021","The main experiment item","yes","Lexical_Decision_Task.osexp","C:/Users/jessw","no","Andale Mono","no","18","no","white","no","yes","576","legacy","63","63","3","C:/Users/jessw/subject-5206553.csv","legacy","Lentiform Loewenfeld","3.3.7","yes","yes","600bd7cfb6416f0113b04181","602110864497cf011d9c0822","0","J","NA","space","","H","B","J","501","NA","3977","17849","11020","6576","501","2","legacy","1024","2","48000","-16","task","5206553","odd","NA","54807","60788","56810","197417","10219","45142","34121","197921","164880","197413","197921","197232","60788","198425","53133","196731","10204","193972","Lexical Decision Task","63","52711","68","yes","1024"
"2.82129731","6.72","5","plum","word","92.7536231884058","92.7536231884058","771.7826086956521","771.7826086956521","black","no","legacy","legacy","legacy","0","uniform","1","undefined","undefined","undefined","1","j","0","0","0","0","68","0","0","0","68","0","64","68","64","0","64","3","68","0","68","Wed Feb 17 11:34:48 2021","The main experiment item","yes","Lexical_Decision_Task.osexp","C:/Users/jessw","no","Andale Mono","no","18","no","white","no","yes","576","legacy","64","64","3","C:/Users/jessw/subject-5206553.csv","legacy","Lentiform Loewenfeld","3.3.7","yes","yes","600bd7cfb6416f0113b04181","602110864497cf011d9c0822","0","J","NA","space","","H","B","J","542","NA","3977","17849","11020","6576","542","2","legacy","1024","2","48000","-16","task","5206553","odd","NA","54807","60788","56810","199193","10219","45142","34121","199697","164880","199189","199697","199000","60788","200241","53133","198500","10204","193972","Lexical Decision Task","64","53253","69","yes","1024"
"3.431095062","5.74","9","perk","word","92.85714285714286","92.85714285714286","771.7714285714286","771.7714285714286","black","no","legacy","legacy","legacy","0","uniform","1","undefined","undefined","undefined","1","j","0","0","0","0","69","0","0","0","69","0","65","69","65","0","65","3","69","0","69","Wed Feb 17 11:34:48 2021","The main experiment item","yes","Lexical_Decision_Task.osexp","C:/Users/jessw","no","Andale Mono","no","18","no","white","no","yes","576","legacy","65","65","3","C:/Users/jessw/subject-5206553.csv","legacy","Lentiform Loewenfeld","3.3.7","yes","yes","600bd7cfb6416f0113b04181","602110864497cf011d9c0822","0","J","NA","space","","H","B","J","771","NA","3977","17849","11020","6576","771","2","legacy","1024","2","48000","-16","task","5206553","odd","NA","54807","60788","56810","201001","10219","45142","34121","201505","164880","200998","201506","200815","60788","202279","53133","200315","10204","193972","Lexical Decision Task","65","54024","70","yes","1024"
"3.208172527","10.27","7","deck","word","92.95774647887323","92.95774647887323","767.2816901408451","767.2816901408451","black","no","legacy","legacy","legacy","0","uniform","1","undefined","undefined","undefined","1","j","0","0","0","0","70","0","0","0","70","0","66","70","66","0","66","3","70","0","70","Wed Feb 17 11:34:48 2021","The main experiment item","yes","Lexical_Decision_Task.osexp","C:/Users/jessw","no","Andale Mono","no","18","no","white","no","yes","576","legacy","66","66","3","C:/Users/jessw/subject-5206553.csv","legacy","Lentiform Loewenfeld","3.3.7","yes","yes","600bd7cfb6416f0113b04181","602110864497cf011d9c0822","0","J","NA","space","","H","B","J","453","NA","3977","17849","11020","6576","453","2","legacy","1024","2","48000","-16","task","5206553","odd","NA","54807","60788","56810","203002","10219","45142","34121","203505","164880","203000","203505","202853","60788","203959","53133","202353","10204","193972","Lexical Decision Task","66","54477","71","yes","1024"
"2.664328519","0","4","plux","non-word","93.05555555555556","93.05555555555556","769.4166666666666","769.4166666666666","black","no","legacy","legacy","legacy","0","uniform","1","undefined","undefined","undefined","1","f","0","0","0","0","71","0","0","0","71","0","67","71","67","0","67","3","71","0","71","Wed Feb 17 11:34:48 2021","The main experiment item","yes","Lexical_Decision_Task.osexp","C:/Users/jessw","no","Andale Mono","no","18","no","white","no","yes","576","legacy","67","67","3","C:/Users/jessw/subject-5206553.csv","legacy","Lentiform Loewenfeld","3.3.7","yes","yes","600bd7cfb6416f0113b04181","602110864497cf011d9c0822","0","F","NA","space","","H","B","F","921","NA","3977","17849","11020","6576","921","2","legacy","1024","2","48000","-16","task","5206553","odd","NA","54807","60788","56810","204726","10219","45142","34121","205229","164880","204723","205230","204534","60788","206153","53133","204034","10204","193972","Lexical Decision Task","67","55398","72","yes","1024"
"3.22685757","9.99","7","roll","word","93.15068493150685","93.15068493150685","766.1232876712329","766.1232876712329","black","no","legacy","legacy","legacy","0","uniform","1","undefined","undefined","undefined","1","j","0","0","0","0","72","0","0","0","72","0","68","72","68","0","68","3","72","0","72","Wed Feb 17 11:34:48 2021","The main experiment item","yes","Lexical_Decision_Task.osexp","C:/Users/jessw","no","Andale Mono","no","18","no","white","no","yes","576","legacy","68","68","3","C:/Users/jessw/subject-5206553.csv","legacy","Lentiform Loewenfeld","3.3.7","yes","yes","600bd7cfb6416f0113b04181","602110864497cf011d9c0822","0","J","NA","space","","H","B","J","529","NA","3977","17849","11020","6576","529","2","legacy","1024","2","48000","-16","task","5206553","odd","NA","54807","60788","56810","206876","10219","45142","34121","207379","164880","206874","207380","206727","60788","207910","53133","206227","10204","193972","Lexical Decision Task","68","55927","73","yes","1024"
"3.16326079","0","5","parg","non-word","93.24324324324324","93.24324324324324","764.3108108108108","764.3108108108108","black","no","legacy","legacy","legacy","0","uniform","1","undefined","undefined","undefined","1","f","0","0","0","0","73","0","0","0","73","0","69","73","69","0","69","3","73","0","73","Wed Feb 17 11:34:48 2021","The main experiment item","yes","Lexical_Decision_Task.osexp","C:/Users/jessw","no","Andale Mono","no","18","no","white","no","yes","576","legacy","69","69","3","C:/Users/jessw/subject-5206553.csv","legacy","Lentiform Loewenfeld","3.3.7","yes","yes","600bd7cfb6416f0113b04181","602110864497cf011d9c0822","0","F","NA","space","","H","B","F","632","NA","3977","17849","11020","6576","632","2","legacy","1024","2","48000","-16","task","5206553","odd","NA","54807","60788","56810","208707","10219","45142","34121","209210","164880","208702","209211","208484","60788","209846","53133","207984","10204","193972","Lexical Decision Task","69","56559","74","yes","1024"
"3.010582609","0","2","drod","non-word","93.33333333333333","93.33333333333333","762.3866666666667","762.3866666666667","black","no","legacy","legacy","legacy","0","uniform","1","undefined","undefined","undefined","1","f","0","0","0","0","74","0","0","0","74","0","70","74","70","0","70","3","74","0","74","Wed Feb 17 11:34:48 2021","The main experiment item","yes","Lexical_Decision_Task.osexp","C:/Users/jessw","no","Andale Mono","no","18","no","white","no","yes","576","legacy","70","70","3","C:/Users/jessw/subject-5206553.csv","legacy","Lentiform Loewenfeld","3.3.7","yes","yes","600bd7cfb6416f0113b04181","602110864497cf011d9c0822","0","F","NA","space","","H","B","F","620","NA","3977","17849","11020","6576","620","2","legacy","1024","2","48000","-16","task","5206553","odd","NA","54807","60788","56810","210617","10219","45142","34121","211120","164880","210612","211121","210419","60788","211743","53133","209919","10204","193972","Lexical Decision Task","70","57179","75","yes","1024"
"3.488597715","0","9","nain","non-word","93.42105263157895","93.42105263157895","761.1315789473684","761.1315789473684","black","no","legacy","legacy","legacy","0","uniform","1","undefined","undefined","undefined","1","f","0","0","0","0","75","0","0","0","75","0","71","75","71","0","71","3","75","0","75","Wed Feb 17 11:34:48 2021","The main experiment item","yes","Lexical_Decision_Task.osexp","C:/Users/jessw","no","Andale Mono","no","18","no","white","no","yes","576","legacy","71","71","3","C:/Users/jessw/subject-5206553.csv","legacy","Lentiform Loewenfeld","3.3.7","yes","yes","600bd7cfb6416f0113b04181","602110864497cf011d9c0822","0","F","NA","space","","H","B","F","667","NA","3977","17849","11020","6576","667","2","legacy","1024","2","48000","-16","task","5206553","odd","NA","54807","60788","56810","212469","10219","45142","34121","212972","164880","212466","212973","212317","60788","213644","53133","211817","10204","193972","Lexical Decision Task","71","57846","76","yes","1024"
"2.979548375","8.71","4","soup","word","93.50649350649351","93.50649350649351","756.8701298701299","756.8701298701299","black","no","legacy","legacy","legacy","0","uniform","1","undefined","undefined","undefined","1","j","0","0","0","0","76","0","0","0","76","0","72","76","72","0","72","3","76","0","76","Wed Feb 17 11:34:48 2021","The main experiment item","yes","Lexical_Decision_Task.osexp","C:/Users/jessw","no","Andale Mono","no","18","no","white","no","yes","576","legacy","72","72","3","C:/Users/jessw/subject-5206553.csv","legacy","Lentiform Loewenfeld","3.3.7","yes","yes","600bd7cfb6416f0113b04181","602110864497cf011d9c0822","0","J","NA","space","","H","B","J","433","NA","3977","17849","11020","6576","433","2","legacy","1024","2","48000","-16","task","5206553","odd","NA","54807","60788","56810","214346","10219","45142","34121","214849","164880","214344","214849","214219","60788","215284","53133","213719","10204","193972","Lexical Decision Task","72","58279","77","yes","1024"
"2.990042563","6.64","9","plow","word","93.58974358974359","93.58974358974359","755.525641025641","755.525641025641","black","no","legacy","legacy","legacy","0","uniform","1","undefined","undefined","undefined","1","j","0","0","0","0","77","0","0","0","77","0","73","77","73","0","73","3","77","0","77","Wed Feb 17 11:34:48 2021","The main experiment item","yes","Lexical_Decision_Task.osexp","C:/Users/jessw","no","Andale Mono","no","18","no","white","no","yes","576","legacy","73","73","3","C:/Users/jessw/subject-5206553.csv","legacy","Lentiform Loewenfeld","3.3.7","yes","yes","600bd7cfb6416f0113b04181","602110864497cf011d9c0822","0","J","NA","space","","H","B","J","652","NA","3977","17849","11020","6576","652","2","legacy","1024","2","48000","-16","task","5206553","odd","NA","54807","60788","56810","216055","10219","45142","34121","216559","164880","216049","216559","215858","60788","217212","53133","215358","10204","193972","Lexical Decision Task","73","58931","78","yes","1024"
"2.695481676","0","7","goke","non-word","93.67088607594937","93.67088607594937","754.8860759493671","754.8860759493671","black","no","legacy","legacy","legacy","0","uniform","1","undefined","undefined","undefined","1","f","0","0","0","0","78","0","0","0","78","0","74","78","74","0","74","3","78","0","78","Wed Feb 17 11:34:48 2021","The main experiment item","yes","Lexical_Decision_Task.osexp","C:/Users/jessw","no","Andale Mono","no","18","no","white","no","yes","576","legacy","74","74","3","C:/Users/jessw/subject-5206553.csv","legacy","Lentiform Loewenfeld","3.3.7","yes","yes","600bd7cfb6416f0113b04181","602110864497cf011d9c0822","0","F","NA","space","","H","B","F","705","NA","3977","17849","11020","6576","705","2","legacy","1024","2","48000","-16","task","5206553","odd","NA","54807","60788","56810","217968","10219","45142","34121","218471","164880","217964","218472","217787","60788","219179","53133","217287","10204","193972","Lexical Decision Task","74","59636","79","yes","1024"
"3.20871002","7.15","8","cram","word","93.75","93.75","753.975","753.975","black","no","legacy","legacy","legacy","0","uniform","1","undefined","undefined","undefined","1","j","0","0","0","0","79","0","0","0","79","0","75","79","75","0","75","3","79","0","79","Wed Feb 17 11:34:48 2021","The main experiment item","yes","Lexical_Decision_Task.osexp","C:/Users/jessw","no","Andale Mono","no","18","no","white","no","yes","576","legacy","75","75","3","C:/Users/jessw/subject-5206553.csv","legacy","Lentiform Loewenfeld","3.3.7","yes","yes","600bd7cfb6416f0113b04181","602110864497cf011d9c0822","0","J","NA","space","","H","B","J","682","NA","3977","17849","11020","6576","682","2","legacy","1024","2","48000","-16","task","5206553","odd","NA","54807","60788","56810","219926","10219","45142","34121","220430","164880","219922","220430","219752","60788","221115","53133","219252","10204","193972","Lexical Decision Task","75","60318","80","yes","1024"
"3.091901331","0","9","nipe","non-word","93.82716049382717","93.82716049382717","757.8024691358024","757.8024691358024","black","no","legacy","legacy","legacy","0","uniform","1","undefined","undefined","undefined","1","f","0","0","0","0","80","0","0","0","80","0","76","80","76","0","76","3","80","0","80","Wed Feb 17 11:34:48 2021","The main experiment item","yes","Lexical_Decision_Task.osexp","C:/Users/jessw","no","Andale Mono","no","18","no","white","no","yes","576","legacy","76","76","3","C:/Users/jessw/subject-5206553.csv","legacy","Lentiform Loewenfeld","3.3.7","yes","yes","600bd7cfb6416f0113b04181","602110864497cf011d9c0822","0","F","NA","space","","H","B","F","1064","NA","3977","17849","11020","6576","1064","2","legacy","1024","2","48000","-16","task","5206553","odd","NA","54807","60788","56810","221800","10219","45142","34121","222303","164880","221796","222304","221623","60788","223370","53133","221123","10204","193972","Lexical Decision Task","76","61382","81","yes","1024"
"2.64476673","0","5","moft","non-word","93.90243902439025","93.90243902439025","756.9756097560976","756.9756097560976","black","no","legacy","legacy","legacy","0","uniform","1","undefined","undefined","undefined","1","f","0","0","0","0","81","0","0","0","81","0","77","81","77","0","77","3","81","0","81","Wed Feb 17 11:34:48 2021","The main experiment item","yes","Lexical_Decision_Task.osexp","C:/Users/jessw","no","Andale Mono","no","18","no","white","no","yes","576","legacy","77","77","3","C:/Users/jessw/subject-5206553.csv","legacy","Lentiform Loewenfeld","3.3.7","yes","yes","600bd7cfb6416f0113b04181","602110864497cf011d9c0822","0","F","NA","space","","H","B","F","690","NA","3977","17849","11020","6576","690","2","legacy","1024","2","48000","-16","task","5206553","odd","NA","54807","60788","56810","224121","10219","45142","34121","224624","164880","224117","224625","223943","60788","225318","53133","223443","10204","193972","Lexical Decision Task","77","62072","82","yes","1024"
"3.481012421","8.34","5","teen","word","93.97590361445783","93.97590361445783","756.0481927710844","756.0481927710844","black","no","legacy","legacy","legacy","0","uniform","1","undefined","undefined","undefined","1","j","0","0","0","0","82","0","0","0","82","0","78","82","78","0","78","3","82","0","82","Wed Feb 17 11:34:48 2021","The main experiment item","yes","Lexical_Decision_Task.osexp","C:/Users/jessw","no","Andale Mono","no","18","no","white","no","yes","576","legacy","78","78","3","C:/Users/jessw/subject-5206553.csv","legacy","Lentiform Loewenfeld","3.3.7","yes","yes","600bd7cfb6416f0113b04181","602110864497cf011d9c0822","0","J","NA","space","","H","B","J","680","NA","3977","17849","11020","6576","680","2","legacy","1024","2","48000","-16","task","5206553","odd","NA","54807","60788","56810","226079","10219","45142","34121","226584","164880","226074","226584","225891","60788","227267","53133","225391","10204","193972","Lexical Decision Task","78","62752","83","yes","1024"
"3.29439347","8.6","9","wand","word","94.04761904761905","94.04761904761905","754.3333333333334","754.3333333333334","black","no","legacy","legacy","legacy","0","uniform","1","undefined","undefined","undefined","1","j","0","0","0","0","83","0","0","0","83","0","79","83","79","0","79","3","83","0","83","Wed Feb 17 11:34:48 2021","The main experiment item","yes","Lexical_Decision_Task.osexp","C:/Users/jessw","no","Andale Mono","no","18","no","white","no","yes","576","legacy","79","79","3","C:/Users/jessw/subject-5206553.csv","legacy","Lentiform Loewenfeld","3.3.7","yes","yes","600bd7cfb6416f0113b04181","602110864497cf011d9c0822","0","J","NA","space","","H","B","J","612","NA","3977","17849","11020","6576","612","2","legacy","1024","2","48000","-16","task","5206553","odd","NA","54807","60788","56810","228007","10219","45142","34121","228511","164880","228005","228511","227840","60788","229125","53133","227340","10204","193972","Lexical Decision Task","79","63364","84","yes","1024"
"2.839268497","0","8","maft","non-word","94.11764705882354","94.11764705882354","752.2235294117647","752.2235294117647","black","no","legacy","legacy","legacy","0","uniform","1","undefined","undefined","undefined","1","f","0","0","0","0","84","0","0","0","84","0","80","84","80","0","80","3","84","0","84","Wed Feb 17 11:34:48 2021","The main experiment item","yes","Lexical_Decision_Task.osexp","C:/Users/jessw","no","Andale Mono","no","18","no","white","no","yes","576","legacy","80","80","3","C:/Users/jessw/subject-5206553.csv","legacy","Lentiform Loewenfeld","3.3.7","yes","yes","600bd7cfb6416f0113b04181","602110864497cf011d9c0822","0","F","NA","space","","H","B","F","575","NA","3977","17849","11020","6576","575","2","legacy","1024","2","48000","-16","task","5206553","odd","NA","54807","60788","56810","229865","10219","45142","34121","230368","164880","229862","230368","229699","60788","230947","53133","229199","10204","193972","Lexical Decision Task","80","63939","85","yes","1024"
"3.195807436","0","6","stup","non-word","94.18604651162791","94.18604651162791","751.453488372093","751.453488372093","black","no","legacy","legacy","legacy","0","uniform","1","undefined","undefined","undefined","1","f","0","0","0","0","85","0","0","0","85","0","81","85","81","0","81","3","85","0","85","Wed Feb 17 11:34:48 2021","The main experiment item","yes","Lexical_Decision_Task.osexp","C:/Users/jessw","no","Andale Mono","no","18","no","white","no","yes","576","legacy","81","81","3","C:/Users/jessw/subject-5206553.csv","legacy","Lentiform Loewenfeld","3.3.7","yes","yes","600bd7cfb6416f0113b04181","602110864497cf011d9c0822","0","F","NA","space","","H","B","F","686","NA","3977","17849","11020","6576","686","2","legacy","1024","2","48000","-16","task","5206553","odd","NA","54807","60788","56810","231701","10219","45142","34121","232204","164880","231696","232205","231507","60788","232893","53133","231007","10204","193972","Lexical Decision Task","81","64625","86","yes","1024"
"3.225825991","0","7","talm","non-word","94.25287356321839","94.25287356321839","749.9540229885057","749.9540229885057","black","no","legacy","legacy","legacy","0","uniform","1","undefined","undefined","undefined","1","f","0","0","0","0","86","0","0","0","86","0","82","86","82","0","82","3","86","0","86","Wed Feb 17 11:34:48 2021","The main experiment item","yes","Lexical_Decision_Task.osexp","C:/Users/jessw","no","Andale Mono","no","18","no","white","no","yes","576","legacy","82","82","3","C:/Users/jessw/subject-5206553.csv","legacy","Lentiform Loewenfeld","3.3.7","yes","yes","600bd7cfb6416f0113b04181","602110864497cf011d9c0822","0","F","NA","space","","H","B","F","621","NA","3977","17849","11020","6576","621","2","legacy","1024","2","48000","-16","task","5206553","odd","NA","54807","60788","56810","233603","10219","45142","34121","234106","164880","233601","234106","233467","60788","234729","53133","232967","10204","193972","Lexical Decision Task","82","65246","87","yes","1024"
"2.668385917","5.48","4","twig","word","93.18181818181819","93.18181818181819","748.7159090909091","748.7159090909091","black","no","legacy","legacy","legacy","0","uniform","0","undefined","undefined","undefined","0","j","0","0","0","0","87","0","0","0","87","0","83","87","83","0","83","3","87","0","87","Wed Feb 17 11:34:48 2021","The main experiment item","yes","Lexical_Decision_Task.osexp","C:/Users/jessw","no","Andale Mono","no","18","no","white","no","yes","576","legacy","83","83","3","C:/Users/jessw/subject-5206553.csv","legacy","Lentiform Loewenfeld","3.3.7","yes","yes","600bd7cfb6416f0113b04181","602110864497cf011d9c0822","0","F","NA","space","","H","B","F","641","NA","3977","17849","11020","6576","641","2","legacy","1024","2","48000","-16","task","5206553","odd","NA","54807","60788","56810","235465","10219","45142","34121","235968","164880","235461","235970","235303","60788","236613","53133","234803","10204","193972","Lexical Decision Task","82","65887","88","yes","1024"
"3.049218023","7.4","9","robe","word","93.25842696629213","93.25842696629213","747.2359550561798","747.2359550561798","black","no","legacy","legacy","legacy","0","uniform","1","undefined","undefined","undefined","1","j","0","0","0","0","88","0","0","0","88","0","84","88","84","0","84","3","88","0","88","Wed Feb 17 11:34:48 2021","The main experiment item","yes","Lexical_Decision_Task.osexp","C:/Users/jessw","no","Andale Mono","no","18","no","white","no","yes","576","legacy","84","84","3","C:/Users/jessw/subject-5206553.csv","legacy","Lentiform Loewenfeld","3.3.7","yes","yes","600bd7cfb6416f0113b04181","602110864497cf011d9c0822","0","J","NA","space","","H","B","J","617","NA","3977","17849","11020","6576","617","2","legacy","1024","2","48000","-16","task","5206553","odd","NA","54807","60788","56810","238386","10219","45142","34121","238889","164880","238380","238890","238186","60788","239509","53133","234803","10204","236686","Lexical Decision Task","83","66504","89","yes","1024"
"3.028977705","0","7","frow","non-word","93.33333333333333","93.33333333333333","751.6666666666666","751.6666666666666","black","no","legacy","legacy","legacy","0","uniform","1","undefined","undefined","undefined","1","f","0","0","0","0","89","0","0","0","89","0","85","89","85","0","85","3","89","0","89","Wed Feb 17 11:34:48 2021","The main experiment item","yes","Lexical_Decision_Task.osexp","C:/Users/jessw","no","Andale Mono","no","18","no","white","no","yes","576","legacy","85","85","3","C:/Users/jessw/subject-5206553.csv","legacy","Lentiform Loewenfeld","3.3.7","yes","yes","600bd7cfb6416f0113b04181","602110864497cf011d9c0822","0","F","NA","space","","H","B","F","1146","NA","3977","17849","11020","6576","1146","2","legacy","1024","2","48000","-16","task","5206553","odd","NA","54807","60788","56810","240262","10219","45142","34121","240766","164880","240259","240766","240082","60788","241913","53133","239581","10204","236686","Lexical Decision Task","84","67650","90","yes","1024"
"3.039414119","0","9","meep","non-word","93.4065934065934","93.4065934065934","750.978021978022","750.978021978022","black","no","legacy","legacy","legacy","0","uniform","1","undefined","undefined","undefined","1","f","0","0","0","0","90","0","0","0","90","0","86","90","86","0","86","3","90","0","90","Wed Feb 17 11:34:48 2021","The main experiment item","yes","Lexical_Decision_Task.osexp","C:/Users/jessw","no","Andale Mono","no","18","no","white","no","yes","576","legacy","86","86","3","C:/Users/jessw/subject-5206553.csv","legacy","Lentiform Loewenfeld","3.3.7","yes","yes","600bd7cfb6416f0113b04181","602110864497cf011d9c0822","0","F","NA","space","","H","B","F","689","NA","3977","17849","11020","6576","689","2","legacy","1024","2","48000","-16","task","5206553","odd","NA","54807","60788","56810","242676","10219","45142","34121","243179","164880","242672","243179","242487","60788","243871","53133","241987","10204","236686","Lexical Decision Task","85","68339","91","yes","1024"
"3.209246849","0","7","slem","non-word","93.47826086956522","93.47826086956522","749.3369565217391","749.3369565217391","black","no","legacy","legacy","legacy","0","uniform","1","undefined","undefined","undefined","1","f","0","0","0","0","91","0","0","0","91","0","87","91","87","0","87","3","91","0","91","Wed Feb 17 11:34:48 2021","The main experiment item","yes","Lexical_Decision_Task.osexp","C:/Users/jessw","no","Andale Mono","no","18","no","white","no","yes","576","legacy","87","87","3","C:/Users/jessw/subject-5206553.csv","legacy","Lentiform Loewenfeld","3.3.7","yes","yes","600bd7cfb6416f0113b04181","602110864497cf011d9c0822","0","F","NA","space","","H","B","F","600","NA","3977","17849","11020","6576","600","2","legacy","1024","2","48000","-16","task","5206553","odd","NA","54807","60788","56810","244628","10219","45142","34121","245131","164880","244625","245132","244446","60788","245734","53133","243946","10204","236686","Lexical Decision Task","86","68939","92","yes","1024"
"2.814027728","8.2","4","foam","word","93.54838709677419","93.54838709677419","747.7096774193549","747.7096774193549","black","no","legacy","legacy","legacy","0","uniform","1","undefined","undefined","undefined","1","j","0","0","0","0","92","0","0","0","92","0","88","92","88","0","88","3","92","0","92","Wed Feb 17 11:34:48 2021","The main experiment item","yes","Lexical_Decision_Task.osexp","C:/Users/jessw","no","Andale Mono","no","18","no","white","no","yes","576","legacy","88","88","3","C:/Users/jessw/subject-5206553.csv","legacy","Lentiform Loewenfeld","3.3.7","yes","yes","600bd7cfb6416f0113b04181","602110864497cf011d9c0822","0","J","NA","space","","H","B","J","598","NA","3977","17849","11020","6576","598","2","legacy","1024","2","48000","-16","task","5206553","odd","NA","54807","60788","56810","246427","10219","45142","34121","246932","164880","246423","246932","246241","60788","247533","53133","245741","10204","236686","Lexical Decision Task","87","69537","93","yes","1024"
"2.920123326","7.43","4","duel","word","93.61702127659575","93.61702127659575","747.5957446808511","747.5957446808511","black","no","legacy","legacy","legacy","0","uniform","1","undefined","undefined","undefined","1","j","0","0","0","0","93","0","0","0","93","0","89","93","89","0","89","3","93","0","93","Wed Feb 17 11:34:48 2021","The main experiment item","yes","Lexical_Decision_Task.osexp","C:/Users/jessw","no","Andale Mono","no","18","no","white","no","yes","576","legacy","89","89","3","C:/Users/jessw/subject-5206553.csv","legacy","Lentiform Loewenfeld","3.3.7","yes","yes","600bd7cfb6416f0113b04181","602110864497cf011d9c0822","0","J","NA","space","","H","B","J","737","NA","3977","17849","11020","6576","737","2","legacy","1024","2","48000","-16","task","5206553","odd","NA","54807","60788","56810","248272","10219","45142","34121","248776","164880","248270","248776","248109","60788","249514","53133","247609","10204","236686","Lexical Decision Task","88","70274","94","yes","1024"
"3.197740804","6.74","3","ache","word","93.6842105263158","93.6842105263158","745.1578947368421","745.1578947368421","black","no","legacy","legacy","legacy","0","uniform","1","undefined","undefined","undefined","1","j","0","0","0","0","94","0","0","0","94","0","90","94","90","0","90","3","94","0","94","Wed Feb 17 11:34:48 2021","The main experiment item","yes","Lexical_Decision_Task.osexp","C:/Users/jessw","no","Andale Mono","no","18","no","white","no","yes","576","legacy","90","90","3","C:/Users/jessw/subject-5206553.csv","legacy","Lentiform Loewenfeld","3.3.7","yes","yes","600bd7cfb6416f0113b04181","602110864497cf011d9c0822","0","J","NA","space","","H","B","J","516","NA","3977","17849","11020","6576","516","2","legacy","1024","2","48000","-16","task","5206553","odd","NA","54807","60788","56810","250229","10219","45142","34121","250732","164880","250226","250733","250088","60788","251250","53133","249588","10204","236686","Lexical Decision Task","89","70790","95","yes","1024"
"2.664011697","8.19","4","hawk","word","93.75","93.75","743.3229166666666","743.3229166666666","black","no","legacy","legacy","legacy","0","uniform","1","undefined","undefined","undefined","1","j","0","0","0","0","95","0","0","0","95","0","91","95","91","0","91","3","95","0","95","Wed Feb 17 11:34:48 2021","The main experiment item","yes","Lexical_Decision_Task.osexp","C:/Users/jessw","no","Andale Mono","no","18","no","white","no","yes","576","legacy","91","91","3","C:/Users/jessw/subject-5206553.csv","legacy","Lentiform Loewenfeld","3.3.7","yes","yes","600bd7cfb6416f0113b04181","602110864497cf011d9c0822","0","J","NA","space","","H","B","J","569","NA","3977","17849","11020","6576","569","2","legacy","1024","2","48000","-16","task","5206553","odd","NA","54807","60788","56810","252026","10219","45142","34121","252530","164880","252021","252530","251825","60788","253101","53133","251324","10204","236686","Lexical Decision Task","90","71359","96","yes","1024"
"2.69019608","9.01","2","myth","word","93.81443298969072","93.81443298969072","742.2886597938144","742.2886597938144","black","no","legacy","legacy","legacy","0","uniform","1","undefined","undefined","undefined","1","j","0","0","0","0","96","0","0","0","96","0","92","96","92","0","92","3","96","0","96","Wed Feb 17 11:34:48 2021","The main experiment item","yes","Lexical_Decision_Task.osexp","C:/Users/jessw","no","Andale Mono","no","18","no","white","no","yes","576","legacy","92","92","3","C:/Users/jessw/subject-5206553.csv","legacy","Lentiform Loewenfeld","3.3.7","yes","yes","600bd7cfb6416f0113b04181","602110864497cf011d9c0822","0","J","NA","space","","H","B","J","643","NA","3977","17849","11020","6576","643","2","legacy","1024","2","48000","-16","task","5206553","odd","NA","54807","60788","56810","253866","10219","45142","34121","254369","164880","253863","254370","253675","60788","255014","53133","253175","10204","236686","Lexical Decision Task","91","72002","97","yes","1024"
"2.895974732","6.65","5","sift","word","92.85714285714286","92.85714285714286","744.6632653061224","744.6632653061224","black","no","legacy","legacy","legacy","0","uniform","0","undefined","undefined","undefined","0","j","0","0","0","0","97","0","0","0","97","0","93","97","93","0","93","3","97","0","97","Wed Feb 17 11:34:48 2021","The main experiment item","yes","Lexical_Decision_Task.osexp","C:/Users/jessw","no","Andale Mono","no","18","no","white","no","yes","576","legacy","93","93","3","C:/Users/jessw/subject-5206553.csv","legacy","Lentiform Loewenfeld","3.3.7","yes","yes","600bd7cfb6416f0113b04181","602110864497cf011d9c0822","0","F","NA","space","","H","B","F","975","NA","3977","17849","11020","6576","975","2","legacy","1024","2","48000","-16","task","5206553","odd","NA","54807","60788","56810","255786","10219","45142","34121","256289","164880","255783","256289","255600","60788","257267","53133","255100","10204","236686","Lexical Decision Task","91","72977","98","yes","1024"
"3.495914186","0","4","peng","non-word","91.91919191919192","91.91919191919192","743.8787878787879","743.8787878787879","black","no","legacy","legacy","legacy","0","uniform","0","undefined","undefined","undefined","0","f","0","0","0","0","98","0","0","0","98","0","94","98","94","0","94","3","98","0","98","Wed Feb 17 11:34:48 2021","The main experiment item","yes","Lexical_Decision_Task.osexp","C:/Users/jessw","no","Andale Mono","no","18","no","white","no","yes","576","legacy","94","94","3","C:/Users/jessw/subject-5206553.csv","legacy","Lentiform Loewenfeld","3.3.7","yes","yes","600bd7cfb6416f0113b04181","602110864497cf011d9c0822","0","J","NA","space","","H","B","J","667","NA","3977","17849","11020","6576","667","2","legacy","1024","2","48000","-16","task","5206553","odd","NA","54807","60788","56810","259022","10219","45142","34121","259525","164880","259018","259526","258842","60788","260195","53133","255100","10204","257341","Lexical Decision Task","91","73644","99","yes","1024"
"2.75025376","10.2","6","jump","word","92","92","744.49","744.49","black","no","legacy","legacy","legacy","0","uniform","1","undefined","undefined","undefined","1","j","0","0","0","0","99","0","0","0","99","0","95","99","95","0","95","3","99","0","99","Wed Feb 17 11:34:48 2021","The main experiment item","yes","Lexical_Decision_Task.osexp","C:/Users/jessw","no","Andale Mono","no","18","no","white","no","yes","576","legacy","95","95","3","C:/Users/jessw/subject-5206553.csv","legacy","Lentiform Loewenfeld","3.3.7","yes","yes","600bd7cfb6416f0113b04181","602110864497cf011d9c0822","0","J","NA","space","","H","B","J","805","NA","3977","17849","11020","6576","805","2","legacy","1024","2","48000","-16","task","5206553","odd","NA","54807","60788","56810","261958","10219","45142","34121","262461","164880","261953","262462","261769","60788","263270","53133","255100","10204","260269","Lexical Decision Task","92","74449","100","yes","1024"
"2.80048796","0","8","pife","non-word","92.07920792079207","92.07920792079207","745.2871287128713","745.2871287128713","black","no","legacy","legacy","legacy","0","uniform","1","undefined","undefined","undefined","1","f","0","0","0","0","100","0","0","0","100","0","96","100","96","0","96","3","100","0","100","Wed Feb 17 11:34:48 2021","The main experiment item","yes","Lexical_Decision_Task.osexp","C:/Users/jessw","no","Andale Mono","no","18","no","white","no","yes","576","legacy","96","96","3","C:/Users/jessw/subject-5206553.csv","legacy","Lentiform Loewenfeld","3.3.7","yes","yes","600bd7cfb6416f0113b04181","602110864497cf011d9c0822","0","F","NA","space","","H","B","F","825","NA","3977","17849","11020","6576","825","2","legacy","1024","2","48000","-16","task","5206553","odd","NA","54807","60788","56810","264034","10219","45142","34121","264539","164880","264029","264539","263844","60788","265366","53133","263344","10204","260269","Lexical Decision Task","93","75274","101","yes","1024"
"2.778633532","0","3","jurp","non-word","92.15686274509804","92.15686274509804","745.2156862745098","745.2156862745098","black","no","legacy","legacy","legacy","0","uniform","1","undefined","undefined","undefined","1","f","0","0","0","0","101","0","0","0","101","0","97","101","97","0","97","3","101","0","101","Wed Feb 17 11:34:48 2021","The main experiment item","yes","Lexical_Decision_Task.osexp","C:/Users/jessw","no","Andale Mono","no","18","no","white","no","yes","576","legacy","97","97","3","C:/Users/jessw/subject-5206553.csv","legacy","Lentiform Loewenfeld","3.3.7","yes","yes","600bd7cfb6416f0113b04181","602110864497cf011d9c0822","0","F","NA","space","","H","B","F","738","NA","3977","17849","11020","6576","738","2","legacy","1024","2","48000","-16","task","5206553","odd","NA","54807","60788","56810","266076","10219","45142","34121","266580","164880","266073","266580","265943","60788","267320","53133","265442","10204","260269","Lexical Decision Task","94","76012","102","yes","1024"
"2.983324025","9.56","2","debt","word","92.23300970873787","92.23300970873787","743.1941747572815","743.1941747572815","black","no","legacy","legacy","legacy","0","uniform","1","undefined","undefined","undefined","1","j","0","0","0","0","102","0","0","0","102","0","98","102","98","0","98","3","102","0","102","Wed Feb 17 11:34:48 2021","The main experiment item","yes","Lexical_Decision_Task.osexp","C:/Users/jessw","no","Andale Mono","no","18","no","white","no","yes","576","legacy","98","98","3","C:/Users/jessw/subject-5206553.csv","legacy","Lentiform Loewenfeld","3.3.7","yes","yes","600bd7cfb6416f0113b04181","602110864497cf011d9c0822","0","J","NA","space","","H","B","J","537","NA","3977","17849","11020","6576","537","2","legacy","1024","2","48000","-16","task","5206553","odd","NA","54807","60788","56810","268024","10219","45142","34121","268527","164880","268022","268528","267894","60788","269068","53133","267394","10204","260269","Lexical Decision Task","95","76549","103","yes","1024"
