"Log_BG","Log_Freq_HAL","Ortho_N","Stimulus","Type","acc","accuracy","average_response_time","avg_rt","background","bidi","canvas_backend","clock_backend","color_backend","compensation","coordinates","correct","correct_Experimental_intro","correct_Introduction","correct_Practice_intro","correct_experimenter_kb","correct_response","count_End_Of_Experiment","count_End_Of_Practice","count_Experimental_Loop","count_Experimental_intro","count_Fixation","count_Introduction","count_Practice_Loop","count_Practice_intro","count_Stimulus","count_block_break_feedback","count_experimental_sequence","count_experimenter_kb","count_increment_trial_count","count_init_trial_count","count_logger","count_practice_sequence","count_right","count_task","count_wrong","datetime","description","disable_garbage_collection","experiment_file","experiment_path","font_bold","font_family","font_italic","font_size","font_underline","foreground","form_clicks","fullscreen","height","keyboard_backend","live_row","live_row_Experimental_Loop","live_row_Practice_Loop","logfile","mouse_backend","opensesame_codename","opensesame_version","osf_always_upload_data","osf_always_upload_experiment","osf_datanode_id","osf_id","repeat_cycle","response","response_End_Of_Experiment","response_Experimental_intro","response_Introduction","response_Practice_intro","response_block_break_feedback","response_experimenter_kb","response_time","response_time_End_Of_Experiment","response_time_Experimental_intro","response_time_Introduction","response_time_Practice_intro","response_time_block_break_feedback","response_time_experimenter_kb","round_decimals","sampler_backend","sound_buf_size","sound_channels","sound_freq","sound_sample_size","start","subject_nr","subject_parity","time_End_Of_Experiment","time_End_Of_Practice","time_Experimental_Loop","time_Experimental_intro","time_Fixation","time_Introduction","time_Practice_Loop","time_Practice_intro","time_Stimulus","time_block_break_feedback","time_experimental_sequence","time_experimenter_kb","time_increment_trial_count","time_init_trial_count","time_logger","time_practice_sequence","time_right","time_task","time_wrong","title","total_correct","total_response_time","total_responses","uniform_coordinates","width"
"2.576725172","0","8","gowl","non-word","100","100","1476.4","1476.4","black","no","legacy","legacy","legacy","0","uniform","1","undefined","undefined","undefined","1","f","0","0","0","0","4","0","0","0","4","NA","0","4","0","0","0","3","4","0","4","Thu Feb 18 13:16:08 2021","The main experiment item","yes","Lexical_Decision_Task.osexp","D:/COGNITION AND LANGUAGE semester 2","no","Andale Mono","no","18","no","white","no","yes","576","legacy","0","0","3","D:/COGNITION AND LANGUAGE semester 2/subject-5215926.csv","legacy","Lentiform Loewenfeld","3.3.7","yes","yes","600bd7cfb6416f0113b04181","602110864497cf011d9c0822","0","f","NA","return","right","right","NA","f","2072","NA","2697","22134","6428","NA","2072","2","legacy","1024","2","48000","-16","task","5215926","even","NA","40707","45408","42710","45444","2547","31112","24683","45946","NA","45443","45947","NA","45408","48019","39046","40181","2541","NA","Lexical Decision Task","5","7382","5","yes","1024"
"3.299579929","0","2","flis","non-word","100","100","1345.6666666666667","1345.6666666666667","black","no","legacy","legacy","legacy","0","uniform","1","undefined","undefined","undefined","1","f","0","0","0","0","5","0","0","0","5","NA","1","5","1","0","1","3","5","0","5","Thu Feb 18 13:16:08 2021","The main experiment item","yes","Lexical_Decision_Task.osexp","D:/COGNITION AND LANGUAGE semester 2","no","Andale Mono","no","18","no","white","no","yes","576","legacy","1","1","3","D:/COGNITION AND LANGUAGE semester 2/subject-5215926.csv","legacy","Lentiform Loewenfeld","3.3.7","yes","yes","600bd7cfb6416f0113b04181","602110864497cf011d9c0822","0","f","NA","return","right","right","NA","f","692","NA","2697","22134","6428","NA","692","2","legacy","1024","2","48000","-16","task","5215926","even","NA","40707","45408","42710","50169","2547","31112","24683","50670","NA","50168","50670","50087","45408","51363","39046","49587","2541","NA","Lexical Decision Task","6","8074","6","yes","1024"
"2.812467698","0","7","hafe","non-word","100","100","1277.5714285714287","1277.5714285714287","black","no","legacy","legacy","legacy","0","uniform","1","undefined","undefined","undefined","1","f","0","0","0","0","6","0","0","0","6","NA","2","6","2","0","2","3","6","0","6","Thu Feb 18 13:16:08 2021","The main experiment item","yes","Lexical_Decision_Task.osexp","D:/COGNITION AND LANGUAGE semester 2","no","Andale Mono","no","18","no","white","no","yes","576","legacy","2","2","3","D:/COGNITION AND LANGUAGE semester 2/subject-5215926.csv","legacy","Lentiform Loewenfeld","3.3.7","yes","yes","600bd7cfb6416f0113b04181","602110864497cf011d9c0822","0","f","NA","return","right","right","NA","f","869","NA","2697","22134","6428","NA","869","2","legacy","1024","2","48000","-16","task","5215926","even","NA","40707","45408","42710","51936","2547","31112","24683","52439","NA","51935","52439","51877","45408","53308","39046","51377","2541","NA","Lexical Decision Task","7","8943","7","yes","1024"
"2.696356389","0","1","pizz","non-word","100","100","1226","1226","black","no","legacy","legacy","legacy","0","uniform","1","undefined","undefined","undefined","1","f","0","0","0","0","7","0","0","0","7","NA","3","7","3","0","3","3","7","0","7","Thu Feb 18 13:16:08 2021","The main experiment item","yes","Lexical_Decision_Task.osexp","D:/COGNITION AND LANGUAGE semester 2","no","Andale Mono","no","18","no","white","no","yes","576","legacy","3","3","3","D:/COGNITION AND LANGUAGE semester 2/subject-5215926.csv","legacy","Lentiform Loewenfeld","3.3.7","yes","yes","600bd7cfb6416f0113b04181","602110864497cf011d9c0822","0","f","NA","return","right","right","NA","f","865","NA","2697","22134","6428","NA","865","2","legacy","1024","2","48000","-16","task","5215926","even","NA","40707","45408","42710","53874","2547","31112","24683","54378","NA","53873","54378","53821","45408","55244","39046","53321","2541","NA","Lexical Decision Task","8","9808","8","yes","1024"
"2.972357144","0","5","dasp","non-word","100","100","1200","1200","black","no","legacy","legacy","legacy","0","uniform","1","undefined","undefined","undefined","1","f","0","0","0","0","8","0","0","0","8","NA","4","8","4","0","4","3","8","0","8","Thu Feb 18 13:16:08 2021","The main experiment item","yes","Lexical_Decision_Task.osexp","D:/COGNITION AND LANGUAGE semester 2","no","Andale Mono","no","18","no","white","no","yes","576","legacy","4","4","3","D:/COGNITION AND LANGUAGE semester 2/subject-5215926.csv","legacy","Lentiform Loewenfeld","3.3.7","yes","yes","600bd7cfb6416f0113b04181","602110864497cf011d9c0822","0","f","NA","return","right","right","NA","f","992","NA","2697","22134","6428","NA","992","2","legacy","1024","2","48000","-16","task","5215926","even","NA","40707","45408","42710","55818","2547","31112","24683","56321","NA","55817","56321","55758","45408","57314","39046","55258","2541","NA","Lexical Decision Task","9","10800","9","yes","1024"
"3.153104174","10.89","6","door","word","100","100","1137.2","1137.2","black","no","legacy","legacy","legacy","0","uniform","1","undefined","undefined","undefined","1","j","0","0","0","0","9","0","0","0","9","NA","5","9","5","0","5","3","9","0","9","Thu Feb 18 13:16:08 2021","The main experiment item","yes","Lexical_Decision_Task.osexp","D:/COGNITION AND LANGUAGE semester 2","no","Andale Mono","no","18","no","white","no","yes","576","legacy","5","5","3","D:/COGNITION AND LANGUAGE semester 2/subject-5215926.csv","legacy","Lentiform Loewenfeld","3.3.7","yes","yes","600bd7cfb6416f0113b04181","602110864497cf011d9c0822","0","j","NA","return","right","right","NA","j","572","NA","2697","22134","6428","NA","572","2","legacy","1024","2","48000","-16","task","5215926","even","NA","40707","45408","42710","57885","2547","31112","24683","58386","NA","57884","58386","57827","45408","58958","39046","57327","2541","NA","Lexical Decision Task","10","11372","10","yes","1024"
"3.195807436","0","6","stup","non-word","100","100","1131.1818181818182","1131.1818181818182","black","no","legacy","legacy","legacy","0","uniform","1","undefined","undefined","undefined","1","f","0","0","0","0","10","0","0","0","10","NA","6","10","6","0","6","3","10","0","10","Thu Feb 18 13:16:08 2021","The main experiment item","yes","Lexical_Decision_Task.osexp","D:/COGNITION AND LANGUAGE semester 2","no","Andale Mono","no","18","no","white","no","yes","576","legacy","6","6","3","D:/COGNITION AND LANGUAGE semester 2/subject-5215926.csv","legacy","Lentiform Loewenfeld","3.3.7","yes","yes","600bd7cfb6416f0113b04181","602110864497cf011d9c0822","0","f","NA","return","right","right","NA","f","1071","NA","2697","22134","6428","NA","1071","2","legacy","1024","2","48000","-16","task","5215926","even","NA","40707","45408","42710","59534","2547","31112","24683","60035","NA","59532","60036","59473","45408","61107","39046","58973","2541","NA","Lexical Decision Task","11","12443","11","yes","1024"
"3.443783828","7.65","3","verb","word","100","100","1083","1083","black","no","legacy","legacy","legacy","0","uniform","1","undefined","undefined","undefined","1","j","0","0","0","0","11","0","0","0","11","NA","7","11","7","0","7","3","11","0","11","Thu Feb 18 13:16:08 2021","The main experiment item","yes","Lexical_Decision_Task.osexp","D:/COGNITION AND LANGUAGE semester 2","no","Andale Mono","no","18","no","white","no","yes","576","legacy","7","7","3","D:/COGNITION AND LANGUAGE semester 2/subject-5215926.csv","legacy","Lentiform Loewenfeld","3.3.7","yes","yes","600bd7cfb6416f0113b04181","602110864497cf011d9c0822","0","j","NA","return","right","right","NA","j","553","NA","2697","22134","6428","NA","553","2","legacy","1024","2","48000","-16","task","5215926","even","NA","40707","45408","42710","61680","2547","31112","24683","62182","NA","61678","62183","61619","45408","62737","39046","61119","2541","NA","Lexical Decision Task","12","12996","12","yes","1024"
"3.090140555","5.81","8","pout","word","100","100","1053.5384615384614","1053.5384615384614","black","no","legacy","legacy","legacy","0","uniform","1","undefined","undefined","undefined","1","j","0","0","0","0","12","0","0","0","12","NA","8","12","8","0","8","3","12","0","12","Thu Feb 18 13:16:08 2021","The main experiment item","yes","Lexical_Decision_Task.osexp","D:/COGNITION AND LANGUAGE semester 2","no","Andale Mono","no","18","no","white","no","yes","576","legacy","8","8","3","D:/COGNITION AND LANGUAGE semester 2/subject-5215926.csv","legacy","Lentiform Loewenfeld","3.3.7","yes","yes","600bd7cfb6416f0113b04181","602110864497cf011d9c0822","0","j","NA","return","right","right","NA","j","700","NA","2697","22134","6428","NA","700","2","legacy","1024","2","48000","-16","task","5215926","even","NA","40707","45408","42710","63301","2547","31112","24683","63802","NA","63300","63802","63249","45408","64502","39046","62749","2541","NA","Lexical Decision Task","13","13696","13","yes","1024"
"2.897810299","0","5","glur","non-word","100","100","1026.2857142857142","1026.2857142857142","black","no","legacy","legacy","legacy","0","uniform","1","undefined","undefined","undefined","1","f","0","0","0","0","13","0","0","0","13","NA","9","13","9","0","9","3","13","0","13","Thu Feb 18 13:16:08 2021","The main experiment item","yes","Lexical_Decision_Task.osexp","D:/COGNITION AND LANGUAGE semester 2","no","Andale Mono","no","18","no","white","no","yes","576","legacy","9","9","3","D:/COGNITION AND LANGUAGE semester 2/subject-5215926.csv","legacy","Lentiform Loewenfeld","3.3.7","yes","yes","600bd7cfb6416f0113b04181","602110864497cf011d9c0822","0","f","NA","return","right","right","NA","f","672","NA","2697","22134","6428","NA","672","2","legacy","1024","2","48000","-16","task","5215926","even","NA","40707","45408","42710","65070","2547","31112","24683","65572","NA","65069","65573","65015","45408","66246","39046","64515","2541","NA","Lexical Decision Task","14","14368","14","yes","1024"
"2.69019608","9.01","2","myth","word","100","100","1000.1333333333333","1000.1333333333333","black","no","legacy","legacy","legacy","0","uniform","1","undefined","undefined","undefined","1","j","0","0","0","0","14","0","0","0","14","NA","10","14","10","0","10","3","14","0","14","Thu Feb 18 13:16:08 2021","The main experiment item","yes","Lexical_Decision_Task.osexp","D:/COGNITION AND LANGUAGE semester 2","no","Andale Mono","no","18","no","white","no","yes","576","legacy","10","10","3","D:/COGNITION AND LANGUAGE semester 2/subject-5215926.csv","legacy","Lentiform Loewenfeld","3.3.7","yes","yes","600bd7cfb6416f0113b04181","602110864497cf011d9c0822","0","j","NA","return","right","right","NA","j","634","NA","2697","22134","6428","NA","634","2","legacy","1024","2","48000","-16","task","5215926","even","NA","40707","45408","42710","66819","2547","31112","24683","67322","NA","66817","67322","66758","45408","67957","39046","66258","2541","NA","Lexical Decision Task","15","15002","15","yes","1024"
"2.714888338","0","3","brug","non-word","100","100","985.75","985.75","black","no","legacy","legacy","legacy","0","uniform","1","undefined","undefined","undefined","1","f","0","0","0","0","15","0","0","0","15","NA","11","15","11","0","11","3","15","0","15","Thu Feb 18 13:16:08 2021","The main experiment item","yes","Lexical_Decision_Task.osexp","D:/COGNITION AND LANGUAGE semester 2","no","Andale Mono","no","18","no","white","no","yes","576","legacy","11","11","3","D:/COGNITION AND LANGUAGE semester 2/subject-5215926.csv","legacy","Lentiform Loewenfeld","3.3.7","yes","yes","600bd7cfb6416f0113b04181","602110864497cf011d9c0822","0","f","NA","return","right","right","NA","f","770","NA","2697","22134","6428","NA","770","2","legacy","1024","2","48000","-16","task","5215926","even","NA","40707","45408","42710","68531","2547","31112","24683","69033","NA","68530","69034","68470","45408","69804","39046","67970","2541","NA","Lexical Decision Task","16","15772","16","yes","1024"
"3.372543801","9.24","8","coat","word","100","100","961.3529411764706","961.3529411764706","black","no","legacy","legacy","legacy","0","uniform","1","undefined","undefined","undefined","1","j","0","0","0","0","16","0","0","0","16","NA","12","16","12","0","12","3","16","0","16","Thu Feb 18 13:16:08 2021","The main experiment item","yes","Lexical_Decision_Task.osexp","D:/COGNITION AND LANGUAGE semester 2","no","Andale Mono","no","18","no","white","no","yes","576","legacy","12","12","3","D:/COGNITION AND LANGUAGE semester 2/subject-5215926.csv","legacy","Lentiform Loewenfeld","3.3.7","yes","yes","600bd7cfb6416f0113b04181","602110864497cf011d9c0822","0","j","NA","return","right","right","NA","j","571","NA","2697","22134","6428","NA","571","2","legacy","1024","2","48000","-16","task","5215926","even","NA","40707","45408","42710","70380","2547","31112","24683","70882","NA","70378","70883","70319","45408","71455","39046","69819","2541","NA","Lexical Decision Task","17","16343","17","yes","1024"
"3.208978517","10.33","4","fish","word","100","100","938.5555555555555","938.5555555555555","black","no","legacy","legacy","legacy","0","uniform","1","undefined","undefined","undefined","1","j","0","0","0","0","17","0","0","0","17","NA","13","17","13","0","13","3","17","0","17","Thu Feb 18 13:16:08 2021","The main experiment item","yes","Lexical_Decision_Task.osexp","D:/COGNITION AND LANGUAGE semester 2","no","Andale Mono","no","18","no","white","no","yes","576","legacy","13","13","3","D:/COGNITION AND LANGUAGE semester 2/subject-5215926.csv","legacy","Lentiform Loewenfeld","3.3.7","yes","yes","600bd7cfb6416f0113b04181","602110864497cf011d9c0822","0","j","NA","return","right","right","NA","j","551","NA","2697","22134","6428","NA","551","2","legacy","1024","2","48000","-16","task","5215926","even","NA","40707","45408","42710","72019","2547","31112","24683","72522","NA","72018","72522","71967","45408","73074","39046","71467","2541","NA","Lexical Decision Task","18","16894","18","yes","1024"
"3.088136089","8.32","9","worm","word","100","100","919","919","black","no","legacy","legacy","legacy","0","uniform","1","undefined","undefined","undefined","1","j","0","0","0","0","18","0","0","0","18","NA","14","18","14","0","14","3","18","0","18","Thu Feb 18 13:16:08 2021","The main experiment item","yes","Lexical_Decision_Task.osexp","D:/COGNITION AND LANGUAGE semester 2","no","Andale Mono","no","18","no","white","no","yes","576","legacy","14","14","3","D:/COGNITION AND LANGUAGE semester 2/subject-5215926.csv","legacy","Lentiform Loewenfeld","3.3.7","yes","yes","600bd7cfb6416f0113b04181","602110864497cf011d9c0822","0","j","NA","return","right","right","NA","j","567","NA","2697","22134","6428","NA","567","2","legacy","1024","2","48000","-16","task","5215926","even","NA","40707","45408","42710","73646","2547","31112","24683","74150","NA","73645","74150","73586","45408","74717","39046","73086","2541","NA","Lexical Decision Task","19","17461","19","yes","1024"
"2.809559715","8.44","4","volt","word","100","100","900.25","900.25","black","no","legacy","legacy","legacy","0","uniform","1","undefined","undefined","undefined","1","j","0","0","0","0","19","0","0","0","19","NA","15","19","15","0","15","3","19","0","19","Thu Feb 18 13:16:08 2021","The main experiment item","yes","Lexical_Decision_Task.osexp","D:/COGNITION AND LANGUAGE semester 2","no","Andale Mono","no","18","no","white","no","yes","576","legacy","15","15","3","D:/COGNITION AND LANGUAGE semester 2/subject-5215926.csv","legacy","Lentiform Loewenfeld","3.3.7","yes","yes","600bd7cfb6416f0113b04181","602110864497cf011d9c0822","0","j","NA","return","right","right","NA","j","544","NA","2697","22134","6428","NA","544","2","legacy","1024","2","48000","-16","task","5215926","even","NA","40707","45408","42710","75284","2547","31112","24683","75787","NA","75283","75787","75232","45408","76332","39046","74732","2541","NA","Lexical Decision Task","20","18005","20","yes","1024"
"3.100255637","0","6","brax","non-word","100","100","885.5714285714286","885.5714285714286","black","no","legacy","legacy","legacy","0","uniform","1","undefined","undefined","undefined","1","f","0","0","0","0","20","0","0","0","20","NA","16","20","16","0","16","3","20","0","20","Thu Feb 18 13:16:08 2021","The main experiment item","yes","Lexical_Decision_Task.osexp","D:/COGNITION AND LANGUAGE semester 2","no","Andale Mono","no","18","no","white","no","yes","576","legacy","16","16","3","D:/COGNITION AND LANGUAGE semester 2/subject-5215926.csv","legacy","Lentiform Loewenfeld","3.3.7","yes","yes","600bd7cfb6416f0113b04181","602110864497cf011d9c0822","0","f","NA","return","right","right","NA","f","592","NA","2697","22134","6428","NA","592","2","legacy","1024","2","48000","-16","task","5215926","even","NA","40707","45408","42710","76906","2547","31112","24683","77409","NA","76905","77409","76844","45408","78002","39046","76344","2541","NA","Lexical Decision Task","21","18597","21","yes","1024"
"2.696644658","5.78","2","yolk","word","100","100","876.6818181818181","876.6818181818181","black","no","legacy","legacy","legacy","0","uniform","1","undefined","undefined","undefined","1","j","0","0","0","0","21","0","0","0","21","NA","17","21","17","0","17","3","21","0","21","Thu Feb 18 13:16:08 2021","The main experiment item","yes","Lexical_Decision_Task.osexp","D:/COGNITION AND LANGUAGE semester 2","no","Andale Mono","no","18","no","white","no","yes","576","legacy","17","17","3","D:/COGNITION AND LANGUAGE semester 2/subject-5215926.csv","legacy","Lentiform Loewenfeld","3.3.7","yes","yes","600bd7cfb6416f0113b04181","602110864497cf011d9c0822","0","j","NA","return","right","right","NA","j","690","NA","2697","22134","6428","NA","690","2","legacy","1024","2","48000","-16","task","5215926","even","NA","40707","45408","42710","78581","2547","31112","24683","79085","NA","78579","79085","78522","45408","79775","39046","78022","2541","NA","Lexical Decision Task","22","19287","22","yes","1024"
"3.311895072","0","9","gung","non-word","100","100","864.7826086956521","864.7826086956521","black","no","legacy","legacy","legacy","0","uniform","1","undefined","undefined","undefined","1","f","0","0","0","0","22","0","0","0","22","NA","18","22","18","0","18","3","22","0","22","Thu Feb 18 13:16:08 2021","The main experiment item","yes","Lexical_Decision_Task.osexp","D:/COGNITION AND LANGUAGE semester 2","no","Andale Mono","no","18","no","white","no","yes","576","legacy","18","18","3","D:/COGNITION AND LANGUAGE semester 2/subject-5215926.csv","legacy","Lentiform Loewenfeld","3.3.7","yes","yes","600bd7cfb6416f0113b04181","602110864497cf011d9c0822","0","f","NA","return","right","right","NA","f","603","NA","2697","22134","6428","NA","603","2","legacy","1024","2","48000","-16","task","5215926","even","NA","40707","45408","42710","80353","2547","31112","24683","80856","NA","80352","80856","80288","45408","81460","39046","79788","2541","NA","Lexical Decision Task","23","19890","23","yes","1024"
"3.039414119","0","9","meep","non-word","100","100","859.375","859.375","black","no","legacy","legacy","legacy","0","uniform","1","undefined","undefined","undefined","1","f","0","0","0","0","23","0","0","0","23","NA","19","23","19","0","19","3","23","0","23","Thu Feb 18 13:16:08 2021","The main experiment item","yes","Lexical_Decision_Task.osexp","D:/COGNITION AND LANGUAGE semester 2","no","Andale Mono","no","18","no","white","no","yes","576","legacy","19","19","3","D:/COGNITION AND LANGUAGE semester 2/subject-5215926.csv","legacy","Lentiform Loewenfeld","3.3.7","yes","yes","600bd7cfb6416f0113b04181","602110864497cf011d9c0822","0","f","NA","return","right","right","NA","f","735","NA","2697","22134","6428","NA","735","2","legacy","1024","2","48000","-16","task","5215926","even","NA","40707","45408","42710","82030","2547","31112","24683","82533","NA","82028","82533","81975","45408","83269","39046","81475","2541","NA","Lexical Decision Task","24","20625","24","yes","1024"
"3.252447662","9.67","9","boat","word","100","100","845.84","845.84","black","no","legacy","legacy","legacy","0","uniform","1","undefined","undefined","undefined","1","j","0","0","0","0","24","0","0","0","24","NA","20","24","20","0","20","3","24","0","24","Thu Feb 18 13:16:08 2021","The main experiment item","yes","Lexical_Decision_Task.osexp","D:/COGNITION AND LANGUAGE semester 2","no","Andale Mono","no","18","no","white","no","yes","576","legacy","20","20","3","D:/COGNITION AND LANGUAGE semester 2/subject-5215926.csv","legacy","Lentiform Loewenfeld","3.3.7","yes","yes","600bd7cfb6416f0113b04181","602110864497cf011d9c0822","0","j","NA","return","right","right","NA","j","521","NA","2697","22134","6428","NA","521","2","legacy","1024","2","48000","-16","task","5215926","even","NA","40707","45408","42710","83845","2547","31112","24683","84348","NA","83844","84348","83785","45408","84870","39046","83285","2541","NA","Lexical Decision Task","25","21146","25","yes","1024"
"3.2757719","0","5","slea","non-word","100","100","838.9230769230769","838.9230769230769","black","no","legacy","legacy","legacy","0","uniform","1","undefined","undefined","undefined","1","f","0","0","0","0","25","0","0","0","25","NA","21","25","21","0","21","3","25","0","25","Thu Feb 18 13:16:08 2021","The main experiment item","yes","Lexical_Decision_Task.osexp","D:/COGNITION AND LANGUAGE semester 2","no","Andale Mono","no","18","no","white","no","yes","576","legacy","21","21","3","D:/COGNITION AND LANGUAGE semester 2/subject-5215926.csv","legacy","Lentiform Loewenfeld","3.3.7","yes","yes","600bd7cfb6416f0113b04181","602110864497cf011d9c0822","0","f","NA","return","right","right","NA","f","666","NA","2697","22134","6428","NA","666","2","legacy","1024","2","48000","-16","task","5215926","even","NA","40707","45408","42710","85444","2547","31112","24683","85946","NA","85443","85946","85385","45408","86613","39046","84884","2541","NA","Lexical Decision Task","26","21812","26","yes","1024"
"2.664011697","8.19","4","hawk","word","100","100","833.7037037037037","833.7037037037037","black","no","legacy","legacy","legacy","0","uniform","1","undefined","undefined","undefined","1","j","0","0","0","0","26","0","0","0","26","NA","22","26","22","0","22","3","26","0","26","Thu Feb 18 13:16:08 2021","The main experiment item","yes","Lexical_Decision_Task.osexp","D:/COGNITION AND LANGUAGE semester 2","no","Andale Mono","no","18","no","white","no","yes","576","legacy","22","22","3","D:/COGNITION AND LANGUAGE semester 2/subject-5215926.csv","legacy","Lentiform Loewenfeld","3.3.7","yes","yes","600bd7cfb6416f0113b04181","602110864497cf011d9c0822","0","j","NA","return","right","right","NA","j","698","NA","2697","22134","6428","NA","698","2","legacy","1024","2","48000","-16","task","5215926","even","NA","40707","45408","42710","87185","2547","31112","24683","87689","NA","87184","87689","87128","45408","88388","39046","86628","2541","NA","Lexical Decision Task","27","22510","27","yes","1024"
"3.168890155","0","6","thet","non-word","100","100","824.7857142857143","824.7857142857143","black","no","legacy","legacy","legacy","0","uniform","1","undefined","undefined","undefined","1","f","0","0","0","0","27","0","0","0","27","NA","23","27","23","0","23","3","27","0","27","Thu Feb 18 13:16:08 2021","The main experiment item","yes","Lexical_Decision_Task.osexp","D:/COGNITION AND LANGUAGE semester 2","no","Andale Mono","no","18","no","white","no","yes","576","legacy","23","23","3","D:/COGNITION AND LANGUAGE semester 2/subject-5215926.csv","legacy","Lentiform Loewenfeld","3.3.7","yes","yes","600bd7cfb6416f0113b04181","602110864497cf011d9c0822","0","f","NA","return","right","right","NA","f","584","NA","2697","22134","6428","NA","584","2","legacy","1024","2","48000","-16","task","5215926","even","NA","40707","45408","42710","88961","2547","31112","24683","89463","NA","88960","89463","88901","45408","90048","39046","88401","2541","NA","Lexical Decision Task","28","23094","28","yes","1024"
"2.771097306","0","9","jold","non-word","100","100","818.4137931034483","818.4137931034483","black","no","legacy","legacy","legacy","0","uniform","1","undefined","undefined","undefined","1","f","0","0","0","0","28","0","0","0","28","NA","24","28","24","0","24","3","28","0","28","Thu Feb 18 13:16:08 2021","The main experiment item","yes","Lexical_Decision_Task.osexp","D:/COGNITION AND LANGUAGE semester 2","no","Andale Mono","no","18","no","white","no","yes","576","legacy","24","24","3","D:/COGNITION AND LANGUAGE semester 2/subject-5215926.csv","legacy","Lentiform Loewenfeld","3.3.7","yes","yes","600bd7cfb6416f0113b04181","602110864497cf011d9c0822","0","f","NA","return","right","right","NA","f","640","NA","2697","22134","6428","NA","640","2","legacy","1024","2","48000","-16","task","5215926","even","NA","40707","45408","42710","90622","2547","31112","24683","91126","NA","90621","91126","90561","45408","91767","39046","90061","2541","NA","Lexical Decision Task","29","23734","29","yes","1024"
"3.259832699","0","9","flar","non-word","100","100","810.6333333333333","810.6333333333333","black","no","legacy","legacy","legacy","0","uniform","1","undefined","undefined","undefined","1","f","0","0","0","0","29","0","0","0","29","NA","25","29","25","0","25","3","29","0","29","Thu Feb 18 13:16:08 2021","The main experiment item","yes","Lexical_Decision_Task.osexp","D:/COGNITION AND LANGUAGE semester 2","no","Andale Mono","no","18","no","white","no","yes","576","legacy","25","25","3","D:/COGNITION AND LANGUAGE semester 2/subject-5215926.csv","legacy","Lentiform Loewenfeld","3.3.7","yes","yes","600bd7cfb6416f0113b04181","602110864497cf011d9c0822","0","f","NA","return","right","right","NA","f","585","NA","2697","22134","6428","NA","585","2","legacy","1024","2","48000","-16","task","5215926","even","NA","40707","45408","42710","92342","2547","31112","24683","92844","NA","92341","92845","92280","45408","93431","39046","91780","2541","NA","Lexical Decision Task","30","24319","30","yes","1024"
"3.159867847","5.98","5","brim","word","96.7741935483871","96.7741935483871","800.258064516129","800.258064516129","black","no","legacy","legacy","legacy","0","uniform","0","undefined","undefined","undefined","0","j","0","0","0","0","30","0","0","0","30","NA","26","30","26","0","26","3","30","0","30","Thu Feb 18 13:16:08 2021","The main experiment item","yes","Lexical_Decision_Task.osexp","D:/COGNITION AND LANGUAGE semester 2","no","Andale Mono","no","18","no","white","no","yes","576","legacy","26","26","3","D:/COGNITION AND LANGUAGE semester 2/subject-5215926.csv","legacy","Lentiform Loewenfeld","3.3.7","yes","yes","600bd7cfb6416f0113b04181","602110864497cf011d9c0822","0","f","NA","return","right","right","NA","f","489","NA","2697","22134","6428","NA","489","2","legacy","1024","2","48000","-16","task","5215926","even","NA","40707","45408","42710","94001","2547","31112","24683","94505","NA","94000","94505","93944","45408","94995","39046","93444","2541","NA","Lexical Decision Task","30","24808","31","yes","1024"
"3.068433376","8.09","2","bulb","word","96.875","96.875","797.75","797.75","black","no","legacy","legacy","legacy","0","uniform","1","undefined","undefined","undefined","1","j","0","0","0","0","31","0","0","0","31","NA","27","31","27","0","27","3","31","0","31","Thu Feb 18 13:16:08 2021","The main experiment item","yes","Lexical_Decision_Task.osexp","D:/COGNITION AND LANGUAGE semester 2","no","Andale Mono","no","18","no","white","no","yes","576","legacy","27","27","3","D:/COGNITION AND LANGUAGE semester 2/subject-5215926.csv","legacy","Lentiform Loewenfeld","3.3.7","yes","yes","600bd7cfb6416f0113b04181","602110864497cf011d9c0822","0","j","NA","return","right","right","NA","j","720","NA","2697","22134","6428","NA","720","2","legacy","1024","2","48000","-16","task","5215926","even","NA","40707","45408","42710","96574","2547","31112","24683","97077","NA","96573","97077","96508","45408","97798","39046","93444","2541","95008","Lexical Decision Task","31","25528","32","yes","1024"
"3.225825991","0","7","talm","non-word","96.96969696969697","96.96969696969697","799.4242424242424","799.4242424242424","black","no","legacy","legacy","legacy","0","uniform","1","undefined","undefined","undefined","1","f","0","0","0","0","32","0","0","0","32","NA","28","32","28","0","28","3","32","0","32","Thu Feb 18 13:16:08 2021","The main experiment item","yes","Lexical_Decision_Task.osexp","D:/COGNITION AND LANGUAGE semester 2","no","Andale Mono","no","18","no","white","no","yes","576","legacy","28","28","3","D:/COGNITION AND LANGUAGE semester 2/subject-5215926.csv","legacy","Lentiform Loewenfeld","3.3.7","yes","yes","600bd7cfb6416f0113b04181","602110864497cf011d9c0822","0","f","NA","return","right","right","NA","f","853","NA","2697","22134","6428","NA","853","2","legacy","1024","2","48000","-16","task","5215926","even","NA","40707","45408","42710","99880","2547","31112","24683","100382","NA","99879","100382","99827","45408","101236","39046","99327","2541","95008","Lexical Decision Task","32","26381","33","yes","1024"
"2.594027722","9.08","8","skip","word","97.05882352941177","97.05882352941177","794.8235294117648","794.8235294117648","black","no","legacy","legacy","legacy","0","uniform","1","undefined","undefined","undefined","1","j","0","0","0","0","33","0","0","0","33","NA","29","33","29","0","29","3","33","0","33","Thu Feb 18 13:16:08 2021","The main experiment item","yes","Lexical_Decision_Task.osexp","D:/COGNITION AND LANGUAGE semester 2","no","Andale Mono","no","18","no","white","no","yes","576","legacy","29","29","3","D:/COGNITION AND LANGUAGE semester 2/subject-5215926.csv","legacy","Lentiform Loewenfeld","3.3.7","yes","yes","600bd7cfb6416f0113b04181","602110864497cf011d9c0822","0","j","NA","return","right","right","NA","j","643","NA","2697","22134","6428","NA","643","2","legacy","1024","2","48000","-16","task","5215926","even","NA","40707","45408","42710","101810","2547","31112","24683","102312","NA","101809","102312","101749","45408","102956","39046","101249","2541","95008","Lexical Decision Task","33","27024","34","yes","1024"
"2.873320602","0","4","lurg","non-word","97.14285714285714","97.14285714285714","791.5142857142857","791.5142857142857","black","no","legacy","legacy","legacy","0","uniform","1","undefined","undefined","undefined","1","f","0","0","0","0","34","0","0","0","34","NA","30","34","30","0","30","3","34","0","34","Thu Feb 18 13:16:08 2021","The main experiment item","yes","Lexical_Decision_Task.osexp","D:/COGNITION AND LANGUAGE semester 2","no","Andale Mono","no","18","no","white","no","yes","576","legacy","30","30","3","D:/COGNITION AND LANGUAGE semester 2/subject-5215926.csv","legacy","Lentiform Loewenfeld","3.3.7","yes","yes","600bd7cfb6416f0113b04181","602110864497cf011d9c0822","0","f","NA","return","right","right","NA","f","679","NA","2697","22134","6428","NA","679","2","legacy","1024","2","48000","-16","task","5215926","even","NA","40707","45408","42710","103534","2547","31112","24683","104035","NA","103532","104035","103471","45408","104715","39046","102971","2541","95008","Lexical Decision Task","34","27703","35","yes","1024"
"3.353210739","0","9","reet","non-word","97.22222222222223","97.22222222222223","787.0277777777778","787.0277777777778","black","no","legacy","legacy","legacy","0","uniform","1","undefined","undefined","undefined","1","f","0","0","0","0","35","0","0","0","35","NA","31","35","31","0","31","3","35","0","35","Thu Feb 18 13:16:08 2021","The main experiment item","yes","Lexical_Decision_Task.osexp","D:/COGNITION AND LANGUAGE semester 2","no","Andale Mono","no","18","no","white","no","yes","576","legacy","31","31","3","D:/COGNITION AND LANGUAGE semester 2/subject-5215926.csv","legacy","Lentiform Loewenfeld","3.3.7","yes","yes","600bd7cfb6416f0113b04181","602110864497cf011d9c0822","0","f","NA","return","right","right","NA","f","630","NA","2697","22134","6428","NA","630","2","legacy","1024","2","48000","-16","task","5215926","even","NA","40707","45408","42710","105295","2547","31112","24683","105799","NA","105294","105799","105236","45408","106430","39046","104736","2541","95008","Lexical Decision Task","35","28333","36","yes","1024"
"2.907588697","8.91","9","mood","word","97.29729729729729","97.29729729729729","787.2162162162163","787.2162162162163","black","no","legacy","legacy","legacy","0","uniform","1","undefined","undefined","undefined","1","j","0","0","0","0","36","0","0","0","36","NA","32","36","32","0","32","3","36","0","36","Thu Feb 18 13:16:08 2021","The main experiment item","yes","Lexical_Decision_Task.osexp","D:/COGNITION AND LANGUAGE semester 2","no","Andale Mono","no","18","no","white","no","yes","576","legacy","32","32","3","D:/COGNITION AND LANGUAGE semester 2/subject-5215926.csv","legacy","Lentiform Loewenfeld","3.3.7","yes","yes","600bd7cfb6416f0113b04181","602110864497cf011d9c0822","0","j","NA","return","right","right","NA","j","794","NA","2697","22134","6428","NA","794","2","legacy","1024","2","48000","-16","task","5215926","even","NA","40707","45408","42710","107002","2547","31112","24683","107505","NA","107000","107505","106943","45408","108300","39046","106443","2541","95008","Lexical Decision Task","36","29127","37","yes","1024"
"3.431095062","5.74","9","perk","word","97.36842105263158","97.36842105263158","791.7894736842105","791.7894736842105","black","no","legacy","legacy","legacy","0","uniform","1","undefined","undefined","undefined","1","j","0","0","0","0","37","0","0","0","37","NA","33","37","33","0","33","3","37","0","37","Thu Feb 18 13:16:08 2021","The main experiment item","yes","Lexical_Decision_Task.osexp","D:/COGNITION AND LANGUAGE semester 2","no","Andale Mono","no","18","no","white","no","yes","576","legacy","33","33","3","D:/COGNITION AND LANGUAGE semester 2/subject-5215926.csv","legacy","Lentiform Loewenfeld","3.3.7","yes","yes","600bd7cfb6416f0113b04181","602110864497cf011d9c0822","0","j","NA","return","right","right","NA","j","961","NA","2697","22134","6428","NA","961","2","legacy","1024","2","48000","-16","task","5215926","even","NA","40707","45408","42710","108875","2547","31112","24683","109378","NA","108874","109378","108815","45408","110340","39046","108315","2541","95008","Lexical Decision Task","37","30088","38","yes","1024"
"3.363486562","6.93","9","lush","word","97.43589743589743","97.43589743589743","786.4102564102565","786.4102564102565","black","no","legacy","legacy","legacy","0","uniform","1","undefined","undefined","undefined","1","j","0","0","0","0","38","0","0","0","38","NA","34","38","34","0","34","3","38","0","38","Thu Feb 18 13:16:08 2021","The main experiment item","yes","Lexical_Decision_Task.osexp","D:/COGNITION AND LANGUAGE semester 2","no","Andale Mono","no","18","no","white","no","yes","576","legacy","34","34","3","D:/COGNITION AND LANGUAGE semester 2/subject-5215926.csv","legacy","Lentiform Loewenfeld","3.3.7","yes","yes","600bd7cfb6416f0113b04181","602110864497cf011d9c0822","0","j","NA","return","right","right","NA","j","582","NA","2697","22134","6428","NA","582","2","legacy","1024","2","48000","-16","task","5215926","even","NA","40707","45408","42710","110913","2547","31112","24683","111415","NA","110911","111416","110855","45408","111999","39046","110355","2541","95008","Lexical Decision Task","38","30670","39","yes","1024"
"3.132473155","0","4","glim","non-word","95","95","793.625","793.625","black","no","legacy","legacy","legacy","0","uniform","0","undefined","undefined","undefined","0","f","0","0","0","0","39","0","0","0","39","NA","35","39","35","0","35","3","39","0","39","Thu Feb 18 13:16:08 2021","The main experiment item","yes","Lexical_Decision_Task.osexp","D:/COGNITION AND LANGUAGE semester 2","no","Andale Mono","no","18","no","white","no","yes","576","legacy","35","35","3","D:/COGNITION AND LANGUAGE semester 2/subject-5215926.csv","legacy","Lentiform Loewenfeld","3.3.7","yes","yes","600bd7cfb6416f0113b04181","602110864497cf011d9c0822","0","j","NA","return","right","right","NA","j","1075","NA","2697","22134","6428","NA","1075","2","legacy","1024","2","48000","-16","task","5215926","even","NA","40707","45408","42710","112573","2547","31112","24683","113075","NA","112572","113075","112512","45408","114150","39046","112012","2541","95008","Lexical Decision Task","38","31745","40","yes","1024"
"2.668385917","5.48","4","twig","word","95.1219512195122","95.1219512195122","819.4878048780488","819.4878048780488","black","no","legacy","legacy","legacy","0","uniform","1","undefined","undefined","undefined","1","j","0","0","0","0","40","0","0","0","40","NA","36","40","36","0","36","3","40","0","40","Thu Feb 18 13:16:08 2021","The main experiment item","yes","Lexical_Decision_Task.osexp","D:/COGNITION AND LANGUAGE semester 2","no","Andale Mono","no","18","no","white","no","yes","576","legacy","36","36","3","D:/COGNITION AND LANGUAGE semester 2/subject-5215926.csv","legacy","Lentiform Loewenfeld","3.3.7","yes","yes","600bd7cfb6416f0113b04181","602110864497cf011d9c0822","0","j","NA","return","right","right","NA","j","1854","NA","2697","22134","6428","NA","1854","2","legacy","1024","2","48000","-16","task","5215926","even","NA","40707","45408","42710","115730","2547","31112","24683","116232","NA","115728","116232","115663","45408","118086","39046","112012","2541","114163","Lexical Decision Task","39","33599","41","yes","1024"
"2.705007959","6.01","4","wept","word","95.23809523809524","95.23809523809524","816.9761904761905","816.9761904761905","black","no","legacy","legacy","legacy","0","uniform","1","undefined","undefined","undefined","1","j","0","0","0","0","41","0","0","0","41","NA","37","41","37","0","37","3","41","0","41","Thu Feb 18 13:16:08 2021","The main experiment item","yes","Lexical_Decision_Task.osexp","D:/COGNITION AND LANGUAGE semester 2","no","Andale Mono","no","18","no","white","no","yes","576","legacy","37","37","3","D:/COGNITION AND LANGUAGE semester 2/subject-5215926.csv","legacy","Lentiform Loewenfeld","3.3.7","yes","yes","600bd7cfb6416f0113b04181","602110864497cf011d9c0822","0","j","NA","return","right","right","NA","j","714","NA","2697","22134","6428","NA","714","2","legacy","1024","2","48000","-16","task","5215926","even","NA","40707","45408","42710","120181","2547","31112","24683","120683","NA","120179","120684","120119","45408","121399","39046","119619","2541","114163","Lexical Decision Task","40","34313","42","yes","1024"
"3.384413096","10.15","3","glad","word","95.34883720930233","95.34883720930233","812.7906976744187","812.7906976744187","black","no","legacy","legacy","legacy","0","uniform","1","undefined","undefined","undefined","1","j","0","0","0","0","42","0","0","0","42","NA","38","42","38","0","38","3","42","0","42","Thu Feb 18 13:16:08 2021","The main experiment item","yes","Lexical_Decision_Task.osexp","D:/COGNITION AND LANGUAGE semester 2","no","Andale Mono","no","18","no","white","no","yes","576","legacy","38","38","3","D:/COGNITION AND LANGUAGE semester 2/subject-5215926.csv","legacy","Lentiform Loewenfeld","3.3.7","yes","yes","600bd7cfb6416f0113b04181","602110864497cf011d9c0822","0","j","NA","return","right","right","NA","j","637","NA","2697","22134","6428","NA","637","2","legacy","1024","2","48000","-16","task","5215926","even","NA","40707","45408","42710","121975","2547","31112","24683","122477","NA","121974","122477","121914","45408","123115","39046","121413","2541","114163","Lexical Decision Task","41","34950","43","yes","1024"
"2.838639236","0","4","furg","non-word","95.45454545454545","95.45454545454545","808.3181818181819","808.3181818181819","black","no","legacy","legacy","legacy","0","uniform","1","undefined","undefined","undefined","1","f","0","0","0","0","43","0","0","0","43","NA","39","43","39","0","39","3","43","0","43","Thu Feb 18 13:16:08 2021","The main experiment item","yes","Lexical_Decision_Task.osexp","D:/COGNITION AND LANGUAGE semester 2","no","Andale Mono","no","18","no","white","no","yes","576","legacy","39","39","3","D:/COGNITION AND LANGUAGE semester 2/subject-5215926.csv","legacy","Lentiform Loewenfeld","3.3.7","yes","yes","600bd7cfb6416f0113b04181","602110864497cf011d9c0822","0","f","NA","return","right","right","NA","f","616","NA","2697","22134","6428","NA","616","2","legacy","1024","2","48000","-16","task","5215926","even","NA","40707","45408","42710","123688","2547","31112","24683","124189","NA","123687","124190","123628","45408","124807","39046","123128","2541","114163","Lexical Decision Task","42","35566","44","yes","1024"
"3.397302518","7.01","2","knit","word","95.55555555555556","95.55555555555556","805.9333333333333","805.9333333333333","black","no","legacy","legacy","legacy","0","uniform","1","undefined","undefined","undefined","1","j","0","0","0","0","44","0","0","0","44","NA","40","44","40","0","40","3","44","0","44","Thu Feb 18 13:16:08 2021","The main experiment item","yes","Lexical_Decision_Task.osexp","D:/COGNITION AND LANGUAGE semester 2","no","Andale Mono","no","18","no","white","no","yes","576","legacy","40","40","3","D:/COGNITION AND LANGUAGE semester 2/subject-5215926.csv","legacy","Lentiform Loewenfeld","3.3.7","yes","yes","600bd7cfb6416f0113b04181","602110864497cf011d9c0822","0","j","NA","return","right","right","NA","j","701","NA","2697","22134","6428","NA","701","2","legacy","1024","2","48000","-16","task","5215926","even","NA","40707","45408","42710","125382","2547","31112","24683","125884","NA","125381","125885","125323","45408","126587","39046","124823","2541","114163","Lexical Decision Task","43","36267","45","yes","1024"
"2.719886232","7.98","2","quiz","word","95.65217391304348","95.65217391304348","800.6739130434783","800.6739130434783","black","no","legacy","legacy","legacy","0","uniform","1","undefined","undefined","undefined","1","j","0","0","0","0","45","0","0","0","45","NA","41","45","41","0","41","3","45","0","45","Thu Feb 18 13:16:08 2021","The main experiment item","yes","Lexical_Decision_Task.osexp","D:/COGNITION AND LANGUAGE semester 2","no","Andale Mono","no","18","no","white","no","yes","576","legacy","41","41","3","D:/COGNITION AND LANGUAGE semester 2/subject-5215926.csv","legacy","Lentiform Loewenfeld","3.3.7","yes","yes","600bd7cfb6416f0113b04181","602110864497cf011d9c0822","0","j","NA","return","right","right","NA","j","564","NA","2697","22134","6428","NA","564","2","legacy","1024","2","48000","-16","task","5215926","even","NA","40707","45408","42710","127161","2547","31112","24683","127666","NA","127160","127666","127101","45408","128231","39046","126601","2541","114163","Lexical Decision Task","44","36831","46","yes","1024"
"2.695481676","0","7","goke","non-word","95.74468085106383","95.74468085106383","798.3829787234042","798.3829787234042","black","no","legacy","legacy","legacy","0","uniform","1","undefined","undefined","undefined","1","f","0","0","0","0","46","0","0","0","46","NA","42","46","42","0","42","3","46","0","46","Thu Feb 18 13:16:08 2021","The main experiment item","yes","Lexical_Decision_Task.osexp","D:/COGNITION AND LANGUAGE semester 2","no","Andale Mono","no","18","no","white","no","yes","576","legacy","42","42","3","D:/COGNITION AND LANGUAGE semester 2/subject-5215926.csv","legacy","Lentiform Loewenfeld","3.3.7","yes","yes","600bd7cfb6416f0113b04181","602110864497cf011d9c0822","0","f","NA","return","right","right","NA","f","693","NA","2697","22134","6428","NA","693","2","legacy","1024","2","48000","-16","task","5215926","even","NA","40707","45408","42710","128806","2547","31112","24683","129308","NA","128804","129308","128744","45408","130001","39046","128244","2541","114163","Lexical Decision Task","45","37524","47","yes","1024"
"3.067070856","9.39","3","loud","word","95.83333333333333","95.83333333333333","796.4375","796.4375","black","no","legacy","legacy","legacy","0","uniform","1","undefined","undefined","undefined","1","j","0","0","0","0","47","0","0","0","47","NA","43","47","43","0","43","3","47","0","47","Thu Feb 18 13:16:08 2021","The main experiment item","yes","Lexical_Decision_Task.osexp","D:/COGNITION AND LANGUAGE semester 2","no","Andale Mono","no","18","no","white","no","yes","576","legacy","43","43","3","D:/COGNITION AND LANGUAGE semester 2/subject-5215926.csv","legacy","Lentiform Loewenfeld","3.3.7","yes","yes","600bd7cfb6416f0113b04181","602110864497cf011d9c0822","0","j","NA","return","right","right","NA","j","705","NA","2697","22134","6428","NA","705","2","legacy","1024","2","48000","-16","task","5215926","even","NA","40707","45408","42710","130574","2547","31112","24683","131075","NA","130573","131075","130516","45408","131781","39046","130016","2541","114163","Lexical Decision Task","46","38229","48","yes","1024"
"2.884795364","0","6","flob","non-word","95.91836734693878","95.91836734693878","793.469387755102","793.469387755102","black","no","legacy","legacy","legacy","0","uniform","1","undefined","undefined","undefined","1","f","0","0","0","0","48","0","0","0","48","NA","44","48","44","0","44","3","48","0","48","Thu Feb 18 13:16:08 2021","The main experiment item","yes","Lexical_Decision_Task.osexp","D:/COGNITION AND LANGUAGE semester 2","no","Andale Mono","no","18","no","white","no","yes","576","legacy","44","44","3","D:/COGNITION AND LANGUAGE semester 2/subject-5215926.csv","legacy","Lentiform Loewenfeld","3.3.7","yes","yes","600bd7cfb6416f0113b04181","602110864497cf011d9c0822","0","f","NA","return","right","right","NA","f","651","NA","2697","22134","6428","NA","651","2","legacy","1024","2","48000","-16","task","5215926","even","NA","40707","45408","42710","132351","2547","31112","24683","132853","NA","132350","132853","132293","45408","133505","39046","131793","2541","114163","Lexical Decision Task","47","38880","49","yes","1024"
"3.302475237","0","7","leel","non-word","96","96","814.64","814.64","black","no","legacy","legacy","legacy","0","uniform","1","undefined","undefined","undefined","1","f","0","0","0","0","49","0","0","0","49","NA","45","49","45","0","45","3","49","0","49","Thu Feb 18 13:16:08 2021","The main experiment item","yes","Lexical_Decision_Task.osexp","D:/COGNITION AND LANGUAGE semester 2","no","Andale Mono","no","18","no","white","no","yes","576","legacy","45","45","3","D:/COGNITION AND LANGUAGE semester 2/subject-5215926.csv","legacy","Lentiform Loewenfeld","3.3.7","yes","yes","600bd7cfb6416f0113b04181","602110864497cf011d9c0822","0","f","NA","return","right","right","NA","f","1852","NA","2697","22134","6428","NA","1852","2","legacy","1024","2","48000","-16","task","5215926","even","NA","40707","45408","42710","134071","2547","31112","24683","134573","NA","134070","134574","134018","45408","136427","39046","133518","2541","114163","Lexical Decision Task","48","40732","50","yes","1024"
"2.937852093","0","7","bamp","non-word","96.07843137254902","96.07843137254902","816.3137254901961","816.3137254901961","black","no","legacy","legacy","legacy","0","uniform","1","undefined","undefined","undefined","1","f","0","0","0","0","50","0","0","0","50","NA","46","50","46","0","46","3","50","0","50","Thu Feb 18 13:16:08 2021","The main experiment item","yes","Lexical_Decision_Task.osexp","D:/COGNITION AND LANGUAGE semester 2","no","Andale Mono","no","18","no","white","no","yes","576","legacy","46","46","3","D:/COGNITION AND LANGUAGE semester 2/subject-5215926.csv","legacy","Lentiform Loewenfeld","3.3.7","yes","yes","600bd7cfb6416f0113b04181","602110864497cf011d9c0822","0","f","NA","return","right","right","NA","f","900","NA","2697","22134","6428","NA","900","2","legacy","1024","2","48000","-16","task","5215926","even","NA","40707","45408","42710","138518","2547","31112","24683","139021","NA","138516","139021","138459","45408","139922","39046","137959","2541","114163","Lexical Decision Task","49","41632","51","yes","1024"
"3.031812271","6.52","3","gulp","word","96.15384615384616","96.15384615384616","815.3269230769231","815.3269230769231","black","no","legacy","legacy","legacy","0","uniform","1","undefined","undefined","undefined","1","j","0","0","0","0","51","0","0","0","51","NA","47","51","47","0","47","3","51","0","51","Thu Feb 18 13:16:08 2021","The main experiment item","yes","Lexical_Decision_Task.osexp","D:/COGNITION AND LANGUAGE semester 2","no","Andale Mono","no","18","no","white","no","yes","576","legacy","47","47","3","D:/COGNITION AND LANGUAGE semester 2/subject-5215926.csv","legacy","Lentiform Loewenfeld","3.3.7","yes","yes","600bd7cfb6416f0113b04181","602110864497cf011d9c0822","0","j","NA","return","right","right","NA","j","765","NA","2697","22134","6428","NA","765","2","legacy","1024","2","48000","-16","task","5215926","even","NA","40707","45408","42710","140498","2547","31112","24683","141000","NA","140497","141000","140436","45408","141766","39046","139936","2541","114163","Lexical Decision Task","50","42397","52","yes","1024"
"3.066077331","0","7","vorn","non-word","96.22641509433963","96.22641509433963","812.7924528301887","812.7924528301887","black","no","legacy","legacy","legacy","0","uniform","1","undefined","undefined","undefined","1","f","0","0","0","0","52","0","0","0","52","NA","48","52","48","0","48","3","52","0","52","Thu Feb 18 13:16:08 2021","The main experiment item","yes","Lexical_Decision_Task.osexp","D:/COGNITION AND LANGUAGE semester 2","no","Andale Mono","no","18","no","white","no","yes","576","legacy","48","48","3","D:/COGNITION AND LANGUAGE semester 2/subject-5215926.csv","legacy","Lentiform Loewenfeld","3.3.7","yes","yes","600bd7cfb6416f0113b04181","602110864497cf011d9c0822","0","f","NA","return","right","right","NA","f","681","NA","2697","22134","6428","NA","681","2","legacy","1024","2","48000","-16","task","5215926","even","NA","40707","45408","42710","142342","2547","31112","24683","142844","NA","142341","142844","142281","45408","143526","39046","141781","2541","114163","Lexical Decision Task","51","43078","53","yes","1024"
"3.174641193","0","3","ramb","non-word","96.29629629629629","96.29629629629629","814.5370370370371","814.5370370370371","black","no","legacy","legacy","legacy","0","uniform","1","undefined","undefined","undefined","1","f","0","0","0","0","53","0","0","0","53","NA","49","53","49","0","49","3","53","0","53","Thu Feb 18 13:16:08 2021","The main experiment item","yes","Lexical_Decision_Task.osexp","D:/COGNITION AND LANGUAGE semester 2","no","Andale Mono","no","18","no","white","no","yes","576","legacy","49","49","3","D:/COGNITION AND LANGUAGE semester 2/subject-5215926.csv","legacy","Lentiform Loewenfeld","3.3.7","yes","yes","600bd7cfb6416f0113b04181","602110864497cf011d9c0822","0","f","NA","return","right","right","NA","f","907","NA","2697","22134","6428","NA","907","2","legacy","1024","2","48000","-16","task","5215926","even","NA","40707","45408","42710","144095","2547","31112","24683","144598","NA","144093","144598","144038","45408","145506","39046","143538","2541","114163","Lexical Decision Task","52","43985","54","yes","1024"
"2.695770526","7.34","6","pawn","word","96.36363636363636","96.36363636363636","849.1272727272727","849.1272727272727","black","no","legacy","legacy","legacy","0","uniform","1","undefined","undefined","undefined","1","j","0","0","0","0","54","0","0","0","54","0","50","54","50","0","50","3","54","0","54","Thu Feb 18 13:16:08 2021","The main experiment item","yes","Lexical_Decision_Task.osexp","D:/COGNITION AND LANGUAGE semester 2","no","Andale Mono","no","18","no","white","no","yes","576","legacy","50","50","3","D:/COGNITION AND LANGUAGE semester 2/subject-5215926.csv","legacy","Lentiform Loewenfeld","3.3.7","yes","yes","600bd7cfb6416f0113b04181","602110864497cf011d9c0822","0","j","NA","return","right","right","return","j","2717","NA","2697","22134","6428","4834","2717","2","legacy","1024","2","48000","-16","task","5215926","even","NA","40707","45408","42710","150947","2547","31112","24683","151450","146060","150946","151451","146025","45408","154169","39046","145525","2541","114163","Lexical Decision Task","53","46702","55","yes","1024"
"3.316948329","0","1","besc","non-word","96.42857142857143","96.42857142857143","846.2857142857143","846.2857142857143","black","no","legacy","legacy","legacy","0","uniform","1","undefined","undefined","undefined","1","f","0","0","0","0","55","0","0","0","55","0","51","55","51","0","51","3","55","0","55","Thu Feb 18 13:16:08 2021","The main experiment item","yes","Lexical_Decision_Task.osexp","D:/COGNITION AND LANGUAGE semester 2","no","Andale Mono","no","18","no","white","no","yes","576","legacy","51","51","3","D:/COGNITION AND LANGUAGE semester 2/subject-5215926.csv","legacy","Lentiform Loewenfeld","3.3.7","yes","yes","600bd7cfb6416f0113b04181","602110864497cf011d9c0822","0","f","NA","return","right","right","return","f","690","NA","2697","22134","6428","4834","690","2","legacy","1024","2","48000","-16","task","5215926","even","NA","40707","45408","42710","156257","2547","31112","24683","156760","146060","156256","156760","156199","45408","157451","39046","155699","2541","114163","Lexical Decision Task","54","47392","56","yes","1024"
"2.983324025","9.56","2","debt","word","96.49122807017544","96.49122807017544","843","843","black","no","legacy","legacy","legacy","0","uniform","1","undefined","undefined","undefined","1","j","0","0","0","0","56","0","0","0","56","0","52","56","52","0","52","3","56","0","56","Thu Feb 18 13:16:08 2021","The main experiment item","yes","Lexical_Decision_Task.osexp","D:/COGNITION AND LANGUAGE semester 2","no","Andale Mono","no","18","no","white","no","yes","576","legacy","52","52","3","D:/COGNITION AND LANGUAGE semester 2/subject-5215926.csv","legacy","Lentiform Loewenfeld","3.3.7","yes","yes","600bd7cfb6416f0113b04181","602110864497cf011d9c0822","0","j","NA","return","right","right","return","j","659","NA","2697","22134","6428","4834","659","2","legacy","1024","2","48000","-16","task","5215926","even","NA","40707","45408","42710","158019","2547","31112","24683","158522","146060","158018","158522","157964","45408","159182","39046","157464","2541","114163","Lexical Decision Task","55","48051","57","yes","1024"
"2.858136002","0","4","phip","non-word","96.55172413793103","96.55172413793103","839.9310344827586","839.9310344827586","black","no","legacy","legacy","legacy","0","uniform","1","undefined","undefined","undefined","1","f","0","0","0","0","57","0","0","0","57","0","53","57","53","0","53","3","57","0","57","Thu Feb 18 13:16:08 2021","The main experiment item","yes","Lexical_Decision_Task.osexp","D:/COGNITION AND LANGUAGE semester 2","no","Andale Mono","no","18","no","white","no","yes","576","legacy","53","53","3","D:/COGNITION AND LANGUAGE semester 2/subject-5215926.csv","legacy","Lentiform Loewenfeld","3.3.7","yes","yes","600bd7cfb6416f0113b04181","602110864497cf011d9c0822","0","f","NA","return","right","right","return","f","665","NA","2697","22134","6428","4834","665","2","legacy","1024","2","48000","-16","task","5215926","even","NA","40707","45408","42710","159759","2547","31112","24683","160260","146060","159758","160260","159695","45408","160926","39046","159195","2541","114163","Lexical Decision Task","56","48716","58","yes","1024"
"3.076883066","0","8","mout","non-word","96.61016949152543","96.61016949152543","837.0508474576271","837.0508474576271","black","no","legacy","legacy","legacy","0","uniform","1","undefined","undefined","undefined","1","f","0","0","0","0","58","0","0","0","58","0","54","58","54","0","54","3","58","0","58","Thu Feb 18 13:16:08 2021","The main experiment item","yes","Lexical_Decision_Task.osexp","D:/COGNITION AND LANGUAGE semester 2","no","Andale Mono","no","18","no","white","no","yes","576","legacy","54","54","3","D:/COGNITION AND LANGUAGE semester 2/subject-5215926.csv","legacy","Lentiform Loewenfeld","3.3.7","yes","yes","600bd7cfb6416f0113b04181","602110864497cf011d9c0822","0","f","NA","return","right","right","return","f","670","NA","2697","22134","6428","4834","670","2","legacy","1024","2","48000","-16","task","5215926","even","NA","40707","45408","42710","161493","2547","31112","24683","161994","146060","161492","161994","161438","45408","162665","39046","160938","2541","114163","Lexical Decision Task","57","49386","59","yes","1024"
"2.839268497","0","8","maft","non-word","96.66666666666667","96.66666666666667","832.8333333333334","832.8333333333334","black","no","legacy","legacy","legacy","0","uniform","1","undefined","undefined","undefined","1","f","0","0","0","0","59","0","0","0","59","0","55","59","55","0","55","3","59","0","59","Thu Feb 18 13:16:08 2021","The main experiment item","yes","Lexical_Decision_Task.osexp","D:/COGNITION AND LANGUAGE semester 2","no","Andale Mono","no","18","no","white","no","yes","576","legacy","55","55","3","D:/COGNITION AND LANGUAGE semester 2/subject-5215926.csv","legacy","Lentiform Loewenfeld","3.3.7","yes","yes","600bd7cfb6416f0113b04181","602110864497cf011d9c0822","0","f","NA","return","right","right","return","f","584","NA","2697","22134","6428","4834","584","2","legacy","1024","2","48000","-16","task","5215926","even","NA","40707","45408","42710","163238","2547","31112","24683","163739","146060","163237","163739","163178","45408","164324","39046","162678","2541","114163","Lexical Decision Task","58","49970","60","yes","1024"
"2.7084209","0","8","vump","non-word","96.72131147540983","96.72131147540983","829.016393442623","829.016393442623","black","no","legacy","legacy","legacy","0","uniform","1","undefined","undefined","undefined","1","f","0","0","0","0","60","0","0","0","60","0","56","60","56","0","56","3","60","0","60","Thu Feb 18 13:16:08 2021","The main experiment item","yes","Lexical_Decision_Task.osexp","D:/COGNITION AND LANGUAGE semester 2","no","Andale Mono","no","18","no","white","no","yes","576","legacy","56","56","3","D:/COGNITION AND LANGUAGE semester 2/subject-5215926.csv","legacy","Lentiform Loewenfeld","3.3.7","yes","yes","600bd7cfb6416f0113b04181","602110864497cf011d9c0822","0","f","NA","return","right","right","return","f","600","NA","2697","22134","6428","4834","600","2","legacy","1024","2","48000","-16","task","5215926","even","NA","40707","45408","42710","164899","2547","31112","24683","165402","146060","164898","165402","164837","45408","166003","39046","164337","2541","114163","Lexical Decision Task","59","50570","61","yes","1024"
"2.814027728","8.2","4","foam","word","96.7741935483871","96.7741935483871","824.8064516129032","824.8064516129032","black","no","legacy","legacy","legacy","0","uniform","1","undefined","undefined","undefined","1","j","0","0","0","0","61","0","0","0","61","0","57","61","57","0","57","3","61","0","61","Thu Feb 18 13:16:08 2021","The main experiment item","yes","Lexical_Decision_Task.osexp","D:/COGNITION AND LANGUAGE semester 2","no","Andale Mono","no","18","no","white","no","yes","576","legacy","57","57","3","D:/COGNITION AND LANGUAGE semester 2/subject-5215926.csv","legacy","Lentiform Loewenfeld","3.3.7","yes","yes","600bd7cfb6416f0113b04181","602110864497cf011d9c0822","0","j","NA","return","right","right","return","j","568","NA","2697","22134","6428","4834","568","2","legacy","1024","2","48000","-16","task","5215926","even","NA","40707","45408","42710","166578","2547","31112","24683","167079","146060","166577","167079","166517","45408","167647","39046","166017","2541","114163","Lexical Decision Task","60","51138","62","yes","1024"
"2.842815106","7.86","8","lump","word","96.82539682539682","96.82539682539682","820.3015873015873","820.3015873015873","black","no","legacy","legacy","legacy","0","uniform","1","undefined","undefined","undefined","1","j","0","0","0","0","62","0","0","0","62","0","58","62","58","0","58","3","62","0","62","Thu Feb 18 13:16:08 2021","The main experiment item","yes","Lexical_Decision_Task.osexp","D:/COGNITION AND LANGUAGE semester 2","no","Andale Mono","no","18","no","white","no","yes","576","legacy","58","58","3","D:/COGNITION AND LANGUAGE semester 2/subject-5215926.csv","legacy","Lentiform Loewenfeld","3.3.7","yes","yes","600bd7cfb6416f0113b04181","602110864497cf011d9c0822","0","j","NA","return","right","right","return","j","541","NA","2697","22134","6428","4834","541","2","legacy","1024","2","48000","-16","task","5215926","even","NA","40707","45408","42710","168221","2547","31112","24683","168725","146060","168219","168725","168160","45408","169267","39046","167660","2541","114163","Lexical Decision Task","61","51679","63","yes","1024"
"3.460446784","0","5","dess","non-word","96.875","96.875","821.484375","821.484375","black","no","legacy","legacy","legacy","0","uniform","1","undefined","undefined","undefined","1","f","0","0","0","0","63","0","0","0","63","0","59","63","59","0","59","3","63","0","63","Thu Feb 18 13:16:08 2021","The main experiment item","yes","Lexical_Decision_Task.osexp","D:/COGNITION AND LANGUAGE semester 2","no","Andale Mono","no","18","no","white","no","yes","576","legacy","59","59","3","D:/COGNITION AND LANGUAGE semester 2/subject-5215926.csv","legacy","Lentiform Loewenfeld","3.3.7","yes","yes","600bd7cfb6416f0113b04181","602110864497cf011d9c0822","0","f","NA","return","right","right","return","f","896","NA","2697","22134","6428","4834","896","2","legacy","1024","2","48000","-16","task","5215926","even","NA","40707","45408","42710","169833","2547","31112","24683","170336","146060","169832","170336","169781","45408","171232","39046","169281","2541","114163","Lexical Decision Task","62","52575","64","yes","1024"
"2.778633532","0","3","jurp","non-word","96.92307692307692","96.92307692307692","818.6923076923077","818.6923076923077","black","no","legacy","legacy","legacy","0","uniform","1","undefined","undefined","undefined","1","f","0","0","0","0","64","0","0","0","64","0","60","64","60","0","60","3","64","0","64","Thu Feb 18 13:16:08 2021","The main experiment item","yes","Lexical_Decision_Task.osexp","D:/COGNITION AND LANGUAGE semester 2","no","Andale Mono","no","18","no","white","no","yes","576","legacy","60","60","3","D:/COGNITION AND LANGUAGE semester 2/subject-5215926.csv","legacy","Lentiform Loewenfeld","3.3.7","yes","yes","600bd7cfb6416f0113b04181","602110864497cf011d9c0822","0","f","NA","return","right","right","return","f","640","NA","2697","22134","6428","4834","640","2","legacy","1024","2","48000","-16","task","5215926","even","NA","40707","45408","42710","171807","2547","31112","24683","172310","146060","171806","172310","171745","45408","172951","39046","171245","2541","114163","Lexical Decision Task","63","53215","65","yes","1024"
"2.990042563","6.64","9","plow","word","95.45454545454545","95.45454545454545","816.2727272727273","816.2727272727273","black","no","legacy","legacy","legacy","0","uniform","0","undefined","undefined","undefined","0","j","0","0","0","0","65","0","0","0","65","0","61","65","61","0","61","3","65","0","65","Thu Feb 18 13:16:08 2021","The main experiment item","yes","Lexical_Decision_Task.osexp","D:/COGNITION AND LANGUAGE semester 2","no","Andale Mono","no","18","no","white","no","yes","576","legacy","61","61","3","D:/COGNITION AND LANGUAGE semester 2/subject-5215926.csv","legacy","Lentiform Loewenfeld","3.3.7","yes","yes","600bd7cfb6416f0113b04181","602110864497cf011d9c0822","0","f","NA","return","right","right","return","f","659","NA","2697","22134","6428","4834","659","2","legacy","1024","2","48000","-16","task","5215926","even","NA","40707","45408","42710","173525","2547","31112","24683","174026","146060","173524","174026","173467","45408","174686","39046","172966","2541","114163","Lexical Decision Task","63","53874","66","yes","1024"
"3.119255889","6.63","2","itch","word","95.5223880597015","95.5223880597015","813.4328358208955","813.4328358208955","black","no","legacy","legacy","legacy","0","uniform","1","undefined","undefined","undefined","1","j","0","0","0","0","66","0","0","0","66","0","62","66","62","0","62","3","66","0","66","Thu Feb 18 13:16:08 2021","The main experiment item","yes","Lexical_Decision_Task.osexp","D:/COGNITION AND LANGUAGE semester 2","no","Andale Mono","no","18","no","white","no","yes","576","legacy","62","62","3","D:/COGNITION AND LANGUAGE semester 2/subject-5215926.csv","legacy","Lentiform Loewenfeld","3.3.7","yes","yes","600bd7cfb6416f0113b04181","602110864497cf011d9c0822","0","j","NA","return","right","right","return","j","626","NA","2697","22134","6428","4834","626","2","legacy","1024","2","48000","-16","task","5215926","even","NA","40707","45408","42710","176267","2547","31112","24683","176769","146060","176266","176770","176198","45408","177398","39046","172966","2541","174698","Lexical Decision Task","64","54500","67","yes","1024"
"2.799799878","0","4","ciff","non-word","95.58823529411765","95.58823529411765","819","819","black","no","legacy","legacy","legacy","0","uniform","1","undefined","undefined","undefined","1","f","0","0","0","0","67","0","0","0","67","0","63","67","63","0","63","3","67","0","67","Thu Feb 18 13:16:08 2021","The main experiment item","yes","Lexical_Decision_Task.osexp","D:/COGNITION AND LANGUAGE semester 2","no","Andale Mono","no","18","no","white","no","yes","576","legacy","63","63","3","D:/COGNITION AND LANGUAGE semester 2/subject-5215926.csv","legacy","Lentiform Loewenfeld","3.3.7","yes","yes","600bd7cfb6416f0113b04181","602110864497cf011d9c0822","0","f","NA","return","right","right","return","f","1192","NA","2697","22134","6428","4834","1192","2","legacy","1024","2","48000","-16","task","5215926","even","NA","40707","45408","42710","179494","2547","31112","24683","179995","146060","179493","179995","179434","45408","181188","39046","178934","2541","174698","Lexical Decision Task","65","55692","68","yes","1024"
"2.981215883","10.66","5","hair","word","95.65217391304348","95.65217391304348","816.1159420289855","816.1159420289855","black","no","legacy","legacy","legacy","0","uniform","1","undefined","undefined","undefined","1","j","0","0","0","0","68","0","0","0","68","0","64","68","64","0","64","3","68","0","68","Thu Feb 18 13:16:08 2021","The main experiment item","yes","Lexical_Decision_Task.osexp","D:/COGNITION AND LANGUAGE semester 2","no","Andale Mono","no","18","no","white","no","yes","576","legacy","64","64","3","D:/COGNITION AND LANGUAGE semester 2/subject-5215926.csv","legacy","Lentiform Loewenfeld","3.3.7","yes","yes","600bd7cfb6416f0113b04181","602110864497cf011d9c0822","0","j","NA","return","right","right","return","j","620","NA","2697","22134","6428","4834","620","2","legacy","1024","2","48000","-16","task","5215926","even","NA","40707","45408","42710","181753","2547","31112","24683","182255","146060","181751","182255","181701","45408","182876","39046","181200","2541","174698","Lexical Decision Task","66","56312","69","yes","1024"
"3.134602053","0","8","jart","non-word","95.71428571428571","95.71428571428571","813.9571428571429","813.9571428571429","black","no","legacy","legacy","legacy","0","uniform","1","undefined","undefined","undefined","1","f","0","0","0","0","69","0","0","0","69","0","65","69","65","0","65","3","69","0","69","Thu Feb 18 13:16:08 2021","The main experiment item","yes","Lexical_Decision_Task.osexp","D:/COGNITION AND LANGUAGE semester 2","no","Andale Mono","no","18","no","white","no","yes","576","legacy","65","65","3","D:/COGNITION AND LANGUAGE semester 2/subject-5215926.csv","legacy","Lentiform Loewenfeld","3.3.7","yes","yes","600bd7cfb6416f0113b04181","602110864497cf011d9c0822","0","f","NA","return","right","right","return","f","665","NA","2697","22134","6428","4834","665","2","legacy","1024","2","48000","-16","task","5215926","even","NA","40707","45408","42710","183442","2547","31112","24683","183945","146060","183441","183945","183388","45408","184611","39046","182888","2541","174698","Lexical Decision Task","67","56977","70","yes","1024"
"3.495914186","0","4","peng","non-word","94.36619718309859","94.36619718309859","819.7042253521126","819.7042253521126","black","no","legacy","legacy","legacy","0","uniform","0","undefined","undefined","undefined","0","f","0","0","0","0","70","0","0","0","70","0","66","70","66","0","66","3","70","0","70","Thu Feb 18 13:16:08 2021","The main experiment item","yes","Lexical_Decision_Task.osexp","D:/COGNITION AND LANGUAGE semester 2","no","Andale Mono","no","18","no","white","no","yes","576","legacy","66","66","3","D:/COGNITION AND LANGUAGE semester 2/subject-5215926.csv","legacy","Lentiform Loewenfeld","3.3.7","yes","yes","600bd7cfb6416f0113b04181","602110864497cf011d9c0822","0","j","NA","return","right","right","return","j","1222","NA","2697","22134","6428","4834","1222","2","legacy","1024","2","48000","-16","task","5215926","even","NA","40707","45408","42710","185184","2547","31112","24683","185688","146060","185182","185688","185123","45408","186911","39046","184623","2541","174698","Lexical Decision Task","67","58199","71","yes","1024"
"3.276537627","9.15","5","trap","word","94.44444444444444","94.44444444444444","819.6111111111111","819.6111111111111","black","no","legacy","legacy","legacy","0","uniform","1","undefined","undefined","undefined","1","j","0","0","0","0","71","0","0","0","71","0","67","71","67","0","67","3","71","0","71","Thu Feb 18 13:16:08 2021","The main experiment item","yes","Lexical_Decision_Task.osexp","D:/COGNITION AND LANGUAGE semester 2","no","Andale Mono","no","18","no","white","no","yes","576","legacy","67","67","3","D:/COGNITION AND LANGUAGE semester 2/subject-5215926.csv","legacy","Lentiform Loewenfeld","3.3.7","yes","yes","600bd7cfb6416f0113b04181","602110864497cf011d9c0822","0","j","NA","return","right","right","return","j","813","NA","2697","22134","6428","4834","813","2","legacy","1024","2","48000","-16","task","5215926","even","NA","40707","45408","42710","188488","2547","31112","24683","188989","146060","188487","188990","188424","45408","189804","39046","184623","2541","186924","Lexical Decision Task","68","59012","72","yes","1024"
"3.374137706","10.21","4","tree","word","94.52054794520548","94.52054794520548","815.917808219178","815.917808219178","black","no","legacy","legacy","legacy","0","uniform","1","undefined","undefined","undefined","1","j","0","0","0","0","72","0","0","0","72","0","68","72","68","0","68","3","72","0","72","Thu Feb 18 13:16:08 2021","The main experiment item","yes","Lexical_Decision_Task.osexp","D:/COGNITION AND LANGUAGE semester 2","no","Andale Mono","no","18","no","white","no","yes","576","legacy","68","68","3","D:/COGNITION AND LANGUAGE semester 2/subject-5215926.csv","legacy","Lentiform Loewenfeld","3.3.7","yes","yes","600bd7cfb6416f0113b04181","602110864497cf011d9c0822","0","j","NA","return","right","right","return","j","550","NA","2697","22134","6428","4834","550","2","legacy","1024","2","48000","-16","task","5215926","even","NA","40707","45408","42710","191903","2547","31112","24683","192406","146060","191901","192406","191839","45408","192957","39046","191339","2541","186924","Lexical Decision Task","69","59562","73","yes","1024"
"2.821076612","0","4","lult","non-word","94.5945945945946","94.5945945945946","815.5945945945946","815.5945945945946","black","no","legacy","legacy","legacy","0","uniform","1","undefined","undefined","undefined","1","f","0","0","0","0","73","0","0","0","73","0","69","73","69","0","69","3","73","0","73","Thu Feb 18 13:16:08 2021","The main experiment item","yes","Lexical_Decision_Task.osexp","D:/COGNITION AND LANGUAGE semester 2","no","Andale Mono","no","18","no","white","no","yes","576","legacy","69","69","3","D:/COGNITION AND LANGUAGE semester 2/subject-5215926.csv","legacy","Lentiform Loewenfeld","3.3.7","yes","yes","600bd7cfb6416f0113b04181","602110864497cf011d9c0822","0","f","NA","return","right","right","return","f","792","NA","2697","22134","6428","4834","792","2","legacy","1024","2","48000","-16","task","5215926","even","NA","40707","45408","42710","193532","2547","31112","24683","194034","146060","193531","194034","193471","45408","194827","39046","192971","2541","186924","Lexical Decision Task","70","60354","74","yes","1024"
"3.133964479","0","8","graw","non-word","94.66666666666667","94.66666666666667","817.44","817.44","black","no","legacy","legacy","legacy","0","uniform","1","undefined","undefined","undefined","1","f","0","0","0","0","74","0","0","0","74","0","70","74","70","0","70","3","74","0","74","Thu Feb 18 13:16:08 2021","The main experiment item","yes","Lexical_Decision_Task.osexp","D:/COGNITION AND LANGUAGE semester 2","no","Andale Mono","no","18","no","white","no","yes","576","legacy","70","70","3","D:/COGNITION AND LANGUAGE semester 2/subject-5215926.csv","legacy","Lentiform Loewenfeld","3.3.7","yes","yes","600bd7cfb6416f0113b04181","602110864497cf011d9c0822","0","f","NA","return","right","right","return","f","954","NA","2697","22134","6428","4834","954","2","legacy","1024","2","48000","-16","task","5215926","even","NA","40707","45408","42710","195401","2547","31112","24683","195902","146060","195400","195902","195341","45408","196857","39046","194841","2541","186924","Lexical Decision Task","71","61308","75","yes","1024"
"3.378276681","6.39","8","bran","word","93.42105263157895","93.42105263157895","815.1315789473684","815.1315789473684","black","no","legacy","legacy","legacy","0","uniform","0","undefined","undefined","undefined","0","j","0","0","0","0","75","0","0","0","75","0","71","75","71","0","71","3","75","0","75","Thu Feb 18 13:16:08 2021","The main experiment item","yes","Lexical_Decision_Task.osexp","D:/COGNITION AND LANGUAGE semester 2","no","Andale Mono","no","18","no","white","no","yes","576","legacy","71","71","3","D:/COGNITION AND LANGUAGE semester 2/subject-5215926.csv","legacy","Lentiform Loewenfeld","3.3.7","yes","yes","600bd7cfb6416f0113b04181","602110864497cf011d9c0822","0","f","NA","return","right","right","return","f","642","NA","2697","22134","6428","4834","642","2","legacy","1024","2","48000","-16","task","5215926","even","NA","40707","45408","42710","197431","2547","31112","24683","197934","146060","197429","197934","197369","45408","198577","39046","196869","2541","186924","Lexical Decision Task","71","61950","76","yes","1024"
"2.898725182","0","7","turl","non-word","93.50649350649351","93.50649350649351","813.038961038961","813.038961038961","black","no","legacy","legacy","legacy","0","uniform","1","undefined","undefined","undefined","1","f","0","0","0","0","76","0","0","0","76","0","72","76","72","0","72","3","76","0","76","Thu Feb 18 13:16:08 2021","The main experiment item","yes","Lexical_Decision_Task.osexp","D:/COGNITION AND LANGUAGE semester 2","no","Andale Mono","no","18","no","white","no","yes","576","legacy","72","72","3","D:/COGNITION AND LANGUAGE semester 2/subject-5215926.csv","legacy","Lentiform Loewenfeld","3.3.7","yes","yes","600bd7cfb6416f0113b04181","602110864497cf011d9c0822","0","f","NA","return","right","right","return","f","654","NA","2697","22134","6428","4834","654","2","legacy","1024","2","48000","-16","task","5215926","even","NA","40707","45408","42710","200155","2547","31112","24683","200659","146060","200154","200659","200089","45408","201314","39046","196869","2541","198589","Lexical Decision Task","72","62604","77","yes","1024"
"2.843025032","0","9","pusk","non-word","93.58974358974359","93.58974358974359","810.974358974359","810.974358974359","black","no","legacy","legacy","legacy","0","uniform","1","undefined","undefined","undefined","1","f","0","0","0","0","77","0","0","0","77","0","73","77","73","0","73","3","77","0","77","Thu Feb 18 13:16:08 2021","The main experiment item","yes","Lexical_Decision_Task.osexp","D:/COGNITION AND LANGUAGE semester 2","no","Andale Mono","no","18","no","white","no","yes","576","legacy","73","73","3","D:/COGNITION AND LANGUAGE semester 2/subject-5215926.csv","legacy","Lentiform Loewenfeld","3.3.7","yes","yes","600bd7cfb6416f0113b04181","602110864497cf011d9c0822","0","f","NA","return","right","right","return","f","652","NA","2697","22134","6428","4834","652","2","legacy","1024","2","48000","-16","task","5215926","even","NA","40707","45408","42710","203403","2547","31112","24683","203904","146060","203402","203904","203344","45408","204557","39046","202844","2541","198589","Lexical Decision Task","73","63256","78","yes","1024"
"3.081107167","0","6","chot","non-word","93.67088607594937","93.67088607594937","809.6582278481013","809.6582278481013","black","no","legacy","legacy","legacy","0","uniform","1","undefined","undefined","undefined","1","f","0","0","0","0","78","0","0","0","78","0","74","78","74","0","74","3","78","0","78","Thu Feb 18 13:16:08 2021","The main experiment item","yes","Lexical_Decision_Task.osexp","D:/COGNITION AND LANGUAGE semester 2","no","Andale Mono","no","18","no","white","no","yes","576","legacy","74","74","3","D:/COGNITION AND LANGUAGE semester 2/subject-5215926.csv","legacy","Lentiform Loewenfeld","3.3.7","yes","yes","600bd7cfb6416f0113b04181","602110864497cf011d9c0822","0","f","NA","return","right","right","return","f","707","NA","2697","22134","6428","4834","707","2","legacy","1024","2","48000","-16","task","5215926","even","NA","40707","45408","42710","205139","2547","31112","24683","205640","146060","205137","205640","205080","45408","206348","39046","204579","2541","198589","Lexical Decision Task","74","63963","79","yes","1024"
"2.8162413","0","5","nusk","non-word","93.75","93.75","806.375","806.375","black","no","legacy","legacy","legacy","0","uniform","1","undefined","undefined","undefined","1","f","0","0","0","0","79","0","0","0","79","0","75","79","75","0","75","3","79","0","79","Thu Feb 18 13:16:08 2021","The main experiment item","yes","Lexical_Decision_Task.osexp","D:/COGNITION AND LANGUAGE semester 2","no","Andale Mono","no","18","no","white","no","yes","576","legacy","75","75","3","D:/COGNITION AND LANGUAGE semester 2/subject-5215926.csv","legacy","Lentiform Loewenfeld","3.3.7","yes","yes","600bd7cfb6416f0113b04181","602110864497cf011d9c0822","0","f","NA","return","right","right","return","f","547","NA","2697","22134","6428","4834","547","2","legacy","1024","2","48000","-16","task","5215926","even","NA","40707","45408","42710","206920","2547","31112","24683","207422","146060","206919","207423","206861","45408","207970","39046","206361","2541","198589","Lexical Decision Task","75","64510","80","yes","1024"
"3.374198258","0","8","vist","non-word","93.82716049382717","93.82716049382717","807.8641975308642","807.8641975308642","black","no","legacy","legacy","legacy","0","uniform","1","undefined","undefined","undefined","1","f","0","0","0","0","80","0","0","0","80","0","76","80","76","0","76","3","80","0","80","Thu Feb 18 13:16:08 2021","The main experiment item","yes","Lexical_Decision_Task.osexp","D:/COGNITION AND LANGUAGE semester 2","no","Andale Mono","no","18","no","white","no","yes","576","legacy","76","76","3","D:/COGNITION AND LANGUAGE semester 2/subject-5215926.csv","legacy","Lentiform Loewenfeld","3.3.7","yes","yes","600bd7cfb6416f0113b04181","602110864497cf011d9c0822","0","f","NA","return","right","right","return","f","927","NA","2697","22134","6428","4834","927","2","legacy","1024","2","48000","-16","task","5215926","even","NA","40707","45408","42710","208537","2547","31112","24683","209038","146060","208535","209038","208484","45408","209966","39046","207984","2541","198589","Lexical Decision Task","76","65437","81","yes","1024"
"3.077974404","10.41","8","tool","word","93.90243902439025","93.90243902439025","805.5121951219512","805.5121951219512","black","no","legacy","legacy","legacy","0","uniform","1","undefined","undefined","undefined","1","j","0","0","0","0","81","0","0","0","81","0","77","81","77","0","77","3","81","0","81","Thu Feb 18 13:16:08 2021","The main experiment item","yes","Lexical_Decision_Task.osexp","D:/COGNITION AND LANGUAGE semester 2","no","Andale Mono","no","18","no","white","no","yes","576","legacy","77","77","3","D:/COGNITION AND LANGUAGE semester 2/subject-5215926.csv","legacy","Lentiform Loewenfeld","3.3.7","yes","yes","600bd7cfb6416f0113b04181","602110864497cf011d9c0822","0","j","NA","return","right","right","return","j","615","NA","2697","22134","6428","4834","615","2","legacy","1024","2","48000","-16","task","5215926","even","NA","40707","45408","42710","210543","2547","31112","24683","211045","146060","210541","211045","210480","45408","211661","39046","209980","2541","198589","Lexical Decision Task","77","66052","82","yes","1024"
"2.892836167","10.01","5","soft","word","93.97590361445783","93.97590361445783","802.9277108433735","802.9277108433735","black","no","legacy","legacy","legacy","0","uniform","1","undefined","undefined","undefined","1","j","0","0","0","0","82","0","0","0","82","0","78","82","78","0","78","3","82","0","82","Thu Feb 18 13:16:08 2021","The main experiment item","yes","Lexical_Decision_Task.osexp","D:/COGNITION AND LANGUAGE semester 2","no","Andale Mono","no","18","no","white","no","yes","576","legacy","78","78","3","D:/COGNITION AND LANGUAGE semester 2/subject-5215926.csv","legacy","Lentiform Loewenfeld","3.3.7","yes","yes","600bd7cfb6416f0113b04181","602110864497cf011d9c0822","0","j","NA","return","right","right","return","j","591","NA","2697","22134","6428","4834","591","2","legacy","1024","2","48000","-16","task","5215926","even","NA","40707","45408","42710","212235","2547","31112","24683","212737","146060","212233","212738","212175","45408","213330","39046","211675","2541","198589","Lexical Decision Task","78","66643","83","yes","1024"
"2.880623071","0","9","curp","non-word","94.04761904761905","94.04761904761905","800.7738095238095","800.7738095238095","black","no","legacy","legacy","legacy","0","uniform","1","undefined","undefined","undefined","1","f","0","0","0","0","83","0","0","0","83","0","79","83","79","0","79","3","83","0","83","Thu Feb 18 13:16:08 2021","The main experiment item","yes","Lexical_Decision_Task.osexp","D:/COGNITION AND LANGUAGE semester 2","no","Andale Mono","no","18","no","white","no","yes","576","legacy","79","79","3","D:/COGNITION AND LANGUAGE semester 2/subject-5215926.csv","legacy","Lentiform Loewenfeld","3.3.7","yes","yes","600bd7cfb6416f0113b04181","602110864497cf011d9c0822","0","f","NA","return","right","right","return","f","622","NA","2697","22134","6428","4834","622","2","legacy","1024","2","48000","-16","task","5215926","even","NA","40707","45408","42710","213907","2547","31112","24683","214411","146060","213906","214411","213845","45408","215035","39046","213345","2541","198589","Lexical Decision Task","79","67265","84","yes","1024"
"3.16326079","0","5","parg","non-word","94.11764705882354","94.11764705882354","799.9176470588235","799.9176470588235","black","no","legacy","legacy","legacy","0","uniform","1","undefined","undefined","undefined","1","f","0","0","0","0","84","0","0","0","84","0","80","84","80","0","80","3","84","0","84","Thu Feb 18 13:16:08 2021","The main experiment item","yes","Lexical_Decision_Task.osexp","D:/COGNITION AND LANGUAGE semester 2","no","Andale Mono","no","18","no","white","no","yes","576","legacy","80","80","3","D:/COGNITION AND LANGUAGE semester 2/subject-5215926.csv","legacy","Lentiform Loewenfeld","3.3.7","yes","yes","600bd7cfb6416f0113b04181","602110864497cf011d9c0822","0","f","NA","return","right","right","return","f","728","NA","2697","22134","6428","4834","728","2","legacy","1024","2","48000","-16","task","5215926","even","NA","40707","45408","42710","215607","2547","31112","24683","216110","146060","215606","216110","215547","45408","216839","39046","215047","2541","198589","Lexical Decision Task","80","67993","85","yes","1024"
"3.120025233","0","2","nyst","non-word","94.18604651162791","94.18604651162791","800.2558139534884","800.2558139534884","black","no","legacy","legacy","legacy","0","uniform","1","undefined","undefined","undefined","1","f","0","0","0","0","85","0","0","0","85","0","81","85","81","0","81","3","85","0","85","Thu Feb 18 13:16:08 2021","The main experiment item","yes","Lexical_Decision_Task.osexp","D:/COGNITION AND LANGUAGE semester 2","no","Andale Mono","no","18","no","white","no","yes","576","legacy","81","81","3","D:/COGNITION AND LANGUAGE semester 2/subject-5215926.csv","legacy","Lentiform Loewenfeld","3.3.7","yes","yes","600bd7cfb6416f0113b04181","602110864497cf011d9c0822","0","f","NA","return","right","right","return","f","829","NA","2697","22134","6428","4834","829","2","legacy","1024","2","48000","-16","task","5215926","even","NA","40707","45408","42710","217416","2547","31112","24683","217918","146060","217414","217919","217356","45408","218749","39046","216856","2541","198589","Lexical Decision Task","81","68822","86","yes","1024"
"2.899092422","7.27","6","snag","word","93.10344827586206","93.10344827586206","803.1724137931035","803.1724137931035","black","no","legacy","legacy","legacy","0","uniform","0","undefined","undefined","undefined","0","j","0","0","0","0","86","0","0","0","86","0","82","86","82","0","82","3","86","0","86","Thu Feb 18 13:16:08 2021","The main experiment item","yes","Lexical_Decision_Task.osexp","D:/COGNITION AND LANGUAGE semester 2","no","Andale Mono","no","18","no","white","no","yes","576","legacy","82","82","3","D:/COGNITION AND LANGUAGE semester 2/subject-5215926.csv","legacy","Lentiform Loewenfeld","3.3.7","yes","yes","600bd7cfb6416f0113b04181","602110864497cf011d9c0822","0","f","NA","return","right","right","return","f","1054","NA","2697","22134","6428","4834","1054","2","legacy","1024","2","48000","-16","task","5215926","even","NA","40707","45408","42710","219323","2547","31112","24683","219824","146060","219322","219824","219262","45408","220880","39046","218762","2541","198589","Lexical Decision Task","81","69876","87","yes","1024"
"3.049218023","7.4","9","robe","word","93.18181818181819","93.18181818181819","800.6136363636364","800.6136363636364","black","no","legacy","legacy","legacy","0","uniform","1","undefined","undefined","undefined","1","j","0","0","0","0","87","0","0","0","87","0","83","87","83","0","83","3","87","0","87","Thu Feb 18 13:16:08 2021","The main experiment item","yes","Lexical_Decision_Task.osexp","D:/COGNITION AND LANGUAGE semester 2","no","Andale Mono","no","18","no","white","no","yes","576","legacy","83","83","3","D:/COGNITION AND LANGUAGE semester 2/subject-5215926.csv","legacy","Lentiform Loewenfeld","3.3.7","yes","yes","600bd7cfb6416f0113b04181","602110864497cf011d9c0822","0","j","NA","return","right","right","return","j","578","NA","2697","22134","6428","4834","578","2","legacy","1024","2","48000","-16","task","5215926","even","NA","40707","45408","42710","222457","2547","31112","24683","222958","146060","222455","222958","222392","45408","223537","39046","218762","2541","220892","Lexical Decision Task","82","70454","88","yes","1024"
"3.15462682","0","6","noal","non-word","93.25842696629213","93.25842696629213","799.1123595505618","799.1123595505618","black","no","legacy","legacy","legacy","0","uniform","1","undefined","undefined","undefined","1","f","0","0","0","0","88","0","0","0","88","0","84","88","84","0","84","3","88","0","88","Thu Feb 18 13:16:08 2021","The main experiment item","yes","Lexical_Decision_Task.osexp","D:/COGNITION AND LANGUAGE semester 2","no","Andale Mono","no","18","no","white","no","yes","576","legacy","84","84","3","D:/COGNITION AND LANGUAGE semester 2/subject-5215926.csv","legacy","Lentiform Loewenfeld","3.3.7","yes","yes","600bd7cfb6416f0113b04181","602110864497cf011d9c0822","0","f","NA","return","right","right","return","f","667","NA","2697","22134","6428","4834","667","2","legacy","1024","2","48000","-16","task","5215926","even","NA","40707","45408","42710","225629","2547","31112","24683","226132","146060","225628","226132","225570","45408","226800","39046","225070","2541","220892","Lexical Decision Task","83","71121","89","yes","1024"
"2.709837904","6.85","8","skim","word","93.33333333333333","93.33333333333333","798.7333333333333","798.7333333333333","black","no","legacy","legacy","legacy","0","uniform","1","undefined","undefined","undefined","1","j","0","0","0","0","89","0","0","0","89","0","85","89","85","0","85","3","89","0","89","Thu Feb 18 13:16:08 2021","The main experiment item","yes","Lexical_Decision_Task.osexp","D:/COGNITION AND LANGUAGE semester 2","no","Andale Mono","no","18","no","white","no","yes","576","legacy","85","85","3","D:/COGNITION AND LANGUAGE semester 2/subject-5215926.csv","legacy","Lentiform Loewenfeld","3.3.7","yes","yes","600bd7cfb6416f0113b04181","602110864497cf011d9c0822","0","j","NA","return","right","right","return","j","765","NA","2697","22134","6428","4834","765","2","legacy","1024","2","48000","-16","task","5215926","even","NA","40707","45408","42710","227373","2547","31112","24683","227874","146060","227372","227874","227313","45408","228640","39046","226813","2541","220892","Lexical Decision Task","84","71886","90","yes","1024"
"3.474361976","5.24","6","veer","word","93.4065934065934","93.4065934065934","798.2527472527472","798.2527472527472","black","no","legacy","legacy","legacy","0","uniform","1","undefined","undefined","undefined","1","j","0","0","0","0","90","0","0","0","90","0","86","90","86","0","86","3","90","0","90","Thu Feb 18 13:16:08 2021","The main experiment item","yes","Lexical_Decision_Task.osexp","D:/COGNITION AND LANGUAGE semester 2","no","Andale Mono","no","18","no","white","no","yes","576","legacy","86","86","3","D:/COGNITION AND LANGUAGE semester 2/subject-5215926.csv","legacy","Lentiform Loewenfeld","3.3.7","yes","yes","600bd7cfb6416f0113b04181","602110864497cf011d9c0822","0","j","NA","return","right","right","return","j","755","NA","2697","22134","6428","4834","755","2","legacy","1024","2","48000","-16","task","5215926","even","NA","40707","45408","42710","229206","2547","31112","24683","229709","146060","229204","229709","229153","45408","230465","39046","228653","2541","220892","Lexical Decision Task","85","72641","91","yes","1024"
"2.839898939","8.99","6","soap","word","93.47826086956522","93.47826086956522","795.5108695652174","795.5108695652174","black","no","legacy","legacy","legacy","0","uniform","1","undefined","undefined","undefined","1","j","0","0","0","0","91","0","0","0","91","0","87","91","87","0","87","3","91","0","91","Thu Feb 18 13:16:08 2021","The main experiment item","yes","Lexical_Decision_Task.osexp","D:/COGNITION AND LANGUAGE semester 2","no","Andale Mono","no","18","no","white","no","yes","576","legacy","87","87","3","D:/COGNITION AND LANGUAGE semester 2/subject-5215926.csv","legacy","Lentiform Loewenfeld","3.3.7","yes","yes","600bd7cfb6416f0113b04181","602110864497cf011d9c0822","0","j","NA","return","right","right","return","j","546","NA","2697","22134","6428","4834","546","2","legacy","1024","2","48000","-16","task","5215926","even","NA","40707","45408","42710","231033","2547","31112","24683","231537","146060","231032","231537","230977","45408","232084","39046","230477","2541","220892","Lexical Decision Task","86","73187","92","yes","1024"
"3.705778213","0","6","stin","non-word","93.54838709677419","93.54838709677419","793.9784946236559","793.9784946236559","black","no","legacy","legacy","legacy","0","uniform","1","undefined","undefined","undefined","1","f","0","0","0","0","92","0","0","0","92","0","88","92","88","0","88","3","92","0","92","Thu Feb 18 13:16:08 2021","The main experiment item","yes","Lexical_Decision_Task.osexp","D:/COGNITION AND LANGUAGE semester 2","no","Andale Mono","no","18","no","white","no","yes","576","legacy","88","88","3","D:/COGNITION AND LANGUAGE semester 2/subject-5215926.csv","legacy","Lentiform Loewenfeld","3.3.7","yes","yes","600bd7cfb6416f0113b04181","602110864497cf011d9c0822","0","f","NA","return","right","right","return","f","653","NA","2697","22134","6428","4834","653","2","legacy","1024","2","48000","-16","task","5215926","even","NA","40707","45408","42710","232661","2547","31112","24683","233163","146060","232660","233164","232603","45408","233819","39046","232103","2541","220892","Lexical Decision Task","87","73840","93","yes","1024"
"3.194328374","9.42","6","harm","word","93.61702127659575","93.61702127659575","790.8829787234042","790.8829787234042","black","no","legacy","legacy","legacy","0","uniform","1","undefined","undefined","undefined","1","j","0","0","0","0","93","0","0","0","93","0","89","93","89","0","89","3","93","0","93","Thu Feb 18 13:16:08 2021","The main experiment item","yes","Lexical_Decision_Task.osexp","D:/COGNITION AND LANGUAGE semester 2","no","Andale Mono","no","18","no","white","no","yes","576","legacy","89","89","3","D:/COGNITION AND LANGUAGE semester 2/subject-5215926.csv","legacy","Lentiform Loewenfeld","3.3.7","yes","yes","600bd7cfb6416f0113b04181","602110864497cf011d9c0822","0","j","NA","return","right","right","return","j","503","NA","2697","22134","6428","4834","503","2","legacy","1024","2","48000","-16","task","5215926","even","NA","40707","45408","42710","234391","2547","31112","24683","234894","146060","234390","234894","234334","45408","235398","39046","233834","2541","220892","Lexical Decision Task","88","74343","94","yes","1024"
"2.971428938","9.86","7","spot","word","93.6842105263158","93.6842105263158","790.0947368421052","790.0947368421052","black","no","legacy","legacy","legacy","0","uniform","1","undefined","undefined","undefined","1","j","0","0","0","0","94","0","0","0","94","0","90","94","90","0","90","3","94","0","94","Thu Feb 18 13:16:08 2021","The main experiment item","yes","Lexical_Decision_Task.osexp","D:/COGNITION AND LANGUAGE semester 2","no","Andale Mono","no","18","no","white","no","yes","576","legacy","90","90","3","D:/COGNITION AND LANGUAGE semester 2/subject-5215926.csv","legacy","Lentiform Loewenfeld","3.3.7","yes","yes","600bd7cfb6416f0113b04181","602110864497cf011d9c0822","0","j","NA","return","right","right","return","j","716","NA","2697","22134","6428","4834","716","2","legacy","1024","2","48000","-16","task","5215926","even","NA","40707","45408","42710","235964","2547","31112","24683","236465","146060","235963","236465","235912","45408","237183","39046","235412","2541","220892","Lexical Decision Task","89","75059","95","yes","1024"
"2.899638141","0","3","hapt","non-word","93.75","93.75","789.4895833333334","789.4895833333334","black","no","legacy","legacy","legacy","0","uniform","1","undefined","undefined","undefined","1","f","0","0","0","0","95","0","0","0","95","0","91","95","91","0","91","3","95","0","95","Thu Feb 18 13:16:08 2021","The main experiment item","yes","Lexical_Decision_Task.osexp","D:/COGNITION AND LANGUAGE semester 2","no","Andale Mono","no","18","no","white","no","yes","576","legacy","91","91","3","D:/COGNITION AND LANGUAGE semester 2/subject-5215926.csv","legacy","Lentiform Loewenfeld","3.3.7","yes","yes","600bd7cfb6416f0113b04181","602110864497cf011d9c0822","0","f","NA","return","right","right","return","f","732","NA","2697","22134","6428","4834","732","2","legacy","1024","2","48000","-16","task","5215926","even","NA","40707","45408","42710","237756","2547","31112","24683","238258","146060","237755","238258","237695","45408","238991","39046","237195","2541","220892","Lexical Decision Task","90","75791","96","yes","1024"
"2.952953801","0","8","clax","non-word","93.81443298969072","93.81443298969072","789.1546391752578","789.1546391752578","black","no","legacy","legacy","legacy","0","uniform","1","undefined","undefined","undefined","1","f","0","0","0","0","96","0","0","0","96","0","92","96","92","0","92","3","96","0","96","Thu Feb 18 13:16:08 2021","The main experiment item","yes","Lexical_Decision_Task.osexp","D:/COGNITION AND LANGUAGE semester 2","no","Andale Mono","no","18","no","white","no","yes","576","legacy","92","92","3","D:/COGNITION AND LANGUAGE semester 2/subject-5215926.csv","legacy","Lentiform Loewenfeld","3.3.7","yes","yes","600bd7cfb6416f0113b04181","602110864497cf011d9c0822","0","f","NA","return","right","right","return","f","757","NA","2697","22134","6428","4834","757","2","legacy","1024","2","48000","-16","task","5215926","even","NA","40707","45408","42710","239571","2547","31112","24683","240074","146060","239569","240074","239507","45408","240832","39046","239006","2541","220892","Lexical Decision Task","91","76548","97","yes","1024"
"3.168400243","9.12","6","horn","word","93.87755102040816","93.87755102040816","786.765306122449","786.765306122449","black","no","legacy","legacy","legacy","0","uniform","1","undefined","undefined","undefined","1","j","0","0","0","0","97","0","0","0","97","0","93","97","93","0","93","3","97","0","97","Thu Feb 18 13:16:08 2021","The main experiment item","yes","Lexical_Decision_Task.osexp","D:/COGNITION AND LANGUAGE semester 2","no","Andale Mono","no","18","no","white","no","yes","576","legacy","93","93","3","D:/COGNITION AND LANGUAGE semester 2/subject-5215926.csv","legacy","Lentiform Loewenfeld","3.3.7","yes","yes","600bd7cfb6416f0113b04181","602110864497cf011d9c0822","0","j","NA","return","right","right","return","j","555","NA","2697","22134","6428","4834","555","2","legacy","1024","2","48000","-16","task","5215926","even","NA","40707","45408","42710","241404","2547","31112","24683","241906","146060","241403","241906","241345","45408","242462","39046","240845","2541","220892","Lexical Decision Task","92","77103","98","yes","1024"
