"Log_BG","Log_Freq_HAL","Ortho_N","Stimulus","Type","acc","accuracy","average_response_time","avg_rt","background","bidi","canvas_backend","clock_backend","color_backend","compensation","coordinates","correct","correct_Experimental_intro","correct_Introduction","correct_Practice_intro","correct_experimenter_kb","correct_response","count_End_Of_Experiment","count_End_Of_Practice","count_Experimental_Loop","count_Experimental_intro","count_Fixation","count_Introduction","count_Practice_Loop","count_Practice_intro","count_Stimulus","count_block_break_feedback","count_experimental_sequence","count_experimenter_kb","count_increment_trial_count","count_init_trial_count","count_logger","count_practice_sequence","count_right","count_task","count_wrong","datetime","description","disable_garbage_collection","experiment_file","experiment_path","font_bold","font_family","font_italic","font_size","font_underline","foreground","form_clicks","fullscreen","height","keyboard_backend","live_row","live_row_Experimental_Loop","live_row_Practice_Loop","logfile","mouse_backend","opensesame_codename","opensesame_version","osf_always_upload_data","osf_always_upload_experiment","osf_datanode_id","osf_id","repeat_cycle","response","response_End_Of_Experiment","response_Experimental_intro","response_Introduction","response_Practice_intro","response_block_break_feedback","response_experimenter_kb","response_time","response_time_End_Of_Experiment","response_time_Experimental_intro","response_time_Introduction","response_time_Practice_intro","response_time_block_break_feedback","response_time_experimenter_kb","round_decimals","sampler_backend","sound_buf_size","sound_channels","sound_freq","sound_sample_size","start","subject_nr","subject_parity","time_End_Of_Experiment","time_End_Of_Practice","time_Experimental_Loop","time_Experimental_intro","time_Fixation","time_Introduction","time_Practice_Loop","time_Practice_intro","time_Stimulus","time_block_break_feedback","time_experimental_sequence","time_experimenter_kb","time_increment_trial_count","time_init_trial_count","time_logger","time_practice_sequence","time_right","time_task","time_wrong","title","total_correct","total_response_time","total_responses","uniform_coordinates","width"
"2.8162413","0","5","nusk","non-word","80","80","1094.4","1094.4","black","no","legacy","legacy","legacy","0","uniform","1","undefined","undefined","undefined","1","f","0","0","0","0","4","0","0","0","4","NA","0","4","0","0","0","3","4","0","4","Tue Feb 16 13:47:39 2021","The main experiment item","yes","Lexical_Decision_Task.osexp","C:/Users/Team Know How","no","Andale Mono","no","18","no","white","no","yes","576","legacy","0","0","3","C:/Users/Team Know How/subject-5205663.csv","legacy","Lentiform Loewenfeld","3.3.7","yes","yes","600bd7cfb6416f0113b04181","602110864497cf011d9c0822","0","f","NA","space","space","d","NA","f","467","NA","5324","6680","43746","NA","467","2","legacy","1024","2","48000","-16","task","5205663","odd","NA","63652","70979","65655","71015","2897","53327","9580","71517","NA","71014","71517","NA","70979","71984","62011","63125","2887","56928","Lexical Decision Task","4","5472","5","yes","1024"
"2.980306438","0","7","slun","non-word","83.33333333333333","83.33333333333333","1003.6666666666666","1003.6666666666666","black","no","legacy","legacy","legacy","0","uniform","1","undefined","undefined","undefined","1","f","0","0","0","0","5","0","0","0","5","NA","1","5","1","0","1","3","5","0","5","Tue Feb 16 13:47:39 2021","The main experiment item","yes","Lexical_Decision_Task.osexp","C:/Users/Team Know How","no","Andale Mono","no","18","no","white","no","yes","576","legacy","1","1","3","C:/Users/Team Know How/subject-5205663.csv","legacy","Lentiform Loewenfeld","3.3.7","yes","yes","600bd7cfb6416f0113b04181","602110864497cf011d9c0822","0","f","NA","space","space","d","NA","f","550","NA","5324","6680","43746","NA","550","2","legacy","1024","2","48000","-16","task","5205663","odd","NA","63652","70979","65655","72562","2897","53327","9580","73066","NA","72561","73066","72494","70979","73616","62011","71994","2887","56928","Lexical Decision Task","5","6022","6","yes","1024"
"2.767650507","0","6","yolt","non-word","85.71428571428571","85.71428571428571","935.5714285714286","935.5714285714286","black","no","legacy","legacy","legacy","0","uniform","1","undefined","undefined","undefined","1","f","0","0","0","0","6","0","0","0","6","NA","2","6","2","0","2","3","6","0","6","Tue Feb 16 13:47:39 2021","The main experiment item","yes","Lexical_Decision_Task.osexp","C:/Users/Team Know How","no","Andale Mono","no","18","no","white","no","yes","576","legacy","2","2","3","C:/Users/Team Know How/subject-5205663.csv","legacy","Lentiform Loewenfeld","3.3.7","yes","yes","600bd7cfb6416f0113b04181","602110864497cf011d9c0822","0","f","NA","space","space","d","NA","f","527","NA","5324","6680","43746","NA","527","2","legacy","1024","2","48000","-16","task","5205663","odd","NA","63652","70979","65655","74179","2897","53327","9580","74681","NA","74177","74681","74124","70979","75208","62011","73624","2887","56928","Lexical Decision Task","6","6549","7","yes","1024"
"2.784379519","0","2","snaf","non-word","87.5","87.5","886.875","886.875","black","no","legacy","legacy","legacy","0","uniform","1","undefined","undefined","undefined","1","f","0","0","0","0","7","0","0","0","7","NA","3","7","3","0","3","3","7","0","7","Tue Feb 16 13:47:39 2021","The main experiment item","yes","Lexical_Decision_Task.osexp","C:/Users/Team Know How","no","Andale Mono","no","18","no","white","no","yes","576","legacy","3","3","3","C:/Users/Team Know How/subject-5205663.csv","legacy","Lentiform Loewenfeld","3.3.7","yes","yes","600bd7cfb6416f0113b04181","602110864497cf011d9c0822","0","f","NA","space","space","d","NA","f","546","NA","5324","6680","43746","NA","546","2","legacy","1024","2","48000","-16","task","5205663","odd","NA","63652","70979","65655","75777","2897","53327","9580","76279","NA","75776","76280","75715","70979","76826","62011","75215","2887","56928","Lexical Decision Task","7","7095","8","yes","1024"
"3.066077331","0","7","vorn","non-word","88.88888888888889","88.88888888888889","842.4444444444445","842.4444444444445","black","no","legacy","legacy","legacy","0","uniform","1","undefined","undefined","undefined","1","f","0","0","0","0","8","0","0","0","8","NA","4","8","4","0","4","3","8","0","8","Tue Feb 16 13:47:39 2021","The main experiment item","yes","Lexical_Decision_Task.osexp","C:/Users/Team Know How","no","Andale Mono","no","18","no","white","no","yes","576","legacy","4","4","3","C:/Users/Team Know How/subject-5205663.csv","legacy","Lentiform Loewenfeld","3.3.7","yes","yes","600bd7cfb6416f0113b04181","602110864497cf011d9c0822","0","f","NA","space","space","d","NA","f","487","NA","5324","6680","43746","NA","487","2","legacy","1024","2","48000","-16","task","5205663","odd","NA","63652","70979","65655","77390","2897","53327","9580","77892","NA","77389","77892","77333","70979","78379","62011","76833","2887","56928","Lexical Decision Task","8","7582","9","yes","1024"
"2.937852093","0","7","bamp","non-word","90","90","813.1","813.1","black","no","legacy","legacy","legacy","0","uniform","1","undefined","undefined","undefined","1","f","0","0","0","0","9","0","0","0","9","NA","5","9","5","0","5","3","9","0","9","Tue Feb 16 13:47:39 2021","The main experiment item","yes","Lexical_Decision_Task.osexp","C:/Users/Team Know How","no","Andale Mono","no","18","no","white","no","yes","576","legacy","5","5","3","C:/Users/Team Know How/subject-5205663.csv","legacy","Lentiform Loewenfeld","3.3.7","yes","yes","600bd7cfb6416f0113b04181","602110864497cf011d9c0822","0","f","NA","space","space","d","NA","f","549","NA","5324","6680","43746","NA","549","2","legacy","1024","2","48000","-16","task","5205663","odd","NA","63652","70979","65655","78948","2897","53327","9580","79451","NA","78947","79451","78886","70979","80000","62011","78386","2887","56928","Lexical Decision Task","9","8131","10","yes","1024"
"3.218535505","7.85","7","goat","word","90.9090909090909","90.9090909090909","784.8181818181819","784.8181818181819","black","no","legacy","legacy","legacy","0","uniform","1","undefined","undefined","undefined","1","j","0","0","0","0","10","0","0","0","10","NA","6","10","6","0","6","3","10","0","10","Tue Feb 16 13:47:39 2021","The main experiment item","yes","Lexical_Decision_Task.osexp","C:/Users/Team Know How","no","Andale Mono","no","18","no","white","no","yes","576","legacy","6","6","3","C:/Users/Team Know How/subject-5205663.csv","legacy","Lentiform Loewenfeld","3.3.7","yes","yes","600bd7cfb6416f0113b04181","602110864497cf011d9c0822","0","j","NA","space","space","d","NA","j","502","NA","5324","6680","43746","NA","502","2","legacy","1024","2","48000","-16","task","5205663","odd","NA","63652","70979","65655","80565","2897","53327","9580","81067","NA","80564","81069","80508","70979","81572","62011","80007","2887","56928","Lexical Decision Task","10","8633","11","yes","1024"
"3.153104174","10.89","6","door","word","91.66666666666667","91.66666666666667","759.4166666666666","759.4166666666666","black","no","legacy","legacy","legacy","0","uniform","1","undefined","undefined","undefined","1","j","0","0","0","0","11","0","0","0","11","NA","7","11","7","0","7","3","11","0","11","Tue Feb 16 13:47:39 2021","The main experiment item","yes","Lexical_Decision_Task.osexp","C:/Users/Team Know How","no","Andale Mono","no","18","no","white","no","yes","576","legacy","7","7","3","C:/Users/Team Know How/subject-5205663.csv","legacy","Lentiform Loewenfeld","3.3.7","yes","yes","600bd7cfb6416f0113b04181","602110864497cf011d9c0822","0","j","NA","space","space","d","NA","j","480","NA","5324","6680","43746","NA","480","2","legacy","1024","2","48000","-16","task","5205663","odd","NA","63652","70979","65655","82136","2897","53327","9580","82638","NA","82134","82639","82079","70979","83119","62011","81579","2887","56928","Lexical Decision Task","11","9113","12","yes","1024"
"3.269668578","0","7","trag","non-word","92.3076923076923","92.3076923076923","753.8461538461538","753.8461538461538","black","no","legacy","legacy","legacy","0","uniform","1","undefined","undefined","undefined","1","f","0","0","0","0","12","0","0","0","12","NA","8","12","8","0","8","3","12","0","12","Tue Feb 16 13:47:39 2021","The main experiment item","yes","Lexical_Decision_Task.osexp","C:/Users/Team Know How","no","Andale Mono","no","18","no","white","no","yes","576","legacy","8","8","3","C:/Users/Team Know How/subject-5205663.csv","legacy","Lentiform Loewenfeld","3.3.7","yes","yes","600bd7cfb6416f0113b04181","602110864497cf011d9c0822","0","f","NA","space","space","d","NA","f","687","NA","5324","6680","43746","NA","687","2","legacy","1024","2","48000","-16","task","5205663","odd","NA","63652","70979","65655","83678","2897","53327","9580","84180","NA","83677","84180","83622","70979","84867","62011","83122","2887","56928","Lexical Decision Task","12","9800","13","yes","1024"
"3.132473155","0","4","glim","non-word","92.85714285714286","92.85714285714286","738.5714285714286","738.5714285714286","black","no","legacy","legacy","legacy","0","uniform","1","undefined","undefined","undefined","1","f","0","0","0","0","13","0","0","0","13","NA","9","13","9","0","9","3","13","0","13","Tue Feb 16 13:47:39 2021","The main experiment item","yes","Lexical_Decision_Task.osexp","C:/Users/Team Know How","no","Andale Mono","no","18","no","white","no","yes","576","legacy","9","9","3","C:/Users/Team Know How/subject-5205663.csv","legacy","Lentiform Loewenfeld","3.3.7","yes","yes","600bd7cfb6416f0113b04181","602110864497cf011d9c0822","0","f","NA","space","space","d","NA","f","540","NA","5324","6680","43746","NA","540","2","legacy","1024","2","48000","-16","task","5205663","odd","NA","63652","70979","65655","85432","2897","53327","9580","85934","NA","85430","85934","85374","70979","86474","62011","84874","2887","56928","Lexical Decision Task","13","10340","14","yes","1024"
"2.693726949","5.08","3","swig","word","86.66666666666667","86.66666666666667","729.2","729.2","black","no","legacy","legacy","legacy","0","uniform","0","undefined","undefined","undefined","0","j","0","0","0","0","14","0","0","0","14","NA","10","14","10","0","10","3","14","0","14","Tue Feb 16 13:47:39 2021","The main experiment item","yes","Lexical_Decision_Task.osexp","C:/Users/Team Know How","no","Andale Mono","no","18","no","white","no","yes","576","legacy","10","10","3","C:/Users/Team Know How/subject-5205663.csv","legacy","Lentiform Loewenfeld","3.3.7","yes","yes","600bd7cfb6416f0113b04181","602110864497cf011d9c0822","0","f","NA","space","space","d","NA","f","598","NA","5324","6680","43746","NA","598","2","legacy","1024","2","48000","-16","task","5205663","odd","NA","63652","70979","65655","87032","2897","53327","9580","87534","NA","87030","87534","86981","70979","88133","62011","86481","2887","56928","Lexical Decision Task","13","10938","15","yes","1024"
"2.696356389","0","1","pizz","non-word","87.5","87.5","724.125","724.125","black","no","legacy","legacy","legacy","0","uniform","1","undefined","undefined","undefined","1","f","0","0","0","0","15","0","0","0","15","NA","11","15","11","0","11","3","15","0","15","Tue Feb 16 13:47:39 2021","The main experiment item","yes","Lexical_Decision_Task.osexp","C:/Users/Team Know How","no","Andale Mono","no","18","no","white","no","yes","576","legacy","11","11","3","C:/Users/Team Know How/subject-5205663.csv","legacy","Lentiform Loewenfeld","3.3.7","yes","yes","600bd7cfb6416f0113b04181","602110864497cf011d9c0822","0","f","NA","space","space","d","NA","f","648","NA","5324","6680","43746","NA","648","2","legacy","1024","2","48000","-16","task","5205663","odd","NA","63652","70979","65655","89703","2897","53327","9580","90205","NA","89702","90205","89637","70979","90853","62011","86481","2887","88137","Lexical Decision Task","14","11586","16","yes","1024"
"2.86332286","6.71","2","feud","word","88.23529411764706","88.23529411764706","725.2352941176471","725.2352941176471","black","no","legacy","legacy","legacy","0","uniform","1","undefined","undefined","undefined","1","j","0","0","0","0","16","0","0","0","16","NA","12","16","12","0","12","3","16","0","16","Tue Feb 16 13:47:39 2021","The main experiment item","yes","Lexical_Decision_Task.osexp","C:/Users/Team Know How","no","Andale Mono","no","18","no","white","no","yes","576","legacy","12","12","3","C:/Users/Team Know How/subject-5205663.csv","legacy","Lentiform Loewenfeld","3.3.7","yes","yes","600bd7cfb6416f0113b04181","602110864497cf011d9c0822","0","j","NA","space","space","d","NA","j","743","NA","5324","6680","43746","NA","743","2","legacy","1024","2","48000","-16","task","5205663","odd","NA","63652","70979","65655","91419","2897","53327","9580","91924","NA","91418","91924","91361","70979","92667","62011","90861","2887","88137","Lexical Decision Task","15","12329","17","yes","1024"
"2.695481676","0","7","goke","non-word","88.88888888888889","88.88888888888889","719.0555555555555","719.0555555555555","black","no","legacy","legacy","legacy","0","uniform","1","undefined","undefined","undefined","1","f","0","0","0","0","17","0","0","0","17","NA","13","17","13","0","13","3","17","0","17","Tue Feb 16 13:47:39 2021","The main experiment item","yes","Lexical_Decision_Task.osexp","C:/Users/Team Know How","no","Andale Mono","no","18","no","white","no","yes","576","legacy","13","13","3","C:/Users/Team Know How/subject-5205663.csv","legacy","Lentiform Loewenfeld","3.3.7","yes","yes","600bd7cfb6416f0113b04181","602110864497cf011d9c0822","0","f","NA","space","space","d","NA","f","614","NA","5324","6680","43746","NA","614","2","legacy","1024","2","48000","-16","task","5205663","odd","NA","63652","70979","65655","93233","2897","53327","9580","93734","NA","93231","93735","93174","70979","94349","62011","92674","2887","88137","Lexical Decision Task","16","12943","18","yes","1024"
"3.062080345","0","6","tomp","non-word","89.47368421052632","89.47368421052632","710.8947368421053","710.8947368421053","black","no","legacy","legacy","legacy","0","uniform","1","undefined","undefined","undefined","1","f","0","0","0","0","18","0","0","0","18","NA","14","18","14","0","14","3","18","0","18","Tue Feb 16 13:47:39 2021","The main experiment item","yes","Lexical_Decision_Task.osexp","C:/Users/Team Know How","no","Andale Mono","no","18","no","white","no","yes","576","legacy","14","14","3","C:/Users/Team Know How/subject-5205663.csv","legacy","Lentiform Loewenfeld","3.3.7","yes","yes","600bd7cfb6416f0113b04181","602110864497cf011d9c0822","0","f","NA","space","space","d","NA","f","564","NA","5324","6680","43746","NA","564","2","legacy","1024","2","48000","-16","task","5205663","odd","NA","63652","70979","65655","94907","2897","53327","9580","95408","NA","94905","95408","94857","70979","95973","62011","94357","2887","88137","Lexical Decision Task","17","13507","19","yes","1024"
"2.616654026","9.37","5","gift","word","90","90","700.6","700.6","black","no","legacy","legacy","legacy","0","uniform","1","undefined","undefined","undefined","1","j","0","0","0","0","19","0","0","0","19","NA","15","19","15","0","15","3","19","0","19","Tue Feb 16 13:47:39 2021","The main experiment item","yes","Lexical_Decision_Task.osexp","C:/Users/Team Know How","no","Andale Mono","no","18","no","white","no","yes","576","legacy","15","15","3","C:/Users/Team Know How/subject-5205663.csv","legacy","Lentiform Loewenfeld","3.3.7","yes","yes","600bd7cfb6416f0113b04181","602110864497cf011d9c0822","0","j","NA","space","space","d","NA","j","505","NA","5324","6680","43746","NA","505","2","legacy","1024","2","48000","-16","task","5205663","odd","NA","63652","70979","65655","96531","2897","53327","9580","97033","NA","96530","97034","96480","70979","97539","62011","95980","2887","88137","Lexical Decision Task","18","14012","20","yes","1024"
"3.29439347","8.6","9","wand","word","90.47619047619048","90.47619047619048","700.952380952381","700.952380952381","black","no","legacy","legacy","legacy","0","uniform","1","undefined","undefined","undefined","1","j","0","0","0","0","20","0","0","0","20","NA","16","20","16","0","16","3","20","0","20","Tue Feb 16 13:47:39 2021","The main experiment item","yes","Lexical_Decision_Task.osexp","C:/Users/Team Know How","no","Andale Mono","no","18","no","white","no","yes","576","legacy","16","16","3","C:/Users/Team Know How/subject-5205663.csv","legacy","Lentiform Loewenfeld","3.3.7","yes","yes","600bd7cfb6416f0113b04181","602110864497cf011d9c0822","0","j","NA","space","space","d","NA","j","708","NA","5324","6680","43746","NA","708","2","legacy","1024","2","48000","-16","task","5205663","odd","NA","63652","70979","65655","98103","2897","53327","9580","98605","NA","98101","98605","98046","70979","99313","62011","97546","2887","88137","Lexical Decision Task","19","14720","21","yes","1024"
"2.6599162","0","2","saff","non-word","90.9090909090909","90.9090909090909","693","693","black","no","legacy","legacy","legacy","0","uniform","1","undefined","undefined","undefined","1","f","0","0","0","0","21","0","0","0","21","NA","17","21","17","0","17","3","21","0","21","Tue Feb 16 13:47:39 2021","The main experiment item","yes","Lexical_Decision_Task.osexp","C:/Users/Team Know How","no","Andale Mono","no","18","no","white","no","yes","576","legacy","17","17","3","C:/Users/Team Know How/subject-5205663.csv","legacy","Lentiform Loewenfeld","3.3.7","yes","yes","600bd7cfb6416f0113b04181","602110864497cf011d9c0822","0","f","NA","space","space","d","NA","f","526","NA","5324","6680","43746","NA","526","2","legacy","1024","2","48000","-16","task","5205663","odd","NA","63652","70979","65655","99880","2897","53327","9580","100383","NA","99878","100383","99821","70979","100910","62011","99320","2887","88137","Lexical Decision Task","20","15246","22","yes","1024"
"2.9737419","7.69","7","claw","word","91.30434782608695","91.30434782608695","684.6521739130435","684.6521739130435","black","no","legacy","legacy","legacy","0","uniform","1","undefined","undefined","undefined","1","j","0","0","0","0","22","0","0","0","22","NA","18","22","18","0","18","3","22","0","22","Tue Feb 16 13:47:39 2021","The main experiment item","yes","Lexical_Decision_Task.osexp","C:/Users/Team Know How","no","Andale Mono","no","18","no","white","no","yes","576","legacy","18","18","3","C:/Users/Team Know How/subject-5205663.csv","legacy","Lentiform Loewenfeld","3.3.7","yes","yes","600bd7cfb6416f0113b04181","602110864497cf011d9c0822","0","j","NA","space","space","d","NA","j","501","NA","5324","6680","43746","NA","501","2","legacy","1024","2","48000","-16","task","5205663","odd","NA","63652","70979","65655","101477","2897","53327","9580","101980","NA","101476","101981","101417","70979","102483","62011","100917","2887","88137","Lexical Decision Task","21","15747","23","yes","1024"
"2.75025376","10.2","6","jump","word","91.66666666666667","91.66666666666667","674.3333333333334","674.3333333333334","black","no","legacy","legacy","legacy","0","uniform","1","undefined","undefined","undefined","1","j","0","0","0","0","23","0","0","0","23","NA","19","23","19","0","19","3","23","0","23","Tue Feb 16 13:47:39 2021","The main experiment item","yes","Lexical_Decision_Task.osexp","C:/Users/Team Know How","no","Andale Mono","no","18","no","white","no","yes","576","legacy","19","19","3","C:/Users/Team Know How/subject-5205663.csv","legacy","Lentiform Loewenfeld","3.3.7","yes","yes","600bd7cfb6416f0113b04181","602110864497cf011d9c0822","0","j","NA","space","space","d","NA","j","437","NA","5324","6680","43746","NA","437","2","legacy","1024","2","48000","-16","task","5205663","odd","NA","63652","70979","65655","103048","2897","53327","9580","103551","NA","103047","103551","102989","70979","103988","62011","102489","2887","88137","Lexical Decision Task","22","16184","24","yes","1024"
"3.195807436","0","6","stup","non-word","92","92","673","673","black","no","legacy","legacy","legacy","0","uniform","1","undefined","undefined","undefined","1","f","0","0","0","0","24","0","0","0","24","NA","20","24","20","0","20","3","24","0","24","Tue Feb 16 13:47:39 2021","The main experiment item","yes","Lexical_Decision_Task.osexp","C:/Users/Team Know How","no","Andale Mono","no","18","no","white","no","yes","576","legacy","20","20","3","C:/Users/Team Know How/subject-5205663.csv","legacy","Lentiform Loewenfeld","3.3.7","yes","yes","600bd7cfb6416f0113b04181","602110864497cf011d9c0822","0","f","NA","space","space","d","NA","f","641","NA","5324","6680","43746","NA","641","2","legacy","1024","2","48000","-16","task","5205663","odd","NA","63652","70979","65655","104551","2897","53327","9580","105053","NA","104549","105054","104495","70979","105696","62011","103995","2887","88137","Lexical Decision Task","23","16825","25","yes","1024"
"2.979548375","8.71","4","soup","word","92.3076923076923","92.3076923076923","665.3076923076923","665.3076923076923","black","no","legacy","legacy","legacy","0","uniform","1","undefined","undefined","undefined","1","j","0","0","0","0","25","0","0","0","25","NA","21","25","21","0","21","3","25","0","25","Tue Feb 16 13:47:39 2021","The main experiment item","yes","Lexical_Decision_Task.osexp","C:/Users/Team Know How","no","Andale Mono","no","18","no","white","no","yes","576","legacy","21","21","3","C:/Users/Team Know How/subject-5205663.csv","legacy","Lentiform Loewenfeld","3.3.7","yes","yes","600bd7cfb6416f0113b04181","602110864497cf011d9c0822","0","j","NA","space","space","d","NA","j","473","NA","5324","6680","43746","NA","473","2","legacy","1024","2","48000","-16","task","5205663","odd","NA","63652","70979","65655","106261","2897","53327","9580","106763","NA","106260","106764","106203","70979","107237","62011","105703","2887","88137","Lexical Decision Task","24","17298","26","yes","1024"
"2.807758206","6.25","4","hurl","word","88.88888888888889","88.88888888888889","662.5555555555555","662.5555555555555","black","no","legacy","legacy","legacy","0","uniform","0","undefined","undefined","undefined","0","j","0","0","0","0","26","0","0","0","26","NA","22","26","22","0","22","3","26","0","26","Tue Feb 16 13:47:39 2021","The main experiment item","yes","Lexical_Decision_Task.osexp","C:/Users/Team Know How","no","Andale Mono","no","18","no","white","no","yes","576","legacy","22","22","3","C:/Users/Team Know How/subject-5205663.csv","legacy","Lentiform Loewenfeld","3.3.7","yes","yes","600bd7cfb6416f0113b04181","602110864497cf011d9c0822","0","f","NA","space","space","d","NA","f","591","NA","5324","6680","43746","NA","591","2","legacy","1024","2","48000","-16","task","5205663","odd","NA","63652","70979","65655","107817","2897","53327","9580","108318","NA","107815","108318","107745","70979","108909","62011","107245","2887","88137","Lexical Decision Task","24","17889","27","yes","1024"
"3.031408464","0","7","drow","non-word","85.71428571428571","85.71428571428571","658.8928571428571","658.8928571428571","black","no","legacy","legacy","legacy","0","uniform","0","undefined","undefined","undefined","0","f","0","0","0","0","27","0","0","0","27","NA","23","27","23","0","23","3","27","0","27","Tue Feb 16 13:47:39 2021","The main experiment item","yes","Lexical_Decision_Task.osexp","C:/Users/Team Know How","no","Andale Mono","no","18","no","white","no","yes","576","legacy","23","23","3","C:/Users/Team Know How/subject-5205663.csv","legacy","Lentiform Loewenfeld","3.3.7","yes","yes","600bd7cfb6416f0113b04181","602110864497cf011d9c0822","0","j","NA","space","space","d","NA","j","560","NA","5324","6680","43746","NA","560","2","legacy","1024","2","48000","-16","task","5205663","odd","NA","63652","70979","65655","110478","2897","53327","9580","110981","NA","110477","110981","110416","70979","111542","62011","107245","2887","108916","Lexical Decision Task","24","18449","28","yes","1024"
"3.366547468","0","6","plat","non-word","86.20689655172414","86.20689655172414","659.3448275862069","659.3448275862069","black","no","legacy","legacy","legacy","0","uniform","1","undefined","undefined","undefined","1","f","0","0","0","0","28","0","0","0","28","NA","24","28","24","0","24","3","28","0","28","Tue Feb 16 13:47:39 2021","The main experiment item","yes","Lexical_Decision_Task.osexp","C:/Users/Team Know How","no","Andale Mono","no","18","no","white","no","yes","576","legacy","24","24","3","C:/Users/Team Know How/subject-5205663.csv","legacy","Lentiform Loewenfeld","3.3.7","yes","yes","600bd7cfb6416f0113b04181","602110864497cf011d9c0822","0","f","NA","space","space","d","NA","f","672","NA","5324","6680","43746","NA","672","2","legacy","1024","2","48000","-16","task","5205663","odd","NA","63652","70979","65655","113115","2897","53327","9580","113617","NA","113113","113618","113049","70979","114291","62011","107245","2887","111549","Lexical Decision Task","25","19121","29","yes","1024"
"3.031812271","6.52","3","gulp","word","86.66666666666667","86.66666666666667","658.1333333333333","658.1333333333333","black","no","legacy","legacy","legacy","0","uniform","1","undefined","undefined","undefined","1","j","0","0","0","0","29","0","0","0","29","NA","25","29","25","0","25","3","29","0","29","Tue Feb 16 13:47:39 2021","The main experiment item","yes","Lexical_Decision_Task.osexp","C:/Users/Team Know How","no","Andale Mono","no","18","no","white","no","yes","576","legacy","25","25","3","C:/Users/Team Know How/subject-5205663.csv","legacy","Lentiform Loewenfeld","3.3.7","yes","yes","600bd7cfb6416f0113b04181","602110864497cf011d9c0822","0","j","NA","space","space","d","NA","j","623","NA","5324","6680","43746","NA","623","2","legacy","1024","2","48000","-16","task","5205663","odd","NA","63652","70979","65655","114861","2897","53327","9580","115364","NA","114859","115364","114798","70979","115988","62011","114298","2887","111549","Lexical Decision Task","26","19744","30","yes","1024"
"3.492014979","0","9","yine","non-word","87.09677419354838","87.09677419354838","658.0967741935484","658.0967741935484","black","no","legacy","legacy","legacy","0","uniform","1","undefined","undefined","undefined","1","f","0","0","0","0","30","0","0","0","30","NA","26","30","26","0","26","3","30","0","30","Tue Feb 16 13:47:39 2021","The main experiment item","yes","Lexical_Decision_Task.osexp","C:/Users/Team Know How","no","Andale Mono","no","18","no","white","no","yes","576","legacy","26","26","3","C:/Users/Team Know How/subject-5205663.csv","legacy","Lentiform Loewenfeld","3.3.7","yes","yes","600bd7cfb6416f0113b04181","602110864497cf011d9c0822","0","f","NA","space","space","d","NA","f","657","NA","5324","6680","43746","NA","657","2","legacy","1024","2","48000","-16","task","5205663","odd","NA","63652","70979","65655","116554","2897","53327","9580","117056","NA","116553","117057","116495","70979","117714","62011","115995","2887","111549","Lexical Decision Task","27","20401","31","yes","1024"
"2.895974732","6.65","5","sift","word","87.5","87.5","658.375","658.375","black","no","legacy","legacy","legacy","0","uniform","1","undefined","undefined","undefined","1","j","0","0","0","0","31","0","0","0","31","NA","27","31","27","0","27","3","31","0","31","Tue Feb 16 13:47:39 2021","The main experiment item","yes","Lexical_Decision_Task.osexp","C:/Users/Team Know How","no","Andale Mono","no","18","no","white","no","yes","576","legacy","27","27","3","C:/Users/Team Know How/subject-5205663.csv","legacy","Lentiform Loewenfeld","3.3.7","yes","yes","600bd7cfb6416f0113b04181","602110864497cf011d9c0822","0","j","NA","space","space","d","NA","j","667","NA","5324","6680","43746","NA","667","2","legacy","1024","2","48000","-16","task","5205663","odd","NA","63652","70979","65655","118279","2897","53327","9580","118781","NA","118278","118782","118222","70979","119449","62011","117722","2887","111549","Lexical Decision Task","28","21068","32","yes","1024"
"3.274157849","0","8","leet","non-word","87.87878787878788","87.87878787878788","654.8484848484849","654.8484848484849","black","no","legacy","legacy","legacy","0","uniform","1","undefined","undefined","undefined","1","f","0","0","0","0","32","0","0","0","32","NA","28","32","28","0","28","3","32","0","32","Tue Feb 16 13:47:39 2021","The main experiment item","yes","Lexical_Decision_Task.osexp","C:/Users/Team Know How","no","Andale Mono","no","18","no","white","no","yes","576","legacy","28","28","3","C:/Users/Team Know How/subject-5205663.csv","legacy","Lentiform Loewenfeld","3.3.7","yes","yes","600bd7cfb6416f0113b04181","602110864497cf011d9c0822","0","f","NA","space","space","d","NA","f","542","NA","5324","6680","43746","NA","542","2","legacy","1024","2","48000","-16","task","5205663","odd","NA","63652","70979","65655","120015","2897","53327","9580","120518","NA","120014","120518","119955","70979","121060","62011","119455","2887","111549","Lexical Decision Task","29","21610","33","yes","1024"
"2.843025032","0","9","pusk","non-word","88.23529411764706","88.23529411764706","653.6764705882352","653.6764705882352","black","no","legacy","legacy","legacy","0","uniform","1","undefined","undefined","undefined","1","f","0","0","0","0","33","0","0","0","33","NA","29","33","29","0","29","3","33","0","33","Tue Feb 16 13:47:39 2021","The main experiment item","yes","Lexical_Decision_Task.osexp","C:/Users/Team Know How","no","Andale Mono","no","18","no","white","no","yes","576","legacy","29","29","3","C:/Users/Team Know How/subject-5205663.csv","legacy","Lentiform Loewenfeld","3.3.7","yes","yes","600bd7cfb6416f0113b04181","602110864497cf011d9c0822","0","f","NA","space","space","d","NA","f","615","NA","5324","6680","43746","NA","615","2","legacy","1024","2","48000","-16","task","5205663","odd","NA","63652","70979","65655","121625","2897","53327","9580","122127","NA","121624","122127","121567","70979","122743","62011","121067","2887","111549","Lexical Decision Task","30","22225","34","yes","1024"
"3.156347201","0","8","lasp","non-word","88.57142857142857","88.57142857142857","650.7428571428571","650.7428571428571","black","no","legacy","legacy","legacy","0","uniform","1","undefined","undefined","undefined","1","f","0","0","0","0","34","0","0","0","34","NA","30","34","30","0","30","3","34","0","34","Tue Feb 16 13:47:39 2021","The main experiment item","yes","Lexical_Decision_Task.osexp","C:/Users/Team Know How","no","Andale Mono","no","18","no","white","no","yes","576","legacy","30","30","3","C:/Users/Team Know How/subject-5205663.csv","legacy","Lentiform Loewenfeld","3.3.7","yes","yes","600bd7cfb6416f0113b04181","602110864497cf011d9c0822","0","f","NA","space","space","d","NA","f","551","NA","5324","6680","43746","NA","551","2","legacy","1024","2","48000","-16","task","5205663","odd","NA","63652","70979","65655","123312","2897","53327","9580","123815","NA","123311","123815","123251","70979","124367","62011","122751","2887","111549","Lexical Decision Task","31","22776","35","yes","1024"
"2.880623071","0","9","curp","non-word","88.88888888888889","88.88888888888889","648.8888888888889","648.8888888888889","black","no","legacy","legacy","legacy","0","uniform","1","undefined","undefined","undefined","1","f","0","0","0","0","35","0","0","0","35","NA","31","35","31","0","31","3","35","0","35","Tue Feb 16 13:47:39 2021","The main experiment item","yes","Lexical_Decision_Task.osexp","C:/Users/Team Know How","no","Andale Mono","no","18","no","white","no","yes","576","legacy","31","31","3","C:/Users/Team Know How/subject-5205663.csv","legacy","Lentiform Loewenfeld","3.3.7","yes","yes","600bd7cfb6416f0113b04181","602110864497cf011d9c0822","0","f","NA","space","space","d","NA","f","584","NA","5324","6680","43746","NA","584","2","legacy","1024","2","48000","-16","task","5205663","odd","NA","63652","70979","65655","124932","2897","53327","9580","125433","NA","124930","125433","124874","70979","126017","62011","124374","2887","111549","Lexical Decision Task","32","23360","36","yes","1024"
"3.274543461","7.46","7","scar","word","89.1891891891892","89.1891891891892","645.1621621621622","645.1621621621622","black","no","legacy","legacy","legacy","0","uniform","1","undefined","undefined","undefined","1","j","0","0","0","0","36","0","0","0","36","NA","32","36","32","0","32","3","36","0","36","Tue Feb 16 13:47:39 2021","The main experiment item","yes","Lexical_Decision_Task.osexp","C:/Users/Team Know How","no","Andale Mono","no","18","no","white","no","yes","576","legacy","32","32","3","C:/Users/Team Know How/subject-5205663.csv","legacy","Lentiform Loewenfeld","3.3.7","yes","yes","600bd7cfb6416f0113b04181","602110864497cf011d9c0822","0","j","NA","space","space","d","NA","j","511","NA","5324","6680","43746","NA","511","2","legacy","1024","2","48000","-16","task","5205663","odd","NA","63652","70979","65655","126575","2897","53327","9580","127077","NA","126574","127078","126524","70979","127589","62011","126024","2887","111549","Lexical Decision Task","33","23871","37","yes","1024"
"3.088136089","8.32","9","worm","word","89.47368421052632","89.47368421052632","647.2894736842105","647.2894736842105","black","no","legacy","legacy","legacy","0","uniform","1","undefined","undefined","undefined","1","j","0","0","0","0","37","0","0","0","37","NA","33","37","33","0","33","3","37","0","37","Tue Feb 16 13:47:39 2021","The main experiment item","yes","Lexical_Decision_Task.osexp","C:/Users/Team Know How","no","Andale Mono","no","18","no","white","no","yes","576","legacy","33","33","3","C:/Users/Team Know How/subject-5205663.csv","legacy","Lentiform Loewenfeld","3.3.7","yes","yes","600bd7cfb6416f0113b04181","602110864497cf011d9c0822","0","j","NA","space","space","d","NA","j","726","NA","5324","6680","43746","NA","726","2","legacy","1024","2","48000","-16","task","5205663","odd","NA","63652","70979","65655","128155","2897","53327","9580","128657","NA","128153","128657","128097","70979","129384","62011","127597","2887","111549","Lexical Decision Task","34","24597","38","yes","1024"
"3.374198258","0","8","vist","non-word","87.17948717948718","87.17948717948718","643.4615384615385","643.4615384615385","black","no","legacy","legacy","legacy","0","uniform","0","undefined","undefined","undefined","0","f","0","0","0","0","38","0","0","0","38","NA","34","38","34","0","34","3","38","0","38","Tue Feb 16 13:47:39 2021","The main experiment item","yes","Lexical_Decision_Task.osexp","C:/Users/Team Know How","no","Andale Mono","no","18","no","white","no","yes","576","legacy","34","34","3","C:/Users/Team Know How/subject-5205663.csv","legacy","Lentiform Loewenfeld","3.3.7","yes","yes","600bd7cfb6416f0113b04181","602110864497cf011d9c0822","0","j","NA","space","space","d","NA","j","498","NA","5324","6680","43746","NA","498","2","legacy","1024","2","48000","-16","task","5205663","odd","NA","63652","70979","65655","129954","2897","53327","9580","130457","NA","129953","130457","129893","70979","130955","62011","129392","2887","111549","Lexical Decision Task","34","25095","39","yes","1024"
"3.374137706","10.21","4","tree","word","87.5","87.5","640","640","black","no","legacy","legacy","legacy","0","uniform","1","undefined","undefined","undefined","1","j","0","0","0","0","39","0","0","0","39","NA","35","39","35","0","35","3","39","0","39","Tue Feb 16 13:47:39 2021","The main experiment item","yes","Lexical_Decision_Task.osexp","C:/Users/Team Know How","no","Andale Mono","no","18","no","white","no","yes","576","legacy","35","35","3","C:/Users/Team Know How/subject-5205663.csv","legacy","Lentiform Loewenfeld","3.3.7","yes","yes","600bd7cfb6416f0113b04181","602110864497cf011d9c0822","0","j","NA","space","space","d","NA","j","505","NA","5324","6680","43746","NA","505","2","legacy","1024","2","48000","-16","task","5205663","odd","NA","63652","70979","65655","132528","2897","53327","9580","133030","NA","132526","133031","132462","70979","133537","62011","129392","2887","130962","Lexical Decision Task","35","25600","40","yes","1024"
"3.431095062","5.74","9","perk","word","87.8048780487805","87.8048780487805","641.2439024390244","641.2439024390244","black","no","legacy","legacy","legacy","0","uniform","1","undefined","undefined","undefined","1","j","0","0","0","0","40","0","0","0","40","NA","36","40","36","0","36","3","40","0","40","Tue Feb 16 13:47:39 2021","The main experiment item","yes","Lexical_Decision_Task.osexp","C:/Users/Team Know How","no","Andale Mono","no","18","no","white","no","yes","576","legacy","36","36","3","C:/Users/Team Know How/subject-5205663.csv","legacy","Lentiform Loewenfeld","3.3.7","yes","yes","600bd7cfb6416f0113b04181","602110864497cf011d9c0822","0","j","NA","space","space","d","NA","j","691","NA","5324","6680","43746","NA","691","2","legacy","1024","2","48000","-16","task","5205663","odd","NA","63652","70979","65655","134104","2897","53327","9580","134607","NA","134102","134608","134044","70979","135299","62011","133544","2887","130962","Lexical Decision Task","36","26291","41","yes","1024"
"3.100255637","0","6","brax","non-word","88.0952380952381","88.0952380952381","641.4047619047619","641.4047619047619","black","no","legacy","legacy","legacy","0","uniform","1","undefined","undefined","undefined","1","f","0","0","0","0","41","0","0","0","41","NA","37","41","37","0","37","3","41","0","41","Tue Feb 16 13:47:39 2021","The main experiment item","yes","Lexical_Decision_Task.osexp","C:/Users/Team Know How","no","Andale Mono","no","18","no","white","no","yes","576","legacy","37","37","3","C:/Users/Team Know How/subject-5205663.csv","legacy","Lentiform Loewenfeld","3.3.7","yes","yes","600bd7cfb6416f0113b04181","602110864497cf011d9c0822","0","f","NA","space","space","d","NA","f","648","NA","5324","6680","43746","NA","648","2","legacy","1024","2","48000","-16","task","5205663","odd","NA","63652","70979","65655","135865","2897","53327","9580","136367","NA","135864","136368","135806","70979","137017","62011","135306","2887","130962","Lexical Decision Task","37","26939","42","yes","1024"
"2.793790385","5.67","9","swab","word","88.37209302325581","88.37209302325581","639.8837209302326","639.8837209302326","black","no","legacy","legacy","legacy","0","uniform","1","undefined","undefined","undefined","1","j","0","0","0","0","42","0","0","0","42","NA","38","42","38","0","38","3","42","0","42","Tue Feb 16 13:47:39 2021","The main experiment item","yes","Lexical_Decision_Task.osexp","C:/Users/Team Know How","no","Andale Mono","no","18","no","white","no","yes","576","legacy","38","38","3","C:/Users/Team Know How/subject-5205663.csv","legacy","Lentiform Loewenfeld","3.3.7","yes","yes","600bd7cfb6416f0113b04181","602110864497cf011d9c0822","0","j","NA","space","space","d","NA","j","576","NA","5324","6680","43746","NA","576","2","legacy","1024","2","48000","-16","task","5205663","odd","NA","63652","70979","65655","137581","2897","53327","9580","138084","NA","137580","138084","137524","70979","138661","62011","137024","2887","130962","Lexical Decision Task","38","27515","43","yes","1024"
"2.6599162","0","6","flug","non-word","88.63636363636364","88.63636363636364","640.9772727272727","640.9772727272727","black","no","legacy","legacy","legacy","0","uniform","1","undefined","undefined","undefined","1","f","0","0","0","0","43","0","0","0","43","NA","39","43","39","0","39","3","43","0","43","Tue Feb 16 13:47:39 2021","The main experiment item","yes","Lexical_Decision_Task.osexp","C:/Users/Team Know How","no","Andale Mono","no","18","no","white","no","yes","576","legacy","39","39","3","C:/Users/Team Know How/subject-5205663.csv","legacy","Lentiform Loewenfeld","3.3.7","yes","yes","600bd7cfb6416f0113b04181","602110864497cf011d9c0822","0","f","NA","space","space","d","NA","f","688","NA","5324","6680","43746","NA","688","2","legacy","1024","2","48000","-16","task","5205663","odd","NA","63652","70979","65655","139227","2897","53327","9580","139729","NA","139226","139729","139169","70979","140418","62011","138669","2887","130962","Lexical Decision Task","39","28203","44","yes","1024"
"3.230789326","5.38","5","prim","word","88.88888888888889","88.88888888888889","649.1111111111111","649.1111111111111","black","no","legacy","legacy","legacy","0","uniform","1","undefined","undefined","undefined","1","j","0","0","0","0","44","0","0","0","44","NA","40","44","40","0","40","3","44","0","44","Tue Feb 16 13:47:39 2021","The main experiment item","yes","Lexical_Decision_Task.osexp","C:/Users/Team Know How","no","Andale Mono","no","18","no","white","no","yes","576","legacy","40","40","3","C:/Users/Team Know How/subject-5205663.csv","legacy","Lentiform Loewenfeld","3.3.7","yes","yes","600bd7cfb6416f0113b04181","602110864497cf011d9c0822","0","j","NA","space","space","d","NA","j","1007","NA","5324","6680","43746","NA","1007","2","legacy","1024","2","48000","-16","task","5205663","odd","NA","63652","70979","65655","140988","2897","53327","9580","141489","NA","140985","141489","140925","70979","142497","62011","140425","2887","130962","Lexical Decision Task","40","29210","45","yes","1024"
"3.1430148","7.92","8","bald","word","89.1304347826087","89.1304347826087","646.8260869565217","646.8260869565217","black","no","legacy","legacy","legacy","0","uniform","1","undefined","undefined","undefined","1","j","0","0","0","0","45","0","0","0","45","NA","41","45","41","0","41","3","45","0","45","Tue Feb 16 13:47:39 2021","The main experiment item","yes","Lexical_Decision_Task.osexp","C:/Users/Team Know How","no","Andale Mono","no","18","no","white","no","yes","576","legacy","41","41","3","C:/Users/Team Know How/subject-5205663.csv","legacy","Lentiform Loewenfeld","3.3.7","yes","yes","600bd7cfb6416f0113b04181","602110864497cf011d9c0822","0","j","NA","space","space","d","NA","j","544","NA","5324","6680","43746","NA","544","2","legacy","1024","2","48000","-16","task","5205663","odd","NA","63652","70979","65655","143061","2897","53327","9580","143563","NA","143059","143564","143004","70979","144109","62011","142504","2887","130962","Lexical Decision Task","41","29754","46","yes","1024"
"2.809559715","8.44","4","volt","word","89.36170212765957","89.36170212765957","649.9787234042553","649.9787234042553","black","no","legacy","legacy","legacy","0","uniform","1","undefined","undefined","undefined","1","j","0","0","0","0","46","0","0","0","46","NA","42","46","42","0","42","3","46","0","46","Tue Feb 16 13:47:39 2021","The main experiment item","yes","Lexical_Decision_Task.osexp","C:/Users/Team Know How","no","Andale Mono","no","18","no","white","no","yes","576","legacy","42","42","3","C:/Users/Team Know How/subject-5205663.csv","legacy","Lentiform Loewenfeld","3.3.7","yes","yes","600bd7cfb6416f0113b04181","602110864497cf011d9c0822","0","j","NA","space","space","d","NA","j","795","NA","5324","6680","43746","NA","795","2","legacy","1024","2","48000","-16","task","5205663","odd","NA","63652","70979","65655","144674","2897","53327","9580","145176","NA","144672","145177","144615","70979","145973","62011","144115","2887","130962","Lexical Decision Task","42","30549","47","yes","1024"
"3.121778632","0","9","sark","non-word","89.58333333333333","89.58333333333333","648.5208333333334","648.5208333333334","black","no","legacy","legacy","legacy","0","uniform","1","undefined","undefined","undefined","1","f","0","0","0","0","47","0","0","0","47","NA","43","47","43","0","43","3","47","0","47","Tue Feb 16 13:47:39 2021","The main experiment item","yes","Lexical_Decision_Task.osexp","C:/Users/Team Know How","no","Andale Mono","no","18","no","white","no","yes","576","legacy","43","43","3","C:/Users/Team Know How/subject-5205663.csv","legacy","Lentiform Loewenfeld","3.3.7","yes","yes","600bd7cfb6416f0113b04181","602110864497cf011d9c0822","0","f","NA","space","space","d","NA","f","580","NA","5324","6680","43746","NA","580","2","legacy","1024","2","48000","-16","task","5205663","odd","NA","63652","70979","65655","146537","2897","53327","9580","147039","NA","146536","147039","146480","70979","147619","62011","145980","2887","130962","Lexical Decision Task","43","31129","48","yes","1024"
"2.898725182","0","7","turl","non-word","89.79591836734694","89.79591836734694","651.0816326530612","651.0816326530612","black","no","legacy","legacy","legacy","0","uniform","1","undefined","undefined","undefined","1","f","0","0","0","0","48","0","0","0","48","NA","44","48","44","0","44","3","48","0","48","Tue Feb 16 13:47:39 2021","The main experiment item","yes","Lexical_Decision_Task.osexp","C:/Users/Team Know How","no","Andale Mono","no","18","no","white","no","yes","576","legacy","44","44","3","C:/Users/Team Know How/subject-5205663.csv","legacy","Lentiform Loewenfeld","3.3.7","yes","yes","600bd7cfb6416f0113b04181","602110864497cf011d9c0822","0","f","NA","space","space","d","NA","f","774","NA","5324","6680","43746","NA","774","2","legacy","1024","2","48000","-16","task","5205663","odd","NA","63652","70979","65655","148187","2897","53327","9580","148690","NA","148186","148690","148126","70979","149465","62011","147626","2887","130962","Lexical Decision Task","44","31903","49","yes","1024"
"2.980911938","7.15","7","hoop","word","90","90","649.02","649.02","black","no","legacy","legacy","legacy","0","uniform","1","undefined","undefined","undefined","1","j","0","0","0","0","49","0","0","0","49","NA","45","49","45","0","45","3","49","0","49","Tue Feb 16 13:47:39 2021","The main experiment item","yes","Lexical_Decision_Task.osexp","C:/Users/Team Know How","no","Andale Mono","no","18","no","white","no","yes","576","legacy","45","45","3","C:/Users/Team Know How/subject-5205663.csv","legacy","Lentiform Loewenfeld","3.3.7","yes","yes","600bd7cfb6416f0113b04181","602110864497cf011d9c0822","0","j","NA","space","space","d","NA","j","548","NA","5324","6680","43746","NA","548","2","legacy","1024","2","48000","-16","task","5205663","odd","NA","63652","70979","65655","150025","2897","53327","9580","150527","NA","150023","150527","149972","70979","151075","62011","149472","2887","130962","Lexical Decision Task","45","32451","50","yes","1024"
"3.082307743","9.68","8","camp","word","90.19607843137256","90.19607843137256","646","646","black","no","legacy","legacy","legacy","0","uniform","1","undefined","undefined","undefined","1","j","0","0","0","0","50","0","0","0","50","NA","46","50","46","0","46","3","50","0","50","Tue Feb 16 13:47:39 2021","The main experiment item","yes","Lexical_Decision_Task.osexp","C:/Users/Team Know How","no","Andale Mono","no","18","no","white","no","yes","576","legacy","46","46","3","C:/Users/Team Know How/subject-5205663.csv","legacy","Lentiform Loewenfeld","3.3.7","yes","yes","600bd7cfb6416f0113b04181","602110864497cf011d9c0822","0","j","NA","space","space","d","NA","j","495","NA","5324","6680","43746","NA","495","2","legacy","1024","2","48000","-16","task","5205663","odd","NA","63652","70979","65655","151634","2897","53327","9580","152136","NA","151633","152136","151582","70979","152633","62011","151082","2887","130962","Lexical Decision Task","46","32946","51","yes","1024"
"2.703007489","8.37","3","pulp","word","90.38461538461539","90.38461538461539","643.9423076923077","643.9423076923077","black","no","legacy","legacy","legacy","0","uniform","1","undefined","undefined","undefined","1","j","0","0","0","0","51","0","0","0","51","NA","47","51","47","0","47","3","51","0","51","Tue Feb 16 13:47:39 2021","The main experiment item","yes","Lexical_Decision_Task.osexp","C:/Users/Team Know How","no","Andale Mono","no","18","no","white","no","yes","576","legacy","47","47","3","C:/Users/Team Know How/subject-5205663.csv","legacy","Lentiform Loewenfeld","3.3.7","yes","yes","600bd7cfb6416f0113b04181","602110864497cf011d9c0822","0","j","NA","space","space","d","NA","j","539","NA","5324","6680","43746","NA","539","2","legacy","1024","2","48000","-16","task","5205663","odd","NA","63652","70979","65655","153188","2897","53327","9580","153691","NA","153187","153691","153136","70979","154230","62011","152636","2887","130962","Lexical Decision Task","47","33485","52","yes","1024"
"3.263399331","0","8","cour","non-word","90.56603773584905","90.56603773584905","647.1132075471698","647.1132075471698","black","no","legacy","legacy","legacy","0","uniform","1","undefined","undefined","undefined","1","f","0","0","0","0","52","0","0","0","52","NA","48","52","48","0","48","3","52","0","52","Tue Feb 16 13:47:39 2021","The main experiment item","yes","Lexical_Decision_Task.osexp","C:/Users/Team Know How","no","Andale Mono","no","18","no","white","no","yes","576","legacy","48","48","3","C:/Users/Team Know How/subject-5205663.csv","legacy","Lentiform Loewenfeld","3.3.7","yes","yes","600bd7cfb6416f0113b04181","602110864497cf011d9c0822","0","f","NA","space","space","d","NA","f","812","NA","5324","6680","43746","NA","812","2","legacy","1024","2","48000","-16","task","5205663","odd","NA","63652","70979","65655","154797","2897","53327","9580","155299","NA","154796","155299","154738","70979","156112","62011","154238","2887","130962","Lexical Decision Task","48","34297","53","yes","1024"
"2.64476673","0","5","moft","non-word","90.74074074074075","90.74074074074075","645.3703703703703","645.3703703703703","black","no","legacy","legacy","legacy","0","uniform","1","undefined","undefined","undefined","1","f","0","0","0","0","53","0","0","0","53","NA","49","53","49","0","49","3","53","0","53","Tue Feb 16 13:47:39 2021","The main experiment item","yes","Lexical_Decision_Task.osexp","C:/Users/Team Know How","no","Andale Mono","no","18","no","white","no","yes","576","legacy","49","49","3","C:/Users/Team Know How/subject-5205663.csv","legacy","Lentiform Loewenfeld","3.3.7","yes","yes","600bd7cfb6416f0113b04181","602110864497cf011d9c0822","0","f","NA","space","space","d","NA","f","553","NA","5324","6680","43746","NA","553","2","legacy","1024","2","48000","-16","task","5205663","odd","NA","63652","70979","65655","156676","2897","53327","9580","157177","NA","156675","157178","156620","70979","157732","62011","156120","2887","130962","Lexical Decision Task","49","34850","54","yes","1024"
"3.2757719","0","5","slea","non-word","90.9090909090909","90.9090909090909","645.7272727272727","645.7272727272727","black","no","legacy","legacy","legacy","0","uniform","1","undefined","undefined","undefined","1","f","0","0","0","0","54","0","0","0","54","0","50","54","50","0","50","3","54","0","54","Tue Feb 16 13:47:39 2021","The main experiment item","yes","Lexical_Decision_Task.osexp","C:/Users/Team Know How","no","Andale Mono","no","18","no","white","no","yes","576","legacy","50","50","3","C:/Users/Team Know How/subject-5205663.csv","legacy","Lentiform Loewenfeld","3.3.7","yes","yes","600bd7cfb6416f0113b04181","602110864497cf011d9c0822","0","f","NA","space","space","d","space","f","665","NA","5324","6680","43746","16139","665","2","legacy","1024","2","48000","-16","task","5205663","odd","NA","63652","70979","65655","174472","2897","53327","9580","174974","158276","174471","174975","158239","70979","175640","62011","157739","2887","130962","Lexical Decision Task","50","35515","55","yes","1024"
"3.091901331","0","9","nipe","non-word","91.07142857142857","91.07142857142857","645","645","black","no","legacy","legacy","legacy","0","uniform","1","undefined","undefined","undefined","1","f","0","0","0","0","55","0","0","0","55","0","51","55","51","0","51","3","55","0","55","Tue Feb 16 13:47:39 2021","The main experiment item","yes","Lexical_Decision_Task.osexp","C:/Users/Team Know How","no","Andale Mono","no","18","no","white","no","yes","576","legacy","51","51","3","C:/Users/Team Know How/subject-5205663.csv","legacy","Lentiform Loewenfeld","3.3.7","yes","yes","600bd7cfb6416f0113b04181","602110864497cf011d9c0822","0","f","NA","space","space","d","space","f","605","NA","5324","6680","43746","16139","605","2","legacy","1024","2","48000","-16","task","5205663","odd","NA","63652","70979","65655","176210","2897","53327","9580","176712","158276","176209","176713","176148","70979","177319","62011","175648","2887","130962","Lexical Decision Task","51","36120","56","yes","1024"
"3.174641193","0","3","ramb","non-word","89.47368421052632","89.47368421052632","647.4035087719299","647.4035087719299","black","no","legacy","legacy","legacy","0","uniform","0","undefined","undefined","undefined","0","f","0","0","0","0","56","0","0","0","56","0","52","56","52","0","52","3","56","0","56","Tue Feb 16 13:47:39 2021","The main experiment item","yes","Lexical_Decision_Task.osexp","C:/Users/Team Know How","no","Andale Mono","no","18","no","white","no","yes","576","legacy","52","52","3","C:/Users/Team Know How/subject-5205663.csv","legacy","Lentiform Loewenfeld","3.3.7","yes","yes","600bd7cfb6416f0113b04181","602110864497cf011d9c0822","0","j","NA","space","space","d","space","j","782","NA","5324","6680","43746","16139","782","2","legacy","1024","2","48000","-16","task","5205663","odd","NA","63652","70979","65655","177886","2897","53327","9580","178389","158276","177884","178389","177826","70979","179172","62011","177326","2887","130962","Lexical Decision Task","51","36902","57","yes","1024"
"3.248054965","7.86","5","glow","word","89.65517241379311","89.65517241379311","644.2413793103449","644.2413793103449","black","no","legacy","legacy","legacy","0","uniform","1","undefined","undefined","undefined","1","j","0","0","0","0","57","0","0","0","57","0","53","57","53","0","53","3","57","0","57","Tue Feb 16 13:47:39 2021","The main experiment item","yes","Lexical_Decision_Task.osexp","C:/Users/Team Know How","no","Andale Mono","no","18","no","white","no","yes","576","legacy","53","53","3","C:/Users/Team Know How/subject-5205663.csv","legacy","Lentiform Loewenfeld","3.3.7","yes","yes","600bd7cfb6416f0113b04181","602110864497cf011d9c0822","0","j","NA","space","space","d","space","j","464","NA","5324","6680","43746","16139","464","2","legacy","1024","2","48000","-16","task","5205663","odd","NA","63652","70979","65655","180742","2897","53327","9580","181244","158276","180740","181244","180675","70979","181709","62011","177326","2887","179175","Lexical Decision Task","52","37366","58","yes","1024"
"3.303771854","0","9","dath","non-word","89.83050847457628","89.83050847457628","641.7966101694915","641.7966101694915","black","no","legacy","legacy","legacy","0","uniform","1","undefined","undefined","undefined","1","f","0","0","0","0","58","0","0","0","58","0","54","58","54","0","54","3","58","0","58","Tue Feb 16 13:47:39 2021","The main experiment item","yes","Lexical_Decision_Task.osexp","C:/Users/Team Know How","no","Andale Mono","no","18","no","white","no","yes","576","legacy","54","54","3","C:/Users/Team Know How/subject-5205663.csv","legacy","Lentiform Loewenfeld","3.3.7","yes","yes","600bd7cfb6416f0113b04181","602110864497cf011d9c0822","0","f","NA","space","space","d","space","f","500","NA","5324","6680","43746","16139","500","2","legacy","1024","2","48000","-16","task","5205663","odd","NA","63652","70979","65655","182273","2897","53327","9580","182775","158276","182272","182776","182216","70979","183276","62011","181716","2887","179175","Lexical Decision Task","53","37866","59","yes","1024"
"3.311895072","0","9","gung","non-word","90","90","640.3166666666667","640.3166666666667","black","no","legacy","legacy","legacy","0","uniform","1","undefined","undefined","undefined","1","f","0","0","0","0","59","0","0","0","59","0","55","59","55","0","55","3","59","0","59","Tue Feb 16 13:47:39 2021","The main experiment item","yes","Lexical_Decision_Task.osexp","C:/Users/Team Know How","no","Andale Mono","no","18","no","white","no","yes","576","legacy","55","55","3","C:/Users/Team Know How/subject-5205663.csv","legacy","Lentiform Loewenfeld","3.3.7","yes","yes","600bd7cfb6416f0113b04181","602110864497cf011d9c0822","0","f","NA","space","space","d","space","f","553","NA","5324","6680","43746","16139","553","2","legacy","1024","2","48000","-16","task","5205663","odd","NA","63652","70979","65655","183837","2897","53327","9580","184339","158276","183836","184339","183780","70979","184893","62011","183280","2887","179175","Lexical Decision Task","54","38419","60","yes","1024"
"2.69019608","9.01","2","myth","word","90.1639344262295","90.1639344262295","638.5573770491803","638.5573770491803","black","no","legacy","legacy","legacy","0","uniform","1","undefined","undefined","undefined","1","j","0","0","0","0","60","0","0","0","60","0","56","60","56","0","56","3","60","0","60","Tue Feb 16 13:47:39 2021","The main experiment item","yes","Lexical_Decision_Task.osexp","C:/Users/Team Know How","no","Andale Mono","no","18","no","white","no","yes","576","legacy","56","56","3","C:/Users/Team Know How/subject-5205663.csv","legacy","Lentiform Loewenfeld","3.3.7","yes","yes","600bd7cfb6416f0113b04181","602110864497cf011d9c0822","0","j","NA","space","space","d","space","j","533","NA","5324","6680","43746","16139","533","2","legacy","1024","2","48000","-16","task","5205663","odd","NA","63652","70979","65655","185457","2897","53327","9580","185960","158276","185456","185961","185400","70979","186495","62011","184900","2887","179175","Lexical Decision Task","55","38952","61","yes","1024"
"3.102203805","7.21","3","drip","word","90.3225806451613","90.3225806451613","635.8064516129032","635.8064516129032","black","no","legacy","legacy","legacy","0","uniform","1","undefined","undefined","undefined","1","j","0","0","0","0","61","0","0","0","61","0","57","61","57","0","57","3","61","0","61","Tue Feb 16 13:47:39 2021","The main experiment item","yes","Lexical_Decision_Task.osexp","C:/Users/Team Know How","no","Andale Mono","no","18","no","white","no","yes","576","legacy","57","57","3","C:/Users/Team Know How/subject-5205663.csv","legacy","Lentiform Loewenfeld","3.3.7","yes","yes","600bd7cfb6416f0113b04181","602110864497cf011d9c0822","0","j","NA","space","space","d","space","j","468","NA","5324","6680","43746","16139","468","2","legacy","1024","2","48000","-16","task","5205663","odd","NA","63652","70979","65655","187062","2897","53327","9580","187564","158276","187061","187564","187002","70979","188033","62011","186502","2887","179175","Lexical Decision Task","56","39420","62","yes","1024"
"3.440331212","7.35","6","stew","word","90.47619047619048","90.47619047619048","636.6507936507936","636.6507936507936","black","no","legacy","legacy","legacy","0","uniform","1","undefined","undefined","undefined","1","j","0","0","0","0","62","0","0","0","62","0","58","62","58","0","58","3","62","0","62","Tue Feb 16 13:47:39 2021","The main experiment item","yes","Lexical_Decision_Task.osexp","C:/Users/Team Know How","no","Andale Mono","no","18","no","white","no","yes","576","legacy","58","58","3","C:/Users/Team Know How/subject-5205663.csv","legacy","Lentiform Loewenfeld","3.3.7","yes","yes","600bd7cfb6416f0113b04181","602110864497cf011d9c0822","0","j","NA","space","space","d","space","j","689","NA","5324","6680","43746","16139","689","2","legacy","1024","2","48000","-16","task","5205663","odd","NA","63652","70979","65655","188599","2897","53327","9580","189101","158276","188598","189101","188540","70979","189791","62011","188040","2887","179175","Lexical Decision Task","57","40109","63","yes","1024"
"2.986323777","10.85","8","ship","word","90.625","90.625","633.84375","633.84375","black","no","legacy","legacy","legacy","0","uniform","1","undefined","undefined","undefined","1","j","0","0","0","0","63","0","0","0","63","0","59","63","59","0","59","3","63","0","63","Tue Feb 16 13:47:39 2021","The main experiment item","yes","Lexical_Decision_Task.osexp","C:/Users/Team Know How","no","Andale Mono","no","18","no","white","no","yes","576","legacy","59","59","3","C:/Users/Team Know How/subject-5205663.csv","legacy","Lentiform Loewenfeld","3.3.7","yes","yes","600bd7cfb6416f0113b04181","602110864497cf011d9c0822","0","j","NA","space","space","d","space","j","457","NA","5324","6680","43746","16139","457","2","legacy","1024","2","48000","-16","task","5205663","odd","NA","63652","70979","65655","190357","2897","53327","9580","190860","158276","190356","190860","190297","70979","191317","62011","189797","2887","179175","Lexical Decision Task","58","40566","64","yes","1024"
"3.168400243","9.12","6","horn","word","90.76923076923077","90.76923076923077","630.723076923077","630.723076923077","black","no","legacy","legacy","legacy","0","uniform","1","undefined","undefined","undefined","1","j","0","0","0","0","64","0","0","0","64","0","60","64","60","0","60","3","64","0","64","Tue Feb 16 13:47:39 2021","The main experiment item","yes","Lexical_Decision_Task.osexp","C:/Users/Team Know How","no","Andale Mono","no","18","no","white","no","yes","576","legacy","60","60","3","C:/Users/Team Know How/subject-5205663.csv","legacy","Lentiform Loewenfeld","3.3.7","yes","yes","600bd7cfb6416f0113b04181","602110864497cf011d9c0822","0","j","NA","space","space","d","space","j","431","NA","5324","6680","43746","16139","431","2","legacy","1024","2","48000","-16","task","5205663","odd","NA","63652","70979","65655","191882","2897","53327","9580","192386","158276","191878","192386","191825","70979","192819","62011","191325","2887","179175","Lexical Decision Task","59","40997","65","yes","1024"
"2.778633532","0","3","jurp","non-word","90.9090909090909","90.9090909090909","630.1969696969697","630.1969696969697","black","no","legacy","legacy","legacy","0","uniform","1","undefined","undefined","undefined","1","f","0","0","0","0","65","0","0","0","65","0","61","65","61","0","61","3","65","0","65","Tue Feb 16 13:47:39 2021","The main experiment item","yes","Lexical_Decision_Task.osexp","C:/Users/Team Know How","no","Andale Mono","no","18","no","white","no","yes","576","legacy","61","61","3","C:/Users/Team Know How/subject-5205663.csv","legacy","Lentiform Loewenfeld","3.3.7","yes","yes","600bd7cfb6416f0113b04181","602110864497cf011d9c0822","0","f","NA","space","space","d","space","f","596","NA","5324","6680","43746","16139","596","2","legacy","1024","2","48000","-16","task","5205663","odd","NA","63652","70979","65655","193386","2897","53327","9580","193888","158276","193384","193888","193325","70979","194485","62011","192825","2887","179175","Lexical Decision Task","60","41593","66","yes","1024"
"3.481012421","8.34","5","teen","word","91.04477611940298","91.04477611940298","627.6268656716418","627.6268656716418","black","no","legacy","legacy","legacy","0","uniform","1","undefined","undefined","undefined","1","j","0","0","0","0","66","0","0","0","66","0","62","66","62","0","62","3","66","0","66","Tue Feb 16 13:47:39 2021","The main experiment item","yes","Lexical_Decision_Task.osexp","C:/Users/Team Know How","no","Andale Mono","no","18","no","white","no","yes","576","legacy","62","62","3","C:/Users/Team Know How/subject-5205663.csv","legacy","Lentiform Loewenfeld","3.3.7","yes","yes","600bd7cfb6416f0113b04181","602110864497cf011d9c0822","0","j","NA","space","space","d","space","j","458","NA","5324","6680","43746","16139","458","2","legacy","1024","2","48000","-16","task","5205663","odd","NA","63652","70979","65655","195047","2897","53327","9580","195549","158276","195046","195549","194992","70979","196008","62011","194492","2887","179175","Lexical Decision Task","61","42051","67","yes","1024"
"2.873320602","0","4","lurg","non-word","91.17647058823529","91.17647058823529","626.3235294117648","626.3235294117648","black","no","legacy","legacy","legacy","0","uniform","1","undefined","undefined","undefined","1","f","0","0","0","0","67","0","0","0","67","0","63","67","63","0","63","3","67","0","67","Tue Feb 16 13:47:39 2021","The main experiment item","yes","Lexical_Decision_Task.osexp","C:/Users/Team Know How","no","Andale Mono","no","18","no","white","no","yes","576","legacy","63","63","3","C:/Users/Team Know How/subject-5205663.csv","legacy","Lentiform Loewenfeld","3.3.7","yes","yes","600bd7cfb6416f0113b04181","602110864497cf011d9c0822","0","f","NA","space","space","d","space","f","539","NA","5324","6680","43746","16139","539","2","legacy","1024","2","48000","-16","task","5205663","odd","NA","63652","70979","65655","196571","2897","53327","9580","197074","158276","196568","197075","196515","70979","197615","62011","196015","2887","179175","Lexical Decision Task","62","42590","68","yes","1024"
"3.529815197","0","3","lerm","non-word","91.30434782608695","91.30434782608695","624.3768115942029","624.3768115942029","black","no","legacy","legacy","legacy","0","uniform","1","undefined","undefined","undefined","1","f","0","0","0","0","68","0","0","0","68","0","64","68","64","0","64","3","68","0","68","Tue Feb 16 13:47:39 2021","The main experiment item","yes","Lexical_Decision_Task.osexp","C:/Users/Team Know How","no","Andale Mono","no","18","no","white","no","yes","576","legacy","64","64","3","C:/Users/Team Know How/subject-5205663.csv","legacy","Lentiform Loewenfeld","3.3.7","yes","yes","600bd7cfb6416f0113b04181","602110864497cf011d9c0822","0","f","NA","space","space","d","space","f","492","NA","5324","6680","43746","16139","492","2","legacy","1024","2","48000","-16","task","5205663","odd","NA","63652","70979","65655","198181","2897","53327","9580","198683","158276","198180","198684","198122","70979","199177","62011","197622","2887","179175","Lexical Decision Task","63","43082","69","yes","1024"
"2.892836167","10.01","5","soft","word","91.42857142857143","91.42857142857143","622.5428571428571","622.5428571428571","black","no","legacy","legacy","legacy","0","uniform","1","undefined","undefined","undefined","1","j","0","0","0","0","69","0","0","0","69","0","65","69","65","0","65","3","69","0","69","Tue Feb 16 13:47:39 2021","The main experiment item","yes","Lexical_Decision_Task.osexp","C:/Users/Team Know How","no","Andale Mono","no","18","no","white","no","yes","576","legacy","65","65","3","C:/Users/Team Know How/subject-5205663.csv","legacy","Lentiform Loewenfeld","3.3.7","yes","yes","600bd7cfb6416f0113b04181","602110864497cf011d9c0822","0","j","NA","space","space","d","space","j","496","NA","5324","6680","43746","16139","496","2","legacy","1024","2","48000","-16","task","5205663","odd","NA","63652","70979","65655","199746","2897","53327","9580","200248","158276","199745","200248","199684","70979","200745","62011","199184","2887","179175","Lexical Decision Task","64","43578","70","yes","1024"
"2.803231716","5.26","3","kiln","word","90.14084507042253","90.14084507042253","620.3943661971831","620.3943661971831","black","no","legacy","legacy","legacy","0","uniform","0","undefined","undefined","undefined","0","j","0","0","0","0","70","0","0","0","70","0","66","70","66","0","66","3","70","0","70","Tue Feb 16 13:47:39 2021","The main experiment item","yes","Lexical_Decision_Task.osexp","C:/Users/Team Know How","no","Andale Mono","no","18","no","white","no","yes","576","legacy","66","66","3","C:/Users/Team Know How/subject-5205663.csv","legacy","Lentiform Loewenfeld","3.3.7","yes","yes","600bd7cfb6416f0113b04181","602110864497cf011d9c0822","0","f","NA","space","space","d","space","f","470","NA","5324","6680","43746","16139","470","2","legacy","1024","2","48000","-16","task","5205663","odd","NA","63652","70979","65655","201309","2897","53327","9580","201810","158276","201308","201811","201252","70979","202282","62011","200752","2887","179175","Lexical Decision Task","64","44048","71","yes","1024"
"3.382617311","0","4","pret","non-word","90.27777777777777","90.27777777777777","619.7916666666666","619.7916666666666","black","no","legacy","legacy","legacy","0","uniform","1","undefined","undefined","undefined","1","f","0","0","0","0","71","0","0","0","71","0","67","71","67","0","67","3","71","0","71","Tue Feb 16 13:47:39 2021","The main experiment item","yes","Lexical_Decision_Task.osexp","C:/Users/Team Know How","no","Andale Mono","no","18","no","white","no","yes","576","legacy","67","67","3","C:/Users/Team Know How/subject-5205663.csv","legacy","Lentiform Loewenfeld","3.3.7","yes","yes","600bd7cfb6416f0113b04181","602110864497cf011d9c0822","0","f","NA","space","space","d","space","f","577","NA","5324","6680","43746","16139","577","2","legacy","1024","2","48000","-16","task","5205663","odd","NA","63652","70979","65655","203857","2897","53327","9580","204360","158276","203855","204360","203789","70979","204938","62011","200752","2887","202289","Lexical Decision Task","65","44625","72","yes","1024"
"3.010582609","0","2","drod","non-word","90.41095890410959","90.41095890410959","618.082191780822","618.082191780822","black","no","legacy","legacy","legacy","0","uniform","1","undefined","undefined","undefined","1","f","0","0","0","0","72","0","0","0","72","0","68","72","68","0","68","3","72","0","72","Tue Feb 16 13:47:39 2021","The main experiment item","yes","Lexical_Decision_Task.osexp","C:/Users/Team Know How","no","Andale Mono","no","18","no","white","no","yes","576","legacy","68","68","3","C:/Users/Team Know How/subject-5205663.csv","legacy","Lentiform Loewenfeld","3.3.7","yes","yes","600bd7cfb6416f0113b04181","602110864497cf011d9c0822","0","f","NA","space","space","d","space","f","495","NA","5324","6680","43746","16139","495","2","legacy","1024","2","48000","-16","task","5205663","odd","NA","63652","70979","65655","205506","2897","53327","9580","206008","158276","205505","206009","205447","70979","206506","62011","204946","2887","202289","Lexical Decision Task","66","45120","73","yes","1024"
"3.22685757","9.99","7","roll","word","90.54054054054055","90.54054054054055","616.4324324324324","616.4324324324324","black","no","legacy","legacy","legacy","0","uniform","1","undefined","undefined","undefined","1","j","0","0","0","0","73","0","0","0","73","0","69","73","69","0","69","3","73","0","73","Tue Feb 16 13:47:39 2021","The main experiment item","yes","Lexical_Decision_Task.osexp","C:/Users/Team Know How","no","Andale Mono","no","18","no","white","no","yes","576","legacy","69","69","3","C:/Users/Team Know How/subject-5205663.csv","legacy","Lentiform Loewenfeld","3.3.7","yes","yes","600bd7cfb6416f0113b04181","602110864497cf011d9c0822","0","j","NA","space","space","d","space","j","496","NA","5324","6680","43746","16139","496","2","legacy","1024","2","48000","-16","task","5205663","odd","NA","63652","70979","65655","207072","2897","53327","9580","207575","158276","207069","207575","207013","70979","208073","62011","206513","2887","202289","Lexical Decision Task","67","45616","74","yes","1024"
"3.208978517","10.33","4","fish","word","90.66666666666667","90.66666666666667","613.68","613.68","black","no","legacy","legacy","legacy","0","uniform","1","undefined","undefined","undefined","1","j","0","0","0","0","74","0","0","0","74","0","70","74","70","0","70","3","74","0","74","Tue Feb 16 13:47:39 2021","The main experiment item","yes","Lexical_Decision_Task.osexp","C:/Users/Team Know How","no","Andale Mono","no","18","no","white","no","yes","576","legacy","70","70","3","C:/Users/Team Know How/subject-5205663.csv","legacy","Lentiform Loewenfeld","3.3.7","yes","yes","600bd7cfb6416f0113b04181","602110864497cf011d9c0822","0","j","NA","space","space","d","space","j","410","NA","5324","6680","43746","16139","410","2","legacy","1024","2","48000","-16","task","5205663","odd","NA","63652","70979","65655","208635","2897","53327","9580","209138","158276","208633","209138","208580","70979","209549","62011","208080","2887","202289","Lexical Decision Task","68","46026","75","yes","1024"
"2.814027728","8.2","4","foam","word","90.78947368421052","90.78947368421052","613.671052631579","613.671052631579","black","no","legacy","legacy","legacy","0","uniform","1","undefined","undefined","undefined","1","j","0","0","0","0","75","0","0","0","75","0","71","75","71","0","71","3","75","0","75","Tue Feb 16 13:47:39 2021","The main experiment item","yes","Lexical_Decision_Task.osexp","C:/Users/Team Know How","no","Andale Mono","no","18","no","white","no","yes","576","legacy","71","71","3","C:/Users/Team Know How/subject-5205663.csv","legacy","Lentiform Loewenfeld","3.3.7","yes","yes","600bd7cfb6416f0113b04181","602110864497cf011d9c0822","0","j","NA","space","space","d","space","j","613","NA","5324","6680","43746","16139","613","2","legacy","1024","2","48000","-16","task","5205663","odd","NA","63652","70979","65655","210115","2897","53327","9580","210618","158276","210114","210618","210056","70979","211231","62011","209556","2887","202289","Lexical Decision Task","69","46639","76","yes","1024"
"2.728085817","10.02","9","bike","word","90.9090909090909","90.9090909090909","611.8441558441558","611.8441558441558","black","no","legacy","legacy","legacy","0","uniform","1","undefined","undefined","undefined","1","j","0","0","0","0","76","0","0","0","76","0","72","76","72","0","72","3","76","0","76","Tue Feb 16 13:47:39 2021","The main experiment item","yes","Lexical_Decision_Task.osexp","C:/Users/Team Know How","no","Andale Mono","no","18","no","white","no","yes","576","legacy","72","72","3","C:/Users/Team Know How/subject-5205663.csv","legacy","Lentiform Loewenfeld","3.3.7","yes","yes","600bd7cfb6416f0113b04181","602110864497cf011d9c0822","0","j","NA","space","space","d","space","j","473","NA","5324","6680","43746","16139","473","2","legacy","1024","2","48000","-16","task","5205663","odd","NA","63652","70979","65655","211796","2897","53327","9580","212299","158276","211795","212300","211738","70979","212773","62011","211238","2887","202289","Lexical Decision Task","70","47112","77","yes","1024"
"3.145920145","8.51","8","flew","word","91.02564102564102","91.02564102564102","610.4487179487179","610.4487179487179","black","no","legacy","legacy","legacy","0","uniform","1","undefined","undefined","undefined","1","j","0","0","0","0","77","0","0","0","77","0","73","77","73","0","73","3","77","0","77","Tue Feb 16 13:47:39 2021","The main experiment item","yes","Lexical_Decision_Task.osexp","C:/Users/Team Know How","no","Andale Mono","no","18","no","white","no","yes","576","legacy","73","73","3","C:/Users/Team Know How/subject-5205663.csv","legacy","Lentiform Loewenfeld","3.3.7","yes","yes","600bd7cfb6416f0113b04181","602110864497cf011d9c0822","0","j","NA","space","space","d","space","j","503","NA","5324","6680","43746","16139","503","2","legacy","1024","2","48000","-16","task","5205663","odd","NA","63652","70979","65655","213338","2897","53327","9580","213841","158276","213336","213841","213280","70979","214345","62011","212780","2887","202289","Lexical Decision Task","71","47615","78","yes","1024"
"2.706148589","0","4","hube","non-word","91.13924050632912","91.13924050632912","609.5443037974684","609.5443037974684","black","no","legacy","legacy","legacy","0","uniform","1","undefined","undefined","undefined","1","f","0","0","0","0","78","0","0","0","78","0","74","78","74","0","74","3","78","0","78","Tue Feb 16 13:47:39 2021","The main experiment item","yes","Lexical_Decision_Task.osexp","C:/Users/Team Know How","no","Andale Mono","no","18","no","white","no","yes","576","legacy","74","74","3","C:/Users/Team Know How/subject-5205663.csv","legacy","Lentiform Loewenfeld","3.3.7","yes","yes","600bd7cfb6416f0113b04181","602110864497cf011d9c0822","0","f","NA","space","space","d","space","f","539","NA","5324","6680","43746","16139","539","2","legacy","1024","2","48000","-16","task","5205663","odd","NA","63652","70979","65655","214908","2897","53327","9580","215410","158276","214907","215412","214852","70979","215952","62011","214352","2887","202289","Lexical Decision Task","72","48154","79","yes","1024"
"3.049218023","7.4","9","robe","word","91.25","91.25","608.225","608.225","black","no","legacy","legacy","legacy","0","uniform","1","undefined","undefined","undefined","1","j","0","0","0","0","79","0","0","0","79","0","75","79","75","0","75","3","79","0","79","Tue Feb 16 13:47:39 2021","The main experiment item","yes","Lexical_Decision_Task.osexp","C:/Users/Team Know How","no","Andale Mono","no","18","no","white","no","yes","576","legacy","75","75","3","C:/Users/Team Know How/subject-5205663.csv","legacy","Lentiform Loewenfeld","3.3.7","yes","yes","600bd7cfb6416f0113b04181","602110864497cf011d9c0822","0","j","NA","space","space","d","space","j","504","NA","5324","6680","43746","16139","504","2","legacy","1024","2","48000","-16","task","5205663","odd","NA","63652","70979","65655","216516","2897","53327","9580","217019","158276","216515","217019","216459","70979","217524","62011","215959","2887","202289","Lexical Decision Task","73","48658","80","yes","1024"
"3.094121596","0","8","fode","non-word","91.35802469135803","91.35802469135803","608.0987654320987","608.0987654320987","black","no","legacy","legacy","legacy","0","uniform","1","undefined","undefined","undefined","1","f","0","0","0","0","80","0","0","0","80","0","76","80","76","0","76","3","80","0","80","Tue Feb 16 13:47:39 2021","The main experiment item","yes","Lexical_Decision_Task.osexp","C:/Users/Team Know How","no","Andale Mono","no","18","no","white","no","yes","576","legacy","76","76","3","C:/Users/Team Know How/subject-5205663.csv","legacy","Lentiform Loewenfeld","3.3.7","yes","yes","600bd7cfb6416f0113b04181","602110864497cf011d9c0822","0","f","NA","space","space","d","space","f","598","NA","5324","6680","43746","16139","598","2","legacy","1024","2","48000","-16","task","5205663","odd","NA","63652","70979","65655","218089","2897","53327","9580","218592","158276","218087","218593","218031","70979","219192","62011","217531","2887","202289","Lexical Decision Task","74","49256","81","yes","1024"
"2.7084209","0","8","vump","non-word","91.46341463414635","91.46341463414635","607","607","black","no","legacy","legacy","legacy","0","uniform","1","undefined","undefined","undefined","1","f","0","0","0","0","81","0","0","0","81","0","77","81","77","0","77","3","81","0","81","Tue Feb 16 13:47:39 2021","The main experiment item","yes","Lexical_Decision_Task.osexp","C:/Users/Team Know How","no","Andale Mono","no","18","no","white","no","yes","576","legacy","77","77","3","C:/Users/Team Know How/subject-5205663.csv","legacy","Lentiform Loewenfeld","3.3.7","yes","yes","600bd7cfb6416f0113b04181","602110864497cf011d9c0822","0","f","NA","space","space","d","space","f","518","NA","5324","6680","43746","16139","518","2","legacy","1024","2","48000","-16","task","5205663","odd","NA","63652","70979","65655","219758","2897","53327","9580","220260","158276","219757","220260","219699","70979","220779","62011","219199","2887","202289","Lexical Decision Task","75","49774","82","yes","1024"
"3.347850856","10.51","2","rich","word","91.56626506024097","91.56626506024097","606.5060240963855","606.5060240963855","black","no","legacy","legacy","legacy","0","uniform","1","undefined","undefined","undefined","1","j","0","0","0","0","82","0","0","0","82","0","78","82","78","0","78","3","82","0","82","Tue Feb 16 13:47:39 2021","The main experiment item","yes","Lexical_Decision_Task.osexp","C:/Users/Team Know How","no","Andale Mono","no","18","no","white","no","yes","576","legacy","78","78","3","C:/Users/Team Know How/subject-5205663.csv","legacy","Lentiform Loewenfeld","3.3.7","yes","yes","600bd7cfb6416f0113b04181","602110864497cf011d9c0822","0","j","NA","space","space","d","space","j","566","NA","5324","6680","43746","16139","566","2","legacy","1024","2","48000","-16","task","5205663","odd","NA","63652","70979","65655","221342","2897","53327","9580","221845","158276","221341","221845","221285","70979","222411","62011","220785","2887","202289","Lexical Decision Task","76","50340","83","yes","1024"
"2.981215883","10.66","5","hair","word","91.66666666666667","91.66666666666667","604.952380952381","604.952380952381","black","no","legacy","legacy","legacy","0","uniform","1","undefined","undefined","undefined","1","j","0","0","0","0","83","0","0","0","83","0","79","83","79","0","79","3","83","0","83","Tue Feb 16 13:47:39 2021","The main experiment item","yes","Lexical_Decision_Task.osexp","C:/Users/Team Know How","no","Andale Mono","no","18","no","white","no","yes","576","legacy","79","79","3","C:/Users/Team Know How/subject-5205663.csv","legacy","Lentiform Loewenfeld","3.3.7","yes","yes","600bd7cfb6416f0113b04181","602110864497cf011d9c0822","0","j","NA","space","space","d","space","j","476","NA","5324","6680","43746","16139","476","2","legacy","1024","2","48000","-16","task","5205663","odd","NA","63652","70979","65655","222979","2897","53327","9580","223482","158276","222978","223482","222918","70979","223960","62011","222418","2887","202289","Lexical Decision Task","77","50816","84","yes","1024"
"2.80048796","0","8","pife","non-word","91.76470588235294","91.76470588235294","603.6823529411764","603.6823529411764","black","no","legacy","legacy","legacy","0","uniform","1","undefined","undefined","undefined","1","f","0","0","0","0","84","0","0","0","84","0","80","84","80","0","80","3","84","0","84","Tue Feb 16 13:47:39 2021","The main experiment item","yes","Lexical_Decision_Task.osexp","C:/Users/Team Know How","no","Andale Mono","no","18","no","white","no","yes","576","legacy","80","80","3","C:/Users/Team Know How/subject-5205663.csv","legacy","Lentiform Loewenfeld","3.3.7","yes","yes","600bd7cfb6416f0113b04181","602110864497cf011d9c0822","0","f","NA","space","space","d","space","f","497","NA","5324","6680","43746","16139","497","2","legacy","1024","2","48000","-16","task","5205663","odd","NA","63652","70979","65655","224525","2897","53327","9580","225027","158276","224524","225028","224466","70979","225527","62011","223966","2887","202289","Lexical Decision Task","78","51313","85","yes","1024"
"2.924968096","0","4","phim","non-word","91.86046511627907","91.86046511627907","601.6279069767442","601.6279069767442","black","no","legacy","legacy","legacy","0","uniform","1","undefined","undefined","undefined","1","f","0","0","0","0","85","0","0","0","85","0","81","85","81","0","81","3","85","0","85","Tue Feb 16 13:47:39 2021","The main experiment item","yes","Lexical_Decision_Task.osexp","C:/Users/Team Know How","no","Andale Mono","no","18","no","white","no","yes","576","legacy","81","81","3","C:/Users/Team Know How/subject-5205663.csv","legacy","Lentiform Loewenfeld","3.3.7","yes","yes","600bd7cfb6416f0113b04181","602110864497cf011d9c0822","0","f","NA","space","space","d","space","f","427","NA","5324","6680","43746","16139","427","2","legacy","1024","2","48000","-16","task","5205663","odd","NA","63652","70979","65655","226092","2897","53327","9580","226594","158276","226091","226595","226033","70979","227022","62011","225533","2887","202289","Lexical Decision Task","79","51740","86","yes","1024"
"3.299579929","0","2","flis","non-word","91.95402298850574","91.95402298850574","599.8735632183908","599.8735632183908","black","no","legacy","legacy","legacy","0","uniform","1","undefined","undefined","undefined","1","f","0","0","0","0","86","0","0","0","86","0","82","86","82","0","82","3","86","0","86","Tue Feb 16 13:47:39 2021","The main experiment item","yes","Lexical_Decision_Task.osexp","C:/Users/Team Know How","no","Andale Mono","no","18","no","white","no","yes","576","legacy","82","82","3","C:/Users/Team Know How/subject-5205663.csv","legacy","Lentiform Loewenfeld","3.3.7","yes","yes","600bd7cfb6416f0113b04181","602110864497cf011d9c0822","0","f","NA","space","space","d","space","f","449","NA","5324","6680","43746","16139","449","2","legacy","1024","2","48000","-16","task","5205663","odd","NA","63652","70979","65655","227587","2897","53327","9580","228088","158276","227585","228088","227529","70979","228538","62011","227029","2887","202289","Lexical Decision Task","80","52189","87","yes","1024"
"2.719886232","7.98","2","quiz","word","92.04545454545455","92.04545454545455","598.9090909090909","598.9090909090909","black","no","legacy","legacy","legacy","0","uniform","1","undefined","undefined","undefined","1","j","0","0","0","0","87","0","0","0","87","0","83","87","83","0","83","3","87","0","87","Tue Feb 16 13:47:39 2021","The main experiment item","yes","Lexical_Decision_Task.osexp","C:/Users/Team Know How","no","Andale Mono","no","18","no","white","no","yes","576","legacy","83","83","3","C:/Users/Team Know How/subject-5205663.csv","legacy","Lentiform Loewenfeld","3.3.7","yes","yes","600bd7cfb6416f0113b04181","602110864497cf011d9c0822","0","j","NA","space","space","d","space","j","515","NA","5324","6680","43746","16139","515","2","legacy","1024","2","48000","-16","task","5205663","odd","NA","63652","70979","65655","229107","2897","53327","9580","229609","158276","229106","229610","229045","70979","230126","62011","228545","2887","202289","Lexical Decision Task","81","52704","88","yes","1024"
"3.043885998","0","9","gome","non-word","92.13483146067416","92.13483146067416","597.7865168539325","597.7865168539325","black","no","legacy","legacy","legacy","0","uniform","1","undefined","undefined","undefined","1","f","0","0","0","0","88","0","0","0","88","0","84","88","84","0","84","3","88","0","88","Tue Feb 16 13:47:39 2021","The main experiment item","yes","Lexical_Decision_Task.osexp","C:/Users/Team Know How","no","Andale Mono","no","18","no","white","no","yes","576","legacy","84","84","3","C:/Users/Team Know How/subject-5205663.csv","legacy","Lentiform Loewenfeld","3.3.7","yes","yes","600bd7cfb6416f0113b04181","602110864497cf011d9c0822","0","f","NA","space","space","d","space","f","499","NA","5324","6680","43746","16139","499","2","legacy","1024","2","48000","-16","task","5205663","odd","NA","63652","70979","65655","230690","2897","53327","9580","231192","158276","230689","231193","230633","70979","231693","62011","230132","2887","202289","Lexical Decision Task","82","53203","89","yes","1024"
"2.966923697","5.4","2","fume","word","92.22222222222223","92.22222222222223","598.3","598.3","black","no","legacy","legacy","legacy","0","uniform","1","undefined","undefined","undefined","1","j","0","0","0","0","89","0","0","0","89","0","85","89","85","0","85","3","89","0","89","Tue Feb 16 13:47:39 2021","The main experiment item","yes","Lexical_Decision_Task.osexp","C:/Users/Team Know How","no","Andale Mono","no","18","no","white","no","yes","576","legacy","85","85","3","C:/Users/Team Know How/subject-5205663.csv","legacy","Lentiform Loewenfeld","3.3.7","yes","yes","600bd7cfb6416f0113b04181","602110864497cf011d9c0822","0","j","NA","space","space","d","space","j","644","NA","5324","6680","43746","16139","644","2","legacy","1024","2","48000","-16","task","5205663","odd","NA","63652","70979","65655","232259","2897","53327","9580","232761","158276","232257","232761","232200","70979","233405","62011","231700","2887","202289","Lexical Decision Task","83","53847","90","yes","1024"
"2.920123326","7.43","4","duel","word","92.3076923076923","92.3076923076923","598","598","black","no","legacy","legacy","legacy","0","uniform","1","undefined","undefined","undefined","1","j","0","0","0","0","90","0","0","0","90","0","86","90","86","0","86","3","90","0","90","Tue Feb 16 13:47:39 2021","The main experiment item","yes","Lexical_Decision_Task.osexp","C:/Users/Team Know How","no","Andale Mono","no","18","no","white","no","yes","576","legacy","86","86","3","C:/Users/Team Know How/subject-5205663.csv","legacy","Lentiform Loewenfeld","3.3.7","yes","yes","600bd7cfb6416f0113b04181","602110864497cf011d9c0822","0","j","NA","space","space","d","space","j","571","NA","5324","6680","43746","16139","571","2","legacy","1024","2","48000","-16","task","5205663","odd","NA","63652","70979","65655","233965","2897","53327","9580","234467","158276","233964","234468","233912","70979","235039","62011","233412","2887","202289","Lexical Decision Task","84","54418","91","yes","1024"
"2.714888338","0","3","brug","non-word","91.30434782608695","91.30434782608695","597.054347826087","597.054347826087","black","no","legacy","legacy","legacy","0","uniform","0","undefined","undefined","undefined","0","f","0","0","0","0","91","0","0","0","91","0","87","91","87","0","87","3","91","0","91","Tue Feb 16 13:47:39 2021","The main experiment item","yes","Lexical_Decision_Task.osexp","C:/Users/Team Know How","no","Andale Mono","no","18","no","white","no","yes","576","legacy","87","87","3","C:/Users/Team Know How/subject-5205663.csv","legacy","Lentiform Loewenfeld","3.3.7","yes","yes","600bd7cfb6416f0113b04181","602110864497cf011d9c0822","0","j","NA","space","space","d","space","j","511","NA","5324","6680","43746","16139","511","2","legacy","1024","2","48000","-16","task","5205663","odd","NA","63652","70979","65655","235606","2897","53327","9580","236108","158276","235604","236108","235547","70979","236620","62011","235047","2887","202289","Lexical Decision Task","84","54929","92","yes","1024"
"2.838639236","0","4","furg","non-word","91.39784946236558","91.39784946236558","598.8279569892474","598.8279569892474","black","no","legacy","legacy","legacy","0","uniform","1","undefined","undefined","undefined","1","f","0","0","0","0","92","0","0","0","92","0","88","92","88","0","88","3","92","0","92","Tue Feb 16 13:47:39 2021","The main experiment item","yes","Lexical_Decision_Task.osexp","C:/Users/Team Know How","no","Andale Mono","no","18","no","white","no","yes","576","legacy","88","88","3","C:/Users/Team Know How/subject-5205663.csv","legacy","Lentiform Loewenfeld","3.3.7","yes","yes","600bd7cfb6416f0113b04181","602110864497cf011d9c0822","0","f","NA","space","space","d","space","f","762","NA","5324","6680","43746","16139","762","2","legacy","1024","2","48000","-16","task","5205663","odd","NA","63652","70979","65655","238187","2897","53327","9580","238690","158276","238186","238690","238127","70979","239453","62011","235047","2887","236627","Lexical Decision Task","85","55691","93","yes","1024"
"2.858136002","0","4","phip","non-word","91.48936170212765","91.48936170212765","598.5531914893617","598.5531914893617","black","no","legacy","legacy","legacy","0","uniform","1","undefined","undefined","undefined","1","f","0","0","0","0","93","0","0","0","93","0","89","93","89","0","89","3","93","0","93","Tue Feb 16 13:47:39 2021","The main experiment item","yes","Lexical_Decision_Task.osexp","C:/Users/Team Know How","no","Andale Mono","no","18","no","white","no","yes","576","legacy","89","89","3","C:/Users/Team Know How/subject-5205663.csv","legacy","Lentiform Loewenfeld","3.3.7","yes","yes","600bd7cfb6416f0113b04181","602110864497cf011d9c0822","0","f","NA","space","space","d","space","f","573","NA","5324","6680","43746","16139","573","2","legacy","1024","2","48000","-16","task","5205663","odd","NA","63652","70979","65655","240020","2897","53327","9580","240521","158276","240018","240521","239960","70979","241095","62011","239460","2887","236627","Lexical Decision Task","86","56264","94","yes","1024"
"3.028977705","0","7","frow","non-word","91.57894736842105","91.57894736842105","598.021052631579","598.021052631579","black","no","legacy","legacy","legacy","0","uniform","1","undefined","undefined","undefined","1","f","0","0","0","0","94","0","0","0","94","0","90","94","90","0","90","3","94","0","94","Tue Feb 16 13:47:39 2021","The main experiment item","yes","Lexical_Decision_Task.osexp","C:/Users/Team Know How","no","Andale Mono","no","18","no","white","no","yes","576","legacy","90","90","3","C:/Users/Team Know How/subject-5205663.csv","legacy","Lentiform Loewenfeld","3.3.7","yes","yes","600bd7cfb6416f0113b04181","602110864497cf011d9c0822","0","f","NA","space","space","d","space","f","548","NA","5324","6680","43746","16139","548","2","legacy","1024","2","48000","-16","task","5205663","odd","NA","63652","70979","65655","241655","2897","53327","9580","242157","158276","241654","242158","241602","70979","242707","62011","241102","2887","236627","Lexical Decision Task","87","56812","95","yes","1024"
"2.821076612","0","4","lult","non-word","91.66666666666667","91.66666666666667","597.40625","597.40625","black","no","legacy","legacy","legacy","0","uniform","1","undefined","undefined","undefined","1","f","0","0","0","0","95","0","0","0","95","0","91","95","91","0","91","3","95","0","95","Tue Feb 16 13:47:39 2021","The main experiment item","yes","Lexical_Decision_Task.osexp","C:/Users/Team Know How","no","Andale Mono","no","18","no","white","no","yes","576","legacy","91","91","3","C:/Users/Team Know How/subject-5205663.csv","legacy","Lentiform Loewenfeld","3.3.7","yes","yes","600bd7cfb6416f0113b04181","602110864497cf011d9c0822","0","f","NA","space","space","d","space","f","539","NA","5324","6680","43746","16139","539","2","legacy","1024","2","48000","-16","task","5205663","odd","NA","63652","70979","65655","243272","2897","53327","9580","243774","158276","243271","243775","243213","70979","244316","62011","242713","2887","236627","Lexical Decision Task","88","57351","96","yes","1024"
"3.120025233","0","2","nyst","non-word","91.75257731958763","91.75257731958763","596.5876288659794","596.5876288659794","black","no","legacy","legacy","legacy","0","uniform","1","undefined","undefined","undefined","1","f","0","0","0","0","96","0","0","0","96","0","92","96","92","0","92","3","96","0","96","Tue Feb 16 13:47:39 2021","The main experiment item","yes","Lexical_Decision_Task.osexp","C:/Users/Team Know How","no","Andale Mono","no","18","no","white","no","yes","576","legacy","92","92","3","C:/Users/Team Know How/subject-5205663.csv","legacy","Lentiform Loewenfeld","3.3.7","yes","yes","600bd7cfb6416f0113b04181","602110864497cf011d9c0822","0","f","NA","space","space","d","space","f","518","NA","5324","6680","43746","16139","518","2","legacy","1024","2","48000","-16","task","5205663","odd","NA","63652","70979","65655","244880","2897","53327","9580","245382","158276","244879","245383","244824","70979","245902","62011","244323","2887","236627","Lexical Decision Task","89","57869","97","yes","1024"
"3.14849993","10.75","7","hour","word","91.83673469387755","91.83673469387755","597.5510204081633","597.5510204081633","black","no","legacy","legacy","legacy","0","uniform","1","undefined","undefined","undefined","1","j","0","0","0","0","97","0","0","0","97","0","93","97","93","0","93","3","97","0","97","Tue Feb 16 13:47:39 2021","The main experiment item","yes","Lexical_Decision_Task.osexp","C:/Users/Team Know How","no","Andale Mono","no","18","no","white","no","yes","576","legacy","93","93","3","C:/Users/Team Know How/subject-5205663.csv","legacy","Lentiform Loewenfeld","3.3.7","yes","yes","600bd7cfb6416f0113b04181","602110864497cf011d9c0822","0","j","NA","space","space","d","space","j","691","NA","5324","6680","43746","16139","691","2","legacy","1024","2","48000","-16","task","5205663","odd","NA","63652","70979","65655","246471","2897","53327","9580","246973","158276","246469","246973","246410","70979","247664","62011","245910","2887","236627","Lexical Decision Task","90","58560","98","yes","1024"
"3.090140555","5.81","8","pout","word","91.91919191919192","91.91919191919192","597.929292929293","597.929292929293","black","no","legacy","legacy","legacy","0","uniform","1","undefined","undefined","undefined","1","j","0","0","0","0","98","0","0","0","98","0","94","98","94","0","94","3","98","0","98","Tue Feb 16 13:47:39 2021","The main experiment item","yes","Lexical_Decision_Task.osexp","C:/Users/Team Know How","no","Andale Mono","no","18","no","white","no","yes","576","legacy","94","94","3","C:/Users/Team Know How/subject-5205663.csv","legacy","Lentiform Loewenfeld","3.3.7","yes","yes","600bd7cfb6416f0113b04181","602110864497cf011d9c0822","0","j","NA","space","space","d","space","j","635","NA","5324","6680","43746","16139","635","2","legacy","1024","2","48000","-16","task","5205663","odd","NA","63652","70979","65655","248229","2897","53327","9580","248732","158276","248228","248732","248171","70979","249368","62011","247671","2887","236627","Lexical Decision Task","91","59195","99","yes","1024"
"2.698100546","0","9","mulk","non-word","92","92","598.09","598.09","black","no","legacy","legacy","legacy","0","uniform","1","undefined","undefined","undefined","1","f","0","0","0","0","99","0","0","0","99","0","95","99","95","0","95","3","99","0","99","Tue Feb 16 13:47:39 2021","The main experiment item","yes","Lexical_Decision_Task.osexp","C:/Users/Team Know How","no","Andale Mono","no","18","no","white","no","yes","576","legacy","95","95","3","C:/Users/Team Know How/subject-5205663.csv","legacy","Lentiform Loewenfeld","3.3.7","yes","yes","600bd7cfb6416f0113b04181","602110864497cf011d9c0822","0","f","NA","space","space","d","space","f","614","NA","5324","6680","43746","16139","614","2","legacy","1024","2","48000","-16","task","5205663","odd","NA","63652","70979","65655","249934","2897","53327","9580","250436","158276","249932","250436","249874","70979","251051","62011","249374","2887","236627","Lexical Decision Task","92","59809","100","yes","1024"
"3.474361976","5.24","6","veer","word","91.08910891089108","91.08910891089108","597","597","black","no","legacy","legacy","legacy","0","uniform","0","undefined","undefined","undefined","0","j","0","0","0","0","100","0","0","0","100","0","96","100","96","0","96","3","100","0","100","Tue Feb 16 13:47:39 2021","The main experiment item","yes","Lexical_Decision_Task.osexp","C:/Users/Team Know How","no","Andale Mono","no","18","no","white","no","yes","576","legacy","96","96","3","C:/Users/Team Know How/subject-5205663.csv","legacy","Lentiform Loewenfeld","3.3.7","yes","yes","600bd7cfb6416f0113b04181","602110864497cf011d9c0822","0","f","NA","space","space","d","space","f","488","NA","5324","6680","43746","16139","488","2","legacy","1024","2","48000","-16","task","5205663","odd","NA","63652","70979","65655","251617","2897","53327","9580","252119","158276","251615","252119","251558","70979","252608","62011","251058","2887","236627","Lexical Decision Task","92","60297","101","yes","1024"
