"Log_BG","Log_Freq_HAL","Ortho_N","Stimulus","Type","acc","accuracy","average_response_time","avg_rt","background","bidi","canvas_backend","clock_backend","color_backend","compensation","coordinates","correct","correct_Experimental_intro","correct_Introduction","correct_Practice_intro","correct_experimenter_kb","correct_response","count_End_Of_Experiment","count_End_Of_Practice","count_Experimental_Loop","count_Experimental_intro","count_Fixation","count_Introduction","count_Practice_Loop","count_Practice_intro","count_Stimulus","count_block_break_feedback","count_experimental_sequence","count_experimenter_kb","count_increment_trial_count","count_init_trial_count","count_logger","count_practice_sequence","count_right","count_task","count_wrong","datetime","description","disable_garbage_collection","experiment_file","experiment_path","font_bold","font_family","font_italic","font_size","font_underline","foreground","form_clicks","fullscreen","height","keyboard_backend","live_row","live_row_Experimental_Loop","live_row_Practice_Loop","logfile","mouse_backend","opensesame_codename","opensesame_version","osf_always_upload_data","osf_always_upload_experiment","osf_datanode_id","osf_id","repeat_cycle","response","response_End_Of_Experiment","response_Experimental_intro","response_Introduction","response_Practice_intro","response_block_break_feedback","response_experimenter_kb","response_time","response_time_End_Of_Experiment","response_time_Experimental_intro","response_time_Introduction","response_time_Practice_intro","response_time_block_break_feedback","response_time_experimenter_kb","round_decimals","sampler_backend","sound_buf_size","sound_channels","sound_freq","sound_sample_size","start","subject_nr","subject_parity","time_End_Of_Experiment","time_End_Of_Practice","time_Experimental_Loop","time_Experimental_intro","time_Fixation","time_Introduction","time_Practice_Loop","time_Practice_intro","time_Stimulus","time_block_break_feedback","time_experimental_sequence","time_experimenter_kb","time_increment_trial_count","time_init_trial_count","time_logger","time_practice_sequence","time_right","time_task","time_wrong","title","total_correct","total_response_time","total_responses","uniform_coordinates","width"
"3.282244367","0","6","fute","non-word","100","100","765.8","765.8","black","no","legacy","legacy","legacy","0","uniform","1","undefined","undefined","undefined","1","f","0","0","0","0","4","0","0","0","4","NA","0","4","0","0","0","3","4","0","4","Thu Feb 25 12:58:20 2021","The main experiment item","yes","Lexical_Decision_Task.osexp","/Users/maisiehood/Documents/Univeristy/Second Year/Cognition and Language","no","Andale Mono","no","18","no","white","no","yes","576","legacy","0","0","3","/Users/maisiehood/Documents/Univeristy/Second Year/Cognition and Language/subject-5203793.csv","legacy","Lentiform Loewenfeld","3.3.7","yes","yes","600bd7cfb6416f0113b04181","602110864497cf011d9c0822","0","f","NA","j","j","j","NA","f","829","NA","2679","10458","5516","NA","829","2","legacy","1024","2","48000","-16","task","5203793","odd","NA","28678","33364","30684","33387","5382","21372","15852","33891","NA","33385","33892","NA","33364","34722","26868","28144","5349","NA","Lexical Decision Task","5","3829","5","yes","1024"
"3.307211407","6.07","7","honk","word","100","100","756.1666666666666","756.1666666666666","black","no","legacy","legacy","legacy","0","uniform","1","undefined","undefined","undefined","1","j","0","0","0","0","5","0","0","0","5","NA","1","5","1","0","1","3","5","0","5","Thu Feb 25 12:58:20 2021","The main experiment item","yes","Lexical_Decision_Task.osexp","/Users/maisiehood/Documents/Univeristy/Second Year/Cognition and Language","no","Andale Mono","no","18","no","white","no","yes","576","legacy","1","1","3","/Users/maisiehood/Documents/Univeristy/Second Year/Cognition and Language/subject-5203793.csv","legacy","Lentiform Loewenfeld","3.3.7","yes","yes","600bd7cfb6416f0113b04181","602110864497cf011d9c0822","0","j","NA","j","j","j","NA","j","708","NA","2679","10458","5516","NA","708","2","legacy","1024","2","48000","-16","task","5203793","odd","NA","28678","33364","30684","35303","5382","21372","15852","35808","NA","35300","35808","35227","33364","36517","26868","34727","5349","NA","Lexical Decision Task","6","4537","6","yes","1024"
"3.091901331","0","9","nipe","non-word","100","100","756.5714285714286","756.5714285714286","black","no","legacy","legacy","legacy","0","uniform","1","undefined","undefined","undefined","1","f","0","0","0","0","6","0","0","0","6","NA","2","6","2","0","2","3","6","0","6","Thu Feb 25 12:58:20 2021","The main experiment item","yes","Lexical_Decision_Task.osexp","/Users/maisiehood/Documents/Univeristy/Second Year/Cognition and Language","no","Andale Mono","no","18","no","white","no","yes","576","legacy","2","2","3","/Users/maisiehood/Documents/Univeristy/Second Year/Cognition and Language/subject-5203793.csv","legacy","Lentiform Loewenfeld","3.3.7","yes","yes","600bd7cfb6416f0113b04181","602110864497cf011d9c0822","0","f","NA","j","j","j","NA","f","759","NA","2679","10458","5516","NA","759","2","legacy","1024","2","48000","-16","task","5203793","odd","NA","28678","33364","30684","37086","5382","21372","15852","37589","NA","37083","37590","37020","33364","38350","26868","36519","5349","NA","Lexical Decision Task","7","5296","7","yes","1024"
"3.043885998","0","9","gome","non-word","100","100","757.5","757.5","black","no","legacy","legacy","legacy","0","uniform","1","undefined","undefined","undefined","1","f","0","0","0","0","7","0","0","0","7","NA","3","7","3","0","3","3","7","0","7","Thu Feb 25 12:58:20 2021","The main experiment item","yes","Lexical_Decision_Task.osexp","/Users/maisiehood/Documents/Univeristy/Second Year/Cognition and Language","no","Andale Mono","no","18","no","white","no","yes","576","legacy","3","3","3","/Users/maisiehood/Documents/Univeristy/Second Year/Cognition and Language/subject-5203793.csv","legacy","Lentiform Loewenfeld","3.3.7","yes","yes","600bd7cfb6416f0113b04181","602110864497cf011d9c0822","0","f","NA","j","j","j","NA","f","764","NA","2679","10458","5516","NA","764","2","legacy","1024","2","48000","-16","task","5203793","odd","NA","28678","33364","30684","38918","5382","21372","15852","39422","NA","38915","39422","38853","33364","40187","26868","38353","5349","NA","Lexical Decision Task","8","6060","8","yes","1024"
"3.159867847","5.98","5","brim","word","100","100","769.3333333333334","769.3333333333334","black","no","legacy","legacy","legacy","0","uniform","1","undefined","undefined","undefined","1","j","0","0","0","0","8","0","0","0","8","NA","4","8","4","0","4","3","8","0","8","Thu Feb 25 12:58:20 2021","The main experiment item","yes","Lexical_Decision_Task.osexp","/Users/maisiehood/Documents/Univeristy/Second Year/Cognition and Language","no","Andale Mono","no","18","no","white","no","yes","576","legacy","4","4","3","/Users/maisiehood/Documents/Univeristy/Second Year/Cognition and Language/subject-5203793.csv","legacy","Lentiform Loewenfeld","3.3.7","yes","yes","600bd7cfb6416f0113b04181","602110864497cf011d9c0822","0","j","NA","j","j","j","NA","j","864","NA","2679","10458","5516","NA","864","2","legacy","1024","2","48000","-16","task","5203793","odd","NA","28678","33364","30684","40757","5382","21372","15852","41261","NA","40754","41261","40691","33364","42126","26868","40191","5349","NA","Lexical Decision Task","9","6924","9","yes","1024"
"3.382617311","0","4","pret","non-word","90","90","772.7","772.7","black","no","legacy","legacy","legacy","0","uniform","0","undefined","undefined","undefined","0","f","0","0","0","0","9","0","0","0","9","NA","5","9","5","0","5","3","9","0","9","Thu Feb 25 12:58:20 2021","The main experiment item","yes","Lexical_Decision_Task.osexp","/Users/maisiehood/Documents/Univeristy/Second Year/Cognition and Language","no","Andale Mono","no","18","no","white","no","yes","576","legacy","5","5","3","/Users/maisiehood/Documents/Univeristy/Second Year/Cognition and Language/subject-5203793.csv","legacy","Lentiform Loewenfeld","3.3.7","yes","yes","600bd7cfb6416f0113b04181","602110864497cf011d9c0822","0","j","NA","j","j","j","NA","j","803","NA","2679","10458","5516","NA","803","2","legacy","1024","2","48000","-16","task","5203793","odd","NA","28678","33364","30684","42696","5382","21372","15852","43200","NA","42693","43200","42629","33364","44003","26868","42129","5349","NA","Lexical Decision Task","9","7727","10","yes","1024"
"2.996511672","0","7","hoil","non-word","90.9090909090909","90.9090909090909","781.5454545454545","781.5454545454545","black","no","legacy","legacy","legacy","0","uniform","1","undefined","undefined","undefined","1","f","0","0","0","0","10","0","0","0","10","NA","6","10","6","0","6","3","10","0","10","Thu Feb 25 12:58:20 2021","The main experiment item","yes","Lexical_Decision_Task.osexp","/Users/maisiehood/Documents/Univeristy/Second Year/Cognition and Language","no","Andale Mono","no","18","no","white","no","yes","576","legacy","6","6","3","/Users/maisiehood/Documents/Univeristy/Second Year/Cognition and Language/subject-5203793.csv","legacy","Lentiform Loewenfeld","3.3.7","yes","yes","600bd7cfb6416f0113b04181","602110864497cf011d9c0822","0","f","NA","j","j","j","NA","f","870","NA","2679","10458","5516","NA","870","2","legacy","1024","2","48000","-16","task","5203793","odd","NA","28678","33364","30684","45579","5382","21372","15852","46082","NA","45575","46083","45507","33364","46953","26868","42129","5349","44007","Lexical Decision Task","10","8597","11","yes","1024"
"2.897810299","0","5","glur","non-word","91.66666666666667","91.66666666666667","772","772","black","no","legacy","legacy","legacy","0","uniform","1","undefined","undefined","undefined","1","f","0","0","0","0","11","0","0","0","11","NA","7","11","7","0","7","3","11","0","11","Thu Feb 25 12:58:20 2021","The main experiment item","yes","Lexical_Decision_Task.osexp","/Users/maisiehood/Documents/Univeristy/Second Year/Cognition and Language","no","Andale Mono","no","18","no","white","no","yes","576","legacy","7","7","3","/Users/maisiehood/Documents/Univeristy/Second Year/Cognition and Language/subject-5203793.csv","legacy","Lentiform Loewenfeld","3.3.7","yes","yes","600bd7cfb6416f0113b04181","602110864497cf011d9c0822","0","f","NA","j","j","j","NA","f","667","NA","2679","10458","5516","NA","667","2","legacy","1024","2","48000","-16","task","5203793","odd","NA","28678","33364","30684","47522","5382","21372","15852","48026","NA","47519","48026","47457","33364","48694","26868","46957","5349","44007","Lexical Decision Task","11","9264","12","yes","1024"
"3.353210739","0","9","reet","non-word","92.3076923076923","92.3076923076923","777.3076923076923","777.3076923076923","black","no","legacy","legacy","legacy","0","uniform","1","undefined","undefined","undefined","1","f","0","0","0","0","12","0","0","0","12","NA","8","12","8","0","8","3","12","0","12","Thu Feb 25 12:58:20 2021","The main experiment item","yes","Lexical_Decision_Task.osexp","/Users/maisiehood/Documents/Univeristy/Second Year/Cognition and Language","no","Andale Mono","no","18","no","white","no","yes","576","legacy","8","8","3","/Users/maisiehood/Documents/Univeristy/Second Year/Cognition and Language/subject-5203793.csv","legacy","Lentiform Loewenfeld","3.3.7","yes","yes","600bd7cfb6416f0113b04181","602110864497cf011d9c0822","0","f","NA","j","j","j","NA","f","841","NA","2679","10458","5516","NA","841","2","legacy","1024","2","48000","-16","task","5203793","odd","NA","28678","33364","30684","49263","5382","21372","15852","49766","NA","49260","49767","49197","33364","50608","26868","48697","5349","44007","Lexical Decision Task","12","10105","13","yes","1024"
"2.719886232","7.98","2","quiz","word","92.85714285714286","92.85714285714286","770.7857142857143","770.7857142857143","black","no","legacy","legacy","legacy","0","uniform","1","undefined","undefined","undefined","1","j","0","0","0","0","13","0","0","0","13","NA","9","13","9","0","9","3","13","0","13","Thu Feb 25 12:58:20 2021","The main experiment item","yes","Lexical_Decision_Task.osexp","/Users/maisiehood/Documents/Univeristy/Second Year/Cognition and Language","no","Andale Mono","no","18","no","white","no","yes","576","legacy","9","9","3","/Users/maisiehood/Documents/Univeristy/Second Year/Cognition and Language/subject-5203793.csv","legacy","Lentiform Loewenfeld","3.3.7","yes","yes","600bd7cfb6416f0113b04181","602110864497cf011d9c0822","0","j","NA","j","j","j","NA","j","686","NA","2679","10458","5516","NA","686","2","legacy","1024","2","48000","-16","task","5203793","odd","NA","28678","33364","30684","51178","5382","21372","15852","51682","NA","51176","51682","51112","33364","52369","26868","50612","5349","44007","Lexical Decision Task","13","10791","14","yes","1024"
"2.8162413","0","5","nusk","non-word","93.33333333333333","93.33333333333333","760.8","760.8","black","no","legacy","legacy","legacy","0","uniform","1","undefined","undefined","undefined","1","f","0","0","0","0","14","0","0","0","14","NA","10","14","10","0","10","3","14","0","14","Thu Feb 25 12:58:20 2021","The main experiment item","yes","Lexical_Decision_Task.osexp","/Users/maisiehood/Documents/Univeristy/Second Year/Cognition and Language","no","Andale Mono","no","18","no","white","no","yes","576","legacy","10","10","3","/Users/maisiehood/Documents/Univeristy/Second Year/Cognition and Language/subject-5203793.csv","legacy","Lentiform Loewenfeld","3.3.7","yes","yes","600bd7cfb6416f0113b04181","602110864497cf011d9c0822","0","f","NA","j","j","j","NA","f","621","NA","2679","10458","5516","NA","621","2","legacy","1024","2","48000","-16","task","5203793","odd","NA","28678","33364","30684","52938","5382","21372","15852","53442","NA","52935","53442","52872","33364","54064","26868","52372","5349","44007","Lexical Decision Task","14","11412","15","yes","1024"
"2.839268497","0","8","maft","non-word","93.75","93.75","757.3125","757.3125","black","no","legacy","legacy","legacy","0","uniform","1","undefined","undefined","undefined","1","f","0","0","0","0","15","0","0","0","15","NA","11","15","11","0","11","3","15","0","15","Thu Feb 25 12:58:20 2021","The main experiment item","yes","Lexical_Decision_Task.osexp","/Users/maisiehood/Documents/Univeristy/Second Year/Cognition and Language","no","Andale Mono","no","18","no","white","no","yes","576","legacy","11","11","3","/Users/maisiehood/Documents/Univeristy/Second Year/Cognition and Language/subject-5203793.csv","legacy","Lentiform Loewenfeld","3.3.7","yes","yes","600bd7cfb6416f0113b04181","602110864497cf011d9c0822","0","f","NA","j","j","j","NA","f","705","NA","2679","10458","5516","NA","705","2","legacy","1024","2","48000","-16","task","5203793","odd","NA","28678","33364","30684","54633","5382","21372","15852","55136","NA","54630","55137","54567","33364","55843","26868","54067","5349","44007","Lexical Decision Task","15","12117","16","yes","1024"
"3.120135028","0","3","vals","non-word","94.11764705882354","94.11764705882354","755.7647058823529","755.7647058823529","black","no","legacy","legacy","legacy","0","uniform","1","undefined","undefined","undefined","1","f","0","0","0","0","16","0","0","0","16","NA","12","16","12","0","12","3","16","0","16","Thu Feb 25 12:58:20 2021","The main experiment item","yes","Lexical_Decision_Task.osexp","/Users/maisiehood/Documents/Univeristy/Second Year/Cognition and Language","no","Andale Mono","no","18","no","white","no","yes","576","legacy","12","12","3","/Users/maisiehood/Documents/Univeristy/Second Year/Cognition and Language/subject-5203793.csv","legacy","Lentiform Loewenfeld","3.3.7","yes","yes","600bd7cfb6416f0113b04181","602110864497cf011d9c0822","0","f","NA","j","j","j","NA","f","731","NA","2679","10458","5516","NA","731","2","legacy","1024","2","48000","-16","task","5203793","odd","NA","28678","33364","30684","56411","5382","21372","15852","56914","NA","56409","56915","56347","33364","57647","26868","55847","5349","44007","Lexical Decision Task","16","12848","17","yes","1024"
"3.492014979","0","9","yine","non-word","94.44444444444444","94.44444444444444","762.8333333333334","762.8333333333334","black","no","legacy","legacy","legacy","0","uniform","1","undefined","undefined","undefined","1","f","0","0","0","0","17","0","0","0","17","NA","13","17","13","0","13","3","17","0","17","Thu Feb 25 12:58:20 2021","The main experiment item","yes","Lexical_Decision_Task.osexp","/Users/maisiehood/Documents/Univeristy/Second Year/Cognition and Language","no","Andale Mono","no","18","no","white","no","yes","576","legacy","13","13","3","/Users/maisiehood/Documents/Univeristy/Second Year/Cognition and Language/subject-5203793.csv","legacy","Lentiform Loewenfeld","3.3.7","yes","yes","600bd7cfb6416f0113b04181","602110864497cf011d9c0822","0","f","NA","j","j","j","NA","f","883","NA","2679","10458","5516","NA","883","2","legacy","1024","2","48000","-16","task","5203793","odd","NA","28678","33364","30684","58217","5382","21372","15852","58720","NA","58214","58721","58151","33364","59605","26868","57651","5349","44007","Lexical Decision Task","17","13731","18","yes","1024"
"3.088136089","8.32","9","worm","word","94.73684210526316","94.73684210526316","755.4736842105264","755.4736842105264","black","no","legacy","legacy","legacy","0","uniform","1","undefined","undefined","undefined","1","j","0","0","0","0","18","0","0","0","18","NA","14","18","14","0","14","3","18","0","18","Thu Feb 25 12:58:20 2021","The main experiment item","yes","Lexical_Decision_Task.osexp","/Users/maisiehood/Documents/Univeristy/Second Year/Cognition and Language","no","Andale Mono","no","18","no","white","no","yes","576","legacy","14","14","3","/Users/maisiehood/Documents/Univeristy/Second Year/Cognition and Language/subject-5203793.csv","legacy","Lentiform Loewenfeld","3.3.7","yes","yes","600bd7cfb6416f0113b04181","602110864497cf011d9c0822","0","j","NA","j","j","j","NA","j","623","NA","2679","10458","5516","NA","623","2","legacy","1024","2","48000","-16","task","5203793","odd","NA","28678","33364","30684","60174","5382","21372","15852","60677","NA","60171","60678","60108","33364","61302","26868","59608","5349","44007","Lexical Decision Task","18","14354","19","yes","1024"
"2.966923697","5.4","2","fume","word","95","95","757.65","757.65","black","no","legacy","legacy","legacy","0","uniform","1","undefined","undefined","undefined","1","j","0","0","0","0","19","0","0","0","19","NA","15","19","15","0","15","3","19","0","19","Thu Feb 25 12:58:20 2021","The main experiment item","yes","Lexical_Decision_Task.osexp","/Users/maisiehood/Documents/Univeristy/Second Year/Cognition and Language","no","Andale Mono","no","18","no","white","no","yes","576","legacy","15","15","3","/Users/maisiehood/Documents/Univeristy/Second Year/Cognition and Language/subject-5203793.csv","legacy","Lentiform Loewenfeld","3.3.7","yes","yes","600bd7cfb6416f0113b04181","602110864497cf011d9c0822","0","j","NA","j","j","j","NA","j","799","NA","2679","10458","5516","NA","799","2","legacy","1024","2","48000","-16","task","5203793","odd","NA","28678","33364","30684","61872","5382","21372","15852","62375","NA","61869","62376","61806","33364","63176","26868","61306","5349","44007","Lexical Decision Task","19","15153","20","yes","1024"
"2.703007489","8.37","3","pulp","word","95.23809523809524","95.23809523809524","754","754","black","no","legacy","legacy","legacy","0","uniform","1","undefined","undefined","undefined","1","j","0","0","0","0","20","0","0","0","20","NA","16","20","16","0","16","3","20","0","20","Thu Feb 25 12:58:20 2021","The main experiment item","yes","Lexical_Decision_Task.osexp","/Users/maisiehood/Documents/Univeristy/Second Year/Cognition and Language","no","Andale Mono","no","18","no","white","no","yes","576","legacy","16","16","3","/Users/maisiehood/Documents/Univeristy/Second Year/Cognition and Language/subject-5203793.csv","legacy","Lentiform Loewenfeld","3.3.7","yes","yes","600bd7cfb6416f0113b04181","602110864497cf011d9c0822","0","j","NA","j","j","j","NA","j","681","NA","2679","10458","5516","NA","681","2","legacy","1024","2","48000","-16","task","5203793","odd","NA","28678","33364","30684","63722","5382","21372","15852","64226","NA","63720","64226","63680","33364","64908","26868","63180","5349","44007","Lexical Decision Task","20","15834","21","yes","1024"
"2.971428938","9.86","7","spot","word","95.45454545454545","95.45454545454545","743.3181818181819","743.3181818181819","black","no","legacy","legacy","legacy","0","uniform","1","undefined","undefined","undefined","1","j","0","0","0","0","21","0","0","0","21","NA","17","21","17","0","17","3","21","0","21","Thu Feb 25 12:58:20 2021","The main experiment item","yes","Lexical_Decision_Task.osexp","/Users/maisiehood/Documents/Univeristy/Second Year/Cognition and Language","no","Andale Mono","no","18","no","white","no","yes","576","legacy","17","17","3","/Users/maisiehood/Documents/Univeristy/Second Year/Cognition and Language/subject-5203793.csv","legacy","Lentiform Loewenfeld","3.3.7","yes","yes","600bd7cfb6416f0113b04181","602110864497cf011d9c0822","0","j","NA","j","j","j","NA","j","519","NA","2679","10458","5516","NA","519","2","legacy","1024","2","48000","-16","task","5203793","odd","NA","28678","33364","30684","65478","5382","21372","15852","65981","NA","65475","65982","65412","33364","66502","26868","64912","5349","44007","Lexical Decision Task","21","16353","22","yes","1024"
"2.868644438","10.52","4","town","word","95.65217391304348","95.65217391304348","732.4347826086956","732.4347826086956","black","no","legacy","legacy","legacy","0","uniform","1","undefined","undefined","undefined","1","j","0","0","0","0","22","0","0","0","22","NA","18","22","18","0","18","3","22","0","22","Thu Feb 25 12:58:20 2021","The main experiment item","yes","Lexical_Decision_Task.osexp","/Users/maisiehood/Documents/Univeristy/Second Year/Cognition and Language","no","Andale Mono","no","18","no","white","no","yes","576","legacy","18","18","3","/Users/maisiehood/Documents/Univeristy/Second Year/Cognition and Language/subject-5203793.csv","legacy","Lentiform Loewenfeld","3.3.7","yes","yes","600bd7cfb6416f0113b04181","602110864497cf011d9c0822","0","j","NA","j","j","j","NA","j","493","NA","2679","10458","5516","NA","493","2","legacy","1024","2","48000","-16","task","5203793","odd","NA","28678","33364","30684","67070","5382","21372","15852","67573","NA","67067","67574","67005","33364","68068","26868","66505","5349","44007","Lexical Decision Task","22","16846","23","yes","1024"
"2.884795364","0","6","flob","non-word","95.83333333333333","95.83333333333333","732.5416666666666","732.5416666666666","black","no","legacy","legacy","legacy","0","uniform","1","undefined","undefined","undefined","1","f","0","0","0","0","23","0","0","0","23","NA","19","23","19","0","19","3","23","0","23","Thu Feb 25 12:58:20 2021","The main experiment item","yes","Lexical_Decision_Task.osexp","/Users/maisiehood/Documents/Univeristy/Second Year/Cognition and Language","no","Andale Mono","no","18","no","white","no","yes","576","legacy","19","19","3","/Users/maisiehood/Documents/Univeristy/Second Year/Cognition and Language/subject-5203793.csv","legacy","Lentiform Loewenfeld","3.3.7","yes","yes","600bd7cfb6416f0113b04181","602110864497cf011d9c0822","0","f","NA","j","j","j","NA","f","735","NA","2679","10458","5516","NA","735","2","legacy","1024","2","48000","-16","task","5203793","odd","NA","28678","33364","30684","68638","5382","21372","15852","69142","NA","68635","69143","68571","33364","69879","26868","68071","5349","44007","Lexical Decision Task","23","17581","24","yes","1024"
"3.165936429","0","7","leps","non-word","96","96","735.88","735.88","black","no","legacy","legacy","legacy","0","uniform","1","undefined","undefined","undefined","1","f","0","0","0","0","24","0","0","0","24","NA","20","24","20","0","20","3","24","0","24","Thu Feb 25 12:58:20 2021","The main experiment item","yes","Lexical_Decision_Task.osexp","/Users/maisiehood/Documents/Univeristy/Second Year/Cognition and Language","no","Andale Mono","no","18","no","white","no","yes","576","legacy","20","20","3","/Users/maisiehood/Documents/Univeristy/Second Year/Cognition and Language/subject-5203793.csv","legacy","Lentiform Loewenfeld","3.3.7","yes","yes","600bd7cfb6416f0113b04181","602110864497cf011d9c0822","0","f","NA","j","j","j","NA","f","816","NA","2679","10458","5516","NA","816","2","legacy","1024","2","48000","-16","task","5203793","odd","NA","28678","33364","30684","70449","5382","21372","15852","70952","NA","70446","70953","70382","33364","71770","26868","69882","5349","44007","Lexical Decision Task","24","18397","25","yes","1024"
"2.64476673","0","5","moft","non-word","96.15384615384616","96.15384615384616","745.8076923076923","745.8076923076923","black","no","legacy","legacy","legacy","0","uniform","1","undefined","undefined","undefined","1","f","0","0","0","0","25","0","0","0","25","NA","21","25","21","0","21","3","25","0","25","Thu Feb 25 12:58:20 2021","The main experiment item","yes","Lexical_Decision_Task.osexp","/Users/maisiehood/Documents/Univeristy/Second Year/Cognition and Language","no","Andale Mono","no","18","no","white","no","yes","576","legacy","21","21","3","/Users/maisiehood/Documents/Univeristy/Second Year/Cognition and Language/subject-5203793.csv","legacy","Lentiform Loewenfeld","3.3.7","yes","yes","600bd7cfb6416f0113b04181","602110864497cf011d9c0822","0","f","NA","j","j","j","NA","f","994","NA","2679","10458","5516","NA","994","2","legacy","1024","2","48000","-16","task","5203793","odd","NA","28678","33364","30684","72339","5382","21372","15852","72843","NA","72337","72844","72273","33364","73839","26868","71773","5349","44007","Lexical Decision Task","25","19391","26","yes","1024"
"2.924968096","0","4","phim","non-word","96.29629629629629","96.29629629629629","742.925925925926","742.925925925926","black","no","legacy","legacy","legacy","0","uniform","1","undefined","undefined","undefined","1","f","0","0","0","0","26","0","0","0","26","NA","22","26","22","0","22","3","26","0","26","Thu Feb 25 12:58:20 2021","The main experiment item","yes","Lexical_Decision_Task.osexp","/Users/maisiehood/Documents/Univeristy/Second Year/Cognition and Language","no","Andale Mono","no","18","no","white","no","yes","576","legacy","22","22","3","/Users/maisiehood/Documents/Univeristy/Second Year/Cognition and Language/subject-5203793.csv","legacy","Lentiform Loewenfeld","3.3.7","yes","yes","600bd7cfb6416f0113b04181","602110864497cf011d9c0822","0","f","NA","j","j","j","NA","f","668","NA","2679","10458","5516","NA","668","2","legacy","1024","2","48000","-16","task","5203793","odd","NA","28678","33364","30684","74408","5382","21372","15852","74911","NA","74405","74912","74342","33364","75581","26868","73842","5349","44007","Lexical Decision Task","26","20059","27","yes","1024"
"3.062080345","0","6","tomp","non-word","96.42857142857143","96.42857142857143","738.75","738.75","black","no","legacy","legacy","legacy","0","uniform","1","undefined","undefined","undefined","1","f","0","0","0","0","27","0","0","0","27","NA","23","27","23","0","23","3","27","0","27","Thu Feb 25 12:58:20 2021","The main experiment item","yes","Lexical_Decision_Task.osexp","/Users/maisiehood/Documents/Univeristy/Second Year/Cognition and Language","no","Andale Mono","no","18","no","white","no","yes","576","legacy","23","23","3","/Users/maisiehood/Documents/Univeristy/Second Year/Cognition and Language/subject-5203793.csv","legacy","Lentiform Loewenfeld","3.3.7","yes","yes","600bd7cfb6416f0113b04181","602110864497cf011d9c0822","0","f","NA","j","j","j","NA","f","626","NA","2679","10458","5516","NA","626","2","legacy","1024","2","48000","-16","task","5203793","odd","NA","28678","33364","30684","76150","5382","21372","15852","76653","NA","76147","76653","76084","33364","77279","26868","75584","5349","44007","Lexical Decision Task","27","20685","28","yes","1024"
"3.263399331","0","8","cour","non-word","96.55172413793103","96.55172413793103","733.8275862068965","733.8275862068965","black","no","legacy","legacy","legacy","0","uniform","1","undefined","undefined","undefined","1","f","0","0","0","0","28","0","0","0","28","NA","24","28","24","0","24","3","28","0","28","Thu Feb 25 12:58:20 2021","The main experiment item","yes","Lexical_Decision_Task.osexp","/Users/maisiehood/Documents/Univeristy/Second Year/Cognition and Language","no","Andale Mono","no","18","no","white","no","yes","576","legacy","24","24","3","/Users/maisiehood/Documents/Univeristy/Second Year/Cognition and Language/subject-5203793.csv","legacy","Lentiform Loewenfeld","3.3.7","yes","yes","600bd7cfb6416f0113b04181","602110864497cf011d9c0822","0","f","NA","j","j","j","NA","f","596","NA","2679","10458","5516","NA","596","2","legacy","1024","2","48000","-16","task","5203793","odd","NA","28678","33364","30684","77849","5382","21372","15852","78352","NA","77846","78353","77783","33364","78950","26868","77283","5349","44007","Lexical Decision Task","28","21281","29","yes","1024"
"2.907588697","8.91","9","mood","word","96.66666666666667","96.66666666666667","728.8","728.8","black","no","legacy","legacy","legacy","0","uniform","1","undefined","undefined","undefined","1","j","0","0","0","0","29","0","0","0","29","NA","25","29","25","0","25","3","29","0","29","Thu Feb 25 12:58:20 2021","The main experiment item","yes","Lexical_Decision_Task.osexp","/Users/maisiehood/Documents/Univeristy/Second Year/Cognition and Language","no","Andale Mono","no","18","no","white","no","yes","576","legacy","25","25","3","/Users/maisiehood/Documents/Univeristy/Second Year/Cognition and Language/subject-5203793.csv","legacy","Lentiform Loewenfeld","3.3.7","yes","yes","600bd7cfb6416f0113b04181","602110864497cf011d9c0822","0","j","NA","j","j","j","NA","j","583","NA","2679","10458","5516","NA","583","2","legacy","1024","2","48000","-16","task","5203793","odd","NA","28678","33364","30684","79519","5382","21372","15852","80023","NA","79516","80023","79453","33364","80606","26868","78953","5349","44007","Lexical Decision Task","29","21864","30","yes","1024"
"2.80048796","0","8","pife","non-word","96.7741935483871","96.7741935483871","729.2903225806451","729.2903225806451","black","no","legacy","legacy","legacy","0","uniform","1","undefined","undefined","undefined","1","f","0","0","0","0","30","0","0","0","30","NA","26","30","26","0","26","3","30","0","30","Thu Feb 25 12:58:20 2021","The main experiment item","yes","Lexical_Decision_Task.osexp","/Users/maisiehood/Documents/Univeristy/Second Year/Cognition and Language","no","Andale Mono","no","18","no","white","no","yes","576","legacy","26","26","3","/Users/maisiehood/Documents/Univeristy/Second Year/Cognition and Language/subject-5203793.csv","legacy","Lentiform Loewenfeld","3.3.7","yes","yes","600bd7cfb6416f0113b04181","602110864497cf011d9c0822","0","f","NA","j","j","j","NA","f","744","NA","2679","10458","5516","NA","744","2","legacy","1024","2","48000","-16","task","5203793","odd","NA","28678","33364","30684","81175","5382","21372","15852","81679","NA","81172","81679","81110","33364","82424","26868","80610","5349","44007","Lexical Decision Task","30","22608","31","yes","1024"
"2.7084209","0","8","vump","non-word","96.875","96.875","726.15625","726.15625","black","no","legacy","legacy","legacy","0","uniform","1","undefined","undefined","undefined","1","f","0","0","0","0","31","0","0","0","31","NA","27","31","27","0","27","3","31","0","31","Thu Feb 25 12:58:20 2021","The main experiment item","yes","Lexical_Decision_Task.osexp","/Users/maisiehood/Documents/Univeristy/Second Year/Cognition and Language","no","Andale Mono","no","18","no","white","no","yes","576","legacy","27","27","3","/Users/maisiehood/Documents/Univeristy/Second Year/Cognition and Language/subject-5203793.csv","legacy","Lentiform Loewenfeld","3.3.7","yes","yes","600bd7cfb6416f0113b04181","602110864497cf011d9c0822","0","f","NA","j","j","j","NA","f","629","NA","2679","10458","5516","NA","629","2","legacy","1024","2","48000","-16","task","5203793","odd","NA","28678","33364","30684","82992","5382","21372","15852","83495","NA","82989","83496","82926","33364","84126","26868","82426","5349","44007","Lexical Decision Task","31","23237","32","yes","1024"
"3.276537627","9.15","5","trap","word","96.96969696969697","96.96969696969697","724.4242424242424","724.4242424242424","black","no","legacy","legacy","legacy","0","uniform","1","undefined","undefined","undefined","1","j","0","0","0","0","32","0","0","0","32","NA","28","32","28","0","28","3","32","0","32","Thu Feb 25 12:58:20 2021","The main experiment item","yes","Lexical_Decision_Task.osexp","/Users/maisiehood/Documents/Univeristy/Second Year/Cognition and Language","no","Andale Mono","no","18","no","white","no","yes","576","legacy","28","28","3","/Users/maisiehood/Documents/Univeristy/Second Year/Cognition and Language/subject-5203793.csv","legacy","Lentiform Loewenfeld","3.3.7","yes","yes","600bd7cfb6416f0113b04181","602110864497cf011d9c0822","0","j","NA","j","j","j","NA","j","669","NA","2679","10458","5516","NA","669","2","legacy","1024","2","48000","-16","task","5203793","odd","NA","28678","33364","30684","84694","5382","21372","15852","85197","NA","84691","85198","84629","33364","85868","26868","84129","5349","44007","Lexical Decision Task","32","23906","33","yes","1024"
"2.784379519","0","2","snaf","non-word","97.05882352941177","97.05882352941177","724.7058823529412","724.7058823529412","black","no","legacy","legacy","legacy","0","uniform","1","undefined","undefined","undefined","1","f","0","0","0","0","33","0","0","0","33","NA","29","33","29","0","29","3","33","0","33","Thu Feb 25 12:58:20 2021","The main experiment item","yes","Lexical_Decision_Task.osexp","/Users/maisiehood/Documents/Univeristy/Second Year/Cognition and Language","no","Andale Mono","no","18","no","white","no","yes","576","legacy","29","29","3","/Users/maisiehood/Documents/Univeristy/Second Year/Cognition and Language/subject-5203793.csv","legacy","Lentiform Loewenfeld","3.3.7","yes","yes","600bd7cfb6416f0113b04181","602110864497cf011d9c0822","0","f","NA","j","j","j","NA","f","734","NA","2679","10458","5516","NA","734","2","legacy","1024","2","48000","-16","task","5203793","odd","NA","28678","33364","30684","86440","5382","21372","15852","86943","NA","86436","86944","86372","33364","87679","26868","85872","5349","44007","Lexical Decision Task","33","24640","34","yes","1024"
"3.100255637","0","6","brax","non-word","97.14285714285714","97.14285714285714","722.9714285714285","722.9714285714285","black","no","legacy","legacy","legacy","0","uniform","1","undefined","undefined","undefined","1","f","0","0","0","0","34","0","0","0","34","NA","30","34","30","0","30","3","34","0","34","Thu Feb 25 12:58:20 2021","The main experiment item","yes","Lexical_Decision_Task.osexp","/Users/maisiehood/Documents/Univeristy/Second Year/Cognition and Language","no","Andale Mono","no","18","no","white","no","yes","576","legacy","30","30","3","/Users/maisiehood/Documents/Univeristy/Second Year/Cognition and Language/subject-5203793.csv","legacy","Lentiform Loewenfeld","3.3.7","yes","yes","600bd7cfb6416f0113b04181","602110864497cf011d9c0822","0","f","NA","j","j","j","NA","f","664","NA","2679","10458","5516","NA","664","2","legacy","1024","2","48000","-16","task","5203793","odd","NA","28678","33364","30684","88249","5382","21372","15852","88753","NA","88246","88753","88182","33364","89418","26868","87682","5349","44007","Lexical Decision Task","34","25304","35","yes","1024"
"3.15462682","0","6","noal","non-word","97.22222222222223","97.22222222222223","720.9444444444445","720.9444444444445","black","no","legacy","legacy","legacy","0","uniform","1","undefined","undefined","undefined","1","f","0","0","0","0","35","0","0","0","35","NA","31","35","31","0","31","3","35","0","35","Thu Feb 25 12:58:20 2021","The main experiment item","yes","Lexical_Decision_Task.osexp","/Users/maisiehood/Documents/Univeristy/Second Year/Cognition and Language","no","Andale Mono","no","18","no","white","no","yes","576","legacy","31","31","3","/Users/maisiehood/Documents/Univeristy/Second Year/Cognition and Language/subject-5203793.csv","legacy","Lentiform Loewenfeld","3.3.7","yes","yes","600bd7cfb6416f0113b04181","602110864497cf011d9c0822","0","f","NA","j","j","j","NA","f","650","NA","2679","10458","5516","NA","650","2","legacy","1024","2","48000","-16","task","5203793","odd","NA","28678","33364","30684","89988","5382","21372","15852","90491","NA","89985","90492","89921","33364","91143","26868","89421","5349","44007","Lexical Decision Task","35","25954","36","yes","1024"
"2.728085817","10.02","9","bike","word","97.29729729729729","97.29729729729729","721","721","black","no","legacy","legacy","legacy","0","uniform","1","undefined","undefined","undefined","1","j","0","0","0","0","36","0","0","0","36","NA","32","36","32","0","32","3","36","0","36","Thu Feb 25 12:58:20 2021","The main experiment item","yes","Lexical_Decision_Task.osexp","/Users/maisiehood/Documents/Univeristy/Second Year/Cognition and Language","no","Andale Mono","no","18","no","white","no","yes","576","legacy","32","32","3","/Users/maisiehood/Documents/Univeristy/Second Year/Cognition and Language/subject-5203793.csv","legacy","Lentiform Loewenfeld","3.3.7","yes","yes","600bd7cfb6416f0113b04181","602110864497cf011d9c0822","0","j","NA","j","j","j","NA","j","723","NA","2679","10458","5516","NA","723","2","legacy","1024","2","48000","-16","task","5203793","odd","NA","28678","33364","30684","91713","5382","21372","15852","92217","NA","91710","92217","91647","33364","92941","26868","91147","5349","44007","Lexical Decision Task","36","26677","37","yes","1024"
"3.197740804","6.74","3","ache","word","97.36842105263158","97.36842105263158","722.1315789473684","722.1315789473684","black","no","legacy","legacy","legacy","0","uniform","1","undefined","undefined","undefined","1","j","0","0","0","0","37","0","0","0","37","NA","33","37","33","0","33","3","37","0","37","Thu Feb 25 12:58:20 2021","The main experiment item","yes","Lexical_Decision_Task.osexp","/Users/maisiehood/Documents/Univeristy/Second Year/Cognition and Language","no","Andale Mono","no","18","no","white","no","yes","576","legacy","33","33","3","/Users/maisiehood/Documents/Univeristy/Second Year/Cognition and Language/subject-5203793.csv","legacy","Lentiform Loewenfeld","3.3.7","yes","yes","600bd7cfb6416f0113b04181","602110864497cf011d9c0822","0","j","NA","j","j","j","NA","j","764","NA","2679","10458","5516","NA","764","2","legacy","1024","2","48000","-16","task","5203793","odd","NA","28678","33364","30684","93511","5382","21372","15852","94015","NA","93508","94015","93445","33364","94780","26868","92945","5349","44007","Lexical Decision Task","37","27441","38","yes","1024"
"3.121778632","0","9","sark","non-word","97.43589743589743","97.43589743589743","717.6410256410256","717.6410256410256","black","no","legacy","legacy","legacy","0","uniform","1","undefined","undefined","undefined","1","f","0","0","0","0","38","0","0","0","38","NA","34","38","34","0","34","3","38","0","38","Thu Feb 25 12:58:20 2021","The main experiment item","yes","Lexical_Decision_Task.osexp","/Users/maisiehood/Documents/Univeristy/Second Year/Cognition and Language","no","Andale Mono","no","18","no","white","no","yes","576","legacy","34","34","3","/Users/maisiehood/Documents/Univeristy/Second Year/Cognition and Language/subject-5203793.csv","legacy","Lentiform Loewenfeld","3.3.7","yes","yes","600bd7cfb6416f0113b04181","602110864497cf011d9c0822","0","f","NA","j","j","j","NA","f","547","NA","2679","10458","5516","NA","547","2","legacy","1024","2","48000","-16","task","5203793","odd","NA","28678","33364","30684","95350","5382","21372","15852","95854","NA","95347","95855","95283","33364","96403","26868","94783","5349","44007","Lexical Decision Task","38","27988","39","yes","1024"
"3.208172527","10.27","7","deck","word","97.5","97.5","718.25","718.25","black","no","legacy","legacy","legacy","0","uniform","1","undefined","undefined","undefined","1","j","0","0","0","0","39","0","0","0","39","NA","35","39","35","0","35","3","39","0","39","Thu Feb 25 12:58:20 2021","The main experiment item","yes","Lexical_Decision_Task.osexp","/Users/maisiehood/Documents/Univeristy/Second Year/Cognition and Language","no","Andale Mono","no","18","no","white","no","yes","576","legacy","35","35","3","/Users/maisiehood/Documents/Univeristy/Second Year/Cognition and Language/subject-5203793.csv","legacy","Lentiform Loewenfeld","3.3.7","yes","yes","600bd7cfb6416f0113b04181","602110864497cf011d9c0822","0","j","NA","j","j","j","NA","j","742","NA","2679","10458","5516","NA","742","2","legacy","1024","2","48000","-16","task","5203793","odd","NA","28678","33364","30684","96973","5382","21372","15852","97477","NA","96970","97477","96906","33364","98220","26868","96406","5349","44007","Lexical Decision Task","39","28730","40","yes","1024"
"2.821076612","0","4","lult","non-word","97.5609756097561","97.5609756097561","716.0487804878048","716.0487804878048","black","no","legacy","legacy","legacy","0","uniform","1","undefined","undefined","undefined","1","f","0","0","0","0","40","0","0","0","40","NA","36","40","36","0","36","3","40","0","40","Thu Feb 25 12:58:20 2021","The main experiment item","yes","Lexical_Decision_Task.osexp","/Users/maisiehood/Documents/Univeristy/Second Year/Cognition and Language","no","Andale Mono","no","18","no","white","no","yes","576","legacy","36","36","3","/Users/maisiehood/Documents/Univeristy/Second Year/Cognition and Language/subject-5203793.csv","legacy","Lentiform Loewenfeld","3.3.7","yes","yes","600bd7cfb6416f0113b04181","602110864497cf011d9c0822","0","f","NA","j","j","j","NA","f","628","NA","2679","10458","5516","NA","628","2","legacy","1024","2","48000","-16","task","5203793","odd","NA","28678","33364","30684","98789","5382","21372","15852","99292","NA","98786","99292","98723","33364","99921","26868","98223","5349","44007","Lexical Decision Task","40","29358","41","yes","1024"
"3.431095062","5.74","9","perk","word","97.61904761904762","97.61904761904762","719.0714285714286","719.0714285714286","black","no","legacy","legacy","legacy","0","uniform","1","undefined","undefined","undefined","1","j","0","0","0","0","41","0","0","0","41","NA","37","41","37","0","37","3","41","0","41","Thu Feb 25 12:58:20 2021","The main experiment item","yes","Lexical_Decision_Task.osexp","/Users/maisiehood/Documents/Univeristy/Second Year/Cognition and Language","no","Andale Mono","no","18","no","white","no","yes","576","legacy","37","37","3","/Users/maisiehood/Documents/Univeristy/Second Year/Cognition and Language/subject-5203793.csv","legacy","Lentiform Loewenfeld","3.3.7","yes","yes","600bd7cfb6416f0113b04181","602110864497cf011d9c0822","0","j","NA","j","j","j","NA","j","843","NA","2679","10458","5516","NA","843","2","legacy","1024","2","48000","-16","task","5203793","odd","NA","28678","33364","30684","100489","5382","21372","15852","100994","NA","100487","100994","100424","33364","101838","26868","99924","5349","44007","Lexical Decision Task","41","30201","42","yes","1024"
"3.531734309","0","6","lerd","non-word","97.67441860465117","97.67441860465117","715.9069767441861","715.9069767441861","black","no","legacy","legacy","legacy","0","uniform","1","undefined","undefined","undefined","1","f","0","0","0","0","42","0","0","0","42","NA","38","42","38","0","38","3","42","0","42","Thu Feb 25 12:58:20 2021","The main experiment item","yes","Lexical_Decision_Task.osexp","/Users/maisiehood/Documents/Univeristy/Second Year/Cognition and Language","no","Andale Mono","no","18","no","white","no","yes","576","legacy","38","38","3","/Users/maisiehood/Documents/Univeristy/Second Year/Cognition and Language/subject-5203793.csv","legacy","Lentiform Loewenfeld","3.3.7","yes","yes","600bd7cfb6416f0113b04181","602110864497cf011d9c0822","0","f","NA","j","j","j","NA","f","583","NA","2679","10458","5516","NA","583","2","legacy","1024","2","48000","-16","task","5203793","odd","NA","28678","33364","30684","102408","5382","21372","15852","102912","NA","102405","102912","102341","33364","103496","26868","101841","5349","44007","Lexical Decision Task","42","30784","43","yes","1024"
"2.69019608","9.01","2","myth","word","97.72727272727273","97.72727272727273","717.0454545454545","717.0454545454545","black","no","legacy","legacy","legacy","0","uniform","1","undefined","undefined","undefined","1","j","0","0","0","0","43","0","0","0","43","NA","39","43","39","0","39","3","43","0","43","Thu Feb 25 12:58:20 2021","The main experiment item","yes","Lexical_Decision_Task.osexp","/Users/maisiehood/Documents/Univeristy/Second Year/Cognition and Language","no","Andale Mono","no","18","no","white","no","yes","576","legacy","39","39","3","/Users/maisiehood/Documents/Univeristy/Second Year/Cognition and Language/subject-5203793.csv","legacy","Lentiform Loewenfeld","3.3.7","yes","yes","600bd7cfb6416f0113b04181","602110864497cf011d9c0822","0","j","NA","j","j","j","NA","j","766","NA","2679","10458","5516","NA","766","2","legacy","1024","2","48000","-16","task","5203793","odd","NA","28678","33364","30684","104063","5382","21372","15852","104567","NA","104061","104568","103999","33364","105335","26868","103499","5349","44007","Lexical Decision Task","43","31550","44","yes","1024"
"2.980911938","7.15","7","hoop","word","97.77777777777777","97.77777777777777","717.8","717.8","black","no","legacy","legacy","legacy","0","uniform","1","undefined","undefined","undefined","1","j","0","0","0","0","44","0","0","0","44","NA","40","44","40","0","40","3","44","0","44","Thu Feb 25 12:58:20 2021","The main experiment item","yes","Lexical_Decision_Task.osexp","/Users/maisiehood/Documents/Univeristy/Second Year/Cognition and Language","no","Andale Mono","no","18","no","white","no","yes","576","legacy","40","40","3","/Users/maisiehood/Documents/Univeristy/Second Year/Cognition and Language/subject-5203793.csv","legacy","Lentiform Loewenfeld","3.3.7","yes","yes","600bd7cfb6416f0113b04181","602110864497cf011d9c0822","0","j","NA","j","j","j","NA","j","751","NA","2679","10458","5516","NA","751","2","legacy","1024","2","48000","-16","task","5203793","odd","NA","28678","33364","30684","105905","5382","21372","15852","106408","NA","105902","106409","105838","33364","107161","26868","105338","5349","44007","Lexical Decision Task","44","32301","45","yes","1024"
"2.979548375","8.71","4","soup","word","97.82608695652173","97.82608695652173","715.2608695652174","715.2608695652174","black","no","legacy","legacy","legacy","0","uniform","1","undefined","undefined","undefined","1","j","0","0","0","0","45","0","0","0","45","NA","41","45","41","0","41","3","45","0","45","Thu Feb 25 12:58:20 2021","The main experiment item","yes","Lexical_Decision_Task.osexp","/Users/maisiehood/Documents/Univeristy/Second Year/Cognition and Language","no","Andale Mono","no","18","no","white","no","yes","576","legacy","41","41","3","/Users/maisiehood/Documents/Univeristy/Second Year/Cognition and Language/subject-5203793.csv","legacy","Lentiform Loewenfeld","3.3.7","yes","yes","600bd7cfb6416f0113b04181","602110864497cf011d9c0822","0","j","NA","j","j","j","NA","j","601","NA","2679","10458","5516","NA","601","2","legacy","1024","2","48000","-16","task","5203793","odd","NA","28678","33364","30684","107734","5382","21372","15852","108238","NA","107732","108239","107664","33364","108841","26868","107164","5349","44007","Lexical Decision Task","45","32902","46","yes","1024"
"3.216517684","10.87","3","film","word","97.87234042553192","97.87234042553192","713.3404255319149","713.3404255319149","black","no","legacy","legacy","legacy","0","uniform","1","undefined","undefined","undefined","1","j","0","0","0","0","46","0","0","0","46","NA","42","46","42","0","42","3","46","0","46","Thu Feb 25 12:58:20 2021","The main experiment item","yes","Lexical_Decision_Task.osexp","/Users/maisiehood/Documents/Univeristy/Second Year/Cognition and Language","no","Andale Mono","no","18","no","white","no","yes","576","legacy","42","42","3","/Users/maisiehood/Documents/Univeristy/Second Year/Cognition and Language/subject-5203793.csv","legacy","Lentiform Loewenfeld","3.3.7","yes","yes","600bd7cfb6416f0113b04181","602110864497cf011d9c0822","0","j","NA","j","j","j","NA","j","625","NA","2679","10458","5516","NA","625","2","legacy","1024","2","48000","-16","task","5203793","odd","NA","28678","33364","30684","109411","5382","21372","15852","109914","NA","109408","109915","109344","33364","110541","26868","108844","5349","44007","Lexical Decision Task","46","33527","47","yes","1024"
"3.140404328","10.66","9","deep","word","97.91666666666667","97.91666666666667","711.125","711.125","black","no","legacy","legacy","legacy","0","uniform","1","undefined","undefined","undefined","1","j","0","0","0","0","47","0","0","0","47","NA","43","47","43","0","43","3","47","0","47","Thu Feb 25 12:58:20 2021","The main experiment item","yes","Lexical_Decision_Task.osexp","/Users/maisiehood/Documents/Univeristy/Second Year/Cognition and Language","no","Andale Mono","no","18","no","white","no","yes","576","legacy","43","43","3","/Users/maisiehood/Documents/Univeristy/Second Year/Cognition and Language/subject-5203793.csv","legacy","Lentiform Loewenfeld","3.3.7","yes","yes","600bd7cfb6416f0113b04181","602110864497cf011d9c0822","0","j","NA","j","j","j","NA","j","607","NA","2679","10458","5516","NA","607","2","legacy","1024","2","48000","-16","task","5203793","odd","NA","28678","33364","30684","111110","5382","21372","15852","111613","NA","111107","111614","111045","33364","112222","26868","110545","5349","44007","Lexical Decision Task","47","34134","48","yes","1024"
"3.120025233","0","2","nyst","non-word","97.95918367346938","97.95918367346938","723.1428571428571","723.1428571428571","black","no","legacy","legacy","legacy","0","uniform","1","undefined","undefined","undefined","1","f","0","0","0","0","48","0","0","0","48","NA","44","48","44","0","44","3","48","0","48","Thu Feb 25 12:58:20 2021","The main experiment item","yes","Lexical_Decision_Task.osexp","/Users/maisiehood/Documents/Univeristy/Second Year/Cognition and Language","no","Andale Mono","no","18","no","white","no","yes","576","legacy","44","44","3","/Users/maisiehood/Documents/Univeristy/Second Year/Cognition and Language/subject-5203793.csv","legacy","Lentiform Loewenfeld","3.3.7","yes","yes","600bd7cfb6416f0113b04181","602110864497cf011d9c0822","0","f","NA","j","j","j","NA","f","1300","NA","2679","10458","5516","NA","1300","2","legacy","1024","2","48000","-16","task","5203793","odd","NA","28678","33364","30684","112793","5382","21372","15852","113296","NA","112790","113297","112726","33364","114598","26868","112226","5349","44007","Lexical Decision Task","48","35434","49","yes","1024"
"2.799799878","0","4","ciff","non-word","98","98","727.72","727.72","black","no","legacy","legacy","legacy","0","uniform","1","undefined","undefined","undefined","1","f","0","0","0","0","49","0","0","0","49","NA","45","49","45","0","45","3","49","0","49","Thu Feb 25 12:58:20 2021","The main experiment item","yes","Lexical_Decision_Task.osexp","/Users/maisiehood/Documents/Univeristy/Second Year/Cognition and Language","no","Andale Mono","no","18","no","white","no","yes","576","legacy","45","45","3","/Users/maisiehood/Documents/Univeristy/Second Year/Cognition and Language/subject-5203793.csv","legacy","Lentiform Loewenfeld","3.3.7","yes","yes","600bd7cfb6416f0113b04181","602110864497cf011d9c0822","0","f","NA","j","j","j","NA","f","952","NA","2679","10458","5516","NA","952","2","legacy","1024","2","48000","-16","task","5203793","odd","NA","28678","33364","30684","115168","5382","21372","15852","115671","NA","115166","115672","115101","33364","116625","26868","114601","5349","44007","Lexical Decision Task","49","36386","50","yes","1024"
"2.875447132","0","9","jelt","non-word","98.03921568627452","98.03921568627452","729.3137254901961","729.3137254901961","black","no","legacy","legacy","legacy","0","uniform","1","undefined","undefined","undefined","1","f","0","0","0","0","50","0","0","0","50","NA","46","50","46","0","46","3","50","0","50","Thu Feb 25 12:58:20 2021","The main experiment item","yes","Lexical_Decision_Task.osexp","/Users/maisiehood/Documents/Univeristy/Second Year/Cognition and Language","no","Andale Mono","no","18","no","white","no","yes","576","legacy","46","46","3","/Users/maisiehood/Documents/Univeristy/Second Year/Cognition and Language/subject-5203793.csv","legacy","Lentiform Loewenfeld","3.3.7","yes","yes","600bd7cfb6416f0113b04181","602110864497cf011d9c0822","0","f","NA","j","j","j","NA","f","809","NA","2679","10458","5516","NA","809","2","legacy","1024","2","48000","-16","task","5203793","odd","NA","28678","33364","30684","117196","5382","21372","15852","117699","NA","117193","117700","117129","33364","118510","26868","116628","5349","44007","Lexical Decision Task","50","37195","51","yes","1024"
"2.873320602","0","4","lurg","non-word","98.07692307692308","98.07692307692308","727","727","black","no","legacy","legacy","legacy","0","uniform","1","undefined","undefined","undefined","1","f","0","0","0","0","51","0","0","0","51","NA","47","51","47","0","47","3","51","0","51","Thu Feb 25 12:58:20 2021","The main experiment item","yes","Lexical_Decision_Task.osexp","/Users/maisiehood/Documents/Univeristy/Second Year/Cognition and Language","no","Andale Mono","no","18","no","white","no","yes","576","legacy","47","47","3","/Users/maisiehood/Documents/Univeristy/Second Year/Cognition and Language/subject-5203793.csv","legacy","Lentiform Loewenfeld","3.3.7","yes","yes","600bd7cfb6416f0113b04181","602110864497cf011d9c0822","0","f","NA","j","j","j","NA","f","609","NA","2679","10458","5516","NA","609","2","legacy","1024","2","48000","-16","task","5203793","odd","NA","28678","33364","30684","119080","5382","21372","15852","119583","NA","119077","119584","119013","33364","120193","26868","118513","5349","44007","Lexical Decision Task","51","37804","52","yes","1024"
"2.980306438","0","7","slun","non-word","98.11320754716981","98.11320754716981","723.6037735849056","723.6037735849056","black","no","legacy","legacy","legacy","0","uniform","1","undefined","undefined","undefined","1","f","0","0","0","0","52","0","0","0","52","NA","48","52","48","0","48","3","52","0","52","Thu Feb 25 12:58:20 2021","The main experiment item","yes","Lexical_Decision_Task.osexp","/Users/maisiehood/Documents/Univeristy/Second Year/Cognition and Language","no","Andale Mono","no","18","no","white","no","yes","576","legacy","48","48","3","/Users/maisiehood/Documents/Univeristy/Second Year/Cognition and Language/subject-5203793.csv","legacy","Lentiform Loewenfeld","3.3.7","yes","yes","600bd7cfb6416f0113b04181","602110864497cf011d9c0822","0","f","NA","j","j","j","NA","f","547","NA","2679","10458","5516","NA","547","2","legacy","1024","2","48000","-16","task","5203793","odd","NA","28678","33364","30684","120764","5382","21372","15852","121269","NA","120762","121269","120697","33364","121817","26868","120197","5349","44007","Lexical Decision Task","52","38351","53","yes","1024"
"2.893578687","8.69","3","surf","word","98.14814814814815","98.14814814814815","722.925925925926","722.925925925926","black","no","legacy","legacy","legacy","0","uniform","1","undefined","undefined","undefined","1","j","0","0","0","0","53","0","0","0","53","NA","49","53","49","0","49","3","53","0","53","Thu Feb 25 12:58:20 2021","The main experiment item","yes","Lexical_Decision_Task.osexp","/Users/maisiehood/Documents/Univeristy/Second Year/Cognition and Language","no","Andale Mono","no","18","no","white","no","yes","576","legacy","49","49","3","/Users/maisiehood/Documents/Univeristy/Second Year/Cognition and Language/subject-5203793.csv","legacy","Lentiform Loewenfeld","3.3.7","yes","yes","600bd7cfb6416f0113b04181","602110864497cf011d9c0822","0","j","NA","j","j","j","NA","j","687","NA","2679","10458","5516","NA","687","2","legacy","1024","2","48000","-16","task","5203793","odd","NA","28678","33364","30684","122386","5382","21372","15852","122889","NA","122383","122889","122320","33364","123577","26868","121820","5349","44007","Lexical Decision Task","53","39038","54","yes","1024"
"2.68604012","0","3","mulb","non-word","98.18181818181819","98.18181818181819","722.2545454545455","722.2545454545455","black","no","legacy","legacy","legacy","0","uniform","1","undefined","undefined","undefined","1","f","0","0","0","0","54","0","0","0","54","0","50","54","50","0","50","3","54","0","54","Thu Feb 25 12:58:20 2021","The main experiment item","yes","Lexical_Decision_Task.osexp","/Users/maisiehood/Documents/Univeristy/Second Year/Cognition and Language","no","Andale Mono","no","18","no","white","no","yes","576","legacy","50","50","3","/Users/maisiehood/Documents/Univeristy/Second Year/Cognition and Language/subject-5203793.csv","legacy","Lentiform Loewenfeld","3.3.7","yes","yes","600bd7cfb6416f0113b04181","602110864497cf011d9c0822","0","f","NA","j","j","j","j","f","686","NA","2679","10458","5516","3395","686","2","legacy","1024","2","48000","-16","task","5203793","odd","NA","28678","33364","30684","127554","5382","21372","15852","128058","124116","127552","128058","124080","33364","128745","26868","123580","5349","44007","Lexical Decision Task","54","39724","55","yes","1024"
"3.384413096","10.15","3","glad","word","98.21428571428571","98.21428571428571","721.6964285714286","721.6964285714286","black","no","legacy","legacy","legacy","0","uniform","1","undefined","undefined","undefined","1","j","0","0","0","0","55","0","0","0","55","0","51","55","51","0","51","3","55","0","55","Thu Feb 25 12:58:20 2021","The main experiment item","yes","Lexical_Decision_Task.osexp","/Users/maisiehood/Documents/Univeristy/Second Year/Cognition and Language","no","Andale Mono","no","18","no","white","no","yes","576","legacy","51","51","3","/Users/maisiehood/Documents/Univeristy/Second Year/Cognition and Language/subject-5203793.csv","legacy","Lentiform Loewenfeld","3.3.7","yes","yes","600bd7cfb6416f0113b04181","602110864497cf011d9c0822","0","j","NA","j","j","j","j","j","691","NA","2679","10458","5516","3395","691","2","legacy","1024","2","48000","-16","task","5203793","odd","NA","28678","33364","30684","129313","5382","21372","15852","129817","124116","129311","129817","129248","33364","130509","26868","128748","5349","44007","Lexical Decision Task","55","40415","56","yes","1024"
"2.594027722","9.08","8","skip","word","98.24561403508773","98.24561403508773","717.2982456140351","717.2982456140351","black","no","legacy","legacy","legacy","0","uniform","1","undefined","undefined","undefined","1","j","0","0","0","0","56","0","0","0","56","0","52","56","52","0","52","3","56","0","56","Thu Feb 25 12:58:20 2021","The main experiment item","yes","Lexical_Decision_Task.osexp","/Users/maisiehood/Documents/Univeristy/Second Year/Cognition and Language","no","Andale Mono","no","18","no","white","no","yes","576","legacy","52","52","3","/Users/maisiehood/Documents/Univeristy/Second Year/Cognition and Language/subject-5203793.csv","legacy","Lentiform Loewenfeld","3.3.7","yes","yes","600bd7cfb6416f0113b04181","602110864497cf011d9c0822","0","j","NA","j","j","j","j","j","471","NA","2679","10458","5516","3395","471","2","legacy","1024","2","48000","-16","task","5203793","odd","NA","28678","33364","30684","131079","5382","21372","15852","131582","124116","131075","131583","131013","33364","132055","26868","130513","5349","44007","Lexical Decision Task","56","40886","57","yes","1024"
"3.066077331","0","7","vorn","non-word","98.27586206896552","98.27586206896552","715.6724137931035","715.6724137931035","black","no","legacy","legacy","legacy","0","uniform","1","undefined","undefined","undefined","1","f","0","0","0","0","57","0","0","0","57","0","53","57","53","0","53","3","57","0","57","Thu Feb 25 12:58:20 2021","The main experiment item","yes","Lexical_Decision_Task.osexp","/Users/maisiehood/Documents/Univeristy/Second Year/Cognition and Language","no","Andale Mono","no","18","no","white","no","yes","576","legacy","53","53","3","/Users/maisiehood/Documents/Univeristy/Second Year/Cognition and Language/subject-5203793.csv","legacy","Lentiform Loewenfeld","3.3.7","yes","yes","600bd7cfb6416f0113b04181","602110864497cf011d9c0822","0","f","NA","j","j","j","j","f","623","NA","2679","10458","5516","3395","623","2","legacy","1024","2","48000","-16","task","5203793","odd","NA","28678","33364","30684","132624","5382","21372","15852","133127","124116","132621","133128","132558","33364","133752","26868","132058","5349","44007","Lexical Decision Task","57","41509","58","yes","1024"
"3.316948329","0","1","besc","non-word","98.30508474576271","98.30508474576271","713.3559322033898","713.3559322033898","black","no","legacy","legacy","legacy","0","uniform","1","undefined","undefined","undefined","1","f","0","0","0","0","58","0","0","0","58","0","54","58","54","0","54","3","58","0","58","Thu Feb 25 12:58:20 2021","The main experiment item","yes","Lexical_Decision_Task.osexp","/Users/maisiehood/Documents/Univeristy/Second Year/Cognition and Language","no","Andale Mono","no","18","no","white","no","yes","576","legacy","54","54","3","/Users/maisiehood/Documents/Univeristy/Second Year/Cognition and Language/subject-5203793.csv","legacy","Lentiform Loewenfeld","3.3.7","yes","yes","600bd7cfb6416f0113b04181","602110864497cf011d9c0822","0","f","NA","j","j","j","j","f","579","NA","2679","10458","5516","3395","579","2","legacy","1024","2","48000","-16","task","5203793","odd","NA","28678","33364","30684","134321","5382","21372","15852","134824","124116","134318","134825","134255","33364","135405","26868","133755","5349","44007","Lexical Decision Task","58","42088","59","yes","1024"
"2.706148589","0","4","hube","non-word","98.33333333333333","98.33333333333333","710.8333333333334","710.8333333333334","black","no","legacy","legacy","legacy","0","uniform","1","undefined","undefined","undefined","1","f","0","0","0","0","59","0","0","0","59","0","55","59","55","0","55","3","59","0","59","Thu Feb 25 12:58:20 2021","The main experiment item","yes","Lexical_Decision_Task.osexp","/Users/maisiehood/Documents/Univeristy/Second Year/Cognition and Language","no","Andale Mono","no","18","no","white","no","yes","576","legacy","55","55","3","/Users/maisiehood/Documents/Univeristy/Second Year/Cognition and Language/subject-5203793.csv","legacy","Lentiform Loewenfeld","3.3.7","yes","yes","600bd7cfb6416f0113b04181","602110864497cf011d9c0822","0","f","NA","j","j","j","j","f","562","NA","2679","10458","5516","3395","562","2","legacy","1024","2","48000","-16","task","5203793","odd","NA","28678","33364","30684","135974","5382","21372","15852","136477","124116","135971","136478","135908","33364","137041","26868","135408","5349","44007","Lexical Decision Task","59","42650","60","yes","1024"
"2.755364069","7.72","2","hoax","word","98.36065573770492","98.36065573770492","710.1967213114754","710.1967213114754","black","no","legacy","legacy","legacy","0","uniform","1","undefined","undefined","undefined","1","j","0","0","0","0","60","0","0","0","60","0","56","60","56","0","56","3","60","0","60","Thu Feb 25 12:58:20 2021","The main experiment item","yes","Lexical_Decision_Task.osexp","/Users/maisiehood/Documents/Univeristy/Second Year/Cognition and Language","no","Andale Mono","no","18","no","white","no","yes","576","legacy","56","56","3","/Users/maisiehood/Documents/Univeristy/Second Year/Cognition and Language/subject-5203793.csv","legacy","Lentiform Loewenfeld","3.3.7","yes","yes","600bd7cfb6416f0113b04181","602110864497cf011d9c0822","0","j","NA","j","j","j","j","j","672","NA","2679","10458","5516","3395","672","2","legacy","1024","2","48000","-16","task","5203793","odd","NA","28678","33364","30684","137610","5382","21372","15852","138113","124116","137607","138114","137544","33364","138787","26868","137044","5349","44007","Lexical Decision Task","60","43322","61","yes","1024"
"3.149629599","0","2","cleb","non-word","98.38709677419355","98.38709677419355","707.983870967742","707.983870967742","black","no","legacy","legacy","legacy","0","uniform","1","undefined","undefined","undefined","1","f","0","0","0","0","61","0","0","0","61","0","57","61","57","0","57","3","61","0","61","Thu Feb 25 12:58:20 2021","The main experiment item","yes","Lexical_Decision_Task.osexp","/Users/maisiehood/Documents/Univeristy/Second Year/Cognition and Language","no","Andale Mono","no","18","no","white","no","yes","576","legacy","57","57","3","/Users/maisiehood/Documents/Univeristy/Second Year/Cognition and Language/subject-5203793.csv","legacy","Lentiform Loewenfeld","3.3.7","yes","yes","600bd7cfb6416f0113b04181","602110864497cf011d9c0822","0","f","NA","j","j","j","j","f","573","NA","2679","10458","5516","3395","573","2","legacy","1024","2","48000","-16","task","5203793","odd","NA","28678","33364","30684","139356","5382","21372","15852","139859","124116","139353","139860","139290","33364","140434","26868","138790","5349","44007","Lexical Decision Task","61","43895","62","yes","1024"
"2.714888338","0","3","brug","non-word","98.41269841269842","98.41269841269842","706.8412698412699","706.8412698412699","black","no","legacy","legacy","legacy","0","uniform","1","undefined","undefined","undefined","1","f","0","0","0","0","62","0","0","0","62","0","58","62","58","0","58","3","62","0","62","Thu Feb 25 12:58:20 2021","The main experiment item","yes","Lexical_Decision_Task.osexp","/Users/maisiehood/Documents/Univeristy/Second Year/Cognition and Language","no","Andale Mono","no","18","no","white","no","yes","576","legacy","58","58","3","/Users/maisiehood/Documents/Univeristy/Second Year/Cognition and Language/subject-5203793.csv","legacy","Lentiform Loewenfeld","3.3.7","yes","yes","600bd7cfb6416f0113b04181","602110864497cf011d9c0822","0","f","NA","j","j","j","j","f","636","NA","2679","10458","5516","3395","636","2","legacy","1024","2","48000","-16","task","5203793","odd","NA","28678","33364","30684","141003","5382","21372","15852","141506","124116","141000","141507","140937","33364","142144","26868","140437","5349","44007","Lexical Decision Task","62","44531","63","yes","1024"
"2.838639236","0","4","furg","non-word","98.4375","98.4375","704.953125","704.953125","black","no","legacy","legacy","legacy","0","uniform","1","undefined","undefined","undefined","1","f","0","0","0","0","63","0","0","0","63","0","59","63","59","0","59","3","63","0","63","Thu Feb 25 12:58:20 2021","The main experiment item","yes","Lexical_Decision_Task.osexp","/Users/maisiehood/Documents/Univeristy/Second Year/Cognition and Language","no","Andale Mono","no","18","no","white","no","yes","576","legacy","59","59","3","/Users/maisiehood/Documents/Univeristy/Second Year/Cognition and Language/subject-5203793.csv","legacy","Lentiform Loewenfeld","3.3.7","yes","yes","600bd7cfb6416f0113b04181","602110864497cf011d9c0822","0","f","NA","j","j","j","j","f","586","NA","2679","10458","5516","3395","586","2","legacy","1024","2","48000","-16","task","5203793","odd","NA","28678","33364","30684","142713","5382","21372","15852","143216","124116","142710","143217","142647","33364","143803","26868","142147","5349","44007","Lexical Decision Task","63","45117","64","yes","1024"
"3.259832699","0","9","flar","non-word","98.46153846153847","98.46153846153847","703.123076923077","703.123076923077","black","no","legacy","legacy","legacy","0","uniform","1","undefined","undefined","undefined","1","f","0","0","0","0","64","0","0","0","64","0","60","64","60","0","60","3","64","0","64","Thu Feb 25 12:58:20 2021","The main experiment item","yes","Lexical_Decision_Task.osexp","/Users/maisiehood/Documents/Univeristy/Second Year/Cognition and Language","no","Andale Mono","no","18","no","white","no","yes","576","legacy","60","60","3","/Users/maisiehood/Documents/Univeristy/Second Year/Cognition and Language/subject-5203793.csv","legacy","Lentiform Loewenfeld","3.3.7","yes","yes","600bd7cfb6416f0113b04181","602110864497cf011d9c0822","0","f","NA","j","j","j","j","f","586","NA","2679","10458","5516","3395","586","2","legacy","1024","2","48000","-16","task","5203793","odd","NA","28678","33364","30684","144372","5382","21372","15852","144875","124116","144369","144876","144307","33364","145463","26868","143806","5349","44007","Lexical Decision Task","64","45703","65","yes","1024"
"3.366547468","0","6","plat","non-word","98.48484848484848","98.48484848484848","703.1212121212121","703.1212121212121","black","no","legacy","legacy","legacy","0","uniform","1","undefined","undefined","undefined","1","f","0","0","0","0","65","0","0","0","65","0","61","65","61","0","61","3","65","0","65","Thu Feb 25 12:58:20 2021","The main experiment item","yes","Lexical_Decision_Task.osexp","/Users/maisiehood/Documents/Univeristy/Second Year/Cognition and Language","no","Andale Mono","no","18","no","white","no","yes","576","legacy","61","61","3","/Users/maisiehood/Documents/Univeristy/Second Year/Cognition and Language/subject-5203793.csv","legacy","Lentiform Loewenfeld","3.3.7","yes","yes","600bd7cfb6416f0113b04181","602110864497cf011d9c0822","0","f","NA","j","j","j","j","f","703","NA","2679","10458","5516","3395","703","2","legacy","1024","2","48000","-16","task","5203793","odd","NA","28678","33364","30684","146031","5382","21372","15852","146534","124116","146028","146535","145966","33364","147238","26868","145466","5349","44007","Lexical Decision Task","65","46406","66","yes","1024"
"2.696356389","0","1","pizz","non-word","98.50746268656717","98.50746268656717","702.0149253731344","702.0149253731344","black","no","legacy","legacy","legacy","0","uniform","1","undefined","undefined","undefined","1","f","0","0","0","0","66","0","0","0","66","0","62","66","62","0","62","3","66","0","66","Thu Feb 25 12:58:20 2021","The main experiment item","yes","Lexical_Decision_Task.osexp","/Users/maisiehood/Documents/Univeristy/Second Year/Cognition and Language","no","Andale Mono","no","18","no","white","no","yes","576","legacy","62","62","3","/Users/maisiehood/Documents/Univeristy/Second Year/Cognition and Language/subject-5203793.csv","legacy","Lentiform Loewenfeld","3.3.7","yes","yes","600bd7cfb6416f0113b04181","602110864497cf011d9c0822","0","f","NA","j","j","j","j","f","629","NA","2679","10458","5516","3395","629","2","legacy","1024","2","48000","-16","task","5203793","odd","NA","28678","33364","30684","147807","5382","21372","15852","148310","124116","147804","148311","147742","33364","148940","26868","147242","5349","44007","Lexical Decision Task","66","47035","67","yes","1024"
"2.668385917","5.48","4","twig","word","98.52941176470588","98.52941176470588","700.9264705882352","700.9264705882352","black","no","legacy","legacy","legacy","0","uniform","1","undefined","undefined","undefined","1","j","0","0","0","0","67","0","0","0","67","0","63","67","63","0","63","3","67","0","67","Thu Feb 25 12:58:20 2021","The main experiment item","yes","Lexical_Decision_Task.osexp","/Users/maisiehood/Documents/Univeristy/Second Year/Cognition and Language","no","Andale Mono","no","18","no","white","no","yes","576","legacy","63","63","3","/Users/maisiehood/Documents/Univeristy/Second Year/Cognition and Language/subject-5203793.csv","legacy","Lentiform Loewenfeld","3.3.7","yes","yes","600bd7cfb6416f0113b04181","602110864497cf011d9c0822","0","j","NA","j","j","j","j","j","628","NA","2679","10458","5516","3395","628","2","legacy","1024","2","48000","-16","task","5203793","odd","NA","28678","33364","30684","149509","5382","21372","15852","150013","124116","149507","150014","149444","33364","150643","26868","148943","5349","44007","Lexical Decision Task","67","47663","68","yes","1024"
"3.208978517","10.33","4","fish","word","98.55072463768116","98.55072463768116","697.9420289855072","697.9420289855072","black","no","legacy","legacy","legacy","0","uniform","1","undefined","undefined","undefined","1","j","0","0","0","0","68","0","0","0","68","0","64","68","64","0","64","3","68","0","68","Thu Feb 25 12:58:20 2021","The main experiment item","yes","Lexical_Decision_Task.osexp","/Users/maisiehood/Documents/Univeristy/Second Year/Cognition and Language","no","Andale Mono","no","18","no","white","no","yes","576","legacy","64","64","3","/Users/maisiehood/Documents/Univeristy/Second Year/Cognition and Language/subject-5203793.csv","legacy","Lentiform Loewenfeld","3.3.7","yes","yes","600bd7cfb6416f0113b04181","602110864497cf011d9c0822","0","j","NA","j","j","j","j","j","495","NA","2679","10458","5516","3395","495","2","legacy","1024","2","48000","-16","task","5203793","odd","NA","28678","33364","30684","151204","5382","21372","15852","151707","124116","151202","151708","151147","33364","152204","26868","150647","5349","44007","Lexical Decision Task","68","48158","69","yes","1024"
"2.892836167","10.01","5","soft","word","98.57142857142857","98.57142857142857","695.6142857142858","695.6142857142858","black","no","legacy","legacy","legacy","0","uniform","1","undefined","undefined","undefined","1","j","0","0","0","0","69","0","0","0","69","0","65","69","65","0","65","3","69","0","69","Thu Feb 25 12:58:20 2021","The main experiment item","yes","Lexical_Decision_Task.osexp","/Users/maisiehood/Documents/Univeristy/Second Year/Cognition and Language","no","Andale Mono","no","18","no","white","no","yes","576","legacy","65","65","3","/Users/maisiehood/Documents/Univeristy/Second Year/Cognition and Language/subject-5203793.csv","legacy","Lentiform Loewenfeld","3.3.7","yes","yes","600bd7cfb6416f0113b04181","602110864497cf011d9c0822","0","j","NA","j","j","j","j","j","535","NA","2679","10458","5516","3395","535","2","legacy","1024","2","48000","-16","task","5203793","odd","NA","28678","33364","30684","152772","5382","21372","15852","153275","124116","152769","153276","152707","33364","153811","26868","152207","5349","44007","Lexical Decision Task","69","48693","70","yes","1024"
"3.168890155","0","6","thet","non-word","98.59154929577464","98.59154929577464","694.4507042253521","694.4507042253521","black","no","legacy","legacy","legacy","0","uniform","1","undefined","undefined","undefined","1","f","0","0","0","0","70","0","0","0","70","0","66","70","66","0","66","3","70","0","70","Thu Feb 25 12:58:20 2021","The main experiment item","yes","Lexical_Decision_Task.osexp","/Users/maisiehood/Documents/Univeristy/Second Year/Cognition and Language","no","Andale Mono","no","18","no","white","no","yes","576","legacy","66","66","3","/Users/maisiehood/Documents/Univeristy/Second Year/Cognition and Language/subject-5203793.csv","legacy","Lentiform Loewenfeld","3.3.7","yes","yes","600bd7cfb6416f0113b04181","602110864497cf011d9c0822","0","f","NA","j","j","j","j","f","613","NA","2679","10458","5516","3395","613","2","legacy","1024","2","48000","-16","task","5203793","odd","NA","28678","33364","30684","154382","5382","21372","15852","154885","124116","154378","154886","154315","33364","155500","26868","153815","5349","44007","Lexical Decision Task","70","49306","71","yes","1024"
"2.880623071","0","9","curp","non-word","98.61111111111111","98.61111111111111","692.6944444444445","692.6944444444445","black","no","legacy","legacy","legacy","0","uniform","1","undefined","undefined","undefined","1","f","0","0","0","0","71","0","0","0","71","0","67","71","67","0","67","3","71","0","71","Thu Feb 25 12:58:20 2021","The main experiment item","yes","Lexical_Decision_Task.osexp","/Users/maisiehood/Documents/Univeristy/Second Year/Cognition and Language","no","Andale Mono","no","18","no","white","no","yes","576","legacy","67","67","3","/Users/maisiehood/Documents/Univeristy/Second Year/Cognition and Language/subject-5203793.csv","legacy","Lentiform Loewenfeld","3.3.7","yes","yes","600bd7cfb6416f0113b04181","602110864497cf011d9c0822","0","f","NA","j","j","j","j","f","568","NA","2679","10458","5516","3395","568","2","legacy","1024","2","48000","-16","task","5203793","odd","NA","28678","33364","30684","156070","5382","21372","15852","156573","124116","156067","156574","156003","33364","157143","26868","155503","5349","44007","Lexical Decision Task","71","49874","72","yes","1024"
"3.145920145","8.51","8","flew","word","97.26027397260275","97.26027397260275","690.8630136986301","690.8630136986301","black","no","legacy","legacy","legacy","0","uniform","0","undefined","undefined","undefined","0","j","0","0","0","0","72","0","0","0","72","0","68","72","68","0","68","3","72","0","72","Thu Feb 25 12:58:20 2021","The main experiment item","yes","Lexical_Decision_Task.osexp","/Users/maisiehood/Documents/Univeristy/Second Year/Cognition and Language","no","Andale Mono","no","18","no","white","no","yes","576","legacy","68","68","3","/Users/maisiehood/Documents/Univeristy/Second Year/Cognition and Language/subject-5203793.csv","legacy","Lentiform Loewenfeld","3.3.7","yes","yes","600bd7cfb6416f0113b04181","602110864497cf011d9c0822","0","f","NA","j","j","j","j","f","559","NA","2679","10458","5516","3395","559","2","legacy","1024","2","48000","-16","task","5203793","odd","NA","28678","33364","30684","157712","5382","21372","15852","158215","124116","157709","158216","157646","33364","158776","26868","157146","5349","44007","Lexical Decision Task","71","50433","73","yes","1024"
"3.29439347","8.6","9","wand","word","97.29729729729729","97.29729729729729","690.5540540540541","690.5540540540541","black","no","legacy","legacy","legacy","0","uniform","1","undefined","undefined","undefined","1","j","0","0","0","0","73","0","0","0","73","0","69","73","69","0","69","3","73","0","73","Thu Feb 25 12:58:20 2021","The main experiment item","yes","Lexical_Decision_Task.osexp","/Users/maisiehood/Documents/Univeristy/Second Year/Cognition and Language","no","Andale Mono","no","18","no","white","no","yes","576","legacy","69","69","3","/Users/maisiehood/Documents/Univeristy/Second Year/Cognition and Language/subject-5203793.csv","legacy","Lentiform Loewenfeld","3.3.7","yes","yes","600bd7cfb6416f0113b04181","602110864497cf011d9c0822","0","j","NA","j","j","j","j","j","668","NA","2679","10458","5516","3395","668","2","legacy","1024","2","48000","-16","task","5203793","odd","NA","28678","33364","30684","160348","5382","21372","15852","160852","124116","160345","160853","160280","33364","161522","26868","157146","5349","158780","Lexical Decision Task","72","51101","74","yes","1024"
"3.347850856","10.51","2","rich","word","97.33333333333333","97.33333333333333","687.88","687.88","black","no","legacy","legacy","legacy","0","uniform","1","undefined","undefined","undefined","1","j","0","0","0","0","74","0","0","0","74","0","70","74","70","0","70","3","74","0","74","Thu Feb 25 12:58:20 2021","The main experiment item","yes","Lexical_Decision_Task.osexp","/Users/maisiehood/Documents/Univeristy/Second Year/Cognition and Language","no","Andale Mono","no","18","no","white","no","yes","576","legacy","70","70","3","/Users/maisiehood/Documents/Univeristy/Second Year/Cognition and Language/subject-5203793.csv","legacy","Lentiform Loewenfeld","3.3.7","yes","yes","600bd7cfb6416f0113b04181","602110864497cf011d9c0822","0","j","NA","j","j","j","j","j","490","NA","2679","10458","5516","3395","490","2","legacy","1024","2","48000","-16","task","5203793","odd","NA","28678","33364","30684","162091","5382","21372","15852","162594","124116","162088","162595","162025","33364","163086","26868","161525","5349","158780","Lexical Decision Task","73","51591","75","yes","1024"
"3.105055783","0","2","norp","non-word","97.36842105263158","97.36842105263158","686.5657894736842","686.5657894736842","black","no","legacy","legacy","legacy","0","uniform","1","undefined","undefined","undefined","1","f","0","0","0","0","75","0","0","0","75","0","71","75","71","0","71","3","75","0","75","Thu Feb 25 12:58:20 2021","The main experiment item","yes","Lexical_Decision_Task.osexp","/Users/maisiehood/Documents/Univeristy/Second Year/Cognition and Language","no","Andale Mono","no","18","no","white","no","yes","576","legacy","71","71","3","/Users/maisiehood/Documents/Univeristy/Second Year/Cognition and Language/subject-5203793.csv","legacy","Lentiform Loewenfeld","3.3.7","yes","yes","600bd7cfb6416f0113b04181","602110864497cf011d9c0822","0","f","NA","j","j","j","j","f","588","NA","2679","10458","5516","3395","588","2","legacy","1024","2","48000","-16","task","5203793","odd","NA","28678","33364","30684","163654","5382","21372","15852","164157","124116","163651","164158","163589","33364","164747","26868","163089","5349","158780","Lexical Decision Task","74","52179","76","yes","1024"
"2.86332286","6.71","2","feud","word","97.40259740259741","97.40259740259741","687.4805194805194","687.4805194805194","black","no","legacy","legacy","legacy","0","uniform","1","undefined","undefined","undefined","1","j","0","0","0","0","76","0","0","0","76","0","72","76","72","0","72","3","76","0","76","Thu Feb 25 12:58:20 2021","The main experiment item","yes","Lexical_Decision_Task.osexp","/Users/maisiehood/Documents/Univeristy/Second Year/Cognition and Language","no","Andale Mono","no","18","no","white","no","yes","576","legacy","72","72","3","/Users/maisiehood/Documents/Univeristy/Second Year/Cognition and Language/subject-5203793.csv","legacy","Lentiform Loewenfeld","3.3.7","yes","yes","600bd7cfb6416f0113b04181","602110864497cf011d9c0822","0","j","NA","j","j","j","j","j","757","NA","2679","10458","5516","3395","757","2","legacy","1024","2","48000","-16","task","5203793","odd","NA","28678","33364","30684","165316","5382","21372","15852","165819","124116","165313","165820","165250","33364","166578","26868","164750","5349","158780","Lexical Decision Task","75","52936","77","yes","1024"
"3.225825991","0","7","talm","non-word","97.43589743589743","97.43589743589743","687.2948717948718","687.2948717948718","black","no","legacy","legacy","legacy","0","uniform","1","undefined","undefined","undefined","1","f","0","0","0","0","77","0","0","0","77","0","73","77","73","0","73","3","77","0","77","Thu Feb 25 12:58:20 2021","The main experiment item","yes","Lexical_Decision_Task.osexp","/Users/maisiehood/Documents/Univeristy/Second Year/Cognition and Language","no","Andale Mono","no","18","no","white","no","yes","576","legacy","73","73","3","/Users/maisiehood/Documents/Univeristy/Second Year/Cognition and Language/subject-5203793.csv","legacy","Lentiform Loewenfeld","3.3.7","yes","yes","600bd7cfb6416f0113b04181","602110864497cf011d9c0822","0","f","NA","j","j","j","j","f","673","NA","2679","10458","5516","3395","673","2","legacy","1024","2","48000","-16","task","5203793","odd","NA","28678","33364","30684","167147","5382","21372","15852","167650","124116","167144","167651","167081","33364","168325","26868","166581","5349","158780","Lexical Decision Task","76","53609","78","yes","1024"
"2.778633532","0","3","jurp","non-word","97.46835443037975","97.46835443037975","686.3037974683544","686.3037974683544","black","no","legacy","legacy","legacy","0","uniform","1","undefined","undefined","undefined","1","f","0","0","0","0","78","0","0","0","78","0","74","78","74","0","74","3","78","0","78","Thu Feb 25 12:58:20 2021","The main experiment item","yes","Lexical_Decision_Task.osexp","/Users/maisiehood/Documents/Univeristy/Second Year/Cognition and Language","no","Andale Mono","no","18","no","white","no","yes","576","legacy","74","74","3","/Users/maisiehood/Documents/Univeristy/Second Year/Cognition and Language/subject-5203793.csv","legacy","Lentiform Loewenfeld","3.3.7","yes","yes","600bd7cfb6416f0113b04181","602110864497cf011d9c0822","0","f","NA","j","j","j","j","f","609","NA","2679","10458","5516","3395","609","2","legacy","1024","2","48000","-16","task","5203793","odd","NA","28678","33364","30684","168894","5382","21372","15852","169397","124116","168891","169398","168828","33364","170008","26868","168328","5349","158780","Lexical Decision Task","77","54218","79","yes","1024"
"2.698387659","6.66","7","skid","word","97.5","97.5","685.8125","685.8125","black","no","legacy","legacy","legacy","0","uniform","1","undefined","undefined","undefined","1","j","0","0","0","0","79","0","0","0","79","0","75","79","75","0","75","3","79","0","79","Thu Feb 25 12:58:20 2021","The main experiment item","yes","Lexical_Decision_Task.osexp","/Users/maisiehood/Documents/Univeristy/Second Year/Cognition and Language","no","Andale Mono","no","18","no","white","no","yes","576","legacy","75","75","3","/Users/maisiehood/Documents/Univeristy/Second Year/Cognition and Language/subject-5203793.csv","legacy","Lentiform Loewenfeld","3.3.7","yes","yes","600bd7cfb6416f0113b04181","602110864497cf011d9c0822","0","j","NA","j","j","j","j","j","647","NA","2679","10458","5516","3395","647","2","legacy","1024","2","48000","-16","task","5203793","odd","NA","28678","33364","30684","170577","5382","21372","15852","171081","124116","170574","171081","170511","33364","171729","26868","170011","5349","158780","Lexical Decision Task","78","54865","80","yes","1024"
"3.209246849","0","7","slem","non-word","97.53086419753086","97.53086419753086","685.4938271604939","685.4938271604939","black","no","legacy","legacy","legacy","0","uniform","1","undefined","undefined","undefined","1","f","0","0","0","0","80","0","0","0","80","0","76","80","76","0","76","3","80","0","80","Thu Feb 25 12:58:20 2021","The main experiment item","yes","Lexical_Decision_Task.osexp","/Users/maisiehood/Documents/Univeristy/Second Year/Cognition and Language","no","Andale Mono","no","18","no","white","no","yes","576","legacy","76","76","3","/Users/maisiehood/Documents/Univeristy/Second Year/Cognition and Language/subject-5203793.csv","legacy","Lentiform Loewenfeld","3.3.7","yes","yes","600bd7cfb6416f0113b04181","602110864497cf011d9c0822","0","f","NA","j","j","j","j","f","660","NA","2679","10458","5516","3395","660","2","legacy","1024","2","48000","-16","task","5203793","odd","NA","28678","33364","30684","172297","5382","21372","15852","172801","124116","172295","172802","172232","33364","173463","26868","171732","5349","158780","Lexical Decision Task","79","55525","81","yes","1024"
"3.261341392","5.08","8","reek","word","97.5609756097561","97.5609756097561","689.719512195122","689.719512195122","black","no","legacy","legacy","legacy","0","uniform","1","undefined","undefined","undefined","1","j","0","0","0","0","81","0","0","0","81","0","77","81","77","0","77","3","81","0","81","Thu Feb 25 12:58:20 2021","The main experiment item","yes","Lexical_Decision_Task.osexp","/Users/maisiehood/Documents/Univeristy/Second Year/Cognition and Language","no","Andale Mono","no","18","no","white","no","yes","576","legacy","77","77","3","/Users/maisiehood/Documents/Univeristy/Second Year/Cognition and Language/subject-5203793.csv","legacy","Lentiform Loewenfeld","3.3.7","yes","yes","600bd7cfb6416f0113b04181","602110864497cf011d9c0822","0","j","NA","j","j","j","j","j","1032","NA","2679","10458","5516","3395","1032","2","legacy","1024","2","48000","-16","task","5203793","odd","NA","28678","33364","30684","174032","5382","21372","15852","174536","124116","174029","174537","173966","33364","175570","26868","173466","5349","158780","Lexical Decision Task","80","56557","82","yes","1024"
"3.374198258","0","8","vist","non-word","96.3855421686747","96.3855421686747","689.0240963855422","689.0240963855422","black","no","legacy","legacy","legacy","0","uniform","0","undefined","undefined","undefined","0","f","0","0","0","0","82","0","0","0","82","0","78","82","78","0","78","3","82","0","82","Thu Feb 25 12:58:20 2021","The main experiment item","yes","Lexical_Decision_Task.osexp","/Users/maisiehood/Documents/Univeristy/Second Year/Cognition and Language","no","Andale Mono","no","18","no","white","no","yes","576","legacy","78","78","3","/Users/maisiehood/Documents/Univeristy/Second Year/Cognition and Language/subject-5203793.csv","legacy","Lentiform Loewenfeld","3.3.7","yes","yes","600bd7cfb6416f0113b04181","602110864497cf011d9c0822","0","j","NA","j","j","j","j","j","632","NA","2679","10458","5516","3395","632","2","legacy","1024","2","48000","-16","task","5203793","odd","NA","28678","33364","30684","176138","5382","21372","15852","176641","124116","176135","176642","176073","33364","177275","26868","175573","5349","158780","Lexical Decision Task","80","57189","83","yes","1024"
"3.440331212","7.35","6","stew","word","96.42857142857143","96.42857142857143","689.3214285714286","689.3214285714286","black","no","legacy","legacy","legacy","0","uniform","1","undefined","undefined","undefined","1","j","0","0","0","0","83","0","0","0","83","0","79","83","79","0","79","3","83","0","83","Thu Feb 25 12:58:20 2021","The main experiment item","yes","Lexical_Decision_Task.osexp","/Users/maisiehood/Documents/Univeristy/Second Year/Cognition and Language","no","Andale Mono","no","18","no","white","no","yes","576","legacy","79","79","3","/Users/maisiehood/Documents/Univeristy/Second Year/Cognition and Language/subject-5203793.csv","legacy","Lentiform Loewenfeld","3.3.7","yes","yes","600bd7cfb6416f0113b04181","602110864497cf011d9c0822","0","j","NA","j","j","j","j","j","714","NA","2679","10458","5516","3395","714","2","legacy","1024","2","48000","-16","task","5203793","odd","NA","28678","33364","30684","178847","5382","21372","15852","179350","124116","178844","179351","178778","33364","180066","26868","175573","5349","177278","Lexical Decision Task","81","57903","84","yes","1024"
"3.090140555","5.81","8","pout","word","95.29411764705883","95.29411764705883","691.0823529411765","691.0823529411765","black","no","legacy","legacy","legacy","0","uniform","0","undefined","undefined","undefined","0","j","0","0","0","0","84","0","0","0","84","0","80","84","80","0","80","3","84","0","84","Thu Feb 25 12:58:20 2021","The main experiment item","yes","Lexical_Decision_Task.osexp","/Users/maisiehood/Documents/Univeristy/Second Year/Cognition and Language","no","Andale Mono","no","18","no","white","no","yes","576","legacy","80","80","3","/Users/maisiehood/Documents/Univeristy/Second Year/Cognition and Language/subject-5203793.csv","legacy","Lentiform Loewenfeld","3.3.7","yes","yes","600bd7cfb6416f0113b04181","602110864497cf011d9c0822","0","f","NA","j","j","j","j","f","839","NA","2679","10458","5516","3395","839","2","legacy","1024","2","48000","-16","task","5203793","odd","NA","28678","33364","30684","180635","5382","21372","15852","181138","124116","180632","181138","180570","33364","181978","26868","180069","5349","177278","Lexical Decision Task","81","58742","85","yes","1024"
"2.937852093","0","7","bamp","non-word","95.34883720930233","95.34883720930233","690.7790697674419","690.7790697674419","black","no","legacy","legacy","legacy","0","uniform","1","undefined","undefined","undefined","1","f","0","0","0","0","85","0","0","0","85","0","81","85","81","0","81","3","85","0","85","Thu Feb 25 12:58:20 2021","The main experiment item","yes","Lexical_Decision_Task.osexp","/Users/maisiehood/Documents/Univeristy/Second Year/Cognition and Language","no","Andale Mono","no","18","no","white","no","yes","576","legacy","81","81","3","/Users/maisiehood/Documents/Univeristy/Second Year/Cognition and Language/subject-5203793.csv","legacy","Lentiform Loewenfeld","3.3.7","yes","yes","600bd7cfb6416f0113b04181","602110864497cf011d9c0822","0","f","NA","j","j","j","j","f","665","NA","2679","10458","5516","3395","665","2","legacy","1024","2","48000","-16","task","5203793","odd","NA","28678","33364","30684","183552","5382","21372","15852","184055","124116","183547","184056","183481","33364","184722","26868","180069","5349","181981","Lexical Decision Task","82","59407","86","yes","1024"
"2.983324025","9.56","2","debt","word","95.40229885057471","95.40229885057471","690.1264367816092","690.1264367816092","black","no","legacy","legacy","legacy","0","uniform","1","undefined","undefined","undefined","1","j","0","0","0","0","86","0","0","0","86","0","82","86","82","0","82","3","86","0","86","Thu Feb 25 12:58:20 2021","The main experiment item","yes","Lexical_Decision_Task.osexp","/Users/maisiehood/Documents/Univeristy/Second Year/Cognition and Language","no","Andale Mono","no","18","no","white","no","yes","576","legacy","82","82","3","/Users/maisiehood/Documents/Univeristy/Second Year/Cognition and Language/subject-5203793.csv","legacy","Lentiform Loewenfeld","3.3.7","yes","yes","600bd7cfb6416f0113b04181","602110864497cf011d9c0822","0","j","NA","j","j","j","j","j","634","NA","2679","10458","5516","3395","634","2","legacy","1024","2","48000","-16","task","5203793","odd","NA","28678","33364","30684","185292","5382","21372","15852","185795","124116","185289","185796","185226","33364","186431","26868","184725","5349","181981","Lexical Decision Task","83","60041","87","yes","1024"
"2.9737419","7.69","7","claw","word","95.45454545454545","95.45454545454545","689.25","689.25","black","no","legacy","legacy","legacy","0","uniform","1","undefined","undefined","undefined","1","j","0","0","0","0","87","0","0","0","87","0","83","87","83","0","83","3","87","0","87","Thu Feb 25 12:58:20 2021","The main experiment item","yes","Lexical_Decision_Task.osexp","/Users/maisiehood/Documents/Univeristy/Second Year/Cognition and Language","no","Andale Mono","no","18","no","white","no","yes","576","legacy","83","83","3","/Users/maisiehood/Documents/Univeristy/Second Year/Cognition and Language/subject-5203793.csv","legacy","Lentiform Loewenfeld","3.3.7","yes","yes","600bd7cfb6416f0113b04181","602110864497cf011d9c0822","0","j","NA","j","j","j","j","j","613","NA","2679","10458","5516","3395","613","2","legacy","1024","2","48000","-16","task","5203793","odd","NA","28678","33364","30684","186999","5382","21372","15852","187503","124116","186997","187504","186934","33364","188118","26868","186434","5349","181981","Lexical Decision Task","84","60654","88","yes","1024"
"3.443783828","7.65","3","verb","word","95.50561797752809","95.50561797752809","687.4719101123595","687.4719101123595","black","no","legacy","legacy","legacy","0","uniform","1","undefined","undefined","undefined","1","j","0","0","0","0","88","0","0","0","88","0","84","88","84","0","84","3","88","0","88","Thu Feb 25 12:58:20 2021","The main experiment item","yes","Lexical_Decision_Task.osexp","/Users/maisiehood/Documents/Univeristy/Second Year/Cognition and Language","no","Andale Mono","no","18","no","white","no","yes","576","legacy","84","84","3","/Users/maisiehood/Documents/Univeristy/Second Year/Cognition and Language/subject-5203793.csv","legacy","Lentiform Loewenfeld","3.3.7","yes","yes","600bd7cfb6416f0113b04181","602110864497cf011d9c0822","0","j","NA","j","j","j","j","j","531","NA","2679","10458","5516","3395","531","2","legacy","1024","2","48000","-16","task","5203793","odd","NA","28678","33364","30684","188687","5382","21372","15852","189190","124116","188684","189191","188621","33364","189723","26868","188121","5349","181981","Lexical Decision Task","85","61185","89","yes","1024"
"3.076883066","0","8","mout","non-word","95.55555555555556","95.55555555555556","687.1111111111111","687.1111111111111","black","no","legacy","legacy","legacy","0","uniform","1","undefined","undefined","undefined","1","f","0","0","0","0","89","0","0","0","89","0","85","89","85","0","85","3","89","0","89","Thu Feb 25 12:58:20 2021","The main experiment item","yes","Lexical_Decision_Task.osexp","/Users/maisiehood/Documents/Univeristy/Second Year/Cognition and Language","no","Andale Mono","no","18","no","white","no","yes","576","legacy","85","85","3","/Users/maisiehood/Documents/Univeristy/Second Year/Cognition and Language/subject-5203793.csv","legacy","Lentiform Loewenfeld","3.3.7","yes","yes","600bd7cfb6416f0113b04181","602110864497cf011d9c0822","0","f","NA","j","j","j","j","f","655","NA","2679","10458","5516","3395","655","2","legacy","1024","2","48000","-16","task","5203793","odd","NA","28678","33364","30684","190292","5382","21372","15852","190795","124116","190289","190796","190227","33364","191452","26868","189727","5349","181981","Lexical Decision Task","86","61840","90","yes","1024"
"3.218535505","7.85","7","goat","word","95.6043956043956","95.6043956043956","686.7912087912088","686.7912087912088","black","no","legacy","legacy","legacy","0","uniform","1","undefined","undefined","undefined","1","j","0","0","0","0","90","0","0","0","90","0","86","90","86","0","86","3","90","0","90","Thu Feb 25 12:58:20 2021","The main experiment item","yes","Lexical_Decision_Task.osexp","/Users/maisiehood/Documents/Univeristy/Second Year/Cognition and Language","no","Andale Mono","no","18","no","white","no","yes","576","legacy","86","86","3","/Users/maisiehood/Documents/Univeristy/Second Year/Cognition and Language/subject-5203793.csv","legacy","Lentiform Loewenfeld","3.3.7","yes","yes","600bd7cfb6416f0113b04181","602110864497cf011d9c0822","0","j","NA","j","j","j","j","j","658","NA","2679","10458","5516","3395","658","2","legacy","1024","2","48000","-16","task","5203793","odd","NA","28678","33364","30684","192021","5382","21372","15852","192524","124116","192018","192525","191955","33364","193184","26868","191455","5349","181981","Lexical Decision Task","87","62498","91","yes","1024"
"3.031408464","0","7","drow","non-word","95.65217391304348","95.65217391304348","687.25","687.25","black","no","legacy","legacy","legacy","0","uniform","1","undefined","undefined","undefined","1","f","0","0","0","0","91","0","0","0","91","0","87","91","87","0","87","3","91","0","91","Thu Feb 25 12:58:20 2021","The main experiment item","yes","Lexical_Decision_Task.osexp","/Users/maisiehood/Documents/Univeristy/Second Year/Cognition and Language","no","Andale Mono","no","18","no","white","no","yes","576","legacy","87","87","3","/Users/maisiehood/Documents/Univeristy/Second Year/Cognition and Language/subject-5203793.csv","legacy","Lentiform Loewenfeld","3.3.7","yes","yes","600bd7cfb6416f0113b04181","602110864497cf011d9c0822","0","f","NA","j","j","j","j","f","729","NA","2679","10458","5516","3395","729","2","legacy","1024","2","48000","-16","task","5203793","odd","NA","28678","33364","30684","193755","5382","21372","15852","194258","124116","193752","194259","193688","33364","194989","26868","193188","5349","181981","Lexical Decision Task","88","63227","92","yes","1024"
"2.920123326","7.43","4","duel","word","95.6989247311828","95.6989247311828","687.9139784946236","687.9139784946236","black","no","legacy","legacy","legacy","0","uniform","1","undefined","undefined","undefined","1","j","0","0","0","0","92","0","0","0","92","0","88","92","88","0","88","3","92","0","92","Thu Feb 25 12:58:20 2021","The main experiment item","yes","Lexical_Decision_Task.osexp","/Users/maisiehood/Documents/Univeristy/Second Year/Cognition and Language","no","Andale Mono","no","18","no","white","no","yes","576","legacy","88","88","3","/Users/maisiehood/Documents/Univeristy/Second Year/Cognition and Language/subject-5203793.csv","legacy","Lentiform Loewenfeld","3.3.7","yes","yes","600bd7cfb6416f0113b04181","602110864497cf011d9c0822","0","j","NA","j","j","j","j","j","749","NA","2679","10458","5516","3395","749","2","legacy","1024","2","48000","-16","task","5203793","odd","NA","28678","33364","30684","195559","5382","21372","15852","196063","124116","195556","196063","195493","33364","196813","26868","194992","5349","181981","Lexical Decision Task","89","63976","93","yes","1024"
