"Log_BG","Log_Freq_HAL","Ortho_N","Stimulus","Type","acc","accuracy","average_response_time","avg_rt","background","bidi","canvas_backend","clock_backend","color_backend","compensation","coordinates","correct","correct_Experimental_intro","correct_Introduction","correct_Practice_intro","correct_experimenter_kb","correct_response","count_End_Of_Experiment","count_End_Of_Practice","count_Experimental_Loop","count_Experimental_intro","count_Fixation","count_Introduction","count_Practice_Loop","count_Practice_intro","count_Stimulus","count_block_break_feedback","count_experimental_sequence","count_experimenter_kb","count_increment_trial_count","count_init_trial_count","count_logger","count_practice_sequence","count_right","count_task","count_wrong","datetime","description","disable_garbage_collection","experiment_file","experiment_path","font_bold","font_family","font_italic","font_size","font_underline","foreground","form_clicks","fullscreen","height","keyboard_backend","live_row","live_row_Experimental_Loop","live_row_Practice_Loop","logfile","mouse_backend","opensesame_codename","opensesame_version","osf_always_upload_data","osf_always_upload_experiment","osf_datanode_id","osf_id","repeat_cycle","response","response_End_Of_Experiment","response_Experimental_intro","response_Introduction","response_Practice_intro","response_block_break_feedback","response_experimenter_kb","response_time","response_time_End_Of_Experiment","response_time_Experimental_intro","response_time_Introduction","response_time_Practice_intro","response_time_block_break_feedback","response_time_experimenter_kb","round_decimals","sampler_backend","sound_buf_size","sound_channels","sound_freq","sound_sample_size","start","subject_nr","subject_parity","time_End_Of_Experiment","time_End_Of_Practice","time_Experimental_Loop","time_Experimental_intro","time_Fixation","time_Introduction","time_Practice_Loop","time_Practice_intro","time_Stimulus","time_block_break_feedback","time_experimental_sequence","time_experimenter_kb","time_increment_trial_count","time_init_trial_count","time_logger","time_practice_sequence","time_right","time_task","time_wrong","title","total_correct","total_response_time","total_responses","uniform_coordinates","width"
"3.209246849","0","7","slem","non-word","100","100","935.4","935.4","black","no","legacy","legacy","legacy","0","uniform","1","undefined","undefined","undefined","1","f","0","0","0","0","4","0","0","0","4","NA","0","4","0","0","0","3","4","0","4","Thu Feb 18 11:11:44 2021","The main experiment item","yes","Lexical_Decision_Task.osexp","C:/Users/Student","no","Andale Mono","no","18","no","white","no","yes","576","legacy","0","0","3","C:/Users/Student/subject-5211103.csv","legacy","Lentiform Loewenfeld","3.3.7","yes","yes","600bd7cfb6416f0113b04181","602110864497cf011d9c0822","0","F","NA","return","return","return","NA","F","849","NA","2381","25090","5125","NA","849","2","legacy","1024","2","48000","-16","task","5211103","odd","NA","41178","45561","43179","45597","2848","33065","27940","46098","NA","45596","46098","NA","45561","46947","39240","40658","2840","NA","Lexical Decision Task","5","4677","5","yes","1024"
"2.986323777","10.85","8","ship","word","100","100","909.1666666666666","909.1666666666666","black","no","legacy","legacy","legacy","0","uniform","1","undefined","undefined","undefined","1","j","0","0","0","0","5","0","0","0","5","NA","1","5","1","0","1","3","5","0","5","Thu Feb 18 11:11:44 2021","The main experiment item","yes","Lexical_Decision_Task.osexp","C:/Users/Student","no","Andale Mono","no","18","no","white","no","yes","576","legacy","1","1","3","C:/Users/Student/subject-5211103.csv","legacy","Lentiform Loewenfeld","3.3.7","yes","yes","600bd7cfb6416f0113b04181","602110864497cf011d9c0822","0","J","NA","return","return","return","NA","J","778","NA","2381","25090","5125","NA","778","2","legacy","1024","2","48000","-16","task","5211103","odd","NA","41178","45561","43179","47523","2848","33065","27940","48024","NA","47522","48024","47459","45561","48803","39240","46959","2840","NA","Lexical Decision Task","6","5455","6","yes","1024"
"2.576725172","0","8","gowl","non-word","100","100","935.7142857142857","935.7142857142857","black","no","legacy","legacy","legacy","0","uniform","1","undefined","undefined","undefined","1","f","0","0","0","0","6","0","0","0","6","NA","2","6","2","0","2","3","6","0","6","Thu Feb 18 11:11:44 2021","The main experiment item","yes","Lexical_Decision_Task.osexp","C:/Users/Student","no","Andale Mono","no","18","no","white","no","yes","576","legacy","2","2","3","C:/Users/Student/subject-5211103.csv","legacy","Lentiform Loewenfeld","3.3.7","yes","yes","600bd7cfb6416f0113b04181","602110864497cf011d9c0822","0","F","NA","return","return","return","NA","F","1095","NA","2381","25090","5125","NA","1095","2","legacy","1024","2","48000","-16","task","5211103","odd","NA","41178","45561","43179","49364","2848","33065","27940","49867","NA","49362","49867","49311","45561","50962","39240","48811","2840","NA","Lexical Decision Task","7","6550","7","yes","1024"
"3.368162872","0","4","ferk","non-word","100","100","908.75","908.75","black","no","legacy","legacy","legacy","0","uniform","1","undefined","undefined","undefined","1","f","0","0","0","0","7","0","0","0","7","NA","3","7","3","0","3","3","7","0","7","Thu Feb 18 11:11:44 2021","The main experiment item","yes","Lexical_Decision_Task.osexp","C:/Users/Student","no","Andale Mono","no","18","no","white","no","yes","576","legacy","3","3","3","C:/Users/Student/subject-5211103.csv","legacy","Lentiform Loewenfeld","3.3.7","yes","yes","600bd7cfb6416f0113b04181","602110864497cf011d9c0822","0","F","NA","return","return","return","NA","F","720","NA","2381","25090","5125","NA","720","2","legacy","1024","2","48000","-16","task","5211103","odd","NA","41178","45561","43179","51522","2848","33065","27940","52023","NA","51521","52023","51469","45561","52743","39240","50969","2840","NA","Lexical Decision Task","8","7270","8","yes","1024"
"2.664328519","0","4","plux","non-word","100","100","874.3333333333334","874.3333333333334","black","no","legacy","legacy","legacy","0","uniform","1","undefined","undefined","undefined","1","f","0","0","0","0","8","0","0","0","8","NA","4","8","4","0","4","3","8","0","8","Thu Feb 18 11:11:44 2021","The main experiment item","yes","Lexical_Decision_Task.osexp","C:/Users/Student","no","Andale Mono","no","18","no","white","no","yes","576","legacy","4","4","3","C:/Users/Student/subject-5211103.csv","legacy","Lentiform Loewenfeld","3.3.7","yes","yes","600bd7cfb6416f0113b04181","602110864497cf011d9c0822","0","F","NA","return","return","return","NA","F","599","NA","2381","25090","5125","NA","599","2","legacy","1024","2","48000","-16","task","5211103","odd","NA","41178","45561","43179","53303","2848","33065","27940","53806","NA","53302","53807","53252","45561","54406","39240","52752","2840","NA","Lexical Decision Task","9","7869","9","yes","1024"
"3.194328374","9.42","6","harm","word","100","100","836.8","836.8","black","no","legacy","legacy","legacy","0","uniform","1","undefined","undefined","undefined","1","j","0","0","0","0","9","0","0","0","9","NA","5","9","5","0","5","3","9","0","9","Thu Feb 18 11:11:44 2021","The main experiment item","yes","Lexical_Decision_Task.osexp","C:/Users/Student","no","Andale Mono","no","18","no","white","no","yes","576","legacy","5","5","3","C:/Users/Student/subject-5211103.csv","legacy","Lentiform Loewenfeld","3.3.7","yes","yes","600bd7cfb6416f0113b04181","602110864497cf011d9c0822","0","J","NA","return","return","return","NA","J","499","NA","2381","25090","5125","NA","499","2","legacy","1024","2","48000","-16","task","5211103","odd","NA","41178","45561","43179","54977","2848","33065","27940","55478","NA","54976","55478","54913","45561","55978","39240","54413","2840","NA","Lexical Decision Task","10","8368","10","yes","1024"
"2.858136002","0","4","phip","non-word","100","100","826.4545454545455","826.4545454545455","black","no","legacy","legacy","legacy","0","uniform","1","undefined","undefined","undefined","1","f","0","0","0","0","10","0","0","0","10","NA","6","10","6","0","6","3","10","0","10","Thu Feb 18 11:11:44 2021","The main experiment item","yes","Lexical_Decision_Task.osexp","C:/Users/Student","no","Andale Mono","no","18","no","white","no","yes","576","legacy","6","6","3","C:/Users/Student/subject-5211103.csv","legacy","Lentiform Loewenfeld","3.3.7","yes","yes","600bd7cfb6416f0113b04181","602110864497cf011d9c0822","0","F","NA","return","return","return","NA","F","723","NA","2381","25090","5125","NA","723","2","legacy","1024","2","48000","-16","task","5211103","odd","NA","41178","45561","43179","56537","2848","33065","27940","57038","NA","56535","57038","56485","45561","57761","39240","55985","2840","NA","Lexical Decision Task","11","9091","11","yes","1024"
"3.064581521","5.51","6","cask","word","91.66666666666667","91.66666666666667","854.0833333333334","854.0833333333334","black","no","legacy","legacy","legacy","0","uniform","0","undefined","undefined","undefined","0","j","0","0","0","0","11","0","0","0","11","NA","7","11","7","0","7","3","11","0","11","Thu Feb 18 11:11:44 2021","The main experiment item","yes","Lexical_Decision_Task.osexp","C:/Users/Student","no","Andale Mono","no","18","no","white","no","yes","576","legacy","7","7","3","C:/Users/Student/subject-5211103.csv","legacy","Lentiform Loewenfeld","3.3.7","yes","yes","600bd7cfb6416f0113b04181","602110864497cf011d9c0822","0","F","NA","return","return","return","NA","F","1158","NA","2381","25090","5125","NA","1158","2","legacy","1024","2","48000","-16","task","5211103","odd","NA","41178","45561","43179","58331","2848","33065","27940","58832","NA","58330","58832","58270","45561","59991","39240","57770","2840","NA","Lexical Decision Task","11","10249","12","yes","1024"
"3.366547468","0","6","plat","non-word","92.3076923076923","92.3076923076923","851","851","black","no","legacy","legacy","legacy","0","uniform","1","undefined","undefined","undefined","1","f","0","0","0","0","12","0","0","0","12","NA","8","12","8","0","8","3","12","0","12","Thu Feb 18 11:11:44 2021","The main experiment item","yes","Lexical_Decision_Task.osexp","C:/Users/Student","no","Andale Mono","no","18","no","white","no","yes","576","legacy","8","8","3","C:/Users/Student/subject-5211103.csv","legacy","Lentiform Loewenfeld","3.3.7","yes","yes","600bd7cfb6416f0113b04181","602110864497cf011d9c0822","0","F","NA","return","return","return","NA","F","814","NA","2381","25090","5125","NA","814","2","legacy","1024","2","48000","-16","task","5211103","odd","NA","41178","45561","43179","61558","2848","33065","27940","62059","NA","61556","62059","61502","45561","62873","39240","57770","2840","60002","Lexical Decision Task","12","11063","13","yes","1024"
"2.972819734","0","4","scew","non-word","92.85714285714286","92.85714285714286","897.5714285714286","897.5714285714286","black","no","legacy","legacy","legacy","0","uniform","1","undefined","undefined","undefined","1","f","0","0","0","0","13","0","0","0","13","NA","9","13","9","0","9","3","13","0","13","Thu Feb 18 11:11:44 2021","The main experiment item","yes","Lexical_Decision_Task.osexp","C:/Users/Student","no","Andale Mono","no","18","no","white","no","yes","576","legacy","9","9","3","C:/Users/Student/subject-5211103.csv","legacy","Lentiform Loewenfeld","3.3.7","yes","yes","600bd7cfb6416f0113b04181","602110864497cf011d9c0822","0","F","NA","return","return","return","NA","F","1503","NA","2381","25090","5125","NA","1503","2","legacy","1024","2","48000","-16","task","5211103","odd","NA","41178","45561","43179","63432","2848","33065","27940","63933","NA","63431","63933","63380","45561","65436","39240","62880","2840","60002","Lexical Decision Task","13","12566","14","yes","1024"
"2.86332286","6.71","2","feud","word","86.66666666666667","86.66666666666667","894.0666666666667","894.0666666666667","black","no","legacy","legacy","legacy","0","uniform","0","undefined","undefined","undefined","0","j","0","0","0","0","14","0","0","0","14","NA","10","14","10","0","10","3","14","0","14","Thu Feb 18 11:11:44 2021","The main experiment item","yes","Lexical_Decision_Task.osexp","C:/Users/Student","no","Andale Mono","no","18","no","white","no","yes","576","legacy","10","10","3","C:/Users/Student/subject-5211103.csv","legacy","Lentiform Loewenfeld","3.3.7","yes","yes","600bd7cfb6416f0113b04181","602110864497cf011d9c0822","0","F","NA","return","return","return","NA","F","845","NA","2381","25090","5125","NA","845","2","legacy","1024","2","48000","-16","task","5211103","odd","NA","41178","45561","43179","65995","2848","33065","27940","66496","NA","65994","66496","65943","45561","67341","39240","65443","2840","60002","Lexical Decision Task","13","13411","15","yes","1024"
"3.440331212","7.35","6","stew","word","87.5","87.5","890.1875","890.1875","black","no","legacy","legacy","legacy","0","uniform","1","undefined","undefined","undefined","1","j","0","0","0","0","15","0","0","0","15","NA","11","15","11","0","11","3","15","0","15","Thu Feb 18 11:11:44 2021","The main experiment item","yes","Lexical_Decision_Task.osexp","C:/Users/Student","no","Andale Mono","no","18","no","white","no","yes","576","legacy","11","11","3","C:/Users/Student/subject-5211103.csv","legacy","Lentiform Loewenfeld","3.3.7","yes","yes","600bd7cfb6416f0113b04181","602110864497cf011d9c0822","0","J","NA","return","return","return","NA","J","832","NA","2381","25090","5125","NA","832","2","legacy","1024","2","48000","-16","task","5211103","odd","NA","41178","45561","43179","68902","2848","33065","27940","69403","NA","68901","69403","68848","45561","70236","39240","65443","2840","67348","Lexical Decision Task","14","14243","16","yes","1024"
"2.771097306","0","9","jold","non-word","88.23529411764706","88.23529411764706","888.8235294117648","888.8235294117648","black","no","legacy","legacy","legacy","0","uniform","1","undefined","undefined","undefined","1","f","0","0","0","0","16","0","0","0","16","NA","12","16","12","0","12","3","16","0","16","Thu Feb 18 11:11:44 2021","The main experiment item","yes","Lexical_Decision_Task.osexp","C:/Users/Student","no","Andale Mono","no","18","no","white","no","yes","576","legacy","12","12","3","C:/Users/Student/subject-5211103.csv","legacy","Lentiform Loewenfeld","3.3.7","yes","yes","600bd7cfb6416f0113b04181","602110864497cf011d9c0822","0","F","NA","return","return","return","NA","F","867","NA","2381","25090","5125","NA","867","2","legacy","1024","2","48000","-16","task","5211103","odd","NA","41178","45561","43179","70794","2848","33065","27940","71295","NA","70792","71295","70742","45561","72163","39240","70242","2840","67348","Lexical Decision Task","15","15110","17","yes","1024"
"2.695481676","0","7","goke","non-word","88.88888888888889","88.88888888888889","886.6666666666666","886.6666666666666","black","no","legacy","legacy","legacy","0","uniform","1","undefined","undefined","undefined","1","f","0","0","0","0","17","0","0","0","17","NA","13","17","13","0","13","3","17","0","17","Thu Feb 18 11:11:44 2021","The main experiment item","yes","Lexical_Decision_Task.osexp","C:/Users/Student","no","Andale Mono","no","18","no","white","no","yes","576","legacy","13","13","3","C:/Users/Student/subject-5211103.csv","legacy","Lentiform Loewenfeld","3.3.7","yes","yes","600bd7cfb6416f0113b04181","602110864497cf011d9c0822","0","F","NA","return","return","return","NA","F","850","NA","2381","25090","5125","NA","850","2","legacy","1024","2","48000","-16","task","5211103","odd","NA","41178","45561","43179","72722","2848","33065","27940","73223","NA","72720","73223","72671","45561","74074","39240","72171","2840","67348","Lexical Decision Task","16","15960","18","yes","1024"
"3.091901331","0","9","nipe","non-word","89.47368421052632","89.47368421052632","876.4736842105264","876.4736842105264","black","no","legacy","legacy","legacy","0","uniform","1","undefined","undefined","undefined","1","f","0","0","0","0","18","0","0","0","18","NA","14","18","14","0","14","3","18","0","18","Thu Feb 18 11:11:44 2021","The main experiment item","yes","Lexical_Decision_Task.osexp","C:/Users/Student","no","Andale Mono","no","18","no","white","no","yes","576","legacy","14","14","3","C:/Users/Student/subject-5211103.csv","legacy","Lentiform Loewenfeld","3.3.7","yes","yes","600bd7cfb6416f0113b04181","602110864497cf011d9c0822","0","F","NA","return","return","return","NA","F","693","NA","2381","25090","5125","NA","693","2","legacy","1024","2","48000","-16","task","5211103","odd","NA","41178","45561","43179","74631","2848","33065","27940","75132","NA","74630","75132","74580","45561","75825","39240","74080","2840","67348","Lexical Decision Task","17","16653","19","yes","1024"
"2.713490543","0","3","feps","non-word","90","90","866.35","866.35","black","no","legacy","legacy","legacy","0","uniform","1","undefined","undefined","undefined","1","f","0","0","0","0","19","0","0","0","19","NA","15","19","15","0","15","3","19","0","19","Thu Feb 18 11:11:44 2021","The main experiment item","yes","Lexical_Decision_Task.osexp","C:/Users/Student","no","Andale Mono","no","18","no","white","no","yes","576","legacy","15","15","3","C:/Users/Student/subject-5211103.csv","legacy","Lentiform Loewenfeld","3.3.7","yes","yes","600bd7cfb6416f0113b04181","602110864497cf011d9c0822","0","F","NA","return","return","return","NA","F","674","NA","2381","25090","5125","NA","674","2","legacy","1024","2","48000","-16","task","5211103","odd","NA","41178","45561","43179","76384","2848","33065","27940","76888","NA","76383","76888","76334","45561","77562","39240","75834","2840","67348","Lexical Decision Task","18","17327","20","yes","1024"
"2.893578687","8.69","3","surf","word","90.47619047619048","90.47619047619048","854.3333333333334","854.3333333333334","black","no","legacy","legacy","legacy","0","uniform","1","undefined","undefined","undefined","1","j","0","0","0","0","20","0","0","0","20","NA","16","20","16","0","16","3","20","0","20","Thu Feb 18 11:11:44 2021","The main experiment item","yes","Lexical_Decision_Task.osexp","C:/Users/Student","no","Andale Mono","no","18","no","white","no","yes","576","legacy","16","16","3","C:/Users/Student/subject-5211103.csv","legacy","Lentiform Loewenfeld","3.3.7","yes","yes","600bd7cfb6416f0113b04181","602110864497cf011d9c0822","0","J","NA","return","return","return","NA","J","614","NA","2381","25090","5125","NA","614","2","legacy","1024","2","48000","-16","task","5211103","odd","NA","41178","45561","43179","78122","2848","33065","27940","78623","NA","78121","78623","78070","45561","79237","39240","77570","2840","67348","Lexical Decision Task","19","17941","21","yes","1024"
"3.316948329","0","1","besc","non-word","90.9090909090909","90.9090909090909","846.0454545454545","846.0454545454545","black","no","legacy","legacy","legacy","0","uniform","1","undefined","undefined","undefined","1","f","0","0","0","0","21","0","0","0","21","NA","17","21","17","0","17","3","21","0","21","Thu Feb 18 11:11:44 2021","The main experiment item","yes","Lexical_Decision_Task.osexp","C:/Users/Student","no","Andale Mono","no","18","no","white","no","yes","576","legacy","17","17","3","C:/Users/Student/subject-5211103.csv","legacy","Lentiform Loewenfeld","3.3.7","yes","yes","600bd7cfb6416f0113b04181","602110864497cf011d9c0822","0","F","NA","return","return","return","NA","F","672","NA","2381","25090","5125","NA","672","2","legacy","1024","2","48000","-16","task","5211103","odd","NA","41178","45561","43179","79797","2848","33065","27940","80298","NA","79796","80298","79746","45561","80970","39240","79246","2840","67348","Lexical Decision Task","20","18613","22","yes","1024"
"3.374137706","10.21","4","tree","word","91.30434782608695","91.30434782608695","844.3913043478261","844.3913043478261","black","no","legacy","legacy","legacy","0","uniform","1","undefined","undefined","undefined","1","j","0","0","0","0","22","0","0","0","22","NA","18","22","18","0","18","3","22","0","22","Thu Feb 18 11:11:44 2021","The main experiment item","yes","Lexical_Decision_Task.osexp","C:/Users/Student","no","Andale Mono","no","18","no","white","no","yes","576","legacy","18","18","3","C:/Users/Student/subject-5211103.csv","legacy","Lentiform Loewenfeld","3.3.7","yes","yes","600bd7cfb6416f0113b04181","602110864497cf011d9c0822","0","J","NA","return","return","return","NA","J","808","NA","2381","25090","5125","NA","808","2","legacy","1024","2","48000","-16","task","5211103","odd","NA","41178","45561","43179","81529","2848","33065","27940","82030","NA","81528","82030","81477","45561","82838","39240","80977","2840","67348","Lexical Decision Task","21","19421","23","yes","1024"
"3.149629599","0","2","cleb","non-word","91.66666666666667","91.66666666666667","837.8333333333334","837.8333333333334","black","no","legacy","legacy","legacy","0","uniform","1","undefined","undefined","undefined","1","f","0","0","0","0","23","0","0","0","23","NA","19","23","19","0","19","3","23","0","23","Thu Feb 18 11:11:44 2021","The main experiment item","yes","Lexical_Decision_Task.osexp","C:/Users/Student","no","Andale Mono","no","18","no","white","no","yes","576","legacy","19","19","3","C:/Users/Student/subject-5211103.csv","legacy","Lentiform Loewenfeld","3.3.7","yes","yes","600bd7cfb6416f0113b04181","602110864497cf011d9c0822","0","F","NA","return","return","return","NA","F","687","NA","2381","25090","5125","NA","687","2","legacy","1024","2","48000","-16","task","5211103","odd","NA","41178","45561","43179","83410","2848","33065","27940","83913","NA","83408","83913","83345","45561","84601","39240","82845","2840","67348","Lexical Decision Task","22","20108","24","yes","1024"
"3.028977705","0","7","frow","non-word","92","92","840.68","840.68","black","no","legacy","legacy","legacy","0","uniform","1","undefined","undefined","undefined","1","f","0","0","0","0","24","0","0","0","24","NA","20","24","20","0","20","3","24","0","24","Thu Feb 18 11:11:44 2021","The main experiment item","yes","Lexical_Decision_Task.osexp","C:/Users/Student","no","Andale Mono","no","18","no","white","no","yes","576","legacy","20","20","3","C:/Users/Student/subject-5211103.csv","legacy","Lentiform Loewenfeld","3.3.7","yes","yes","600bd7cfb6416f0113b04181","602110864497cf011d9c0822","0","F","NA","return","return","return","NA","F","909","NA","2381","25090","5125","NA","909","2","legacy","1024","2","48000","-16","task","5211103","odd","NA","41178","45561","43179","85162","2848","33065","27940","85663","NA","85160","85663","85110","45561","86573","39240","84610","2840","67348","Lexical Decision Task","23","21017","25","yes","1024"
"3.16326079","0","5","parg","non-word","92.3076923076923","92.3076923076923","839","839","black","no","legacy","legacy","legacy","0","uniform","1","undefined","undefined","undefined","1","f","0","0","0","0","25","0","0","0","25","NA","21","25","21","0","21","3","25","0","25","Thu Feb 18 11:11:44 2021","The main experiment item","yes","Lexical_Decision_Task.osexp","C:/Users/Student","no","Andale Mono","no","18","no","white","no","yes","576","legacy","21","21","3","C:/Users/Student/subject-5211103.csv","legacy","Lentiform Loewenfeld","3.3.7","yes","yes","600bd7cfb6416f0113b04181","602110864497cf011d9c0822","0","F","NA","return","return","return","NA","F","797","NA","2381","25090","5125","NA","797","2","legacy","1024","2","48000","-16","task","5211103","odd","NA","41178","45561","43179","87131","2848","33065","27940","87632","NA","87130","87632","87080","45561","88429","39240","86580","2840","67348","Lexical Decision Task","24","21814","26","yes","1024"
"3.165936429","0","7","leps","non-word","92.5925925925926","92.5925925925926","844.9629629629629","844.9629629629629","black","no","legacy","legacy","legacy","0","uniform","1","undefined","undefined","undefined","1","f","0","0","0","0","26","0","0","0","26","NA","22","26","22","0","22","3","26","0","26","Thu Feb 18 11:11:44 2021","The main experiment item","yes","Lexical_Decision_Task.osexp","C:/Users/Student","no","Andale Mono","no","18","no","white","no","yes","576","legacy","22","22","3","C:/Users/Student/subject-5211103.csv","legacy","Lentiform Loewenfeld","3.3.7","yes","yes","600bd7cfb6416f0113b04181","602110864497cf011d9c0822","0","F","NA","return","return","return","NA","F","1000","NA","2381","25090","5125","NA","1000","2","legacy","1024","2","48000","-16","task","5211103","odd","NA","41178","45561","43179","88985","2848","33065","27940","89486","NA","88984","89486","88933","45561","90486","39240","88432","2840","67348","Lexical Decision Task","25","22814","27","yes","1024"
"3.460446784","0","5","dess","non-word","92.85714285714286","92.85714285714286","839.7857142857143","839.7857142857143","black","no","legacy","legacy","legacy","0","uniform","1","undefined","undefined","undefined","1","f","0","0","0","0","27","0","0","0","27","NA","23","27","23","0","23","3","27","0","27","Thu Feb 18 11:11:44 2021","The main experiment item","yes","Lexical_Decision_Task.osexp","C:/Users/Student","no","Andale Mono","no","18","no","white","no","yes","576","legacy","23","23","3","C:/Users/Student/subject-5211103.csv","legacy","Lentiform Loewenfeld","3.3.7","yes","yes","600bd7cfb6416f0113b04181","602110864497cf011d9c0822","0","F","NA","return","return","return","NA","F","700","NA","2381","25090","5125","NA","700","2","legacy","1024","2","48000","-16","task","5211103","odd","NA","41178","45561","43179","91044","2848","33065","27940","91545","NA","91043","91545","90993","45561","92246","39240","90493","2840","67348","Lexical Decision Task","26","23514","28","yes","1024"
"3.120025233","0","2","nyst","non-word","93.10344827586206","93.10344827586206","832.3103448275862","832.3103448275862","black","no","legacy","legacy","legacy","0","uniform","1","undefined","undefined","undefined","1","f","0","0","0","0","28","0","0","0","28","NA","24","28","24","0","24","3","28","0","28","Thu Feb 18 11:11:44 2021","The main experiment item","yes","Lexical_Decision_Task.osexp","C:/Users/Student","no","Andale Mono","no","18","no","white","no","yes","576","legacy","24","24","3","C:/Users/Student/subject-5211103.csv","legacy","Lentiform Loewenfeld","3.3.7","yes","yes","600bd7cfb6416f0113b04181","602110864497cf011d9c0822","0","F","NA","return","return","return","NA","F","623","NA","2381","25090","5125","NA","623","2","legacy","1024","2","48000","-16","task","5211103","odd","NA","41178","45561","43179","92805","2848","33065","27940","93306","NA","92803","93306","92753","45561","93929","39240","92253","2840","67348","Lexical Decision Task","27","24137","29","yes","1024"
"2.82129731","6.72","5","plum","word","93.33333333333333","93.33333333333333","824.7666666666667","824.7666666666667","black","no","legacy","legacy","legacy","0","uniform","1","undefined","undefined","undefined","1","j","0","0","0","0","29","0","0","0","29","NA","25","29","25","0","25","3","29","0","29","Thu Feb 18 11:11:44 2021","The main experiment item","yes","Lexical_Decision_Task.osexp","C:/Users/Student","no","Andale Mono","no","18","no","white","no","yes","576","legacy","25","25","3","C:/Users/Student/subject-5211103.csv","legacy","Lentiform Loewenfeld","3.3.7","yes","yes","600bd7cfb6416f0113b04181","602110864497cf011d9c0822","0","J","NA","return","return","return","NA","J","606","NA","2381","25090","5125","NA","606","2","legacy","1024","2","48000","-16","task","5211103","odd","NA","41178","45561","43179","94491","2848","33065","27940","94992","NA","94489","94992","94438","45561","95599","39240","93938","2840","67348","Lexical Decision Task","28","24743","30","yes","1024"
"3.090140555","5.81","8","pout","word","93.54838709677419","93.54838709677419","820.2258064516129","820.2258064516129","black","no","legacy","legacy","legacy","0","uniform","1","undefined","undefined","undefined","1","j","0","0","0","0","30","0","0","0","30","NA","26","30","26","0","26","3","30","0","30","Thu Feb 18 11:11:44 2021","The main experiment item","yes","Lexical_Decision_Task.osexp","C:/Users/Student","no","Andale Mono","no","18","no","white","no","yes","576","legacy","26","26","3","C:/Users/Student/subject-5211103.csv","legacy","Lentiform Loewenfeld","3.3.7","yes","yes","600bd7cfb6416f0113b04181","602110864497cf011d9c0822","0","J","NA","return","return","return","NA","J","684","NA","2381","25090","5125","NA","684","2","legacy","1024","2","48000","-16","task","5211103","odd","NA","41178","45561","43179","96156","2848","33065","27940","96657","NA","96154","96657","96106","45561","97341","39240","95606","2840","67348","Lexical Decision Task","29","25427","31","yes","1024"
"3.010582609","0","2","drod","non-word","93.75","93.75","814.78125","814.78125","black","no","legacy","legacy","legacy","0","uniform","1","undefined","undefined","undefined","1","f","0","0","0","0","31","0","0","0","31","NA","27","31","27","0","27","3","31","0","31","Thu Feb 18 11:11:44 2021","The main experiment item","yes","Lexical_Decision_Task.osexp","C:/Users/Student","no","Andale Mono","no","18","no","white","no","yes","576","legacy","27","27","3","C:/Users/Student/subject-5211103.csv","legacy","Lentiform Loewenfeld","3.3.7","yes","yes","600bd7cfb6416f0113b04181","602110864497cf011d9c0822","0","F","NA","return","return","return","NA","F","646","NA","2381","25090","5125","NA","646","2","legacy","1024","2","48000","-16","task","5211103","odd","NA","41178","45561","43179","97898","2848","33065","27940","98399","NA","97896","98399","97848","45561","99045","39240","97348","2840","67348","Lexical Decision Task","30","26073","32","yes","1024"
"3.003891166","8.05","2","frog","word","93.93939393939394","93.93939393939394","810.3030303030303","810.3030303030303","black","no","legacy","legacy","legacy","0","uniform","1","undefined","undefined","undefined","1","j","0","0","0","0","32","0","0","0","32","NA","28","32","28","0","28","3","32","0","32","Thu Feb 18 11:11:44 2021","The main experiment item","yes","Lexical_Decision_Task.osexp","C:/Users/Student","no","Andale Mono","no","18","no","white","no","yes","576","legacy","28","28","3","C:/Users/Student/subject-5211103.csv","legacy","Lentiform Loewenfeld","3.3.7","yes","yes","600bd7cfb6416f0113b04181","602110864497cf011d9c0822","0","J","NA","return","return","return","NA","J","667","NA","2381","25090","5125","NA","667","2","legacy","1024","2","48000","-16","task","5211103","odd","NA","41178","45561","43179","99602","2848","33065","27940","100103","NA","99601","100103","99552","45561","100770","39240","99052","2840","67348","Lexical Decision Task","31","26740","33","yes","1024"
"3.252447662","9.67","9","boat","word","94.11764705882354","94.11764705882354","803.3235294117648","803.3235294117648","black","no","legacy","legacy","legacy","0","uniform","1","undefined","undefined","undefined","1","j","0","0","0","0","33","0","0","0","33","NA","29","33","29","0","29","3","33","0","33","Thu Feb 18 11:11:44 2021","The main experiment item","yes","Lexical_Decision_Task.osexp","C:/Users/Student","no","Andale Mono","no","18","no","white","no","yes","576","legacy","29","29","3","C:/Users/Student/subject-5211103.csv","legacy","Lentiform Loewenfeld","3.3.7","yes","yes","600bd7cfb6416f0113b04181","602110864497cf011d9c0822","0","J","NA","return","return","return","NA","J","573","NA","2381","25090","5125","NA","573","2","legacy","1024","2","48000","-16","task","5211103","odd","NA","41178","45561","43179","101331","2848","33065","27940","101832","NA","101330","101832","101279","45561","102405","39240","100779","2840","67348","Lexical Decision Task","32","27313","34","yes","1024"
"2.767650507","0","6","yolt","non-word","91.42857142857143","91.42857142857143","808.6285714285714","808.6285714285714","black","no","legacy","legacy","legacy","0","uniform","0","undefined","undefined","undefined","0","f","0","0","0","0","34","0","0","0","34","NA","30","34","30","0","30","3","34","0","34","Thu Feb 18 11:11:44 2021","The main experiment item","yes","Lexical_Decision_Task.osexp","C:/Users/Student","no","Andale Mono","no","18","no","white","no","yes","576","legacy","30","30","3","C:/Users/Student/subject-5211103.csv","legacy","Lentiform Loewenfeld","3.3.7","yes","yes","600bd7cfb6416f0113b04181","602110864497cf011d9c0822","0","J","NA","return","return","return","NA","J","989","NA","2381","25090","5125","NA","989","2","legacy","1024","2","48000","-16","task","5211103","odd","NA","41178","45561","43179","102962","2848","33065","27940","103463","NA","102961","103463","102912","45561","104452","39240","102412","2840","67348","Lexical Decision Task","32","28302","35","yes","1024"
"3.257359335","8","6","brew","word","91.66666666666667","91.66666666666667","805.0833333333334","805.0833333333334","black","no","legacy","legacy","legacy","0","uniform","1","undefined","undefined","undefined","1","j","0","0","0","0","35","0","0","0","35","NA","31","35","31","0","31","3","35","0","35","Thu Feb 18 11:11:44 2021","The main experiment item","yes","Lexical_Decision_Task.osexp","C:/Users/Student","no","Andale Mono","no","18","no","white","no","yes","576","legacy","31","31","3","C:/Users/Student/subject-5211103.csv","legacy","Lentiform Loewenfeld","3.3.7","yes","yes","600bd7cfb6416f0113b04181","602110864497cf011d9c0822","0","J","NA","return","return","return","NA","J","681","NA","2381","25090","5125","NA","681","2","legacy","1024","2","48000","-16","task","5211103","odd","NA","41178","45561","43179","106014","2848","33065","27940","106515","NA","106013","106515","105959","45561","107196","39240","102412","2840","104459","Lexical Decision Task","33","28983","36","yes","1024"
"2.8162413","0","5","nusk","non-word","91.89189189189189","91.89189189189189","835.5405405405405","835.5405405405405","black","no","legacy","legacy","legacy","0","uniform","1","undefined","undefined","undefined","1","f","0","0","0","0","36","0","0","0","36","NA","32","36","32","0","32","3","36","0","36","Thu Feb 18 11:11:44 2021","The main experiment item","yes","Lexical_Decision_Task.osexp","C:/Users/Student","no","Andale Mono","no","18","no","white","no","yes","576","legacy","32","32","3","C:/Users/Student/subject-5211103.csv","legacy","Lentiform Loewenfeld","3.3.7","yes","yes","600bd7cfb6416f0113b04181","602110864497cf011d9c0822","0","F","NA","return","return","return","NA","F","1932","NA","2381","25090","5125","NA","1932","2","legacy","1024","2","48000","-16","task","5211103","odd","NA","41178","45561","43179","107756","2848","33065","27940","108257","NA","107754","108257","107704","45561","110190","39240","107204","2840","104459","Lexical Decision Task","34","30915","37","yes","1024"
"3.145920145","8.51","8","flew","word","92.10526315789474","92.10526315789474","830.1578947368421","830.1578947368421","black","no","legacy","legacy","legacy","0","uniform","1","undefined","undefined","undefined","1","j","0","0","0","0","37","0","0","0","37","NA","33","37","33","0","33","3","37","0","37","Thu Feb 18 11:11:44 2021","The main experiment item","yes","Lexical_Decision_Task.osexp","C:/Users/Student","no","Andale Mono","no","18","no","white","no","yes","576","legacy","33","33","3","C:/Users/Student/subject-5211103.csv","legacy","Lentiform Loewenfeld","3.3.7","yes","yes","600bd7cfb6416f0113b04181","602110864497cf011d9c0822","0","J","NA","return","return","return","NA","J","631","NA","2381","25090","5125","NA","631","2","legacy","1024","2","48000","-16","task","5211103","odd","NA","41178","45561","43179","110751","2848","33065","27940","111252","NA","110750","111252","110699","45561","111883","39240","110199","2840","104459","Lexical Decision Task","35","31546","38","yes","1024"
"2.675164031","8.57","6","glue","word","92.3076923076923","92.3076923076923","822.5897435897435","822.5897435897435","black","no","legacy","legacy","legacy","0","uniform","1","undefined","undefined","undefined","1","j","0","0","0","0","38","0","0","0","38","NA","34","38","34","0","34","3","38","0","38","Thu Feb 18 11:11:44 2021","The main experiment item","yes","Lexical_Decision_Task.osexp","C:/Users/Student","no","Andale Mono","no","18","no","white","no","yes","576","legacy","34","34","3","C:/Users/Student/subject-5211103.csv","legacy","Lentiform Loewenfeld","3.3.7","yes","yes","600bd7cfb6416f0113b04181","602110864497cf011d9c0822","0","J","NA","return","return","return","NA","J","535","NA","2381","25090","5125","NA","535","2","legacy","1024","2","48000","-16","task","5211103","odd","NA","41178","45561","43179","112443","2848","33065","27940","112944","NA","112441","112944","112390","45561","113480","39240","111890","2840","104459","Lexical Decision Task","36","32081","39","yes","1024"
"2.75025376","10.2","6","jump","word","92.5","92.5","815.175","815.175","black","no","legacy","legacy","legacy","0","uniform","1","undefined","undefined","undefined","1","j","0","0","0","0","39","0","0","0","39","NA","35","39","35","0","35","3","39","0","39","Thu Feb 18 11:11:44 2021","The main experiment item","yes","Lexical_Decision_Task.osexp","C:/Users/Student","no","Andale Mono","no","18","no","white","no","yes","576","legacy","35","35","3","C:/Users/Student/subject-5211103.csv","legacy","Lentiform Loewenfeld","3.3.7","yes","yes","600bd7cfb6416f0113b04181","602110864497cf011d9c0822","0","J","NA","return","return","return","NA","J","526","NA","2381","25090","5125","NA","526","2","legacy","1024","2","48000","-16","task","5211103","odd","NA","41178","45561","43179","114039","2848","33065","27940","114540","NA","114038","114540","113989","45561","115066","39240","113489","2840","104459","Lexical Decision Task","37","32607","40","yes","1024"
"2.698100546","0","9","mulk","non-word","90.2439024390244","90.2439024390244","814.0731707317074","814.0731707317074","black","no","legacy","legacy","legacy","0","uniform","0","undefined","undefined","undefined","0","f","0","0","0","0","40","0","0","0","40","NA","36","40","36","0","36","3","40","0","40","Thu Feb 18 11:11:44 2021","The main experiment item","yes","Lexical_Decision_Task.osexp","C:/Users/Student","no","Andale Mono","no","18","no","white","no","yes","576","legacy","36","36","3","C:/Users/Student/subject-5211103.csv","legacy","Lentiform Loewenfeld","3.3.7","yes","yes","600bd7cfb6416f0113b04181","602110864497cf011d9c0822","0","J","NA","return","return","return","NA","J","770","NA","2381","25090","5125","NA","770","2","legacy","1024","2","48000","-16","task","5211103","odd","NA","41178","45561","43179","115626","2848","33065","27940","116128","NA","115624","116128","115573","45561","116899","39240","115073","2840","104459","Lexical Decision Task","37","33377","41","yes","1024"
"2.937852093","0","7","bamp","non-word","90.47619047619048","90.47619047619048","823.2857142857143","823.2857142857143","black","no","legacy","legacy","legacy","0","uniform","1","undefined","undefined","undefined","1","f","0","0","0","0","41","0","0","0","41","NA","37","41","37","0","37","3","41","0","41","Thu Feb 18 11:11:44 2021","The main experiment item","yes","Lexical_Decision_Task.osexp","C:/Users/Student","no","Andale Mono","no","18","no","white","no","yes","576","legacy","37","37","3","C:/Users/Student/subject-5211103.csv","legacy","Lentiform Loewenfeld","3.3.7","yes","yes","600bd7cfb6416f0113b04181","602110864497cf011d9c0822","0","F","NA","return","return","return","NA","F","1201","NA","2381","25090","5125","NA","1201","2","legacy","1024","2","48000","-16","task","5211103","odd","NA","41178","45561","43179","118463","2848","33065","27940","118964","NA","118462","118964","118407","45561","120166","39240","115073","2840","116907","Lexical Decision Task","38","34578","42","yes","1024"
"3.218535505","7.85","7","goat","word","90.69767441860465","90.69767441860465","818.6976744186046","818.6976744186046","black","no","legacy","legacy","legacy","0","uniform","1","undefined","undefined","undefined","1","j","0","0","0","0","42","0","0","0","42","NA","38","42","38","0","38","3","42","0","42","Thu Feb 18 11:11:44 2021","The main experiment item","yes","Lexical_Decision_Task.osexp","C:/Users/Student","no","Andale Mono","no","18","no","white","no","yes","576","legacy","38","38","3","C:/Users/Student/subject-5211103.csv","legacy","Lentiform Loewenfeld","3.3.7","yes","yes","600bd7cfb6416f0113b04181","602110864497cf011d9c0822","0","J","NA","return","return","return","NA","J","626","NA","2381","25090","5125","NA","626","2","legacy","1024","2","48000","-16","task","5211103","odd","NA","41178","45561","43179","120725","2848","33065","27940","121226","NA","120723","121226","120674","45561","121853","39240","120174","2840","116907","Lexical Decision Task","39","35204","43","yes","1024"
"3.22685757","9.99","7","roll","word","90.9090909090909","90.9090909090909","813.4772727272727","813.4772727272727","black","no","legacy","legacy","legacy","0","uniform","1","undefined","undefined","undefined","1","j","0","0","0","0","43","0","0","0","43","NA","39","43","39","0","39","3","43","0","43","Thu Feb 18 11:11:44 2021","The main experiment item","yes","Lexical_Decision_Task.osexp","C:/Users/Student","no","Andale Mono","no","18","no","white","no","yes","576","legacy","39","39","3","C:/Users/Student/subject-5211103.csv","legacy","Lentiform Loewenfeld","3.3.7","yes","yes","600bd7cfb6416f0113b04181","602110864497cf011d9c0822","0","J","NA","return","return","return","NA","J","589","NA","2381","25090","5125","NA","589","2","legacy","1024","2","48000","-16","task","5211103","odd","NA","41178","45561","43179","122410","2848","33065","27940","122911","NA","122409","122911","122360","45561","123500","39240","121860","2840","116907","Lexical Decision Task","40","35793","44","yes","1024"
"2.7084209","0","8","vump","non-word","91.11111111111111","91.11111111111111","812.5777777777778","812.5777777777778","black","no","legacy","legacy","legacy","0","uniform","1","undefined","undefined","undefined","1","f","0","0","0","0","44","0","0","0","44","NA","40","44","40","0","40","3","44","0","44","Thu Feb 18 11:11:44 2021","The main experiment item","yes","Lexical_Decision_Task.osexp","C:/Users/Student","no","Andale Mono","no","18","no","white","no","yes","576","legacy","40","40","3","C:/Users/Student/subject-5211103.csv","legacy","Lentiform Loewenfeld","3.3.7","yes","yes","600bd7cfb6416f0113b04181","602110864497cf011d9c0822","0","F","NA","return","return","return","NA","F","773","NA","2381","25090","5125","NA","773","2","legacy","1024","2","48000","-16","task","5211103","odd","NA","41178","45561","43179","124058","2848","33065","27940","124559","NA","124057","124559","124007","45561","125332","39240","123507","2840","116907","Lexical Decision Task","41","36566","45","yes","1024"
"2.981215883","10.66","5","hair","word","91.30434782608695","91.30434782608695","806.5869565217391","806.5869565217391","black","no","legacy","legacy","legacy","0","uniform","1","undefined","undefined","undefined","1","j","0","0","0","0","45","0","0","0","45","NA","41","45","41","0","41","3","45","0","45","Thu Feb 18 11:11:44 2021","The main experiment item","yes","Lexical_Decision_Task.osexp","C:/Users/Student","no","Andale Mono","no","18","no","white","no","yes","576","legacy","41","41","3","C:/Users/Student/subject-5211103.csv","legacy","Lentiform Loewenfeld","3.3.7","yes","yes","600bd7cfb6416f0113b04181","602110864497cf011d9c0822","0","J","NA","return","return","return","NA","J","537","NA","2381","25090","5125","NA","537","2","legacy","1024","2","48000","-16","task","5211103","odd","NA","41178","45561","43179","125889","2848","33065","27940","126390","NA","125888","126390","125839","45561","126927","39240","125339","2840","116907","Lexical Decision Task","42","37103","46","yes","1024"
"2.895974732","6.65","5","sift","word","91.48936170212765","91.48936170212765","811.8936170212766","811.8936170212766","black","no","legacy","legacy","legacy","0","uniform","1","undefined","undefined","undefined","1","j","0","0","0","0","46","0","0","0","46","NA","42","46","42","0","42","3","46","0","46","Thu Feb 18 11:11:44 2021","The main experiment item","yes","Lexical_Decision_Task.osexp","C:/Users/Student","no","Andale Mono","no","18","no","white","no","yes","576","legacy","42","42","3","C:/Users/Student/subject-5211103.csv","legacy","Lentiform Loewenfeld","3.3.7","yes","yes","600bd7cfb6416f0113b04181","602110864497cf011d9c0822","0","J","NA","return","return","return","NA","J","1056","NA","2381","25090","5125","NA","1056","2","legacy","1024","2","48000","-16","task","5211103","odd","NA","41178","45561","43179","127486","2848","33065","27940","127987","NA","127484","127987","127434","45561","129044","39240","126934","2840","116907","Lexical Decision Task","43","38159","47","yes","1024"
"3.168400243","9.12","6","horn","word","91.66666666666667","91.66666666666667","806.625","806.625","black","no","legacy","legacy","legacy","0","uniform","1","undefined","undefined","undefined","1","j","0","0","0","0","47","0","0","0","47","NA","43","47","43","0","43","3","47","0","47","Thu Feb 18 11:11:44 2021","The main experiment item","yes","Lexical_Decision_Task.osexp","C:/Users/Student","no","Andale Mono","no","18","no","white","no","yes","576","legacy","43","43","3","C:/Users/Student/subject-5211103.csv","legacy","Lentiform Loewenfeld","3.3.7","yes","yes","600bd7cfb6416f0113b04181","602110864497cf011d9c0822","0","J","NA","return","return","return","NA","J","559","NA","2381","25090","5125","NA","559","2","legacy","1024","2","48000","-16","task","5211103","odd","NA","41178","45561","43179","129601","2848","33065","27940","130102","NA","129600","130102","129551","45561","130662","39240","129051","2840","116907","Lexical Decision Task","44","38718","48","yes","1024"
"2.979548375","8.71","4","soup","word","91.83673469387755","91.83673469387755","801.0408163265306","801.0408163265306","black","no","legacy","legacy","legacy","0","uniform","1","undefined","undefined","undefined","1","j","0","0","0","0","48","0","0","0","48","NA","44","48","44","0","44","3","48","0","48","Thu Feb 18 11:11:44 2021","The main experiment item","yes","Lexical_Decision_Task.osexp","C:/Users/Student","no","Andale Mono","no","18","no","white","no","yes","576","legacy","44","44","3","C:/Users/Student/subject-5211103.csv","legacy","Lentiform Loewenfeld","3.3.7","yes","yes","600bd7cfb6416f0113b04181","602110864497cf011d9c0822","0","J","NA","return","return","return","NA","J","533","NA","2381","25090","5125","NA","533","2","legacy","1024","2","48000","-16","task","5211103","odd","NA","41178","45561","43179","131220","2848","33065","27940","131721","NA","131219","131721","131169","45561","132255","39240","130669","2840","116907","Lexical Decision Task","45","39251","49","yes","1024"
"3.132473155","0","4","glim","non-word","92","92","830.98","830.98","black","no","legacy","legacy","legacy","0","uniform","1","undefined","undefined","undefined","1","f","0","0","0","0","49","0","0","0","49","NA","45","49","45","0","45","3","49","0","49","Thu Feb 18 11:11:44 2021","The main experiment item","yes","Lexical_Decision_Task.osexp","C:/Users/Student","no","Andale Mono","no","18","no","white","no","yes","576","legacy","45","45","3","C:/Users/Student/subject-5211103.csv","legacy","Lentiform Loewenfeld","3.3.7","yes","yes","600bd7cfb6416f0113b04181","602110864497cf011d9c0822","0","F","NA","return","return","return","NA","F","2298","NA","2381","25090","5125","NA","2298","2","legacy","1024","2","48000","-16","task","5211103","odd","NA","41178","45561","43179","132812","2848","33065","27940","133313","NA","132810","133313","132761","45561","135612","39240","132261","2840","116907","Lexical Decision Task","46","41549","50","yes","1024"
"2.812467698","0","7","hafe","non-word","92.15686274509804","92.15686274509804","830.3333333333334","830.3333333333334","black","no","legacy","legacy","legacy","0","uniform","1","undefined","undefined","undefined","1","f","0","0","0","0","50","0","0","0","50","NA","46","50","46","0","46","3","50","0","50","Thu Feb 18 11:11:44 2021","The main experiment item","yes","Lexical_Decision_Task.osexp","C:/Users/Student","no","Andale Mono","no","18","no","white","no","yes","576","legacy","46","46","3","C:/Users/Student/subject-5211103.csv","legacy","Lentiform Loewenfeld","3.3.7","yes","yes","600bd7cfb6416f0113b04181","602110864497cf011d9c0822","0","F","NA","return","return","return","NA","F","798","NA","2381","25090","5125","NA","798","2","legacy","1024","2","48000","-16","task","5211103","odd","NA","41178","45561","43179","136171","2848","33065","27940","136672","NA","136170","136672","136120","45561","137470","39240","135620","2840","116907","Lexical Decision Task","47","42347","51","yes","1024"
"2.842815106","7.86","8","lump","word","92.3076923076923","92.3076923076923","827.3846153846154","827.3846153846154","black","no","legacy","legacy","legacy","0","uniform","1","undefined","undefined","undefined","1","j","0","0","0","0","51","0","0","0","51","NA","47","51","47","0","47","3","51","0","51","Thu Feb 18 11:11:44 2021","The main experiment item","yes","Lexical_Decision_Task.osexp","C:/Users/Student","no","Andale Mono","no","18","no","white","no","yes","576","legacy","47","47","3","C:/Users/Student/subject-5211103.csv","legacy","Lentiform Loewenfeld","3.3.7","yes","yes","600bd7cfb6416f0113b04181","602110864497cf011d9c0822","0","J","NA","return","return","return","NA","J","677","NA","2381","25090","5125","NA","677","2","legacy","1024","2","48000","-16","task","5211103","odd","NA","41178","45561","43179","138028","2848","33065","27940","138529","NA","138027","138529","137977","45561","139207","39240","137477","2840","116907","Lexical Decision Task","48","43024","52","yes","1024"
"2.897810299","0","5","glur","non-word","92.45283018867924","92.45283018867924","825.9245283018868","825.9245283018868","black","no","legacy","legacy","legacy","0","uniform","1","undefined","undefined","undefined","1","f","0","0","0","0","52","0","0","0","52","NA","48","52","48","0","48","3","52","0","52","Thu Feb 18 11:11:44 2021","The main experiment item","yes","Lexical_Decision_Task.osexp","C:/Users/Student","no","Andale Mono","no","18","no","white","no","yes","576","legacy","48","48","3","C:/Users/Student/subject-5211103.csv","legacy","Lentiform Loewenfeld","3.3.7","yes","yes","600bd7cfb6416f0113b04181","602110864497cf011d9c0822","0","F","NA","return","return","return","NA","F","750","NA","2381","25090","5125","NA","750","2","legacy","1024","2","48000","-16","task","5211103","odd","NA","41178","45561","43179","139764","2848","33065","27940","140265","NA","139763","140265","139713","45561","141015","39240","139213","2840","116907","Lexical Decision Task","49","43774","53","yes","1024"
"3.269668578","0","7","trag","non-word","92.5925925925926","92.5925925925926","833.7592592592592","833.7592592592592","black","no","legacy","legacy","legacy","0","uniform","1","undefined","undefined","undefined","1","f","0","0","0","0","53","0","0","0","53","NA","49","53","49","0","49","3","53","0","53","Thu Feb 18 11:11:44 2021","The main experiment item","yes","Lexical_Decision_Task.osexp","C:/Users/Student","no","Andale Mono","no","18","no","white","no","yes","576","legacy","49","49","3","C:/Users/Student/subject-5211103.csv","legacy","Lentiform Loewenfeld","3.3.7","yes","yes","600bd7cfb6416f0113b04181","602110864497cf011d9c0822","0","F","NA","return","return","return","NA","F","1249","NA","2381","25090","5125","NA","1249","2","legacy","1024","2","48000","-16","task","5211103","odd","NA","41178","45561","43179","141573","2848","33065","27940","142074","NA","141572","142074","141522","45561","143324","39240","141022","2840","116907","Lexical Decision Task","50","45023","54","yes","1024"
"3.197740804","6.74","3","ache","word","92.72727272727273","92.72727272727273","840.0545454545454","840.0545454545454","black","no","legacy","legacy","legacy","0","uniform","1","undefined","undefined","undefined","1","j","0","0","0","0","54","0","0","0","54","0","50","54","50","0","50","3","54","0","54","Thu Feb 18 11:11:44 2021","The main experiment item","yes","Lexical_Decision_Task.osexp","C:/Users/Student","no","Andale Mono","no","18","no","white","no","yes","576","legacy","50","50","3","C:/Users/Student/subject-5211103.csv","legacy","Lentiform Loewenfeld","3.3.7","yes","yes","600bd7cfb6416f0113b04181","602110864497cf011d9c0822","0","J","NA","return","return","return","space","J","1180","NA","2381","25090","5125","9848","1180","2","legacy","1024","2","48000","-16","task","5211103","odd","NA","41178","45561","43179","153765","2848","33065","27940","154266","143863","153763","154266","143831","45561","155446","39240","143331","2840","116907","Lexical Decision Task","51","46203","55","yes","1024"
"3.174641193","0","3","ramb","non-word","92.85714285714286","92.85714285714286","859.8214285714286","859.8214285714286","black","no","legacy","legacy","legacy","0","uniform","1","undefined","undefined","undefined","1","f","0","0","0","0","55","0","0","0","55","0","51","55","51","0","51","3","55","0","55","Thu Feb 18 11:11:44 2021","The main experiment item","yes","Lexical_Decision_Task.osexp","C:/Users/Student","no","Andale Mono","no","18","no","white","no","yes","576","legacy","51","51","3","C:/Users/Student/subject-5211103.csv","legacy","Lentiform Loewenfeld","3.3.7","yes","yes","600bd7cfb6416f0113b04181","602110864497cf011d9c0822","0","F","NA","return","return","return","space","F","1947","NA","2381","25090","5125","9848","1947","2","legacy","1024","2","48000","-16","task","5211103","odd","NA","41178","45561","43179","156006","2848","33065","27940","156507","143863","156005","156507","155954","45561","158454","39240","155454","2840","116907","Lexical Decision Task","52","48150","56","yes","1024"
"3.119255889","6.63","2","itch","word","92.98245614035088","92.98245614035088","877.7368421052631","877.7368421052631","black","no","legacy","legacy","legacy","0","uniform","1","undefined","undefined","undefined","1","j","0","0","0","0","56","0","0","0","56","0","52","56","52","0","52","3","56","0","56","Thu Feb 18 11:11:44 2021","The main experiment item","yes","Lexical_Decision_Task.osexp","C:/Users/Student","no","Andale Mono","no","18","no","white","no","yes","576","legacy","52","52","3","C:/Users/Student/subject-5211103.csv","legacy","Lentiform Loewenfeld","3.3.7","yes","yes","600bd7cfb6416f0113b04181","602110864497cf011d9c0822","0","J","NA","return","return","return","space","J","1881","NA","2381","25090","5125","9848","1881","2","legacy","1024","2","48000","-16","task","5211103","odd","NA","41178","45561","43179","159015","2848","33065","27940","159516","143863","159014","159516","158962","45561","161398","39240","158462","2840","116907","Lexical Decision Task","53","50031","57","yes","1024"
"3.705778213","0","6","stin","non-word","93.10344827586206","93.10344827586206","883.8793103448276","883.8793103448276","black","no","legacy","legacy","legacy","0","uniform","1","undefined","undefined","undefined","1","f","0","0","0","0","57","0","0","0","57","0","53","57","53","0","53","3","57","0","57","Thu Feb 18 11:11:44 2021","The main experiment item","yes","Lexical_Decision_Task.osexp","C:/Users/Student","no","Andale Mono","no","18","no","white","no","yes","576","legacy","53","53","3","C:/Users/Student/subject-5211103.csv","legacy","Lentiform Loewenfeld","3.3.7","yes","yes","600bd7cfb6416f0113b04181","602110864497cf011d9c0822","0","F","NA","return","return","return","space","F","1234","NA","2381","25090","5125","9848","1234","2","legacy","1024","2","48000","-16","task","5211103","odd","NA","41178","45561","43179","161957","2848","33065","27940","162458","143863","161955","162458","161906","45561","163692","39240","161406","2840","116907","Lexical Decision Task","54","51265","58","yes","1024"
"3.100255637","0","6","brax","non-word","93.22033898305085","93.22033898305085","883.1864406779661","883.1864406779661","black","no","legacy","legacy","legacy","0","uniform","1","undefined","undefined","undefined","1","f","0","0","0","0","58","0","0","0","58","0","54","58","54","0","54","3","58","0","58","Thu Feb 18 11:11:44 2021","The main experiment item","yes","Lexical_Decision_Task.osexp","C:/Users/Student","no","Andale Mono","no","18","no","white","no","yes","576","legacy","54","54","3","C:/Users/Student/subject-5211103.csv","legacy","Lentiform Loewenfeld","3.3.7","yes","yes","600bd7cfb6416f0113b04181","602110864497cf011d9c0822","0","F","NA","return","return","return","space","F","843","NA","2381","25090","5125","9848","843","2","legacy","1024","2","48000","-16","task","5211103","odd","NA","41178","45561","43179","164252","2848","33065","27940","164753","143863","164251","164753","164199","45561","165596","39240","163699","2840","116907","Lexical Decision Task","55","52108","59","yes","1024"
"3.443783828","7.65","3","verb","word","93.33333333333333","93.33333333333333","880.1666666666666","880.1666666666666","black","no","legacy","legacy","legacy","0","uniform","1","undefined","undefined","undefined","1","j","0","0","0","0","59","0","0","0","59","0","55","59","55","0","55","3","59","0","59","Thu Feb 18 11:11:44 2021","The main experiment item","yes","Lexical_Decision_Task.osexp","C:/Users/Student","no","Andale Mono","no","18","no","white","no","yes","576","legacy","55","55","3","C:/Users/Student/subject-5211103.csv","legacy","Lentiform Loewenfeld","3.3.7","yes","yes","600bd7cfb6416f0113b04181","602110864497cf011d9c0822","0","J","NA","return","return","return","space","J","702","NA","2381","25090","5125","9848","702","2","legacy","1024","2","48000","-16","task","5211103","odd","NA","41178","45561","43179","166156","2848","33065","27940","166657","143863","166155","166657","166105","45561","167360","39240","165605","2840","116907","Lexical Decision Task","56","52810","60","yes","1024"
"2.714888338","0","3","brug","non-word","93.44262295081967","93.44262295081967","880","880","black","no","legacy","legacy","legacy","0","uniform","1","undefined","undefined","undefined","1","f","0","0","0","0","60","0","0","0","60","0","56","60","56","0","56","3","60","0","60","Thu Feb 18 11:11:44 2021","The main experiment item","yes","Lexical_Decision_Task.osexp","C:/Users/Student","no","Andale Mono","no","18","no","white","no","yes","576","legacy","56","56","3","C:/Users/Student/subject-5211103.csv","legacy","Lentiform Loewenfeld","3.3.7","yes","yes","600bd7cfb6416f0113b04181","602110864497cf011d9c0822","0","F","NA","return","return","return","space","F","870","NA","2381","25090","5125","9848","870","2","legacy","1024","2","48000","-16","task","5211103","odd","NA","41178","45561","43179","167918","2848","33065","27940","168419","143863","167917","168419","167867","45561","169290","39240","167367","2840","116907","Lexical Decision Task","57","53680","61","yes","1024"
"3.105055783","0","2","norp","non-word","93.54838709677419","93.54838709677419","876.5483870967741","876.5483870967741","black","no","legacy","legacy","legacy","0","uniform","1","undefined","undefined","undefined","1","f","0","0","0","0","61","0","0","0","61","0","57","61","57","0","57","3","61","0","61","Thu Feb 18 11:11:44 2021","The main experiment item","yes","Lexical_Decision_Task.osexp","C:/Users/Student","no","Andale Mono","no","18","no","white","no","yes","576","legacy","57","57","3","C:/Users/Student/subject-5211103.csv","legacy","Lentiform Loewenfeld","3.3.7","yes","yes","600bd7cfb6416f0113b04181","602110864497cf011d9c0822","0","F","NA","return","return","return","space","F","666","NA","2381","25090","5125","9848","666","2","legacy","1024","2","48000","-16","task","5211103","odd","NA","41178","45561","43179","169848","2848","33065","27940","170349","143863","169847","170349","169797","45561","171016","39240","169297","2840","116907","Lexical Decision Task","58","54346","62","yes","1024"
"2.719886232","7.98","2","quiz","word","93.65079365079364","93.65079365079364","870.4761904761905","870.4761904761905","black","no","legacy","legacy","legacy","0","uniform","1","undefined","undefined","undefined","1","j","0","0","0","0","62","0","0","0","62","0","58","62","58","0","58","3","62","0","62","Thu Feb 18 11:11:44 2021","The main experiment item","yes","Lexical_Decision_Task.osexp","C:/Users/Student","no","Andale Mono","no","18","no","white","no","yes","576","legacy","58","58","3","C:/Users/Student/subject-5211103.csv","legacy","Lentiform Loewenfeld","3.3.7","yes","yes","600bd7cfb6416f0113b04181","602110864497cf011d9c0822","0","J","NA","return","return","return","space","J","494","NA","2381","25090","5125","9848","494","2","legacy","1024","2","48000","-16","task","5211103","odd","NA","41178","45561","43179","171580","2848","33065","27940","172081","143863","171579","172081","171525","45561","172575","39240","171024","2840","116907","Lexical Decision Task","59","54840","63","yes","1024"
"3.15462682","0","6","noal","non-word","93.75","93.75","871.828125","871.828125","black","no","legacy","legacy","legacy","0","uniform","1","undefined","undefined","undefined","1","f","0","0","0","0","63","0","0","0","63","0","59","63","59","0","59","3","63","0","63","Thu Feb 18 11:11:44 2021","The main experiment item","yes","Lexical_Decision_Task.osexp","C:/Users/Student","no","Andale Mono","no","18","no","white","no","yes","576","legacy","59","59","3","C:/Users/Student/subject-5211103.csv","legacy","Lentiform Loewenfeld","3.3.7","yes","yes","600bd7cfb6416f0113b04181","602110864497cf011d9c0822","0","F","NA","return","return","return","space","F","957","NA","2381","25090","5125","9848","957","2","legacy","1024","2","48000","-16","task","5211103","odd","NA","41178","45561","43179","173135","2848","33065","27940","173636","143863","173134","173636","173082","45561","174593","39240","172582","2840","116907","Lexical Decision Task","60","55797","64","yes","1024"
"3.121778632","0","9","sark","non-word","93.84615384615384","93.84615384615384","869","869","black","no","legacy","legacy","legacy","0","uniform","1","undefined","undefined","undefined","1","f","0","0","0","0","64","0","0","0","64","0","60","64","60","0","60","3","64","0","64","Thu Feb 18 11:11:44 2021","The main experiment item","yes","Lexical_Decision_Task.osexp","C:/Users/Student","no","Andale Mono","no","18","no","white","no","yes","576","legacy","60","60","3","C:/Users/Student/subject-5211103.csv","legacy","Lentiform Loewenfeld","3.3.7","yes","yes","600bd7cfb6416f0113b04181","602110864497cf011d9c0822","0","F","NA","return","return","return","space","F","688","NA","2381","25090","5125","9848","688","2","legacy","1024","2","48000","-16","task","5211103","odd","NA","41178","45561","43179","175152","2848","33065","27940","175653","143863","175151","175653","175100","45561","176342","39240","174600","2840","116907","Lexical Decision Task","61","56485","65","yes","1024"
"3.043885998","0","9","gome","non-word","93.93939393939394","93.93939393939394","874.1818181818181","874.1818181818181","black","no","legacy","legacy","legacy","0","uniform","1","undefined","undefined","undefined","1","f","0","0","0","0","65","0","0","0","65","0","61","65","61","0","61","3","65","0","65","Thu Feb 18 11:11:44 2021","The main experiment item","yes","Lexical_Decision_Task.osexp","C:/Users/Student","no","Andale Mono","no","18","no","white","no","yes","576","legacy","61","61","3","C:/Users/Student/subject-5211103.csv","legacy","Lentiform Loewenfeld","3.3.7","yes","yes","600bd7cfb6416f0113b04181","602110864497cf011d9c0822","0","F","NA","return","return","return","space","F","1211","NA","2381","25090","5125","9848","1211","2","legacy","1024","2","48000","-16","task","5211103","odd","NA","41178","45561","43179","176899","2848","33065","27940","177399","143863","176898","177399","176849","45561","178610","39240","176349","2840","116907","Lexical Decision Task","62","57696","66","yes","1024"
"2.705007959","6.01","4","wept","word","94.02985074626865","94.02985074626865","870.9253731343283","870.9253731343283","black","no","legacy","legacy","legacy","0","uniform","1","undefined","undefined","undefined","1","j","0","0","0","0","66","0","0","0","66","0","62","66","62","0","62","3","66","0","66","Thu Feb 18 11:11:44 2021","The main experiment item","yes","Lexical_Decision_Task.osexp","C:/Users/Student","no","Andale Mono","no","18","no","white","no","yes","576","legacy","62","62","3","C:/Users/Student/subject-5211103.csv","legacy","Lentiform Loewenfeld","3.3.7","yes","yes","600bd7cfb6416f0113b04181","602110864497cf011d9c0822","0","J","NA","return","return","return","space","J","656","NA","2381","25090","5125","9848","656","2","legacy","1024","2","48000","-16","task","5211103","odd","NA","41178","45561","43179","179171","2848","33065","27940","179672","143863","179170","179672","179119","45561","180329","39240","178619","2840","116907","Lexical Decision Task","63","58352","67","yes","1024"
"2.6599162","0","2","saff","non-word","94.11764705882354","94.11764705882354","868.1323529411765","868.1323529411765","black","no","legacy","legacy","legacy","0","uniform","1","undefined","undefined","undefined","1","f","0","0","0","0","67","0","0","0","67","0","63","67","63","0","63","3","67","0","67","Thu Feb 18 11:11:44 2021","The main experiment item","yes","Lexical_Decision_Task.osexp","C:/Users/Student","no","Andale Mono","no","18","no","white","no","yes","576","legacy","63","63","3","C:/Users/Student/subject-5211103.csv","legacy","Lentiform Loewenfeld","3.3.7","yes","yes","600bd7cfb6416f0113b04181","602110864497cf011d9c0822","0","F","NA","return","return","return","space","F","681","NA","2381","25090","5125","9848","681","2","legacy","1024","2","48000","-16","task","5211103","odd","NA","41178","45561","43179","180888","2848","33065","27940","181389","143863","180886","181389","180836","45561","182071","39240","180336","2840","116907","Lexical Decision Task","64","59033","68","yes","1024"
"3.134602053","0","8","jart","non-word","94.20289855072464","94.20289855072464","866.2898550724638","866.2898550724638","black","no","legacy","legacy","legacy","0","uniform","1","undefined","undefined","undefined","1","f","0","0","0","0","68","0","0","0","68","0","64","68","64","0","64","3","68","0","68","Thu Feb 18 11:11:44 2021","The main experiment item","yes","Lexical_Decision_Task.osexp","C:/Users/Student","no","Andale Mono","no","18","no","white","no","yes","576","legacy","64","64","3","C:/Users/Student/subject-5211103.csv","legacy","Lentiform Loewenfeld","3.3.7","yes","yes","600bd7cfb6416f0113b04181","602110864497cf011d9c0822","0","F","NA","return","return","return","space","F","741","NA","2381","25090","5125","9848","741","2","legacy","1024","2","48000","-16","task","5211103","odd","NA","41178","45561","43179","182631","2848","33065","27940","183132","143863","182630","183132","182578","45561","183874","39240","182078","2840","116907","Lexical Decision Task","65","59774","69","yes","1024"
"2.924968096","0","4","phim","non-word","94.28571428571429","94.28571428571429","863.6285714285714","863.6285714285714","black","no","legacy","legacy","legacy","0","uniform","1","undefined","undefined","undefined","1","f","0","0","0","0","69","0","0","0","69","0","65","69","65","0","65","3","69","0","69","Thu Feb 18 11:11:44 2021","The main experiment item","yes","Lexical_Decision_Task.osexp","C:/Users/Student","no","Andale Mono","no","18","no","white","no","yes","576","legacy","65","65","3","C:/Users/Student/subject-5211103.csv","legacy","Lentiform Loewenfeld","3.3.7","yes","yes","600bd7cfb6416f0113b04181","602110864497cf011d9c0822","0","F","NA","return","return","return","space","F","680","NA","2381","25090","5125","9848","680","2","legacy","1024","2","48000","-16","task","5211103","odd","NA","41178","45561","43179","184434","2848","33065","27940","184935","143863","184432","184935","184381","45561","185616","39240","183881","2840","116907","Lexical Decision Task","66","60454","70","yes","1024"
"3.208978517","10.33","4","fish","word","94.36619718309859","94.36619718309859","861.2816901408451","861.2816901408451","black","no","legacy","legacy","legacy","0","uniform","1","undefined","undefined","undefined","1","j","0","0","0","0","70","0","0","0","70","0","66","70","66","0","66","3","70","0","70","Thu Feb 18 11:11:44 2021","The main experiment item","yes","Lexical_Decision_Task.osexp","C:/Users/Student","no","Andale Mono","no","18","no","white","no","yes","576","legacy","66","66","3","C:/Users/Student/subject-5211103.csv","legacy","Lentiform Loewenfeld","3.3.7","yes","yes","600bd7cfb6416f0113b04181","602110864497cf011d9c0822","0","J","NA","return","return","return","space","J","697","NA","2381","25090","5125","9848","697","2","legacy","1024","2","48000","-16","task","5211103","odd","NA","41178","45561","43179","186178","2848","33065","27940","186679","143863","186177","186679","186124","45561","187377","39240","185623","2840","116907","Lexical Decision Task","67","61151","71","yes","1024"
"2.778633532","0","3","jurp","non-word","94.44444444444444","94.44444444444444","857.4305555555555","857.4305555555555","black","no","legacy","legacy","legacy","0","uniform","1","undefined","undefined","undefined","1","f","0","0","0","0","71","0","0","0","71","0","67","71","67","0","67","3","71","0","71","Thu Feb 18 11:11:44 2021","The main experiment item","yes","Lexical_Decision_Task.osexp","C:/Users/Student","no","Andale Mono","no","18","no","white","no","yes","576","legacy","67","67","3","C:/Users/Student/subject-5211103.csv","legacy","Lentiform Loewenfeld","3.3.7","yes","yes","600bd7cfb6416f0113b04181","602110864497cf011d9c0822","0","F","NA","return","return","return","space","F","584","NA","2381","25090","5125","9848","584","2","legacy","1024","2","48000","-16","task","5211103","odd","NA","41178","45561","43179","187937","2848","33065","27940","188437","143863","187936","188437","187885","45561","189022","39240","187385","2840","116907","Lexical Decision Task","68","61735","72","yes","1024"
"2.794720352","0","9","koot","non-word","94.52054794520548","94.52054794520548","857.4520547945206","857.4520547945206","black","no","legacy","legacy","legacy","0","uniform","1","undefined","undefined","undefined","1","f","0","0","0","0","72","0","0","0","72","0","68","72","68","0","68","3","72","0","72","Thu Feb 18 11:11:44 2021","The main experiment item","yes","Lexical_Decision_Task.osexp","C:/Users/Student","no","Andale Mono","no","18","no","white","no","yes","576","legacy","68","68","3","C:/Users/Student/subject-5211103.csv","legacy","Lentiform Loewenfeld","3.3.7","yes","yes","600bd7cfb6416f0113b04181","602110864497cf011d9c0822","0","F","NA","return","return","return","space","F","859","NA","2381","25090","5125","9848","859","2","legacy","1024","2","48000","-16","task","5211103","odd","NA","41178","45561","43179","189580","2848","33065","27940","190081","143863","189578","190081","189528","45561","190940","39240","189028","2840","116907","Lexical Decision Task","69","62594","73","yes","1024"
"2.668385917","5.48","4","twig","word","94.5945945945946","94.5945945945946","855.5945945945946","855.5945945945946","black","no","legacy","legacy","legacy","0","uniform","1","undefined","undefined","undefined","1","j","0","0","0","0","73","0","0","0","73","0","69","73","69","0","69","3","73","0","73","Thu Feb 18 11:11:44 2021","The main experiment item","yes","Lexical_Decision_Task.osexp","C:/Users/Student","no","Andale Mono","no","18","no","white","no","yes","576","legacy","69","69","3","C:/Users/Student/subject-5211103.csv","legacy","Lentiform Loewenfeld","3.3.7","yes","yes","600bd7cfb6416f0113b04181","602110864497cf011d9c0822","0","J","NA","return","return","return","space","J","720","NA","2381","25090","5125","9848","720","2","legacy","1024","2","48000","-16","task","5211103","odd","NA","41178","45561","43179","191501","2848","33065","27940","192002","143863","191500","192002","191449","45561","192723","39240","190949","2840","116907","Lexical Decision Task","70","63314","74","yes","1024"
"3.230789326","5.38","5","prim","word","93.33333333333333","93.33333333333333","856.5733333333334","856.5733333333334","black","no","legacy","legacy","legacy","0","uniform","0","undefined","undefined","undefined","0","j","0","0","0","0","74","0","0","0","74","0","70","74","70","0","70","3","74","0","74","Thu Feb 18 11:11:44 2021","The main experiment item","yes","Lexical_Decision_Task.osexp","C:/Users/Student","no","Andale Mono","no","18","no","white","no","yes","576","legacy","70","70","3","C:/Users/Student/subject-5211103.csv","legacy","Lentiform Loewenfeld","3.3.7","yes","yes","600bd7cfb6416f0113b04181","602110864497cf011d9c0822","0","F","NA","return","return","return","space","F","929","NA","2381","25090","5125","9848","929","2","legacy","1024","2","48000","-16","task","5211103","odd","NA","41178","45561","43179","193283","2848","33065","27940","193784","143863","193282","193784","193231","45561","194713","39240","192731","2840","116907","Lexical Decision Task","70","64243","75","yes","1024"
"3.302475237","0","7","leel","non-word","93.42105263157895","93.42105263157895","855.3684210526316","855.3684210526316","black","no","legacy","legacy","legacy","0","uniform","1","undefined","undefined","undefined","1","f","0","0","0","0","75","0","0","0","75","0","71","75","71","0","71","3","75","0","75","Thu Feb 18 11:11:44 2021","The main experiment item","yes","Lexical_Decision_Task.osexp","C:/Users/Student","no","Andale Mono","no","18","no","white","no","yes","576","legacy","71","71","3","C:/Users/Student/subject-5211103.csv","legacy","Lentiform Loewenfeld","3.3.7","yes","yes","600bd7cfb6416f0113b04181","602110864497cf011d9c0822","0","F","NA","return","return","return","space","F","765","NA","2381","25090","5125","9848","765","2","legacy","1024","2","48000","-16","task","5211103","odd","NA","41178","45561","43179","196278","2848","33065","27940","196779","143863","196277","196779","196222","45561","197545","39240","192731","2840","194722","Lexical Decision Task","71","65008","76","yes","1024"
"2.698387659","6.66","7","skid","word","93.50649350649351","93.50649350649351","852.2727272727273","852.2727272727273","black","no","legacy","legacy","legacy","0","uniform","1","undefined","undefined","undefined","1","j","0","0","0","0","76","0","0","0","76","0","72","76","72","0","72","3","76","0","76","Thu Feb 18 11:11:44 2021","The main experiment item","yes","Lexical_Decision_Task.osexp","C:/Users/Student","no","Andale Mono","no","18","no","white","no","yes","576","legacy","72","72","3","C:/Users/Student/subject-5211103.csv","legacy","Lentiform Loewenfeld","3.3.7","yes","yes","600bd7cfb6416f0113b04181","602110864497cf011d9c0822","0","J","NA","return","return","return","space","J","617","NA","2381","25090","5125","9848","617","2","legacy","1024","2","48000","-16","task","5211103","odd","NA","41178","45561","43179","198104","2848","33065","27940","198605","143863","198102","198605","198052","45561","199223","39240","197552","2840","194722","Lexical Decision Task","72","65625","77","yes","1024"
"2.744553742","0","2","nawk","non-word","93.58974358974359","93.58974358974359","852.8076923076923","852.8076923076923","black","no","legacy","legacy","legacy","0","uniform","1","undefined","undefined","undefined","1","f","0","0","0","0","77","0","0","0","77","0","73","77","73","0","73","3","77","0","77","Thu Feb 18 11:11:44 2021","The main experiment item","yes","Lexical_Decision_Task.osexp","C:/Users/Student","no","Andale Mono","no","18","no","white","no","yes","576","legacy","73","73","3","C:/Users/Student/subject-5211103.csv","legacy","Lentiform Loewenfeld","3.3.7","yes","yes","600bd7cfb6416f0113b04181","602110864497cf011d9c0822","0","F","NA","return","return","return","space","F","894","NA","2381","25090","5125","9848","894","2","legacy","1024","2","48000","-16","task","5211103","odd","NA","41178","45561","43179","199781","2848","33065","27940","200282","143863","199780","200282","199730","45561","201176","39240","199230","2840","194722","Lexical Decision Task","73","66519","78","yes","1024"
"3.153001286","8.7","5","palm","word","93.67088607594937","93.67088607594937","848.6075949367089","848.6075949367089","black","no","legacy","legacy","legacy","0","uniform","1","undefined","undefined","undefined","1","j","0","0","0","0","78","0","0","0","78","0","74","78","74","0","74","3","78","0","78","Thu Feb 18 11:11:44 2021","The main experiment item","yes","Lexical_Decision_Task.osexp","C:/Users/Student","no","Andale Mono","no","18","no","white","no","yes","576","legacy","74","74","3","C:/Users/Student/subject-5211103.csv","legacy","Lentiform Loewenfeld","3.3.7","yes","yes","600bd7cfb6416f0113b04181","602110864497cf011d9c0822","0","J","NA","return","return","return","space","J","521","NA","2381","25090","5125","9848","521","2","legacy","1024","2","48000","-16","task","5211103","odd","NA","41178","45561","43179","201734","2848","33065","27940","202235","143863","201733","202235","201683","45561","202757","39240","201183","2840","194722","Lexical Decision Task","74","67040","79","yes","1024"
"3.067193647","6.73","6","raft","word","93.75","93.75","848.7","848.7","black","no","legacy","legacy","legacy","0","uniform","1","undefined","undefined","undefined","1","j","0","0","0","0","79","0","0","0","79","0","75","79","75","0","75","3","79","0","79","Thu Feb 18 11:11:44 2021","The main experiment item","yes","Lexical_Decision_Task.osexp","C:/Users/Student","no","Andale Mono","no","18","no","white","no","yes","576","legacy","75","75","3","C:/Users/Student/subject-5211103.csv","legacy","Lentiform Loewenfeld","3.3.7","yes","yes","600bd7cfb6416f0113b04181","602110864497cf011d9c0822","0","J","NA","return","return","return","space","J","856","NA","2381","25090","5125","9848","856","2","legacy","1024","2","48000","-16","task","5211103","odd","NA","41178","45561","43179","203315","2848","33065","27940","203816","143863","203313","203816","203264","45561","204673","39240","202764","2840","194722","Lexical Decision Task","75","67896","80","yes","1024"
"3.474361976","5.24","6","veer","word","93.82716049382717","93.82716049382717","846.5185185185185","846.5185185185185","black","no","legacy","legacy","legacy","0","uniform","1","undefined","undefined","undefined","1","j","0","0","0","0","80","0","0","0","80","0","76","80","76","0","76","3","80","0","80","Thu Feb 18 11:11:44 2021","The main experiment item","yes","Lexical_Decision_Task.osexp","C:/Users/Student","no","Andale Mono","no","18","no","white","no","yes","576","legacy","76","76","3","C:/Users/Student/subject-5211103.csv","legacy","Lentiform Loewenfeld","3.3.7","yes","yes","600bd7cfb6416f0113b04181","602110864497cf011d9c0822","0","J","NA","return","return","return","space","J","672","NA","2381","25090","5125","9848","672","2","legacy","1024","2","48000","-16","task","5211103","odd","NA","41178","45561","43179","205231","2848","33065","27940","205732","143863","205229","205732","205180","45561","206405","39240","204680","2840","194722","Lexical Decision Task","76","68568","81","yes","1024"
"3.374198258","0","8","vist","non-word","92.6829268292683","92.6829268292683","842","842","black","no","legacy","legacy","legacy","0","uniform","0","undefined","undefined","undefined","0","f","0","0","0","0","81","0","0","0","81","0","77","81","77","0","77","3","81","0","81","Thu Feb 18 11:11:44 2021","The main experiment item","yes","Lexical_Decision_Task.osexp","C:/Users/Student","no","Andale Mono","no","18","no","white","no","yes","576","legacy","77","77","3","C:/Users/Student/subject-5211103.csv","legacy","Lentiform Loewenfeld","3.3.7","yes","yes","600bd7cfb6416f0113b04181","602110864497cf011d9c0822","0","J","NA","return","return","return","space","J","476","NA","2381","25090","5125","9848","476","2","legacy","1024","2","48000","-16","task","5211103","odd","NA","41178","45561","43179","206964","2848","33065","27940","207465","143863","206963","207465","206914","45561","207942","39240","206414","2840","194722","Lexical Decision Task","76","69044","82","yes","1024"
"3.274157849","0","8","leet","non-word","92.7710843373494","92.7710843373494","842.156626506024","842.156626506024","black","no","legacy","legacy","legacy","0","uniform","1","undefined","undefined","undefined","1","f","0","0","0","0","82","0","0","0","82","0","78","82","78","0","78","3","82","0","82","Thu Feb 18 11:11:44 2021","The main experiment item","yes","Lexical_Decision_Task.osexp","C:/Users/Student","no","Andale Mono","no","18","no","white","no","yes","576","legacy","78","78","3","C:/Users/Student/subject-5211103.csv","legacy","Lentiform Loewenfeld","3.3.7","yes","yes","600bd7cfb6416f0113b04181","602110864497cf011d9c0822","0","F","NA","return","return","return","space","F","855","NA","2381","25090","5125","9848","855","2","legacy","1024","2","48000","-16","task","5211103","odd","NA","41178","45561","43179","209504","2848","33065","27940","210006","143863","209503","210006","209450","45561","210862","39240","206414","2840","207950","Lexical Decision Task","77","69899","83","yes","1024"
"3.062080345","0","6","tomp","non-word","92.85714285714286","92.85714285714286","848.7380952380952","848.7380952380952","black","no","legacy","legacy","legacy","0","uniform","1","undefined","undefined","undefined","1","f","0","0","0","0","83","0","0","0","83","0","79","83","79","0","79","3","83","0","83","Thu Feb 18 11:11:44 2021","The main experiment item","yes","Lexical_Decision_Task.osexp","C:/Users/Student","no","Andale Mono","no","18","no","white","no","yes","576","legacy","79","79","3","C:/Users/Student/subject-5211103.csv","legacy","Lentiform Loewenfeld","3.3.7","yes","yes","600bd7cfb6416f0113b04181","602110864497cf011d9c0822","0","F","NA","return","return","return","space","F","1395","NA","2381","25090","5125","9848","1395","2","legacy","1024","2","48000","-16","task","5211103","odd","NA","41178","45561","43179","211424","2848","33065","27940","211925","143863","211422","211925","211371","45561","213321","39240","210871","2840","207950","Lexical Decision Task","78","71294","84","yes","1024"
"3.120135028","0","3","vals","non-word","92.94117647058823","92.94117647058823","846.564705882353","846.564705882353","black","no","legacy","legacy","legacy","0","uniform","1","undefined","undefined","undefined","1","f","0","0","0","0","84","0","0","0","84","0","80","84","80","0","80","3","84","0","84","Thu Feb 18 11:11:44 2021","The main experiment item","yes","Lexical_Decision_Task.osexp","C:/Users/Student","no","Andale Mono","no","18","no","white","no","yes","576","legacy","80","80","3","C:/Users/Student/subject-5211103.csv","legacy","Lentiform Loewenfeld","3.3.7","yes","yes","600bd7cfb6416f0113b04181","602110864497cf011d9c0822","0","F","NA","return","return","return","space","F","664","NA","2381","25090","5125","9848","664","2","legacy","1024","2","48000","-16","task","5211103","odd","NA","41178","45561","43179","213882","2848","33065","27940","214383","143863","213881","214383","213830","45561","215048","39240","213330","2840","207950","Lexical Decision Task","79","71958","85","yes","1024"
"2.706148589","0","4","hube","non-word","91.86046511627907","91.86046511627907","856.2209302325581","856.2209302325581","black","no","legacy","legacy","legacy","0","uniform","0","undefined","undefined","undefined","0","f","0","0","0","0","85","0","0","0","85","0","81","85","81","0","81","3","85","0","85","Thu Feb 18 11:11:44 2021","The main experiment item","yes","Lexical_Decision_Task.osexp","C:/Users/Student","no","Andale Mono","no","18","no","white","no","yes","576","legacy","81","81","3","C:/Users/Student/subject-5211103.csv","legacy","Lentiform Loewenfeld","3.3.7","yes","yes","600bd7cfb6416f0113b04181","602110864497cf011d9c0822","0","J","NA","return","return","return","space","J","1677","NA","2381","25090","5125","9848","1677","2","legacy","1024","2","48000","-16","task","5211103","odd","NA","41178","45561","43179","215608","2848","33065","27940","216109","143863","215606","216109","215557","45561","217787","39240","215057","2840","207950","Lexical Decision Task","79","73635","86","yes","1024"
"3.076883066","0","8","mout","non-word","91.95402298850574","91.95402298850574","857.6436781609195","857.6436781609195","black","no","legacy","legacy","legacy","0","uniform","1","undefined","undefined","undefined","1","f","0","0","0","0","86","0","0","0","86","0","82","86","82","0","82","3","86","0","86","Thu Feb 18 11:11:44 2021","The main experiment item","yes","Lexical_Decision_Task.osexp","C:/Users/Student","no","Andale Mono","no","18","no","white","no","yes","576","legacy","82","82","3","C:/Users/Student/subject-5211103.csv","legacy","Lentiform Loewenfeld","3.3.7","yes","yes","600bd7cfb6416f0113b04181","602110864497cf011d9c0822","0","F","NA","return","return","return","space","F","980","NA","2381","25090","5125","9848","980","2","legacy","1024","2","48000","-16","task","5211103","odd","NA","41178","45561","43179","219350","2848","33065","27940","219851","143863","219349","219851","219295","45561","220832","39240","215057","2840","217795","Lexical Decision Task","80","74615","87","yes","1024"
"3.081107167","0","6","chot","non-word","92.04545454545455","92.04545454545455","857.1022727272727","857.1022727272727","black","no","legacy","legacy","legacy","0","uniform","1","undefined","undefined","undefined","1","f","0","0","0","0","87","0","0","0","87","0","83","87","83","0","83","3","87","0","87","Thu Feb 18 11:11:44 2021","The main experiment item","yes","Lexical_Decision_Task.osexp","C:/Users/Student","no","Andale Mono","no","18","no","white","no","yes","576","legacy","83","83","3","C:/Users/Student/subject-5211103.csv","legacy","Lentiform Loewenfeld","3.3.7","yes","yes","600bd7cfb6416f0113b04181","602110864497cf011d9c0822","0","F","NA","return","return","return","space","F","810","NA","2381","25090","5125","9848","810","2","legacy","1024","2","48000","-16","task","5211103","odd","NA","41178","45561","43179","221393","2848","33065","27940","221894","143863","221392","221894","221341","45561","222704","39240","220841","2840","217795","Lexical Decision Task","81","75425","88","yes","1024"
"3.216517684","10.87","3","film","word","92.13483146067416","92.13483146067416","854.9550561797753","854.9550561797753","black","no","legacy","legacy","legacy","0","uniform","1","undefined","undefined","undefined","1","j","0","0","0","0","88","0","0","0","88","0","84","88","84","0","84","3","88","0","88","Thu Feb 18 11:11:44 2021","The main experiment item","yes","Lexical_Decision_Task.osexp","C:/Users/Student","no","Andale Mono","no","18","no","white","no","yes","576","legacy","84","84","3","C:/Users/Student/subject-5211103.csv","legacy","Lentiform Loewenfeld","3.3.7","yes","yes","600bd7cfb6416f0113b04181","602110864497cf011d9c0822","0","J","NA","return","return","return","space","J","666","NA","2381","25090","5125","9848","666","2","legacy","1024","2","48000","-16","task","5211103","odd","NA","41178","45561","43179","223263","2848","33065","27940","223764","143863","223262","223764","223211","45561","224431","39240","222711","2840","217795","Lexical Decision Task","82","76091","89","yes","1024"
"2.971428938","9.86","7","spot","word","92.22222222222223","92.22222222222223","869.1444444444444","869.1444444444444","black","no","legacy","legacy","legacy","0","uniform","1","undefined","undefined","undefined","1","j","0","0","0","0","89","0","0","0","89","0","85","89","85","0","85","3","89","0","89","Thu Feb 18 11:11:44 2021","The main experiment item","yes","Lexical_Decision_Task.osexp","C:/Users/Student","no","Andale Mono","no","18","no","white","no","yes","576","legacy","85","85","3","C:/Users/Student/subject-5211103.csv","legacy","Lentiform Loewenfeld","3.3.7","yes","yes","600bd7cfb6416f0113b04181","602110864497cf011d9c0822","0","J","NA","return","return","return","space","J","2132","NA","2381","25090","5125","9848","2132","2","legacy","1024","2","48000","-16","task","5211103","odd","NA","41178","45561","43179","224988","2848","33065","27940","225489","143863","224987","225489","224938","45561","227621","39240","224438","2840","217795","Lexical Decision Task","83","78223","90","yes","1024"
"2.952953801","0","8","clax","non-word","92.3076923076923","92.3076923076923","867.010989010989","867.010989010989","black","no","legacy","legacy","legacy","0","uniform","1","undefined","undefined","undefined","1","f","0","0","0","0","90","0","0","0","90","0","86","90","86","0","86","3","90","0","90","Thu Feb 18 11:11:44 2021","The main experiment item","yes","Lexical_Decision_Task.osexp","C:/Users/Student","no","Andale Mono","no","18","no","white","no","yes","576","legacy","86","86","3","C:/Users/Student/subject-5211103.csv","legacy","Lentiform Loewenfeld","3.3.7","yes","yes","600bd7cfb6416f0113b04181","602110864497cf011d9c0822","0","F","NA","return","return","return","space","F","675","NA","2381","25090","5125","9848","675","2","legacy","1024","2","48000","-16","task","5211103","odd","NA","41178","45561","43179","228182","2848","33065","27940","228683","143863","228180","228683","228130","45561","229359","39240","227629","2840","217795","Lexical Decision Task","84","78898","91","yes","1024"
"2.813801082","5.47","7","nook","word","92.3913043478261","92.3913043478261","872.0434782608696","872.0434782608696","black","no","legacy","legacy","legacy","0","uniform","1","undefined","undefined","undefined","1","j","0","0","0","0","91","0","0","0","91","0","87","91","87","0","87","3","91","0","91","Thu Feb 18 11:11:44 2021","The main experiment item","yes","Lexical_Decision_Task.osexp","C:/Users/Student","no","Andale Mono","no","18","no","white","no","yes","576","legacy","87","87","3","C:/Users/Student/subject-5211103.csv","legacy","Lentiform Loewenfeld","3.3.7","yes","yes","600bd7cfb6416f0113b04181","602110864497cf011d9c0822","0","J","NA","return","return","return","space","J","1330","NA","2381","25090","5125","9848","1330","2","legacy","1024","2","48000","-16","task","5211103","odd","NA","41178","45561","43179","229918","2848","33065","27940","230419","143863","229917","230419","229866","45561","231750","39240","229366","2840","217795","Lexical Decision Task","85","80228","92","yes","1024"
"2.880623071","0","9","curp","non-word","91.39784946236558","91.39784946236558","870.1397849462365","870.1397849462365","black","no","legacy","legacy","legacy","0","uniform","0","undefined","undefined","undefined","0","f","0","0","0","0","92","0","0","0","92","0","88","92","88","0","88","3","92","0","92","Thu Feb 18 11:11:44 2021","The main experiment item","yes","Lexical_Decision_Task.osexp","C:/Users/Student","no","Andale Mono","no","18","no","white","no","yes","576","legacy","88","88","3","C:/Users/Student/subject-5211103.csv","legacy","Lentiform Loewenfeld","3.3.7","yes","yes","600bd7cfb6416f0113b04181","602110864497cf011d9c0822","0","J","NA","return","return","return","space","J","695","NA","2381","25090","5125","9848","695","2","legacy","1024","2","48000","-16","task","5211103","odd","NA","41178","45561","43179","232320","2848","33065","27940","232821","143863","232319","232821","232257","45561","233517","39240","231757","2840","217795","Lexical Decision Task","85","80923","93","yes","1024"
"3.20996159","0","4","clee","non-word","91.48936170212765","91.48936170212765","867.3297872340426","867.3297872340426","black","no","legacy","legacy","legacy","0","uniform","1","undefined","undefined","undefined","1","f","0","0","0","0","93","0","0","0","93","0","89","93","89","0","89","3","93","0","93","Thu Feb 18 11:11:44 2021","The main experiment item","yes","Lexical_Decision_Task.osexp","C:/Users/Student","no","Andale Mono","no","18","no","white","no","yes","576","legacy","89","89","3","C:/Users/Student/subject-5211103.csv","legacy","Lentiform Loewenfeld","3.3.7","yes","yes","600bd7cfb6416f0113b04181","602110864497cf011d9c0822","0","F","NA","return","return","return","space","F","606","NA","2381","25090","5125","9848","606","2","legacy","1024","2","48000","-16","task","5211103","odd","NA","41178","45561","43179","235084","2848","33065","27940","235585","143863","235082","235585","235024","45561","236192","39240","231757","2840","233524","Lexical Decision Task","86","81529","94","yes","1024"
"2.838639236","0","4","furg","non-word","91.57894736842105","91.57894736842105","863.7578947368421","863.7578947368421","black","no","legacy","legacy","legacy","0","uniform","1","undefined","undefined","undefined","1","f","0","0","0","0","94","0","0","0","94","0","90","94","90","0","90","3","94","0","94","Thu Feb 18 11:11:44 2021","The main experiment item","yes","Lexical_Decision_Task.osexp","C:/Users/Student","no","Andale Mono","no","18","no","white","no","yes","576","legacy","90","90","3","C:/Users/Student/subject-5211103.csv","legacy","Lentiform Loewenfeld","3.3.7","yes","yes","600bd7cfb6416f0113b04181","602110864497cf011d9c0822","0","F","NA","return","return","return","space","F","528","NA","2381","25090","5125","9848","528","2","legacy","1024","2","48000","-16","task","5211103","odd","NA","41178","45561","43179","236750","2848","33065","27940","237254","143863","236749","237254","236700","45561","237782","39240","236200","2840","233524","Lexical Decision Task","87","82057","95","yes","1024"
"3.088136089","8.32","9","worm","word","91.66666666666667","91.66666666666667","860.8541666666666","860.8541666666666","black","no","legacy","legacy","legacy","0","uniform","1","undefined","undefined","undefined","1","j","0","0","0","0","95","0","0","0","95","0","91","95","91","0","91","3","95","0","95","Thu Feb 18 11:11:44 2021","The main experiment item","yes","Lexical_Decision_Task.osexp","C:/Users/Student","no","Andale Mono","no","18","no","white","no","yes","576","legacy","91","91","3","C:/Users/Student/subject-5211103.csv","legacy","Lentiform Loewenfeld","3.3.7","yes","yes","600bd7cfb6416f0113b04181","602110864497cf011d9c0822","0","J","NA","return","return","return","space","J","585","NA","2381","25090","5125","9848","585","2","legacy","1024","2","48000","-16","task","5211103","odd","NA","41178","45561","43179","238343","2848","33065","27940","238844","143863","238342","238844","238290","45561","239430","39240","237790","2840","233524","Lexical Decision Task","88","82642","96","yes","1024"
"2.616654026","9.37","5","gift","word","91.75257731958763","91.75257731958763","857.2268041237113","857.2268041237113","black","no","legacy","legacy","legacy","0","uniform","1","undefined","undefined","undefined","1","j","0","0","0","0","96","0","0","0","96","0","92","96","92","0","92","3","96","0","96","Thu Feb 18 11:11:44 2021","The main experiment item","yes","Lexical_Decision_Task.osexp","C:/Users/Student","no","Andale Mono","no","18","no","white","no","yes","576","legacy","92","92","3","C:/Users/Student/subject-5211103.csv","legacy","Lentiform Loewenfeld","3.3.7","yes","yes","600bd7cfb6416f0113b04181","602110864497cf011d9c0822","0","J","NA","return","return","return","space","J","509","NA","2381","25090","5125","9848","509","2","legacy","1024","2","48000","-16","task","5211103","odd","NA","41178","45561","43179","239988","2848","33065","27940","240489","143863","239987","240489","239938","45561","240999","39240","239438","2840","233524","Lexical Decision Task","89","83151","97","yes","1024"
"3.347850856","10.51","2","rich","word","91.83673469387755","91.83673469387755","853.9387755102041","853.9387755102041","black","no","legacy","legacy","legacy","0","uniform","1","undefined","undefined","undefined","1","j","0","0","0","0","97","0","0","0","97","0","93","97","93","0","93","3","97","0","97","Thu Feb 18 11:11:44 2021","The main experiment item","yes","Lexical_Decision_Task.osexp","C:/Users/Student","no","Andale Mono","no","18","no","white","no","yes","576","legacy","93","93","3","C:/Users/Student/subject-5211103.csv","legacy","Lentiform Loewenfeld","3.3.7","yes","yes","600bd7cfb6416f0113b04181","602110864497cf011d9c0822","0","J","NA","return","return","return","space","J","535","NA","2381","25090","5125","9848","535","2","legacy","1024","2","48000","-16","task","5211103","odd","NA","41178","45561","43179","241557","2848","33065","27940","242058","143863","241555","242058","241506","45561","242594","39240","241006","2840","233524","Lexical Decision Task","90","83686","98","yes","1024"
"3.031812271","6.52","3","gulp","word","90.9090909090909","90.9090909090909","850.9090909090909","850.9090909090909","black","no","legacy","legacy","legacy","0","uniform","0","undefined","undefined","undefined","0","j","0","0","0","0","98","0","0","0","98","0","94","98","94","0","94","3","98","0","98","Thu Feb 18 11:11:44 2021","The main experiment item","yes","Lexical_Decision_Task.osexp","C:/Users/Student","no","Andale Mono","no","18","no","white","no","yes","576","legacy","94","94","3","C:/Users/Student/subject-5211103.csv","legacy","Lentiform Loewenfeld","3.3.7","yes","yes","600bd7cfb6416f0113b04181","602110864497cf011d9c0822","0","F","NA","return","return","return","space","F","554","NA","2381","25090","5125","9848","554","2","legacy","1024","2","48000","-16","task","5211103","odd","NA","41178","45561","43179","243150","2848","33065","27940","243652","143863","243150","243652","243101","45561","244207","39240","242601","2840","233524","Lexical Decision Task","90","84240","99","yes","1024"
"3.372543801","9.24","8","coat","word","91","91","852.09","852.09","black","no","legacy","legacy","legacy","0","uniform","1","undefined","undefined","undefined","1","j","0","0","0","0","99","0","0","0","99","0","95","99","95","0","95","3","99","0","99","Thu Feb 18 11:11:44 2021","The main experiment item","yes","Lexical_Decision_Task.osexp","C:/Users/Student","no","Andale Mono","no","18","no","white","no","yes","576","legacy","95","95","3","C:/Users/Student/subject-5211103.csv","legacy","Lentiform Loewenfeld","3.3.7","yes","yes","600bd7cfb6416f0113b04181","602110864497cf011d9c0822","0","J","NA","return","return","return","space","J","969","NA","2381","25090","5125","9848","969","2","legacy","1024","2","48000","-16","task","5211103","odd","NA","41178","45561","43179","245771","2848","33065","27940","246272","143863","245770","246272","245715","45561","247242","39240","242601","2840","244215","Lexical Decision Task","91","85209","100","yes","1024"
"2.983324025","9.56","2","debt","word","91.08910891089108","91.08910891089108","848.5148514851485","848.5148514851485","black","no","legacy","legacy","legacy","0","uniform","1","undefined","undefined","undefined","1","j","0","0","0","0","100","0","0","0","100","0","96","100","96","0","96","3","100","0","100","Thu Feb 18 11:11:44 2021","The main experiment item","yes","Lexical_Decision_Task.osexp","C:/Users/Student","no","Andale Mono","no","18","no","white","no","yes","576","legacy","96","96","3","C:/Users/Student/subject-5211103.csv","legacy","Lentiform Loewenfeld","3.3.7","yes","yes","600bd7cfb6416f0113b04181","602110864497cf011d9c0822","0","J","NA","return","return","return","space","J","491","NA","2381","25090","5125","9848","491","2","legacy","1024","2","48000","-16","task","5211103","odd","NA","41178","45561","43179","247801","2848","33065","27940","248302","143863","247800","248302","247749","45561","248794","39240","247249","2840","244215","Lexical Decision Task","92","85700","101","yes","1024"
"2.819763221","0","2","durp","non-word","91.17647058823529","91.17647058823529","846.9215686274509","846.9215686274509","black","no","legacy","legacy","legacy","0","uniform","1","undefined","undefined","undefined","1","f","0","0","0","0","101","0","0","0","101","0","97","101","97","0","97","3","101","0","101","Thu Feb 18 11:11:44 2021","The main experiment item","yes","Lexical_Decision_Task.osexp","C:/Users/Student","no","Andale Mono","no","18","no","white","no","yes","576","legacy","97","97","3","C:/Users/Student/subject-5211103.csv","legacy","Lentiform Loewenfeld","3.3.7","yes","yes","600bd7cfb6416f0113b04181","602110864497cf011d9c0822","0","F","NA","return","return","return","space","F","686","NA","2381","25090","5125","9848","686","2","legacy","1024","2","48000","-16","task","5211103","odd","NA","41178","45561","43179","249351","2848","33065","27940","249852","143863","249350","249852","249301","45561","250539","39240","248801","2840","244215","Lexical Decision Task","93","86386","102","yes","1024"
