"Log_BG","Log_Freq_HAL","Ortho_N","Stimulus","Type","acc","accuracy","average_response_time","avg_rt","background","bidi","canvas_backend","clock_backend","color_backend","compensation","coordinates","correct","correct_Experimental_intro","correct_Introduction","correct_Practice_intro","correct_experimenter_kb","correct_response","count_End_Of_Experiment","count_End_Of_Practice","count_Experimental_Loop","count_Experimental_intro","count_Fixation","count_Introduction","count_Practice_Loop","count_Practice_intro","count_Stimulus","count_block_break_feedback","count_experimental_sequence","count_experimenter_kb","count_increment_trial_count","count_init_trial_count","count_logger","count_practice_sequence","count_right","count_task","count_wrong","datetime","description","disable_garbage_collection","experiment_file","experiment_path","font_bold","font_family","font_italic","font_size","font_underline","foreground","form_clicks","fullscreen","height","keyboard_backend","live_row","live_row_Experimental_Loop","live_row_Practice_Loop","logfile","mouse_backend","opensesame_codename","opensesame_version","osf_always_upload_data","osf_always_upload_experiment","osf_datanode_id","osf_id","repeat_cycle","response","response_End_Of_Experiment","response_Experimental_intro","response_Introduction","response_Practice_intro","response_block_break_feedback","response_experimenter_kb","response_time","response_time_End_Of_Experiment","response_time_Experimental_intro","response_time_Introduction","response_time_Practice_intro","response_time_block_break_feedback","response_time_experimenter_kb","round_decimals","sampler_backend","sound_buf_size","sound_channels","sound_freq","sound_sample_size","start","subject_nr","subject_parity","time_End_Of_Experiment","time_End_Of_Practice","time_Experimental_Loop","time_Experimental_intro","time_Fixation","time_Introduction","time_Practice_Loop","time_Practice_intro","time_Stimulus","time_block_break_feedback","time_experimental_sequence","time_experimenter_kb","time_increment_trial_count","time_init_trial_count","time_logger","time_practice_sequence","time_right","time_task","time_wrong","title","total_correct","total_response_time","total_responses","uniform_coordinates","width"
"3.22685757","9.99","7","roll","word","100","100","733.2","733.2","black","no","legacy","legacy","legacy","0","uniform","1","undefined","undefined","undefined","1","j","0","0","0","0","4","0","0","0","4","NA","0","4","0","0","0","3","4","0","4","Fri Feb 19 14:57:08 2021","The main experiment item","yes","Lexical_Decision_Task.osexp","/Users/anisperryn/Desktop","no","Andale Mono","no","18","no","white","no","yes","576","legacy","0","0","3","/Users/anisperryn/Desktop/subject-5213390.csv","legacy","Lentiform Loewenfeld","3.3.7","yes","yes","600bd7cfb6416f0113b04181","602110864497cf011d9c0822","0","j","NA","space","space","space","NA","j","657","NA","3631","14495","6481","NA","657","2","legacy","1024","2","48000","-16","task","5213390","even","NA","34810","40452","36819","40475","6495","27485","21003","40978","NA","40474","40979","NA","40452","41637","33193","34283","6447","NA","Lexical Decision Task","5","3666","5","yes","1024"
"3.100255637","0","6","brax","non-word","100","100","747","747","black","no","legacy","legacy","legacy","0","uniform","1","undefined","undefined","undefined","1","f","0","0","0","0","5","0","0","0","5","NA","1","5","1","0","1","3","5","0","5","Fri Feb 19 14:57:08 2021","The main experiment item","yes","Lexical_Decision_Task.osexp","/Users/anisperryn/Desktop","no","Andale Mono","no","18","no","white","no","yes","576","legacy","1","1","3","/Users/anisperryn/Desktop/subject-5213390.csv","legacy","Lentiform Loewenfeld","3.3.7","yes","yes","600bd7cfb6416f0113b04181","602110864497cf011d9c0822","0","f","NA","space","space","space","NA","f","816","NA","3631","14495","6481","NA","816","2","legacy","1024","2","48000","-16","task","5213390","even","NA","34810","40452","36819","42206","6495","27485","21003","42709","NA","42203","42709","42143","40452","43527","33193","41643","6447","NA","Lexical Decision Task","6","4482","6","yes","1024"
"3.311895072","0","9","gung","non-word","100","100","770.2857142857143","770.2857142857143","black","no","legacy","legacy","legacy","0","uniform","1","undefined","undefined","undefined","1","f","0","0","0","0","6","0","0","0","6","NA","2","6","2","0","2","3","6","0","6","Fri Feb 19 14:57:08 2021","The main experiment item","yes","Lexical_Decision_Task.osexp","/Users/anisperryn/Desktop","no","Andale Mono","no","18","no","white","no","yes","576","legacy","2","2","3","/Users/anisperryn/Desktop/subject-5213390.csv","legacy","Lentiform Loewenfeld","3.3.7","yes","yes","600bd7cfb6416f0113b04181","602110864497cf011d9c0822","0","f","NA","space","space","space","NA","f","910","NA","3631","14495","6481","NA","910","2","legacy","1024","2","48000","-16","task","5213390","even","NA","34810","40452","36819","44090","6495","27485","21003","44593","NA","44088","44593","44031","40452","45504","33193","43530","6447","NA","Lexical Decision Task","7","5392","7","yes","1024"
"3.372543801","9.24","8","coat","word","100","100","741","741","black","no","legacy","legacy","legacy","0","uniform","1","undefined","undefined","undefined","1","j","0","0","0","0","7","0","0","0","7","NA","3","7","3","0","3","3","7","0","7","Fri Feb 19 14:57:08 2021","The main experiment item","yes","Lexical_Decision_Task.osexp","/Users/anisperryn/Desktop","no","Andale Mono","no","18","no","white","no","yes","576","legacy","3","3","3","/Users/anisperryn/Desktop/subject-5213390.csv","legacy","Lentiform Loewenfeld","3.3.7","yes","yes","600bd7cfb6416f0113b04181","602110864497cf011d9c0822","0","j","NA","space","space","space","NA","j","536","NA","3631","14495","6481","NA","536","2","legacy","1024","2","48000","-16","task","5213390","even","NA","34810","40452","36819","46069","6495","27485","21003","46572","NA","46066","46572","46008","40452","47110","33193","45508","6447","NA","Lexical Decision Task","8","5928","8","yes","1024"
"3.105055783","0","2","norp","non-word","100","100","730.2222222222222","730.2222222222222","black","no","legacy","legacy","legacy","0","uniform","1","undefined","undefined","undefined","1","f","0","0","0","0","8","0","0","0","8","NA","4","8","4","0","4","3","8","0","8","Fri Feb 19 14:57:08 2021","The main experiment item","yes","Lexical_Decision_Task.osexp","/Users/anisperryn/Desktop","no","Andale Mono","no","18","no","white","no","yes","576","legacy","4","4","3","/Users/anisperryn/Desktop/subject-5213390.csv","legacy","Lentiform Loewenfeld","3.3.7","yes","yes","600bd7cfb6416f0113b04181","602110864497cf011d9c0822","0","f","NA","space","space","space","NA","f","644","NA","3631","14495","6481","NA","644","2","legacy","1024","2","48000","-16","task","5213390","even","NA","34810","40452","36819","47673","6495","27485","21003","48176","NA","47670","48176","47613","40452","48821","33193","47113","6447","NA","Lexical Decision Task","9","6572","9","yes","1024"
"2.703007489","8.37","3","pulp","word","100","100","725.1","725.1","black","no","legacy","legacy","legacy","0","uniform","1","undefined","undefined","undefined","1","j","0","0","0","0","9","0","0","0","9","NA","5","9","5","0","5","3","9","0","9","Fri Feb 19 14:57:08 2021","The main experiment item","yes","Lexical_Decision_Task.osexp","/Users/anisperryn/Desktop","no","Andale Mono","no","18","no","white","no","yes","576","legacy","5","5","3","/Users/anisperryn/Desktop/subject-5213390.csv","legacy","Lentiform Loewenfeld","3.3.7","yes","yes","600bd7cfb6416f0113b04181","602110864497cf011d9c0822","0","j","NA","space","space","space","NA","j","679","NA","3631","14495","6481","NA","679","2","legacy","1024","2","48000","-16","task","5213390","even","NA","34810","40452","36819","49386","6495","27485","21003","49889","NA","49383","49889","49325","40452","50569","33193","48825","6447","NA","Lexical Decision Task","10","7251","10","yes","1024"
"3.303771854","0","9","dath","non-word","100","100","716.7272727272727","716.7272727272727","black","no","legacy","legacy","legacy","0","uniform","1","undefined","undefined","undefined","1","f","0","0","0","0","10","0","0","0","10","NA","6","10","6","0","6","3","10","0","10","Fri Feb 19 14:57:08 2021","The main experiment item","yes","Lexical_Decision_Task.osexp","/Users/anisperryn/Desktop","no","Andale Mono","no","18","no","white","no","yes","576","legacy","6","6","3","/Users/anisperryn/Desktop/subject-5213390.csv","legacy","Lentiform Loewenfeld","3.3.7","yes","yes","600bd7cfb6416f0113b04181","602110864497cf011d9c0822","0","f","NA","space","space","space","NA","f","633","NA","3631","14495","6481","NA","633","2","legacy","1024","2","48000","-16","task","5213390","even","NA","34810","40452","36819","51135","6495","27485","21003","51638","NA","51133","51638","51076","40452","52272","33193","50576","6447","NA","Lexical Decision Task","11","7884","11","yes","1024"
"3.397302518","7.01","2","knit","word","100","100","702.9166666666666","702.9166666666666","black","no","legacy","legacy","legacy","0","uniform","1","undefined","undefined","undefined","1","j","0","0","0","0","11","0","0","0","11","NA","7","11","7","0","7","3","11","0","11","Fri Feb 19 14:57:08 2021","The main experiment item","yes","Lexical_Decision_Task.osexp","/Users/anisperryn/Desktop","no","Andale Mono","no","18","no","white","no","yes","576","legacy","7","7","3","/Users/anisperryn/Desktop/subject-5213390.csv","legacy","Lentiform Loewenfeld","3.3.7","yes","yes","600bd7cfb6416f0113b04181","602110864497cf011d9c0822","0","j","NA","space","space","space","NA","j","551","NA","3631","14495","6481","NA","551","2","legacy","1024","2","48000","-16","task","5213390","even","NA","34810","40452","36819","52835","6495","27485","21003","53337","NA","52832","53337","52776","40452","53889","33193","52276","6447","NA","Lexical Decision Task","12","8435","12","yes","1024"
"2.809559715","8.44","4","volt","word","100","100","695.1538461538462","695.1538461538462","black","no","legacy","legacy","legacy","0","uniform","1","undefined","undefined","undefined","1","j","0","0","0","0","12","0","0","0","12","NA","8","12","8","0","8","3","12","0","12","Fri Feb 19 14:57:08 2021","The main experiment item","yes","Lexical_Decision_Task.osexp","/Users/anisperryn/Desktop","no","Andale Mono","no","18","no","white","no","yes","576","legacy","8","8","3","/Users/anisperryn/Desktop/subject-5213390.csv","legacy","Lentiform Loewenfeld","3.3.7","yes","yes","600bd7cfb6416f0113b04181","602110864497cf011d9c0822","0","j","NA","space","space","space","NA","j","602","NA","3631","14495","6481","NA","602","2","legacy","1024","2","48000","-16","task","5213390","even","NA","34810","40452","36819","54439","6495","27485","21003","54941","NA","54437","54941","54393","40452","55544","33193","53893","6447","NA","Lexical Decision Task","13","9037","13","yes","1024"
"2.664011697","8.19","4","hawk","word","100","100","698.4285714285714","698.4285714285714","black","no","legacy","legacy","legacy","0","uniform","1","undefined","undefined","undefined","1","j","0","0","0","0","13","0","0","0","13","NA","9","13","9","0","9","3","13","0","13","Fri Feb 19 14:57:08 2021","The main experiment item","yes","Lexical_Decision_Task.osexp","/Users/anisperryn/Desktop","no","Andale Mono","no","18","no","white","no","yes","576","legacy","9","9","3","/Users/anisperryn/Desktop/subject-5213390.csv","legacy","Lentiform Loewenfeld","3.3.7","yes","yes","600bd7cfb6416f0113b04181","602110864497cf011d9c0822","0","j","NA","space","space","space","NA","j","741","NA","3631","14495","6481","NA","741","2","legacy","1024","2","48000","-16","task","5213390","even","NA","34810","40452","36819","56104","6495","27485","21003","56607","NA","56102","56607","56047","40452","57349","33193","55547","6447","NA","Lexical Decision Task","14","9778","14","yes","1024"
"2.920123326","7.43","4","duel","word","100","100","692.2666666666667","692.2666666666667","black","no","legacy","legacy","legacy","0","uniform","1","undefined","undefined","undefined","1","j","0","0","0","0","14","0","0","0","14","NA","10","14","10","0","10","3","14","0","14","Fri Feb 19 14:57:08 2021","The main experiment item","yes","Lexical_Decision_Task.osexp","/Users/anisperryn/Desktop","no","Andale Mono","no","18","no","white","no","yes","576","legacy","10","10","3","/Users/anisperryn/Desktop/subject-5213390.csv","legacy","Lentiform Loewenfeld","3.3.7","yes","yes","600bd7cfb6416f0113b04181","602110864497cf011d9c0822","0","j","NA","space","space","space","NA","j","606","NA","3631","14495","6481","NA","606","2","legacy","1024","2","48000","-16","task","5213390","even","NA","34810","40452","36819","57900","6495","27485","21003","58402","NA","57897","58403","57853","40452","59010","33193","57353","6447","NA","Lexical Decision Task","15","10384","15","yes","1024"
"3.1430148","7.92","8","bald","word","100","100","699.625","699.625","black","no","legacy","legacy","legacy","0","uniform","1","undefined","undefined","undefined","1","j","0","0","0","0","15","0","0","0","15","NA","11","15","11","0","11","3","15","0","15","Fri Feb 19 14:57:08 2021","The main experiment item","yes","Lexical_Decision_Task.osexp","/Users/anisperryn/Desktop","no","Andale Mono","no","18","no","white","no","yes","576","legacy","11","11","3","/Users/anisperryn/Desktop/subject-5213390.csv","legacy","Lentiform Loewenfeld","3.3.7","yes","yes","600bd7cfb6416f0113b04181","602110864497cf011d9c0822","0","j","NA","space","space","space","NA","j","810","NA","3631","14495","6481","NA","810","2","legacy","1024","2","48000","-16","task","5213390","even","NA","34810","40452","36819","59574","6495","27485","21003","60077","NA","59571","60077","59513","40452","60888","33193","59013","6447","NA","Lexical Decision Task","16","11194","16","yes","1024"
"3.347850856","10.51","2","rich","word","100","100","694","694","black","no","legacy","legacy","legacy","0","uniform","1","undefined","undefined","undefined","1","j","0","0","0","0","16","0","0","0","16","NA","12","16","12","0","12","3","16","0","16","Fri Feb 19 14:57:08 2021","The main experiment item","yes","Lexical_Decision_Task.osexp","/Users/anisperryn/Desktop","no","Andale Mono","no","18","no","white","no","yes","576","legacy","12","12","3","/Users/anisperryn/Desktop/subject-5213390.csv","legacy","Lentiform Loewenfeld","3.3.7","yes","yes","600bd7cfb6416f0113b04181","602110864497cf011d9c0822","0","j","NA","space","space","space","NA","j","604","NA","3631","14495","6481","NA","604","2","legacy","1024","2","48000","-16","task","5213390","even","NA","34810","40452","36819","61450","6495","27485","21003","61955","NA","61448","61955","61391","40452","62560","33193","60891","6447","NA","Lexical Decision Task","17","11798","17","yes","1024"
"2.705007959","6.01","4","wept","word","100","100","688.4444444444445","688.4444444444445","black","no","legacy","legacy","legacy","0","uniform","1","undefined","undefined","undefined","1","j","0","0","0","0","17","0","0","0","17","NA","13","17","13","0","13","3","17","0","17","Fri Feb 19 14:57:08 2021","The main experiment item","yes","Lexical_Decision_Task.osexp","/Users/anisperryn/Desktop","no","Andale Mono","no","18","no","white","no","yes","576","legacy","13","13","3","/Users/anisperryn/Desktop/subject-5213390.csv","legacy","Lentiform Loewenfeld","3.3.7","yes","yes","600bd7cfb6416f0113b04181","602110864497cf011d9c0822","0","j","NA","space","space","space","NA","j","594","NA","3631","14495","6481","NA","594","2","legacy","1024","2","48000","-16","task","5213390","even","NA","34810","40452","36819","63123","6495","27485","21003","63627","NA","63120","63627","63064","40452","64223","33193","62564","6447","NA","Lexical Decision Task","18","12392","18","yes","1024"
"3.282244367","0","6","fute","non-word","100","100","691.9473684210526","691.9473684210526","black","no","legacy","legacy","legacy","0","uniform","1","undefined","undefined","undefined","1","f","0","0","0","0","18","0","0","0","18","NA","14","18","14","0","14","3","18","0","18","Fri Feb 19 14:57:08 2021","The main experiment item","yes","Lexical_Decision_Task.osexp","/Users/anisperryn/Desktop","no","Andale Mono","no","18","no","white","no","yes","576","legacy","14","14","3","/Users/anisperryn/Desktop/subject-5213390.csv","legacy","Lentiform Loewenfeld","3.3.7","yes","yes","600bd7cfb6416f0113b04181","602110864497cf011d9c0822","0","f","NA","space","space","space","NA","f","755","NA","3631","14495","6481","NA","755","2","legacy","1024","2","48000","-16","task","5213390","even","NA","34810","40452","36819","64786","6495","27485","21003","65289","NA","64783","65289","64726","40452","66046","33193","64226","6447","NA","Lexical Decision Task","19","13147","19","yes","1024"
"3.431095062","5.74","9","perk","word","100","100","690.05","690.05","black","no","legacy","legacy","legacy","0","uniform","1","undefined","undefined","undefined","1","j","0","0","0","0","19","0","0","0","19","NA","15","19","15","0","15","3","19","0","19","Fri Feb 19 14:57:08 2021","The main experiment item","yes","Lexical_Decision_Task.osexp","/Users/anisperryn/Desktop","no","Andale Mono","no","18","no","white","no","yes","576","legacy","15","15","3","/Users/anisperryn/Desktop/subject-5213390.csv","legacy","Lentiform Loewenfeld","3.3.7","yes","yes","600bd7cfb6416f0113b04181","602110864497cf011d9c0822","0","j","NA","space","space","space","NA","j","654","NA","3631","14495","6481","NA","654","2","legacy","1024","2","48000","-16","task","5213390","even","NA","34810","40452","36819","66609","6495","27485","21003","67112","NA","66606","67112","66549","40452","67768","33193","66049","6447","NA","Lexical Decision Task","20","13801","20","yes","1024"
"3.133964479","0","8","graw","non-word","100","100","687.2857142857143","687.2857142857143","black","no","legacy","legacy","legacy","0","uniform","1","undefined","undefined","undefined","1","f","0","0","0","0","20","0","0","0","20","NA","16","20","16","0","16","3","20","0","20","Fri Feb 19 14:57:08 2021","The main experiment item","yes","Lexical_Decision_Task.osexp","/Users/anisperryn/Desktop","no","Andale Mono","no","18","no","white","no","yes","576","legacy","16","16","3","/Users/anisperryn/Desktop/subject-5213390.csv","legacy","Lentiform Loewenfeld","3.3.7","yes","yes","600bd7cfb6416f0113b04181","602110864497cf011d9c0822","0","f","NA","space","space","space","NA","f","632","NA","3631","14495","6481","NA","632","2","legacy","1024","2","48000","-16","task","5213390","even","NA","34810","40452","36819","68331","6495","27485","21003","68835","NA","68329","68835","68271","40452","69468","33193","67771","6447","NA","Lexical Decision Task","21","14433","21","yes","1024"
"2.838639236","0","4","furg","non-word","100","100","682.6818181818181","682.6818181818181","black","no","legacy","legacy","legacy","0","uniform","1","undefined","undefined","undefined","1","f","0","0","0","0","21","0","0","0","21","NA","17","21","17","0","17","3","21","0","21","Fri Feb 19 14:57:08 2021","The main experiment item","yes","Lexical_Decision_Task.osexp","/Users/anisperryn/Desktop","no","Andale Mono","no","18","no","white","no","yes","576","legacy","17","17","3","/Users/anisperryn/Desktop/subject-5213390.csv","legacy","Lentiform Loewenfeld","3.3.7","yes","yes","600bd7cfb6416f0113b04181","602110864497cf011d9c0822","0","f","NA","space","space","space","NA","f","586","NA","3631","14495","6481","NA","586","2","legacy","1024","2","48000","-16","task","5213390","even","NA","34810","40452","36819","70032","6495","27485","21003","70535","NA","70029","70535","69972","40452","71122","33193","69472","6447","NA","Lexical Decision Task","22","15019","22","yes","1024"
"3.208978517","10.33","4","fish","word","100","100","679.9565217391304","679.9565217391304","black","no","legacy","legacy","legacy","0","uniform","1","undefined","undefined","undefined","1","j","0","0","0","0","22","0","0","0","22","NA","18","22","18","0","18","3","22","0","22","Fri Feb 19 14:57:08 2021","The main experiment item","yes","Lexical_Decision_Task.osexp","/Users/anisperryn/Desktop","no","Andale Mono","no","18","no","white","no","yes","576","legacy","18","18","3","/Users/anisperryn/Desktop/subject-5213390.csv","legacy","Lentiform Loewenfeld","3.3.7","yes","yes","600bd7cfb6416f0113b04181","602110864497cf011d9c0822","0","j","NA","space","space","space","NA","j","620","NA","3631","14495","6481","NA","620","2","legacy","1024","2","48000","-16","task","5213390","even","NA","34810","40452","36819","71685","6495","27485","21003","72188","NA","71683","72188","71626","40452","72810","33193","71126","6447","NA","Lexical Decision Task","23","15639","23","yes","1024"
"2.755364069","7.72","2","hoax","word","100","100","676.8333333333334","676.8333333333334","black","no","legacy","legacy","legacy","0","uniform","1","undefined","undefined","undefined","1","j","0","0","0","0","23","0","0","0","23","NA","19","23","19","0","19","3","23","0","23","Fri Feb 19 14:57:08 2021","The main experiment item","yes","Lexical_Decision_Task.osexp","/Users/anisperryn/Desktop","no","Andale Mono","no","18","no","white","no","yes","576","legacy","19","19","3","/Users/anisperryn/Desktop/subject-5213390.csv","legacy","Lentiform Loewenfeld","3.3.7","yes","yes","600bd7cfb6416f0113b04181","602110864497cf011d9c0822","0","j","NA","space","space","space","NA","j","605","NA","3631","14495","6481","NA","605","2","legacy","1024","2","48000","-16","task","5213390","even","NA","34810","40452","36819","73372","6495","27485","21003","73875","NA","73369","73875","73313","40452","74481","33193","72813","6447","NA","Lexical Decision Task","24","16244","24","yes","1024"
"2.966923697","5.4","2","fume","word","100","100","672.84","672.84","black","no","legacy","legacy","legacy","0","uniform","1","undefined","undefined","undefined","1","j","0","0","0","0","24","0","0","0","24","NA","20","24","20","0","20","3","24","0","24","Fri Feb 19 14:57:08 2021","The main experiment item","yes","Lexical_Decision_Task.osexp","/Users/anisperryn/Desktop","no","Andale Mono","no","18","no","white","no","yes","576","legacy","20","20","3","/Users/anisperryn/Desktop/subject-5213390.csv","legacy","Lentiform Loewenfeld","3.3.7","yes","yes","600bd7cfb6416f0113b04181","602110864497cf011d9c0822","0","j","NA","space","space","space","NA","j","577","NA","3631","14495","6481","NA","577","2","legacy","1024","2","48000","-16","task","5213390","even","NA","34810","40452","36819","75045","6495","27485","21003","75548","NA","75042","75548","74985","40452","76126","33193","74485","6447","NA","Lexical Decision Task","25","16821","25","yes","1024"
"2.845304797","0","6","buct","non-word","100","100","664.6153846153846","664.6153846153846","black","no","legacy","legacy","legacy","0","uniform","1","undefined","undefined","undefined","1","f","0","0","0","0","25","0","0","0","25","NA","21","25","21","0","21","3","25","0","25","Fri Feb 19 14:57:08 2021","The main experiment item","yes","Lexical_Decision_Task.osexp","/Users/anisperryn/Desktop","no","Andale Mono","no","18","no","white","no","yes","576","legacy","21","21","3","/Users/anisperryn/Desktop/subject-5213390.csv","legacy","Lentiform Loewenfeld","3.3.7","yes","yes","600bd7cfb6416f0113b04181","602110864497cf011d9c0822","0","f","NA","space","space","space","NA","f","459","NA","3631","14495","6481","NA","459","2","legacy","1024","2","48000","-16","task","5213390","even","NA","34810","40452","36819","76690","6495","27485","21003","77193","NA","76688","77193","76630","40452","77653","33193","76130","6447","NA","Lexical Decision Task","26","17280","26","yes","1024"
"3.261341392","5.08","8","reek","word","96.29629629629629","96.29629629629629","659.0370370370371","659.0370370370371","black","no","legacy","legacy","legacy","0","uniform","0","undefined","undefined","undefined","0","j","0","0","0","0","26","0","0","0","26","NA","22","26","22","0","22","3","26","0","26","Fri Feb 19 14:57:08 2021","The main experiment item","yes","Lexical_Decision_Task.osexp","/Users/anisperryn/Desktop","no","Andale Mono","no","18","no","white","no","yes","576","legacy","22","22","3","/Users/anisperryn/Desktop/subject-5213390.csv","legacy","Lentiform Loewenfeld","3.3.7","yes","yes","600bd7cfb6416f0113b04181","602110864497cf011d9c0822","0","f","NA","space","space","space","NA","f","514","NA","3631","14495","6481","NA","514","2","legacy","1024","2","48000","-16","task","5213390","even","NA","34810","40452","36819","78216","6495","27485","21003","78720","NA","78214","78720","78157","40452","79235","33193","77657","6447","NA","Lexical Decision Task","26","17794","27","yes","1024"
"2.899638141","0","3","hapt","non-word","96.42857142857143","96.42857142857143","660.25","660.25","black","no","legacy","legacy","legacy","0","uniform","1","undefined","undefined","undefined","1","f","0","0","0","0","27","0","0","0","27","NA","23","27","23","0","23","3","27","0","27","Fri Feb 19 14:57:08 2021","The main experiment item","yes","Lexical_Decision_Task.osexp","/Users/anisperryn/Desktop","no","Andale Mono","no","18","no","white","no","yes","576","legacy","23","23","3","/Users/anisperryn/Desktop/subject-5213390.csv","legacy","Lentiform Loewenfeld","3.3.7","yes","yes","600bd7cfb6416f0113b04181","602110864497cf011d9c0822","0","f","NA","space","space","space","NA","f","693","NA","3631","14495","6481","NA","693","2","legacy","1024","2","48000","-16","task","5213390","even","NA","34810","40452","36819","80803","6495","27485","21003","81306","NA","80800","81306","80739","40452","82001","33193","77657","6447","79239","Lexical Decision Task","27","18487","28","yes","1024"
"2.895974732","6.65","5","sift","word","96.55172413793103","96.55172413793103","661.3793103448276","661.3793103448276","black","no","legacy","legacy","legacy","0","uniform","1","undefined","undefined","undefined","1","j","0","0","0","0","28","0","0","0","28","NA","24","28","24","0","24","3","28","0","28","Fri Feb 19 14:57:08 2021","The main experiment item","yes","Lexical_Decision_Task.osexp","/Users/anisperryn/Desktop","no","Andale Mono","no","18","no","white","no","yes","576","legacy","24","24","3","/Users/anisperryn/Desktop/subject-5213390.csv","legacy","Lentiform Loewenfeld","3.3.7","yes","yes","600bd7cfb6416f0113b04181","602110864497cf011d9c0822","0","j","NA","space","space","space","NA","j","693","NA","3631","14495","6481","NA","693","2","legacy","1024","2","48000","-16","task","5213390","even","NA","34810","40452","36819","82565","6495","27485","21003","83068","NA","82563","83068","82506","40452","83763","33193","82006","6447","79239","Lexical Decision Task","28","19180","29","yes","1024"
"2.778633532","0","3","jurp","non-word","96.66666666666667","96.66666666666667","659.4333333333333","659.4333333333333","black","no","legacy","legacy","legacy","0","uniform","1","undefined","undefined","undefined","1","f","0","0","0","0","29","0","0","0","29","NA","25","29","25","0","25","3","29","0","29","Fri Feb 19 14:57:08 2021","The main experiment item","yes","Lexical_Decision_Task.osexp","/Users/anisperryn/Desktop","no","Andale Mono","no","18","no","white","no","yes","576","legacy","25","25","3","/Users/anisperryn/Desktop/subject-5213390.csv","legacy","Lentiform Loewenfeld","3.3.7","yes","yes","600bd7cfb6416f0113b04181","602110864497cf011d9c0822","0","f","NA","space","space","space","NA","f","603","NA","3631","14495","6481","NA","603","2","legacy","1024","2","48000","-16","task","5213390","even","NA","34810","40452","36819","84329","6495","27485","21003","84832","NA","84327","84832","84266","40452","85436","33193","83766","6447","79239","Lexical Decision Task","29","19783","30","yes","1024"
"2.813801082","5.47","7","nook","word","93.54838709677419","93.54838709677419","660.1290322580645","660.1290322580645","black","no","legacy","legacy","legacy","0","uniform","0","undefined","undefined","undefined","0","j","0","0","0","0","30","0","0","0","30","NA","26","30","26","0","26","3","30","0","30","Fri Feb 19 14:57:08 2021","The main experiment item","yes","Lexical_Decision_Task.osexp","/Users/anisperryn/Desktop","no","Andale Mono","no","18","no","white","no","yes","576","legacy","26","26","3","/Users/anisperryn/Desktop/subject-5213390.csv","legacy","Lentiform Loewenfeld","3.3.7","yes","yes","600bd7cfb6416f0113b04181","602110864497cf011d9c0822","0","f","NA","space","space","space","NA","f","681","NA","3631","14495","6481","NA","681","2","legacy","1024","2","48000","-16","task","5213390","even","NA","34810","40452","36819","86002","6495","27485","21003","86505","NA","85999","86505","85940","40452","87187","33193","85440","6447","79239","Lexical Decision Task","29","20464","31","yes","1024"
"3.384413096","10.15","3","glad","word","93.75","93.75","661.28125","661.28125","black","no","legacy","legacy","legacy","0","uniform","1","undefined","undefined","undefined","1","j","0","0","0","0","31","0","0","0","31","NA","27","31","27","0","27","3","31","0","31","Fri Feb 19 14:57:08 2021","The main experiment item","yes","Lexical_Decision_Task.osexp","/Users/anisperryn/Desktop","no","Andale Mono","no","18","no","white","no","yes","576","legacy","27","27","3","/Users/anisperryn/Desktop/subject-5213390.csv","legacy","Lentiform Loewenfeld","3.3.7","yes","yes","600bd7cfb6416f0113b04181","602110864497cf011d9c0822","0","j","NA","space","space","space","NA","j","697","NA","3631","14495","6481","NA","697","2","legacy","1024","2","48000","-16","task","5213390","even","NA","34810","40452","36819","88756","6495","27485","21003","89259","NA","88753","89259","88691","40452","89957","33193","85440","6447","87191","Lexical Decision Task","30","21161","32","yes","1024"
"3.137775856","7.39","5","comb","word","93.93939393939394","93.93939393939394","658.3939393939394","658.3939393939394","black","no","legacy","legacy","legacy","0","uniform","1","undefined","undefined","undefined","1","j","0","0","0","0","32","0","0","0","32","NA","28","32","28","0","28","3","32","0","32","Fri Feb 19 14:57:08 2021","The main experiment item","yes","Lexical_Decision_Task.osexp","/Users/anisperryn/Desktop","no","Andale Mono","no","18","no","white","no","yes","576","legacy","28","28","3","/Users/anisperryn/Desktop/subject-5213390.csv","legacy","Lentiform Loewenfeld","3.3.7","yes","yes","600bd7cfb6416f0113b04181","602110864497cf011d9c0822","0","j","NA","space","space","space","NA","j","566","NA","3631","14495","6481","NA","566","2","legacy","1024","2","48000","-16","task","5213390","even","NA","34810","40452","36819","90522","6495","27485","21003","91025","NA","90519","91025","90462","40452","91592","33193","89962","6447","87191","Lexical Decision Task","31","21727","33","yes","1024"
"2.9737419","7.69","7","claw","word","94.11764705882354","94.11764705882354","657.6176470588235","657.6176470588235","black","no","legacy","legacy","legacy","0","uniform","1","undefined","undefined","undefined","1","j","0","0","0","0","33","0","0","0","33","NA","29","33","29","0","29","3","33","0","33","Fri Feb 19 14:57:08 2021","The main experiment item","yes","Lexical_Decision_Task.osexp","/Users/anisperryn/Desktop","no","Andale Mono","no","18","no","white","no","yes","576","legacy","29","29","3","/Users/anisperryn/Desktop/subject-5213390.csv","legacy","Lentiform Loewenfeld","3.3.7","yes","yes","600bd7cfb6416f0113b04181","602110864497cf011d9c0822","0","j","NA","space","space","space","NA","j","632","NA","3631","14495","6481","NA","632","2","legacy","1024","2","48000","-16","task","5213390","even","NA","34810","40452","36819","92155","6495","27485","21003","92659","NA","92153","92659","92096","40452","93292","33193","91596","6447","87191","Lexical Decision Task","32","22359","34","yes","1024"
"2.782472624","10.55","2","huge","word","94.28571428571429","94.28571428571429","653.8571428571429","653.8571428571429","black","no","legacy","legacy","legacy","0","uniform","1","undefined","undefined","undefined","1","j","0","0","0","0","34","0","0","0","34","NA","30","34","30","0","30","3","34","0","34","Fri Feb 19 14:57:08 2021","The main experiment item","yes","Lexical_Decision_Task.osexp","/Users/anisperryn/Desktop","no","Andale Mono","no","18","no","white","no","yes","576","legacy","30","30","3","/Users/anisperryn/Desktop/subject-5213390.csv","legacy","Lentiform Loewenfeld","3.3.7","yes","yes","600bd7cfb6416f0113b04181","602110864497cf011d9c0822","0","j","NA","space","space","space","NA","j","526","NA","3631","14495","6481","NA","526","2","legacy","1024","2","48000","-16","task","5213390","even","NA","34810","40452","36819","93854","6495","27485","21003","94358","NA","93851","94358","93795","40452","94885","33193","93295","6447","87191","Lexical Decision Task","33","22885","35","yes","1024"
"2.668385917","5.48","4","twig","word","94.44444444444444","94.44444444444444","650.6388888888889","650.6388888888889","black","no","legacy","legacy","legacy","0","uniform","1","undefined","undefined","undefined","1","j","0","0","0","0","35","0","0","0","35","NA","31","35","31","0","31","3","35","0","35","Fri Feb 19 14:57:08 2021","The main experiment item","yes","Lexical_Decision_Task.osexp","/Users/anisperryn/Desktop","no","Andale Mono","no","18","no","white","no","yes","576","legacy","31","31","3","/Users/anisperryn/Desktop/subject-5213390.csv","legacy","Lentiform Loewenfeld","3.3.7","yes","yes","600bd7cfb6416f0113b04181","602110864497cf011d9c0822","0","j","NA","space","space","space","NA","j","538","NA","3631","14495","6481","NA","538","2","legacy","1024","2","48000","-16","task","5213390","even","NA","34810","40452","36819","95447","6495","27485","21003","95950","NA","95445","95950","95389","40452","96489","33193","94889","6447","87191","Lexical Decision Task","34","23423","36","yes","1024"
"2.709837904","6.85","8","skim","word","94.5945945945946","94.5945945945946","648.9459459459459","648.9459459459459","black","no","legacy","legacy","legacy","0","uniform","1","undefined","undefined","undefined","1","j","0","0","0","0","36","0","0","0","36","NA","32","36","32","0","32","3","36","0","36","Fri Feb 19 14:57:08 2021","The main experiment item","yes","Lexical_Decision_Task.osexp","/Users/anisperryn/Desktop","no","Andale Mono","no","18","no","white","no","yes","576","legacy","32","32","3","/Users/anisperryn/Desktop/subject-5213390.csv","legacy","Lentiform Loewenfeld","3.3.7","yes","yes","600bd7cfb6416f0113b04181","602110864497cf011d9c0822","0","j","NA","space","space","space","NA","j","588","NA","3631","14495","6481","NA","588","2","legacy","1024","2","48000","-16","task","5213390","even","NA","34810","40452","36819","97053","6495","27485","21003","97556","NA","97050","97556","96993","40452","98145","33193","96493","6447","87191","Lexical Decision Task","35","24011","37","yes","1024"
"3.460446784","0","5","dess","non-word","94.73684210526316","94.73684210526316","648.8421052631579","648.8421052631579","black","no","legacy","legacy","legacy","0","uniform","1","undefined","undefined","undefined","1","f","0","0","0","0","37","0","0","0","37","NA","33","37","33","0","33","3","37","0","37","Fri Feb 19 14:57:08 2021","The main experiment item","yes","Lexical_Decision_Task.osexp","/Users/anisperryn/Desktop","no","Andale Mono","no","18","no","white","no","yes","576","legacy","33","33","3","/Users/anisperryn/Desktop/subject-5213390.csv","legacy","Lentiform Loewenfeld","3.3.7","yes","yes","600bd7cfb6416f0113b04181","602110864497cf011d9c0822","0","f","NA","space","space","space","NA","f","645","NA","3631","14495","6481","NA","645","2","legacy","1024","2","48000","-16","task","5213390","even","NA","34810","40452","36819","98707","6495","27485","21003","99211","NA","98705","99211","98648","40452","99857","33193","98148","6447","87191","Lexical Decision Task","36","24656","38","yes","1024"
"3.067070856","9.39","3","loud","word","94.87179487179488","94.87179487179488","646.974358974359","646.974358974359","black","no","legacy","legacy","legacy","0","uniform","1","undefined","undefined","undefined","1","j","0","0","0","0","38","0","0","0","38","NA","34","38","34","0","34","3","38","0","38","Fri Feb 19 14:57:08 2021","The main experiment item","yes","Lexical_Decision_Task.osexp","/Users/anisperryn/Desktop","no","Andale Mono","no","18","no","white","no","yes","576","legacy","34","34","3","/Users/anisperryn/Desktop/subject-5213390.csv","legacy","Lentiform Loewenfeld","3.3.7","yes","yes","600bd7cfb6416f0113b04181","602110864497cf011d9c0822","0","j","NA","space","space","space","NA","j","576","NA","3631","14495","6481","NA","576","2","legacy","1024","2","48000","-16","task","5213390","even","NA","34810","40452","36819","100420","6495","27485","21003","100923","NA","100418","100923","100361","40452","101501","33193","99861","6447","87191","Lexical Decision Task","37","25232","39","yes","1024"
"3.081107167","0","6","chot","non-word","95","95","649.625","649.625","black","no","legacy","legacy","legacy","0","uniform","1","undefined","undefined","undefined","1","f","0","0","0","0","39","0","0","0","39","NA","35","39","35","0","35","3","39","0","39","Fri Feb 19 14:57:08 2021","The main experiment item","yes","Lexical_Decision_Task.osexp","/Users/anisperryn/Desktop","no","Andale Mono","no","18","no","white","no","yes","576","legacy","35","35","3","/Users/anisperryn/Desktop/subject-5213390.csv","legacy","Lentiform Loewenfeld","3.3.7","yes","yes","600bd7cfb6416f0113b04181","602110864497cf011d9c0822","0","f","NA","space","space","space","NA","f","753","NA","3631","14495","6481","NA","753","2","legacy","1024","2","48000","-16","task","5213390","even","NA","34810","40452","36819","102064","6495","27485","21003","102567","NA","102062","102567","102005","40452","103321","33193","101505","6447","87191","Lexical Decision Task","38","25985","40","yes","1024"
"3.274157849","0","8","leet","non-word","92.6829268292683","92.6829268292683","653.5121951219512","653.5121951219512","black","no","legacy","legacy","legacy","0","uniform","0","undefined","undefined","undefined","0","f","0","0","0","0","40","0","0","0","40","NA","36","40","36","0","36","3","40","0","40","Fri Feb 19 14:57:08 2021","The main experiment item","yes","Lexical_Decision_Task.osexp","/Users/anisperryn/Desktop","no","Andale Mono","no","18","no","white","no","yes","576","legacy","36","36","3","/Users/anisperryn/Desktop/subject-5213390.csv","legacy","Lentiform Loewenfeld","3.3.7","yes","yes","600bd7cfb6416f0113b04181","602110864497cf011d9c0822","0","j","NA","space","space","space","NA","j","809","NA","3631","14495","6481","NA","809","2","legacy","1024","2","48000","-16","task","5213390","even","NA","34810","40452","36819","103886","6495","27485","21003","104389","NA","103883","104389","103825","40452","105199","33193","103325","6447","87191","Lexical Decision Task","38","26794","41","yes","1024"
"3.15462682","0","6","noal","non-word","92.85714285714286","92.85714285714286","660.9761904761905","660.9761904761905","black","no","legacy","legacy","legacy","0","uniform","1","undefined","undefined","undefined","1","f","0","0","0","0","41","0","0","0","41","NA","37","41","37","0","37","3","41","0","41","Fri Feb 19 14:57:08 2021","The main experiment item","yes","Lexical_Decision_Task.osexp","/Users/anisperryn/Desktop","no","Andale Mono","no","18","no","white","no","yes","576","legacy","37","37","3","/Users/anisperryn/Desktop/subject-5213390.csv","legacy","Lentiform Loewenfeld","3.3.7","yes","yes","600bd7cfb6416f0113b04181","602110864497cf011d9c0822","0","f","NA","space","space","space","NA","f","967","NA","3631","14495","6481","NA","967","2","legacy","1024","2","48000","-16","task","5213390","even","NA","34810","40452","36819","106765","6495","27485","21003","107268","NA","106762","107268","106702","40452","108237","33193","103325","6447","105202","Lexical Decision Task","39","27761","42","yes","1024"
"2.924968096","0","4","phim","non-word","93.02325581395348","93.02325581395348","660.4418604651163","660.4418604651163","black","no","legacy","legacy","legacy","0","uniform","1","undefined","undefined","undefined","1","f","0","0","0","0","42","0","0","0","42","NA","38","42","38","0","38","3","42","0","42","Fri Feb 19 14:57:08 2021","The main experiment item","yes","Lexical_Decision_Task.osexp","/Users/anisperryn/Desktop","no","Andale Mono","no","18","no","white","no","yes","576","legacy","38","38","3","/Users/anisperryn/Desktop/subject-5213390.csv","legacy","Lentiform Loewenfeld","3.3.7","yes","yes","600bd7cfb6416f0113b04181","602110864497cf011d9c0822","0","f","NA","space","space","space","NA","f","638","NA","3631","14495","6481","NA","638","2","legacy","1024","2","48000","-16","task","5213390","even","NA","34810","40452","36819","108799","6495","27485","21003","109302","NA","108797","109302","108740","40452","109941","33193","108240","6447","105202","Lexical Decision Task","40","28399","43","yes","1024"
"2.86332286","6.71","2","feud","word","93.18181818181819","93.18181818181819","662.6818181818181","662.6818181818181","black","no","legacy","legacy","legacy","0","uniform","1","undefined","undefined","undefined","1","j","0","0","0","0","43","0","0","0","43","NA","39","43","39","0","39","3","43","0","43","Fri Feb 19 14:57:08 2021","The main experiment item","yes","Lexical_Decision_Task.osexp","/Users/anisperryn/Desktop","no","Andale Mono","no","18","no","white","no","yes","576","legacy","39","39","3","/Users/anisperryn/Desktop/subject-5213390.csv","legacy","Lentiform Loewenfeld","3.3.7","yes","yes","600bd7cfb6416f0113b04181","602110864497cf011d9c0822","0","j","NA","space","space","space","NA","j","759","NA","3631","14495","6481","NA","759","2","legacy","1024","2","48000","-16","task","5213390","even","NA","34810","40452","36819","110505","6495","27485","21003","111008","NA","110503","111008","110445","40452","111768","33193","109945","6447","105202","Lexical Decision Task","41","29158","44","yes","1024"
"3.252447662","9.67","9","boat","word","93.33333333333333","93.33333333333333","658.2888888888889","658.2888888888889","black","no","legacy","legacy","legacy","0","uniform","1","undefined","undefined","undefined","1","j","0","0","0","0","44","0","0","0","44","NA","40","44","40","0","40","3","44","0","44","Fri Feb 19 14:57:08 2021","The main experiment item","yes","Lexical_Decision_Task.osexp","/Users/anisperryn/Desktop","no","Andale Mono","no","18","no","white","no","yes","576","legacy","40","40","3","/Users/anisperryn/Desktop/subject-5213390.csv","legacy","Lentiform Loewenfeld","3.3.7","yes","yes","600bd7cfb6416f0113b04181","602110864497cf011d9c0822","0","j","NA","space","space","space","NA","j","465","NA","3631","14495","6481","NA","465","2","legacy","1024","2","48000","-16","task","5213390","even","NA","34810","40452","36819","112334","6495","27485","21003","112837","NA","112332","112837","112275","40452","113304","33193","111775","6447","105202","Lexical Decision Task","42","29623","45","yes","1024"
"3.368162872","0","4","ferk","non-word","93.47826086956522","93.47826086956522","656.2391304347826","656.2391304347826","black","no","legacy","legacy","legacy","0","uniform","1","undefined","undefined","undefined","1","f","0","0","0","0","45","0","0","0","45","NA","41","45","41","0","41","3","45","0","45","Fri Feb 19 14:57:08 2021","The main experiment item","yes","Lexical_Decision_Task.osexp","/Users/anisperryn/Desktop","no","Andale Mono","no","18","no","white","no","yes","576","legacy","41","41","3","/Users/anisperryn/Desktop/subject-5213390.csv","legacy","Lentiform Loewenfeld","3.3.7","yes","yes","600bd7cfb6416f0113b04181","602110864497cf011d9c0822","0","f","NA","space","space","space","NA","f","564","NA","3631","14495","6481","NA","564","2","legacy","1024","2","48000","-16","task","5213390","even","NA","34810","40452","36819","113866","6495","27485","21003","114369","NA","113864","114370","113807","40452","114935","33193","113307","6447","105202","Lexical Decision Task","43","30187","46","yes","1024"
"3.102203805","7.21","3","drip","word","93.61702127659575","93.61702127659575","655.8723404255319","655.8723404255319","black","no","legacy","legacy","legacy","0","uniform","1","undefined","undefined","undefined","1","j","0","0","0","0","46","0","0","0","46","NA","42","46","42","0","42","3","46","0","46","Fri Feb 19 14:57:08 2021","The main experiment item","yes","Lexical_Decision_Task.osexp","/Users/anisperryn/Desktop","no","Andale Mono","no","18","no","white","no","yes","576","legacy","42","42","3","/Users/anisperryn/Desktop/subject-5213390.csv","legacy","Lentiform Loewenfeld","3.3.7","yes","yes","600bd7cfb6416f0113b04181","602110864497cf011d9c0822","0","j","NA","space","space","space","NA","j","639","NA","3631","14495","6481","NA","639","2","legacy","1024","2","48000","-16","task","5213390","even","NA","34810","40452","36819","115498","6495","27485","21003","116001","NA","115496","116001","115439","40452","116641","33193","114939","6447","105202","Lexical Decision Task","44","30826","47","yes","1024"
"3.495914186","0","4","peng","non-word","91.66666666666667","91.66666666666667","659.5833333333334","659.5833333333334","black","no","legacy","legacy","legacy","0","uniform","0","undefined","undefined","undefined","0","f","0","0","0","0","47","0","0","0","47","NA","43","47","43","0","43","3","47","0","47","Fri Feb 19 14:57:08 2021","The main experiment item","yes","Lexical_Decision_Task.osexp","/Users/anisperryn/Desktop","no","Andale Mono","no","18","no","white","no","yes","576","legacy","43","43","3","/Users/anisperryn/Desktop/subject-5213390.csv","legacy","Lentiform Loewenfeld","3.3.7","yes","yes","600bd7cfb6416f0113b04181","602110864497cf011d9c0822","0","j","NA","space","space","space","NA","j","834","NA","3631","14495","6481","NA","834","2","legacy","1024","2","48000","-16","task","5213390","even","NA","34810","40452","36819","117205","6495","27485","21003","117708","NA","117202","117708","117145","40452","118543","33193","116645","6447","105202","Lexical Decision Task","44","31660","48","yes","1024"
"2.971428938","9.86","7","spot","word","91.83673469387755","91.83673469387755","663.5918367346939","663.5918367346939","black","no","legacy","legacy","legacy","0","uniform","1","undefined","undefined","undefined","1","j","0","0","0","0","48","0","0","0","48","NA","44","48","44","0","44","3","48","0","48","Fri Feb 19 14:57:08 2021","The main experiment item","yes","Lexical_Decision_Task.osexp","/Users/anisperryn/Desktop","no","Andale Mono","no","18","no","white","no","yes","576","legacy","44","44","3","/Users/anisperryn/Desktop/subject-5213390.csv","legacy","Lentiform Loewenfeld","3.3.7","yes","yes","600bd7cfb6416f0113b04181","602110864497cf011d9c0822","0","j","NA","space","space","space","NA","j","856","NA","3631","14495","6481","NA","856","2","legacy","1024","2","48000","-16","task","5213390","even","NA","34810","40452","36819","120109","6495","27485","21003","120613","NA","120107","120613","120047","40452","121470","33193","116645","6447","118547","Lexical Decision Task","45","32516","49","yes","1024"
"3.076883066","0","8","mout","non-word","92","92","660.12","660.12","black","no","legacy","legacy","legacy","0","uniform","1","undefined","undefined","undefined","1","f","0","0","0","0","49","0","0","0","49","NA","45","49","45","0","45","3","49","0","49","Fri Feb 19 14:57:08 2021","The main experiment item","yes","Lexical_Decision_Task.osexp","/Users/anisperryn/Desktop","no","Andale Mono","no","18","no","white","no","yes","576","legacy","45","45","3","/Users/anisperryn/Desktop/subject-5213390.csv","legacy","Lentiform Loewenfeld","3.3.7","yes","yes","600bd7cfb6416f0113b04181","602110864497cf011d9c0822","0","f","NA","space","space","space","NA","f","490","NA","3631","14495","6481","NA","490","2","legacy","1024","2","48000","-16","task","5213390","even","NA","34810","40452","36819","122033","6495","27485","21003","122536","NA","122030","122536","121974","40452","123027","33193","121474","6447","118547","Lexical Decision Task","46","33006","50","yes","1024"
"2.907588697","8.91","9","mood","word","92.15686274509804","92.15686274509804","660.5294117647059","660.5294117647059","black","no","legacy","legacy","legacy","0","uniform","1","undefined","undefined","undefined","1","j","0","0","0","0","50","0","0","0","50","NA","46","50","46","0","46","3","50","0","50","Fri Feb 19 14:57:08 2021","The main experiment item","yes","Lexical_Decision_Task.osexp","/Users/anisperryn/Desktop","no","Andale Mono","no","18","no","white","no","yes","576","legacy","46","46","3","/Users/anisperryn/Desktop/subject-5213390.csv","legacy","Lentiform Loewenfeld","3.3.7","yes","yes","600bd7cfb6416f0113b04181","602110864497cf011d9c0822","0","j","NA","space","space","space","NA","j","681","NA","3631","14495","6481","NA","681","2","legacy","1024","2","48000","-16","task","5213390","even","NA","34810","40452","36819","123589","6495","27485","21003","124092","NA","123586","124092","123531","40452","124774","33193","123031","6447","118547","Lexical Decision Task","47","33687","51","yes","1024"
"3.474361976","5.24","6","veer","word","90.38461538461539","90.38461538461539","660.7307692307693","660.7307692307693","black","no","legacy","legacy","legacy","0","uniform","0","undefined","undefined","undefined","0","j","0","0","0","0","51","0","0","0","51","NA","47","51","47","0","47","3","51","0","51","Fri Feb 19 14:57:08 2021","The main experiment item","yes","Lexical_Decision_Task.osexp","/Users/anisperryn/Desktop","no","Andale Mono","no","18","no","white","no","yes","576","legacy","47","47","3","/Users/anisperryn/Desktop/subject-5213390.csv","legacy","Lentiform Loewenfeld","3.3.7","yes","yes","600bd7cfb6416f0113b04181","602110864497cf011d9c0822","0","f","NA","space","space","space","NA","f","671","NA","3631","14495","6481","NA","671","2","legacy","1024","2","48000","-16","task","5213390","even","NA","34810","40452","36819","125337","6495","27485","21003","125840","NA","125334","125840","125278","40452","126512","33193","124778","6447","118547","Lexical Decision Task","47","34358","52","yes","1024"
"3.031408464","0","7","drow","non-word","90.56603773584905","90.56603773584905","667.4716981132076","667.4716981132076","black","no","legacy","legacy","legacy","0","uniform","1","undefined","undefined","undefined","1","f","0","0","0","0","52","0","0","0","52","NA","48","52","48","0","48","3","52","0","52","Fri Feb 19 14:57:08 2021","The main experiment item","yes","Lexical_Decision_Task.osexp","/Users/anisperryn/Desktop","no","Andale Mono","no","18","no","white","no","yes","576","legacy","48","48","3","/Users/anisperryn/Desktop/subject-5213390.csv","legacy","Lentiform Loewenfeld","3.3.7","yes","yes","600bd7cfb6416f0113b04181","602110864497cf011d9c0822","0","f","NA","space","space","space","NA","f","1018","NA","3631","14495","6481","NA","1018","2","legacy","1024","2","48000","-16","task","5213390","even","NA","34810","40452","36819","128079","6495","27485","21003","128583","NA","128077","128583","128016","40452","129602","33193","124778","6447","126516","Lexical Decision Task","48","35376","53","yes","1024"
"3.20871002","7.15","8","cram","word","90.74074074074075","90.74074074074075","669.6851851851852","669.6851851851852","black","no","legacy","legacy","legacy","0","uniform","1","undefined","undefined","undefined","1","j","0","0","0","0","53","0","0","0","53","NA","49","53","49","0","49","3","53","0","53","Fri Feb 19 14:57:08 2021","The main experiment item","yes","Lexical_Decision_Task.osexp","/Users/anisperryn/Desktop","no","Andale Mono","no","18","no","white","no","yes","576","legacy","49","49","3","/Users/anisperryn/Desktop/subject-5213390.csv","legacy","Lentiform Loewenfeld","3.3.7","yes","yes","600bd7cfb6416f0113b04181","602110864497cf011d9c0822","0","j","NA","space","space","space","NA","j","787","NA","3631","14495","6481","NA","787","2","legacy","1024","2","48000","-16","task","5213390","even","NA","34810","40452","36819","130167","6495","27485","21003","130670","NA","130164","130670","130106","40452","131459","33193","129606","6447","126516","Lexical Decision Task","49","36163","54","yes","1024"
"2.981215883","10.66","5","hair","word","90.9090909090909","90.9090909090909","668.1272727272727","668.1272727272727","black","no","legacy","legacy","legacy","0","uniform","1","undefined","undefined","undefined","1","j","0","0","0","0","54","0","0","0","54","0","50","54","50","0","50","3","54","0","54","Fri Feb 19 14:57:08 2021","The main experiment item","yes","Lexical_Decision_Task.osexp","/Users/anisperryn/Desktop","no","Andale Mono","no","18","no","white","no","yes","576","legacy","50","50","3","/Users/anisperryn/Desktop/subject-5213390.csv","legacy","Lentiform Loewenfeld","3.3.7","yes","yes","600bd7cfb6416f0113b04181","602110864497cf011d9c0822","0","j","NA","space","space","space","space","j","584","NA","3631","14495","6481","6957","584","2","legacy","1024","2","48000","-16","task","5213390","even","NA","34810","40452","36819","139005","6495","27485","21003","139507","131991","139003","139508","131962","40452","140093","33193","131462","6447","126516","Lexical Decision Task","50","36747","55","yes","1024"
"2.80048796","0","8","pife","non-word","91.07142857142857","91.07142857142857","666.5714285714286","666.5714285714286","black","no","legacy","legacy","legacy","0","uniform","1","undefined","undefined","undefined","1","f","0","0","0","0","55","0","0","0","55","0","51","55","51","0","51","3","55","0","55","Fri Feb 19 14:57:08 2021","The main experiment item","yes","Lexical_Decision_Task.osexp","/Users/anisperryn/Desktop","no","Andale Mono","no","18","no","white","no","yes","576","legacy","51","51","3","/Users/anisperryn/Desktop/subject-5213390.csv","legacy","Lentiform Loewenfeld","3.3.7","yes","yes","600bd7cfb6416f0113b04181","602110864497cf011d9c0822","0","f","NA","space","space","space","space","f","581","NA","3631","14495","6481","6957","581","2","legacy","1024","2","48000","-16","task","5213390","even","NA","34810","40452","36819","140656","6495","27485","21003","141159","131991","140654","141159","140597","40452","141741","33193","140097","6447","126516","Lexical Decision Task","51","37328","56","yes","1024"
"2.952953801","0","8","clax","non-word","91.2280701754386","91.2280701754386","673.0701754385965","673.0701754385965","black","no","legacy","legacy","legacy","0","uniform","1","undefined","undefined","undefined","1","f","0","0","0","0","56","0","0","0","56","0","52","56","52","0","52","3","56","0","56","Fri Feb 19 14:57:08 2021","The main experiment item","yes","Lexical_Decision_Task.osexp","/Users/anisperryn/Desktop","no","Andale Mono","no","18","no","white","no","yes","576","legacy","52","52","3","/Users/anisperryn/Desktop/subject-5213390.csv","legacy","Lentiform Loewenfeld","3.3.7","yes","yes","600bd7cfb6416f0113b04181","602110864497cf011d9c0822","0","f","NA","space","space","space","space","f","1037","NA","3631","14495","6481","6957","1037","2","legacy","1024","2","48000","-16","task","5213390","even","NA","34810","40452","36819","142306","6495","27485","21003","142809","131991","142303","142809","142246","40452","143848","33193","141746","6447","126516","Lexical Decision Task","52","38365","57","yes","1024"
"2.821076612","0","4","lult","non-word","91.37931034482759","91.37931034482759","672.8103448275862","672.8103448275862","black","no","legacy","legacy","legacy","0","uniform","1","undefined","undefined","undefined","1","f","0","0","0","0","57","0","0","0","57","0","53","57","53","0","53","3","57","0","57","Fri Feb 19 14:57:08 2021","The main experiment item","yes","Lexical_Decision_Task.osexp","/Users/anisperryn/Desktop","no","Andale Mono","no","18","no","white","no","yes","576","legacy","53","53","3","/Users/anisperryn/Desktop/subject-5213390.csv","legacy","Lentiform Loewenfeld","3.3.7","yes","yes","600bd7cfb6416f0113b04181","602110864497cf011d9c0822","0","f","NA","space","space","space","space","f","658","NA","3631","14495","6481","6957","658","2","legacy","1024","2","48000","-16","task","5213390","even","NA","34810","40452","36819","144411","6495","27485","21003","144914","131991","144408","144914","144351","40452","145573","33193","143851","6447","126516","Lexical Decision Task","53","39023","58","yes","1024"
"2.972819734","0","4","scew","non-word","91.52542372881356","91.52542372881356","672.8983050847457","672.8983050847457","black","no","legacy","legacy","legacy","0","uniform","1","undefined","undefined","undefined","1","f","0","0","0","0","58","0","0","0","58","0","54","58","54","0","54","3","58","0","58","Fri Feb 19 14:57:08 2021","The main experiment item","yes","Lexical_Decision_Task.osexp","/Users/anisperryn/Desktop","no","Andale Mono","no","18","no","white","no","yes","576","legacy","54","54","3","/Users/anisperryn/Desktop/subject-5213390.csv","legacy","Lentiform Loewenfeld","3.3.7","yes","yes","600bd7cfb6416f0113b04181","602110864497cf011d9c0822","0","f","NA","space","space","space","space","f","678","NA","3631","14495","6481","6957","678","2","legacy","1024","2","48000","-16","task","5213390","even","NA","34810","40452","36819","146137","6495","27485","21003","146640","131991","146134","146640","146077","40452","147320","33193","145577","6447","126516","Lexical Decision Task","54","39701","59","yes","1024"
"2.873320602","0","4","lurg","non-word","91.66666666666667","91.66666666666667","675.6333333333333","675.6333333333333","black","no","legacy","legacy","legacy","0","uniform","1","undefined","undefined","undefined","1","f","0","0","0","0","59","0","0","0","59","0","55","59","55","0","55","3","59","0","59","Fri Feb 19 14:57:08 2021","The main experiment item","yes","Lexical_Decision_Task.osexp","/Users/anisperryn/Desktop","no","Andale Mono","no","18","no","white","no","yes","576","legacy","55","55","3","/Users/anisperryn/Desktop/subject-5213390.csv","legacy","Lentiform Loewenfeld","3.3.7","yes","yes","600bd7cfb6416f0113b04181","602110864497cf011d9c0822","0","f","NA","space","space","space","space","f","837","NA","3631","14495","6481","6957","837","2","legacy","1024","2","48000","-16","task","5213390","even","NA","34810","40452","36819","147884","6495","27485","21003","148387","131991","147881","148387","147823","40452","149225","33193","147323","6447","126516","Lexical Decision Task","55","40538","60","yes","1024"
"3.299579929","0","2","flis","non-word","91.80327868852459","91.80327868852459","675.639344262295","675.639344262295","black","no","legacy","legacy","legacy","0","uniform","1","undefined","undefined","undefined","1","f","0","0","0","0","60","0","0","0","60","0","56","60","56","0","56","3","60","0","60","Fri Feb 19 14:57:08 2021","The main experiment item","yes","Lexical_Decision_Task.osexp","/Users/anisperryn/Desktop","no","Andale Mono","no","18","no","white","no","yes","576","legacy","56","56","3","/Users/anisperryn/Desktop/subject-5213390.csv","legacy","Lentiform Loewenfeld","3.3.7","yes","yes","600bd7cfb6416f0113b04181","602110864497cf011d9c0822","0","f","NA","space","space","space","space","f","676","NA","3631","14495","6481","6957","676","2","legacy","1024","2","48000","-16","task","5213390","even","NA","34810","40452","36819","149788","6495","27485","21003","150291","131991","149785","150291","149729","40452","150968","33193","149229","6447","126516","Lexical Decision Task","56","41214","61","yes","1024"
"2.793790385","5.67","9","swab","word","91.93548387096774","91.93548387096774","673.5806451612904","673.5806451612904","black","no","legacy","legacy","legacy","0","uniform","1","undefined","undefined","undefined","1","j","0","0","0","0","61","0","0","0","61","0","57","61","57","0","57","3","61","0","61","Fri Feb 19 14:57:08 2021","The main experiment item","yes","Lexical_Decision_Task.osexp","/Users/anisperryn/Desktop","no","Andale Mono","no","18","no","white","no","yes","576","legacy","57","57","3","/Users/anisperryn/Desktop/subject-5213390.csv","legacy","Lentiform Loewenfeld","3.3.7","yes","yes","600bd7cfb6416f0113b04181","602110864497cf011d9c0822","0","j","NA","space","space","space","space","j","548","NA","3631","14495","6481","6957","548","2","legacy","1024","2","48000","-16","task","5213390","even","NA","34810","40452","36819","151532","6495","27485","21003","152035","131991","151530","152035","151472","40452","152584","33193","150972","6447","126516","Lexical Decision Task","57","41762","62","yes","1024"
"2.771097306","0","9","jold","non-word","92.06349206349206","92.06349206349206","671.4920634920635","671.4920634920635","black","no","legacy","legacy","legacy","0","uniform","1","undefined","undefined","undefined","1","f","0","0","0","0","62","0","0","0","62","0","58","62","58","0","58","3","62","0","62","Fri Feb 19 14:57:08 2021","The main experiment item","yes","Lexical_Decision_Task.osexp","/Users/anisperryn/Desktop","no","Andale Mono","no","18","no","white","no","yes","576","legacy","58","58","3","/Users/anisperryn/Desktop/subject-5213390.csv","legacy","Lentiform Loewenfeld","3.3.7","yes","yes","600bd7cfb6416f0113b04181","602110864497cf011d9c0822","0","f","NA","space","space","space","space","f","542","NA","3631","14495","6481","6957","542","2","legacy","1024","2","48000","-16","task","5213390","even","NA","34810","40452","36819","153147","6495","27485","21003","153650","131991","153145","153650","153088","40452","154193","33193","152588","6447","126516","Lexical Decision Task","58","42304","63","yes","1024"
"3.374198258","0","8","vist","non-word","92.1875","92.1875","676.84375","676.84375","black","no","legacy","legacy","legacy","0","uniform","1","undefined","undefined","undefined","1","f","0","0","0","0","63","0","0","0","63","0","59","63","59","0","59","3","63","0","63","Fri Feb 19 14:57:08 2021","The main experiment item","yes","Lexical_Decision_Task.osexp","/Users/anisperryn/Desktop","no","Andale Mono","no","18","no","white","no","yes","576","legacy","59","59","3","/Users/anisperryn/Desktop/subject-5213390.csv","legacy","Lentiform Loewenfeld","3.3.7","yes","yes","600bd7cfb6416f0113b04181","602110864497cf011d9c0822","0","f","NA","space","space","space","space","f","1014","NA","3631","14495","6481","6957","1014","2","legacy","1024","2","48000","-16","task","5213390","even","NA","34810","40452","36819","154756","6495","27485","21003","155259","131991","154753","155259","154697","40452","156274","33193","154197","6447","126516","Lexical Decision Task","59","43318","64","yes","1024"
"2.880623071","0","9","curp","non-word","92.3076923076923","92.3076923076923","676.0307692307692","676.0307692307692","black","no","legacy","legacy","legacy","0","uniform","1","undefined","undefined","undefined","1","f","0","0","0","0","64","0","0","0","64","0","60","64","60","0","60","3","64","0","64","Fri Feb 19 14:57:08 2021","The main experiment item","yes","Lexical_Decision_Task.osexp","/Users/anisperryn/Desktop","no","Andale Mono","no","18","no","white","no","yes","576","legacy","60","60","3","/Users/anisperryn/Desktop/subject-5213390.csv","legacy","Lentiform Loewenfeld","3.3.7","yes","yes","600bd7cfb6416f0113b04181","602110864497cf011d9c0822","0","f","NA","space","space","space","space","f","624","NA","3631","14495","6481","6957","624","2","legacy","1024","2","48000","-16","task","5213390","even","NA","34810","40452","36819","156837","6495","27485","21003","157340","131991","156835","157340","156778","40452","157965","33193","156278","6447","126516","Lexical Decision Task","60","43942","65","yes","1024"
"2.696644658","5.78","2","yolk","word","92.42424242424242","92.42424242424242","675.5151515151515","675.5151515151515","black","no","legacy","legacy","legacy","0","uniform","1","undefined","undefined","undefined","1","j","0","0","0","0","65","0","0","0","65","0","61","65","61","0","61","3","65","0","65","Fri Feb 19 14:57:08 2021","The main experiment item","yes","Lexical_Decision_Task.osexp","/Users/anisperryn/Desktop","no","Andale Mono","no","18","no","white","no","yes","576","legacy","61","61","3","/Users/anisperryn/Desktop/subject-5213390.csv","legacy","Lentiform Loewenfeld","3.3.7","yes","yes","600bd7cfb6416f0113b04181","602110864497cf011d9c0822","0","j","NA","space","space","space","space","j","642","NA","3631","14495","6481","6957","642","2","legacy","1024","2","48000","-16","task","5213390","even","NA","34810","40452","36819","158528","6495","27485","21003","159031","131991","158525","159031","158469","40452","159674","33193","157969","6447","126516","Lexical Decision Task","61","44584","66","yes","1024"
"2.767650507","0","6","yolt","non-word","92.53731343283582","92.53731343283582","673.8358208955224","673.8358208955224","black","no","legacy","legacy","legacy","0","uniform","1","undefined","undefined","undefined","1","f","0","0","0","0","66","0","0","0","66","0","62","66","62","0","62","3","66","0","66","Fri Feb 19 14:57:08 2021","The main experiment item","yes","Lexical_Decision_Task.osexp","/Users/anisperryn/Desktop","no","Andale Mono","no","18","no","white","no","yes","576","legacy","62","62","3","/Users/anisperryn/Desktop/subject-5213390.csv","legacy","Lentiform Loewenfeld","3.3.7","yes","yes","600bd7cfb6416f0113b04181","602110864497cf011d9c0822","0","f","NA","space","space","space","space","f","563","NA","3631","14495","6481","6957","563","2","legacy","1024","2","48000","-16","task","5213390","even","NA","34810","40452","36819","160238","6495","27485","21003","160741","131991","160235","160741","160178","40452","161305","33193","159678","6447","126516","Lexical Decision Task","62","45147","67","yes","1024"
"2.744553742","0","2","nawk","non-word","92.6470588235294","92.6470588235294","672.1911764705883","672.1911764705883","black","no","legacy","legacy","legacy","0","uniform","1","undefined","undefined","undefined","1","f","0","0","0","0","67","0","0","0","67","0","63","67","63","0","63","3","67","0","67","Fri Feb 19 14:57:08 2021","The main experiment item","yes","Lexical_Decision_Task.osexp","/Users/anisperryn/Desktop","no","Andale Mono","no","18","no","white","no","yes","576","legacy","63","63","3","/Users/anisperryn/Desktop/subject-5213390.csv","legacy","Lentiform Loewenfeld","3.3.7","yes","yes","600bd7cfb6416f0113b04181","602110864497cf011d9c0822","0","f","NA","space","space","space","space","f","562","NA","3631","14495","6481","6957","562","2","legacy","1024","2","48000","-16","task","5213390","even","NA","34810","40452","36819","161869","6495","27485","21003","162372","131991","161866","162372","161809","40452","162935","33193","161309","6447","126516","Lexical Decision Task","63","45709","68","yes","1024"
"2.69019608","9.01","2","myth","word","92.7536231884058","92.7536231884058","671.1884057971015","671.1884057971015","black","no","legacy","legacy","legacy","0","uniform","1","undefined","undefined","undefined","1","j","0","0","0","0","68","0","0","0","68","0","64","68","64","0","64","3","68","0","68","Fri Feb 19 14:57:08 2021","The main experiment item","yes","Lexical_Decision_Task.osexp","/Users/anisperryn/Desktop","no","Andale Mono","no","18","no","white","no","yes","576","legacy","64","64","3","/Users/anisperryn/Desktop/subject-5213390.csv","legacy","Lentiform Loewenfeld","3.3.7","yes","yes","600bd7cfb6416f0113b04181","602110864497cf011d9c0822","0","j","NA","space","space","space","space","j","603","NA","3631","14495","6481","6957","603","2","legacy","1024","2","48000","-16","task","5213390","even","NA","34810","40452","36819","163499","6495","27485","21003","164002","131991","163496","164002","163439","40452","164607","33193","162938","6447","126516","Lexical Decision Task","64","46312","69","yes","1024"
"3.307211407","6.07","7","honk","word","92.85714285714286","92.85714285714286","670.4285714285714","670.4285714285714","black","no","legacy","legacy","legacy","0","uniform","1","undefined","undefined","undefined","1","j","0","0","0","0","69","0","0","0","69","0","65","69","65","0","65","3","69","0","69","Fri Feb 19 14:57:08 2021","The main experiment item","yes","Lexical_Decision_Task.osexp","/Users/anisperryn/Desktop","no","Andale Mono","no","18","no","white","no","yes","576","legacy","65","65","3","/Users/anisperryn/Desktop/subject-5213390.csv","legacy","Lentiform Loewenfeld","3.3.7","yes","yes","600bd7cfb6416f0113b04181","602110864497cf011d9c0822","0","j","NA","space","space","space","space","j","618","NA","3631","14495","6481","6957","618","2","legacy","1024","2","48000","-16","task","5213390","even","NA","34810","40452","36819","165169","6495","27485","21003","165672","131991","165167","165672","165110","40452","166291","33193","164610","6447","126516","Lexical Decision Task","65","46930","70","yes","1024"
"3.153104174","10.89","6","door","word","92.95774647887323","92.95774647887323","668.6901408450705","668.6901408450705","black","no","legacy","legacy","legacy","0","uniform","1","undefined","undefined","undefined","1","j","0","0","0","0","70","0","0","0","70","0","66","70","66","0","66","3","70","0","70","Fri Feb 19 14:57:08 2021","The main experiment item","yes","Lexical_Decision_Task.osexp","/Users/anisperryn/Desktop","no","Andale Mono","no","18","no","white","no","yes","576","legacy","66","66","3","/Users/anisperryn/Desktop/subject-5213390.csv","legacy","Lentiform Loewenfeld","3.3.7","yes","yes","600bd7cfb6416f0113b04181","602110864497cf011d9c0822","0","j","NA","space","space","space","space","j","547","NA","3631","14495","6481","6957","547","2","legacy","1024","2","48000","-16","task","5213390","even","NA","34810","40452","36819","166853","6495","27485","21003","167357","131991","166851","167357","166794","40452","167905","33193","166294","6447","126516","Lexical Decision Task","66","47477","71","yes","1024"
"2.675164031","8.57","6","glue","word","93.05555555555556","93.05555555555556","666.6805555555555","666.6805555555555","black","no","legacy","legacy","legacy","0","uniform","1","undefined","undefined","undefined","1","j","0","0","0","0","71","0","0","0","71","0","67","71","67","0","67","3","71","0","71","Fri Feb 19 14:57:08 2021","The main experiment item","yes","Lexical_Decision_Task.osexp","/Users/anisperryn/Desktop","no","Andale Mono","no","18","no","white","no","yes","576","legacy","67","67","3","/Users/anisperryn/Desktop/subject-5213390.csv","legacy","Lentiform Loewenfeld","3.3.7","yes","yes","600bd7cfb6416f0113b04181","602110864497cf011d9c0822","0","j","NA","space","space","space","space","j","524","NA","3631","14495","6481","6957","524","2","legacy","1024","2","48000","-16","task","5213390","even","NA","34810","40452","36819","168468","6495","27485","21003","168972","131991","168466","168973","168409","40452","169498","33193","167909","6447","126516","Lexical Decision Task","67","48001","72","yes","1024"
"2.814027728","8.2","4","foam","word","93.15068493150685","93.15068493150685","664.7671232876712","664.7671232876712","black","no","legacy","legacy","legacy","0","uniform","1","undefined","undefined","undefined","1","j","0","0","0","0","72","0","0","0","72","0","68","72","68","0","68","3","72","0","72","Fri Feb 19 14:57:08 2021","The main experiment item","yes","Lexical_Decision_Task.osexp","/Users/anisperryn/Desktop","no","Andale Mono","no","18","no","white","no","yes","576","legacy","68","68","3","/Users/anisperryn/Desktop/subject-5213390.csv","legacy","Lentiform Loewenfeld","3.3.7","yes","yes","600bd7cfb6416f0113b04181","602110864497cf011d9c0822","0","j","NA","space","space","space","space","j","527","NA","3631","14495","6481","6957","527","2","legacy","1024","2","48000","-16","task","5213390","even","NA","34810","40452","36819","170061","6495","27485","21003","170564","131991","170058","170564","170002","40452","171093","33193","169502","6447","126516","Lexical Decision Task","68","48528","73","yes","1024"
"2.708989954","9.28","9","bowl","word","93.24324324324324","93.24324324324324","662.7837837837837","662.7837837837837","black","no","legacy","legacy","legacy","0","uniform","1","undefined","undefined","undefined","1","j","0","0","0","0","73","0","0","0","73","0","69","73","69","0","69","3","73","0","73","Fri Feb 19 14:57:08 2021","The main experiment item","yes","Lexical_Decision_Task.osexp","/Users/anisperryn/Desktop","no","Andale Mono","no","18","no","white","no","yes","576","legacy","69","69","3","/Users/anisperryn/Desktop/subject-5213390.csv","legacy","Lentiform Loewenfeld","3.3.7","yes","yes","600bd7cfb6416f0113b04181","602110864497cf011d9c0822","0","j","NA","space","space","space","space","j","518","NA","3631","14495","6481","6957","518","2","legacy","1024","2","48000","-16","task","5213390","even","NA","34810","40452","36819","171656","6495","27485","21003","172159","131991","171653","172159","171597","40452","172679","33193","171097","6447","126516","Lexical Decision Task","69","49046","74","yes","1024"
"3.145920145","8.51","8","flew","word","93.33333333333333","93.33333333333333","661.3333333333334","661.3333333333334","black","no","legacy","legacy","legacy","0","uniform","1","undefined","undefined","undefined","1","j","0","0","0","0","74","0","0","0","74","0","70","74","70","0","70","3","74","0","74","Fri Feb 19 14:57:08 2021","The main experiment item","yes","Lexical_Decision_Task.osexp","/Users/anisperryn/Desktop","no","Andale Mono","no","18","no","white","no","yes","576","legacy","70","70","3","/Users/anisperryn/Desktop/subject-5213390.csv","legacy","Lentiform Loewenfeld","3.3.7","yes","yes","600bd7cfb6416f0113b04181","602110864497cf011d9c0822","0","j","NA","space","space","space","space","j","554","NA","3631","14495","6481","6957","554","2","legacy","1024","2","48000","-16","task","5213390","even","NA","34810","40452","36819","173242","6495","27485","21003","173746","131991","173240","173746","173182","40452","174302","33193","172682","6447","126516","Lexical Decision Task","70","49600","75","yes","1024"
"3.088136089","8.32","9","worm","word","93.42105263157895","93.42105263157895","659.0131578947369","659.0131578947369","black","no","legacy","legacy","legacy","0","uniform","1","undefined","undefined","undefined","1","j","0","0","0","0","75","0","0","0","75","0","71","75","71","0","71","3","75","0","75","Fri Feb 19 14:57:08 2021","The main experiment item","yes","Lexical_Decision_Task.osexp","/Users/anisperryn/Desktop","no","Andale Mono","no","18","no","white","no","yes","576","legacy","71","71","3","/Users/anisperryn/Desktop/subject-5213390.csv","legacy","Lentiform Loewenfeld","3.3.7","yes","yes","600bd7cfb6416f0113b04181","602110864497cf011d9c0822","0","j","NA","space","space","space","space","j","485","NA","3631","14495","6481","6957","485","2","legacy","1024","2","48000","-16","task","5213390","even","NA","34810","40452","36819","174865","6495","27485","21003","175369","131991","174863","175369","174806","40452","175856","33193","174305","6447","126516","Lexical Decision Task","71","50085","76","yes","1024"
"2.953276337","6.32","4","thaw","word","93.50649350649351","93.50649350649351","659.1818181818181","659.1818181818181","black","no","legacy","legacy","legacy","0","uniform","1","undefined","undefined","undefined","1","j","0","0","0","0","76","0","0","0","76","0","72","76","72","0","72","3","76","0","76","Fri Feb 19 14:57:08 2021","The main experiment item","yes","Lexical_Decision_Task.osexp","/Users/anisperryn/Desktop","no","Andale Mono","no","18","no","white","no","yes","576","legacy","72","72","3","/Users/anisperryn/Desktop/subject-5213390.csv","legacy","Lentiform Loewenfeld","3.3.7","yes","yes","600bd7cfb6416f0113b04181","602110864497cf011d9c0822","0","j","NA","space","space","space","space","j","672","NA","3631","14495","6481","6957","672","2","legacy","1024","2","48000","-16","task","5213390","even","NA","34810","40452","36819","176419","6495","27485","21003","176922","131991","176417","176922","176360","40452","177596","33193","175860","6447","126516","Lexical Decision Task","72","50757","77","yes","1024"
"2.996511672","0","7","hoil","non-word","93.58974358974359","93.58974358974359","658.9102564102565","658.9102564102565","black","no","legacy","legacy","legacy","0","uniform","1","undefined","undefined","undefined","1","f","0","0","0","0","77","0","0","0","77","0","73","77","73","0","73","3","77","0","77","Fri Feb 19 14:57:08 2021","The main experiment item","yes","Lexical_Decision_Task.osexp","/Users/anisperryn/Desktop","no","Andale Mono","no","18","no","white","no","yes","576","legacy","73","73","3","/Users/anisperryn/Desktop/subject-5213390.csv","legacy","Lentiform Loewenfeld","3.3.7","yes","yes","600bd7cfb6416f0113b04181","602110864497cf011d9c0822","0","f","NA","space","space","space","space","f","638","NA","3631","14495","6481","6957","638","2","legacy","1024","2","48000","-16","task","5213390","even","NA","34810","40452","36819","178156","6495","27485","21003","178659","131991","178153","178659","178100","40452","179298","33193","177599","6447","126516","Lexical Decision Task","73","51395","78","yes","1024"
"2.64476673","0","5","moft","non-word","93.67088607594937","93.67088607594937","656.9620253164557","656.9620253164557","black","no","legacy","legacy","legacy","0","uniform","1","undefined","undefined","undefined","1","f","0","0","0","0","78","0","0","0","78","0","74","78","74","0","74","3","78","0","78","Fri Feb 19 14:57:08 2021","The main experiment item","yes","Lexical_Decision_Task.osexp","/Users/anisperryn/Desktop","no","Andale Mono","no","18","no","white","no","yes","576","legacy","74","74","3","/Users/anisperryn/Desktop/subject-5213390.csv","legacy","Lentiform Loewenfeld","3.3.7","yes","yes","600bd7cfb6416f0113b04181","602110864497cf011d9c0822","0","f","NA","space","space","space","space","f","505","NA","3631","14495","6481","6957","505","2","legacy","1024","2","48000","-16","task","5213390","even","NA","34810","40452","36819","179859","6495","27485","21003","180362","131991","179856","180362","179802","40452","180868","33193","179301","6447","126516","Lexical Decision Task","74","51900","79","yes","1024"
"2.990042563","6.64","9","plow","word","93.75","93.75","657.5875","657.5875","black","no","legacy","legacy","legacy","0","uniform","1","undefined","undefined","undefined","1","j","0","0","0","0","79","0","0","0","79","0","75","79","75","0","75","3","79","0","79","Fri Feb 19 14:57:08 2021","The main experiment item","yes","Lexical_Decision_Task.osexp","/Users/anisperryn/Desktop","no","Andale Mono","no","18","no","white","no","yes","576","legacy","75","75","3","/Users/anisperryn/Desktop/subject-5213390.csv","legacy","Lentiform Loewenfeld","3.3.7","yes","yes","600bd7cfb6416f0113b04181","602110864497cf011d9c0822","0","j","NA","space","space","space","space","j","707","NA","3631","14495","6481","6957","707","2","legacy","1024","2","48000","-16","task","5213390","even","NA","34810","40452","36819","181430","6495","27485","21003","181933","131991","181428","181933","181371","40452","182641","33193","180871","6447","126516","Lexical Decision Task","75","52607","80","yes","1024"
"3.531734309","0","6","lerd","non-word","93.82716049382717","93.82716049382717","656.9753086419753","656.9753086419753","black","no","legacy","legacy","legacy","0","uniform","1","undefined","undefined","undefined","1","f","0","0","0","0","80","0","0","0","80","0","76","80","76","0","76","3","80","0","80","Fri Feb 19 14:57:08 2021","The main experiment item","yes","Lexical_Decision_Task.osexp","/Users/anisperryn/Desktop","no","Andale Mono","no","18","no","white","no","yes","576","legacy","76","76","3","/Users/anisperryn/Desktop/subject-5213390.csv","legacy","Lentiform Loewenfeld","3.3.7","yes","yes","600bd7cfb6416f0113b04181","602110864497cf011d9c0822","0","f","NA","space","space","space","space","f","608","NA","3631","14495","6481","6957","608","2","legacy","1024","2","48000","-16","task","5213390","even","NA","34810","40452","36819","183200","6495","27485","21003","183703","131991","183198","183704","183144","40452","184313","33193","182644","6447","126516","Lexical Decision Task","76","53215","81","yes","1024"
"3.028977705","0","7","frow","non-word","93.90243902439025","93.90243902439025","658.2317073170732","658.2317073170732","black","no","legacy","legacy","legacy","0","uniform","1","undefined","undefined","undefined","1","f","0","0","0","0","81","0","0","0","81","0","77","81","77","0","77","3","81","0","81","Fri Feb 19 14:57:08 2021","The main experiment item","yes","Lexical_Decision_Task.osexp","/Users/anisperryn/Desktop","no","Andale Mono","no","18","no","white","no","yes","576","legacy","77","77","3","/Users/anisperryn/Desktop/subject-5213390.csv","legacy","Lentiform Loewenfeld","3.3.7","yes","yes","600bd7cfb6416f0113b04181","602110864497cf011d9c0822","0","f","NA","space","space","space","space","f","760","NA","3631","14495","6481","6957","760","2","legacy","1024","2","48000","-16","task","5213390","even","NA","34810","40452","36819","184874","6495","27485","21003","185376","131991","184871","185376","184816","40452","186137","33193","184316","6447","126516","Lexical Decision Task","77","53975","82","yes","1024"
"3.194328374","9.42","6","harm","word","93.97590361445783","93.97590361445783","656.9277108433735","656.9277108433735","black","no","legacy","legacy","legacy","0","uniform","1","undefined","undefined","undefined","1","j","0","0","0","0","82","0","0","0","82","0","78","82","78","0","78","3","82","0","82","Fri Feb 19 14:57:08 2021","The main experiment item","yes","Lexical_Decision_Task.osexp","/Users/anisperryn/Desktop","no","Andale Mono","no","18","no","white","no","yes","576","legacy","78","78","3","/Users/anisperryn/Desktop/subject-5213390.csv","legacy","Lentiform Loewenfeld","3.3.7","yes","yes","600bd7cfb6416f0113b04181","602110864497cf011d9c0822","0","j","NA","space","space","space","space","j","550","NA","3631","14495","6481","6957","550","2","legacy","1024","2","48000","-16","task","5213390","even","NA","34810","40452","36819","186702","6495","27485","21003","187205","131991","186699","187205","186643","40452","187757","33193","186143","6447","126516","Lexical Decision Task","78","54525","83","yes","1024"
"2.819763221","0","2","durp","non-word","94.04761904761905","94.04761904761905","655.4642857142857","655.4642857142857","black","no","legacy","legacy","legacy","0","uniform","1","undefined","undefined","undefined","1","f","0","0","0","0","83","0","0","0","83","0","79","83","79","0","79","3","83","0","83","Fri Feb 19 14:57:08 2021","The main experiment item","yes","Lexical_Decision_Task.osexp","/Users/anisperryn/Desktop","no","Andale Mono","no","18","no","white","no","yes","576","legacy","79","79","3","/Users/anisperryn/Desktop/subject-5213390.csv","legacy","Lentiform Loewenfeld","3.3.7","yes","yes","600bd7cfb6416f0113b04181","602110864497cf011d9c0822","0","f","NA","space","space","space","space","f","534","NA","3631","14495","6481","6957","534","2","legacy","1024","2","48000","-16","task","5213390","even","NA","34810","40452","36819","188321","6495","27485","21003","188824","131991","188318","188824","188260","40452","189359","33193","187760","6447","126516","Lexical Decision Task","79","55059","84","yes","1024"
"2.713490543","0","3","feps","non-word","94.11764705882354","94.11764705882354","654.9176470588235","654.9176470588235","black","no","legacy","legacy","legacy","0","uniform","1","undefined","undefined","undefined","1","f","0","0","0","0","84","0","0","0","84","0","80","84","80","0","80","3","84","0","84","Fri Feb 19 14:57:08 2021","The main experiment item","yes","Lexical_Decision_Task.osexp","/Users/anisperryn/Desktop","no","Andale Mono","no","18","no","white","no","yes","576","legacy","80","80","3","/Users/anisperryn/Desktop/subject-5213390.csv","legacy","Lentiform Loewenfeld","3.3.7","yes","yes","600bd7cfb6416f0113b04181","602110864497cf011d9c0822","0","f","NA","space","space","space","space","f","609","NA","3631","14495","6481","6957","609","2","legacy","1024","2","48000","-16","task","5213390","even","NA","34810","40452","36819","189922","6495","27485","21003","190425","131991","189920","190425","189863","40452","191035","33193","189363","6447","126516","Lexical Decision Task","80","55668","85","yes","1024"
"2.695481676","0","7","goke","non-word","94.18604651162791","94.18604651162791","653.2093023255813","653.2093023255813","black","no","legacy","legacy","legacy","0","uniform","1","undefined","undefined","undefined","1","f","0","0","0","0","85","0","0","0","85","0","81","85","81","0","81","3","85","0","85","Fri Feb 19 14:57:08 2021","The main experiment item","yes","Lexical_Decision_Task.osexp","/Users/anisperryn/Desktop","no","Andale Mono","no","18","no","white","no","yes","576","legacy","81","81","3","/Users/anisperryn/Desktop/subject-5213390.csv","legacy","Lentiform Loewenfeld","3.3.7","yes","yes","600bd7cfb6416f0113b04181","602110864497cf011d9c0822","0","f","NA","space","space","space","space","f","508","NA","3631","14495","6481","6957","508","2","legacy","1024","2","48000","-16","task","5213390","even","NA","34810","40452","36819","191598","6495","27485","21003","192101","131991","191596","192101","191539","40452","192610","33193","191039","6447","126516","Lexical Decision Task","81","56176","86","yes","1024"
"2.616654026","9.37","5","gift","word","94.25287356321839","94.25287356321839","651.5632183908046","651.5632183908046","black","no","legacy","legacy","legacy","0","uniform","1","undefined","undefined","undefined","1","j","0","0","0","0","86","0","0","0","86","0","82","86","82","0","82","3","86","0","86","Fri Feb 19 14:57:08 2021","The main experiment item","yes","Lexical_Decision_Task.osexp","/Users/anisperryn/Desktop","no","Andale Mono","no","18","no","white","no","yes","576","legacy","82","82","3","/Users/anisperryn/Desktop/subject-5213390.csv","legacy","Lentiform Loewenfeld","3.3.7","yes","yes","600bd7cfb6416f0113b04181","602110864497cf011d9c0822","0","j","NA","space","space","space","space","j","510","NA","3631","14495","6481","6957","510","2","legacy","1024","2","48000","-16","task","5213390","even","NA","34810","40452","36819","193175","6495","27485","21003","193678","131991","193172","193678","193114","40452","194189","33193","192614","6447","126516","Lexical Decision Task","82","56686","87","yes","1024"
"2.843025032","0","9","pusk","non-word","94.31818181818181","94.31818181818181","650.5","650.5","black","no","legacy","legacy","legacy","0","uniform","1","undefined","undefined","undefined","1","f","0","0","0","0","87","0","0","0","87","0","83","87","83","0","83","3","87","0","87","Fri Feb 19 14:57:08 2021","The main experiment item","yes","Lexical_Decision_Task.osexp","/Users/anisperryn/Desktop","no","Andale Mono","no","18","no","white","no","yes","576","legacy","83","83","3","/Users/anisperryn/Desktop/subject-5213390.csv","legacy","Lentiform Loewenfeld","3.3.7","yes","yes","600bd7cfb6416f0113b04181","602110864497cf011d9c0822","0","f","NA","space","space","space","space","f","558","NA","3631","14495","6481","6957","558","2","legacy","1024","2","48000","-16","task","5213390","even","NA","34810","40452","36819","194751","6495","27485","21003","195254","131991","194748","195254","194693","40452","195813","33193","194193","6447","126516","Lexical Decision Task","83","57244","88","yes","1024"
"3.153001286","8.7","5","palm","word","94.38202247191012","94.38202247191012","648.6516853932584","648.6516853932584","black","no","legacy","legacy","legacy","0","uniform","1","undefined","undefined","undefined","1","j","0","0","0","0","88","0","0","0","88","0","84","88","84","0","84","3","88","0","88","Fri Feb 19 14:57:08 2021","The main experiment item","yes","Lexical_Decision_Task.osexp","/Users/anisperryn/Desktop","no","Andale Mono","no","18","no","white","no","yes","576","legacy","84","84","3","/Users/anisperryn/Desktop/subject-5213390.csv","legacy","Lentiform Loewenfeld","3.3.7","yes","yes","600bd7cfb6416f0113b04181","602110864497cf011d9c0822","0","j","NA","space","space","space","space","j","486","NA","3631","14495","6481","6957","486","2","legacy","1024","2","48000","-16","task","5213390","even","NA","34810","40452","36819","196379","6495","27485","21003","196882","131991","196376","196882","196317","40452","197369","33193","195817","6447","126516","Lexical Decision Task","84","57730","89","yes","1024"
"2.839268497","0","8","maft","non-word","94.44444444444444","94.44444444444444","646.9777777777778","646.9777777777778","black","no","legacy","legacy","legacy","0","uniform","1","undefined","undefined","undefined","1","f","0","0","0","0","89","0","0","0","89","0","85","89","85","0","85","3","89","0","89","Fri Feb 19 14:57:08 2021","The main experiment item","yes","Lexical_Decision_Task.osexp","/Users/anisperryn/Desktop","no","Andale Mono","no","18","no","white","no","yes","576","legacy","85","85","3","/Users/anisperryn/Desktop/subject-5213390.csv","legacy","Lentiform Loewenfeld","3.3.7","yes","yes","600bd7cfb6416f0113b04181","602110864497cf011d9c0822","0","f","NA","space","space","space","space","f","498","NA","3631","14495","6481","6957","498","2","legacy","1024","2","48000","-16","task","5213390","even","NA","34810","40452","36819","197932","6495","27485","21003","198435","131991","197930","198435","197873","40452","198935","33193","197373","6447","126516","Lexical Decision Task","85","58228","90","yes","1024"
"3.16326079","0","5","parg","non-word","94.50549450549451","94.50549450549451","645.6593406593406","645.6593406593406","black","no","legacy","legacy","legacy","0","uniform","1","undefined","undefined","undefined","1","f","0","0","0","0","90","0","0","0","90","0","86","90","86","0","86","3","90","0","90","Fri Feb 19 14:57:08 2021","The main experiment item","yes","Lexical_Decision_Task.osexp","/Users/anisperryn/Desktop","no","Andale Mono","no","18","no","white","no","yes","576","legacy","86","86","3","/Users/anisperryn/Desktop/subject-5213390.csv","legacy","Lentiform Loewenfeld","3.3.7","yes","yes","600bd7cfb6416f0113b04181","602110864497cf011d9c0822","0","f","NA","space","space","space","space","f","527","NA","3631","14495","6481","6957","527","2","legacy","1024","2","48000","-16","task","5213390","even","NA","34810","40452","36819","199499","6495","27485","21003","200002","131991","199496","200002","199439","40452","200531","33193","198939","6447","126516","Lexical Decision Task","86","58755","91","yes","1024"
"2.892836167","10.01","5","soft","word","94.56521739130434","94.56521739130434","643.1630434782609","643.1630434782609","black","no","legacy","legacy","legacy","0","uniform","1","undefined","undefined","undefined","1","j","0","0","0","0","91","0","0","0","91","0","87","91","87","0","87","3","91","0","91","Fri Feb 19 14:57:08 2021","The main experiment item","yes","Lexical_Decision_Task.osexp","/Users/anisperryn/Desktop","no","Andale Mono","no","18","no","white","no","yes","576","legacy","87","87","3","/Users/anisperryn/Desktop/subject-5213390.csv","legacy","Lentiform Loewenfeld","3.3.7","yes","yes","600bd7cfb6416f0113b04181","602110864497cf011d9c0822","0","j","NA","space","space","space","space","j","416","NA","3631","14495","6481","6957","416","2","legacy","1024","2","48000","-16","task","5213390","even","NA","34810","40452","36819","201095","6495","27485","21003","201598","131991","201092","201598","201036","40452","202016","33193","200535","6447","126516","Lexical Decision Task","87","59171","92","yes","1024"
"2.979548375","8.71","4","soup","word","94.6236559139785","94.6236559139785","642.5483870967741","642.5483870967741","black","no","legacy","legacy","legacy","0","uniform","1","undefined","undefined","undefined","1","j","0","0","0","0","92","0","0","0","92","0","88","92","88","0","88","3","92","0","92","Fri Feb 19 14:57:08 2021","The main experiment item","yes","Lexical_Decision_Task.osexp","/Users/anisperryn/Desktop","no","Andale Mono","no","18","no","white","no","yes","576","legacy","88","88","3","/Users/anisperryn/Desktop/subject-5213390.csv","legacy","Lentiform Loewenfeld","3.3.7","yes","yes","600bd7cfb6416f0113b04181","602110864497cf011d9c0822","0","j","NA","space","space","space","space","j","586","NA","3631","14495","6481","6957","586","2","legacy","1024","2","48000","-16","task","5213390","even","NA","34810","40452","36819","202578","6495","27485","21003","203082","131991","202576","203083","202519","40452","203671","33193","202019","6447","126516","Lexical Decision Task","88","59757","93","yes","1024"
"2.68604012","0","4","pumb","non-word","94.68085106382979","94.68085106382979","640.6489361702128","640.6489361702128","black","no","legacy","legacy","legacy","0","uniform","1","undefined","undefined","undefined","1","f","0","0","0","0","93","0","0","0","93","0","89","93","89","0","89","3","93","0","93","Fri Feb 19 14:57:08 2021","The main experiment item","yes","Lexical_Decision_Task.osexp","/Users/anisperryn/Desktop","no","Andale Mono","no","18","no","white","no","yes","576","legacy","89","89","3","/Users/anisperryn/Desktop/subject-5213390.csv","legacy","Lentiform Loewenfeld","3.3.7","yes","yes","600bd7cfb6416f0113b04181","602110864497cf011d9c0822","0","f","NA","space","space","space","space","f","464","NA","3631","14495","6481","6957","464","2","legacy","1024","2","48000","-16","task","5213390","even","NA","34810","40452","36819","204235","6495","27485","21003","204738","131991","204233","204738","204175","40452","205205","33193","203675","6447","126516","Lexical Decision Task","89","60221","94","yes","1024"
"3.481012421","8.34","5","teen","word","94.73684210526316","94.73684210526316","638.3473684210526","638.3473684210526","black","no","legacy","legacy","legacy","0","uniform","1","undefined","undefined","undefined","1","j","0","0","0","0","94","0","0","0","94","0","90","94","90","0","90","3","94","0","94","Fri Feb 19 14:57:08 2021","The main experiment item","yes","Lexical_Decision_Task.osexp","/Users/anisperryn/Desktop","no","Andale Mono","no","18","no","white","no","yes","576","legacy","90","90","3","/Users/anisperryn/Desktop/subject-5213390.csv","legacy","Lentiform Loewenfeld","3.3.7","yes","yes","600bd7cfb6416f0113b04181","602110864497cf011d9c0822","0","j","NA","space","space","space","space","j","422","NA","3631","14495","6481","6957","422","2","legacy","1024","2","48000","-16","task","5213390","even","NA","34810","40452","36819","205768","6495","27485","21003","206271","131991","205765","206271","205708","40452","206694","33193","205208","6447","126516","Lexical Decision Task","90","60643","95","yes","1024"
"3.043885998","0","9","gome","non-word","94.79166666666667","94.79166666666667","637.21875","637.21875","black","no","legacy","legacy","legacy","0","uniform","1","undefined","undefined","undefined","1","f","0","0","0","0","95","0","0","0","95","0","91","95","91","0","91","3","95","0","95","Fri Feb 19 14:57:08 2021","The main experiment item","yes","Lexical_Decision_Task.osexp","/Users/anisperryn/Desktop","no","Andale Mono","no","18","no","white","no","yes","576","legacy","91","91","3","/Users/anisperryn/Desktop/subject-5213390.csv","legacy","Lentiform Loewenfeld","3.3.7","yes","yes","600bd7cfb6416f0113b04181","602110864497cf011d9c0822","0","f","NA","space","space","space","space","f","530","NA","3631","14495","6481","6957","530","2","legacy","1024","2","48000","-16","task","5213390","even","NA","34810","40452","36819","207257","6495","27485","21003","207760","131991","207254","207760","207198","40452","208292","33193","206698","6447","126516","Lexical Decision Task","91","61173","96","yes","1024"
"3.276537627","9.15","5","trap","word","94.84536082474227","94.84536082474227","636.020618556701","636.020618556701","black","no","legacy","legacy","legacy","0","uniform","1","undefined","undefined","undefined","1","j","0","0","0","0","96","0","0","0","96","0","92","96","92","0","92","3","96","0","96","Fri Feb 19 14:57:08 2021","The main experiment item","yes","Lexical_Decision_Task.osexp","/Users/anisperryn/Desktop","no","Andale Mono","no","18","no","white","no","yes","576","legacy","92","92","3","/Users/anisperryn/Desktop/subject-5213390.csv","legacy","Lentiform Loewenfeld","3.3.7","yes","yes","600bd7cfb6416f0113b04181","602110864497cf011d9c0822","0","j","NA","space","space","space","space","j","521","NA","3631","14495","6481","6957","521","2","legacy","1024","2","48000","-16","task","5213390","even","NA","34810","40452","36819","208855","6495","27485","21003","209358","131991","208852","209358","208795","40452","209881","33193","208295","6447","126516","Lexical Decision Task","92","61694","97","yes","1024"
"2.6599162","0","2","saff","non-word","94.89795918367346","94.89795918367346","634.7857142857143","634.7857142857143","black","no","legacy","legacy","legacy","0","uniform","1","undefined","undefined","undefined","1","f","0","0","0","0","97","0","0","0","97","0","93","97","93","0","93","3","97","0","97","Fri Feb 19 14:57:08 2021","The main experiment item","yes","Lexical_Decision_Task.osexp","/Users/anisperryn/Desktop","no","Andale Mono","no","18","no","white","no","yes","576","legacy","93","93","3","/Users/anisperryn/Desktop/subject-5213390.csv","legacy","Lentiform Loewenfeld","3.3.7","yes","yes","600bd7cfb6416f0113b04181","602110864497cf011d9c0822","0","f","NA","space","space","space","space","f","515","NA","3631","14495","6481","6957","515","2","legacy","1024","2","48000","-16","task","5213390","even","NA","34810","40452","36819","210446","6495","27485","21003","210949","131991","210443","210949","210385","40452","211466","33193","209885","6447","126516","Lexical Decision Task","93","62209","98","yes","1024"
"3.168400243","9.12","6","horn","word","94.94949494949495","94.94949494949495","634.4040404040404","634.4040404040404","black","no","legacy","legacy","legacy","0","uniform","1","undefined","undefined","undefined","1","j","0","0","0","0","98","0","0","0","98","0","94","98","94","0","94","3","98","0","98","Fri Feb 19 14:57:08 2021","The main experiment item","yes","Lexical_Decision_Task.osexp","/Users/anisperryn/Desktop","no","Andale Mono","no","18","no","white","no","yes","576","legacy","94","94","3","/Users/anisperryn/Desktop/subject-5213390.csv","legacy","Lentiform Loewenfeld","3.3.7","yes","yes","600bd7cfb6416f0113b04181","602110864497cf011d9c0822","0","j","NA","space","space","space","space","j","597","NA","3631","14495","6481","6957","597","2","legacy","1024","2","48000","-16","task","5213390","even","NA","34810","40452","36819","212029","6495","27485","21003","212532","131991","212026","212532","211970","40452","213131","33193","211469","6447","126516","Lexical Decision Task","94","62806","99","yes","1024"
"3.488597715","0","9","nain","non-word","95","95","632.34","632.34","black","no","legacy","legacy","legacy","0","uniform","1","undefined","undefined","undefined","1","f","0","0","0","0","99","0","0","0","99","0","95","99","95","0","95","3","99","0","99","Fri Feb 19 14:57:08 2021","The main experiment item","yes","Lexical_Decision_Task.osexp","/Users/anisperryn/Desktop","no","Andale Mono","no","18","no","white","no","yes","576","legacy","95","95","3","/Users/anisperryn/Desktop/subject-5213390.csv","legacy","Lentiform Loewenfeld","3.3.7","yes","yes","600bd7cfb6416f0113b04181","602110864497cf011d9c0822","0","f","NA","space","space","space","space","f","428","NA","3631","14495","6481","6957","428","2","legacy","1024","2","48000","-16","task","5213390","even","NA","34810","40452","36819","213695","6495","27485","21003","214198","131991","213693","214198","213635","40452","214628","33193","213134","6447","126516","Lexical Decision Task","95","63234","100","yes","1024"
"3.067193647","6.73","6","raft","word","95.04950495049505","95.04950495049505","634.0792079207921","634.0792079207921","black","no","legacy","legacy","legacy","0","uniform","1","undefined","undefined","undefined","1","j","0","0","0","0","100","0","0","0","100","0","96","100","96","0","96","3","100","0","100","Fri Feb 19 14:57:08 2021","The main experiment item","yes","Lexical_Decision_Task.osexp","/Users/anisperryn/Desktop","no","Andale Mono","no","18","no","white","no","yes","576","legacy","96","96","3","/Users/anisperryn/Desktop/subject-5213390.csv","legacy","Lentiform Loewenfeld","3.3.7","yes","yes","600bd7cfb6416f0113b04181","602110864497cf011d9c0822","0","j","NA","space","space","space","space","j","808","NA","3631","14495","6481","6957","808","2","legacy","1024","2","48000","-16","task","5213390","even","NA","34810","40452","36819","215192","6495","27485","21003","215695","131991","215189","215695","215132","40452","216505","33193","214631","6447","126516","Lexical Decision Task","96","64042","101","yes","1024"
