"Log_BG","Log_Freq_HAL","Ortho_N","Stimulus","Type","acc","accuracy","average_response_time","avg_rt","background","bidi","canvas_backend","clock_backend","color_backend","compensation","coordinates","correct","correct_Experimental_intro","correct_Introduction","correct_Practice_intro","correct_experimenter_kb","correct_response","count_End_Of_Experiment","count_End_Of_Practice","count_Experimental_Loop","count_Experimental_intro","count_Fixation","count_Introduction","count_Practice_Loop","count_Practice_intro","count_Stimulus","count_block_break_feedback","count_experimental_sequence","count_experimenter_kb","count_increment_trial_count","count_init_trial_count","count_logger","count_practice_sequence","count_right","count_task","count_wrong","datetime","description","disable_garbage_collection","experiment_file","experiment_path","font_bold","font_family","font_italic","font_size","font_underline","foreground","form_clicks","fullscreen","height","keyboard_backend","live_row","live_row_Experimental_Loop","live_row_Practice_Loop","logfile","mouse_backend","opensesame_codename","opensesame_version","osf_always_upload_data","osf_always_upload_experiment","osf_datanode_id","osf_id","repeat_cycle","response","response_End_Of_Experiment","response_Experimental_intro","response_Introduction","response_Practice_intro","response_block_break_feedback","response_experimenter_kb","response_time","response_time_End_Of_Experiment","response_time_Experimental_intro","response_time_Introduction","response_time_Practice_intro","response_time_block_break_feedback","response_time_experimenter_kb","round_decimals","sampler_backend","sound_buf_size","sound_channels","sound_freq","sound_sample_size","start","subject_nr","subject_parity","time_End_Of_Experiment","time_End_Of_Practice","time_Experimental_Loop","time_Experimental_intro","time_Fixation","time_Introduction","time_Practice_Loop","time_Practice_intro","time_Stimulus","time_block_break_feedback","time_experimental_sequence","time_experimenter_kb","time_increment_trial_count","time_init_trial_count","time_logger","time_practice_sequence","time_right","time_task","time_wrong","title","total_correct","total_response_time","total_responses","uniform_coordinates","width"
"2.812467698","0","7","hafe","non-word","100","100","1543.8","1543.8","black","no","legacy","legacy","legacy","0","uniform","1","undefined","undefined","undefined","1","f","0","0","0","0","4","0","0","0","4","NA","0","4","0","0","0","3","4","0","4","Fri Feb 19 12:47:25 2021","The main experiment item","yes","Lexical_Decision_Task.osexp","/Users/kian","no","Andale Mono","no","18","no","white","no","yes","576","legacy","0","0","3","/Users/kian/subject-5226110.csv","legacy","Lentiform Loewenfeld","3.3.7","yes","yes","600bd7cfb6416f0113b04181","602110864497cf011d9c0822","0","f","NA","space","space","space","NA","f","2099","NA","7005","37753","33779","NA","2099","2","legacy","1024","2","48000","-16","task","5226110","even","NA","85863","94871","87865","94897","4473","76020","42237","95399","NA","94894","95399","NA","94871","97499","84003","85339","4436","NA","Lexical Decision Task","5","7719","5","yes","1024"
"2.75025376","10.2","6","jump","word","100","100","1429.6666666666667","1429.6666666666667","black","no","legacy","legacy","legacy","0","uniform","1","undefined","undefined","undefined","1","j","0","0","0","0","5","0","0","0","5","NA","1","5","1","0","1","3","5","0","5","Fri Feb 19 12:47:25 2021","The main experiment item","yes","Lexical_Decision_Task.osexp","/Users/kian","no","Andale Mono","no","18","no","white","no","yes","576","legacy","1","1","3","/Users/kian/subject-5226110.csv","legacy","Lentiform Loewenfeld","3.3.7","yes","yes","600bd7cfb6416f0113b04181","602110864497cf011d9c0822","0","j","NA","space","space","space","NA","j","859","NA","7005","37753","33779","NA","859","2","legacy","1024","2","48000","-16","task","5226110","even","NA","85863","94871","87865","98055","4473","76020","42237","98557","NA","98053","98557","98006","94871","99416","84003","97506","4436","NA","Lexical Decision Task","6","8578","6","yes","1024"
"2.839898939","8.99","6","soap","word","100","100","1326","1326","black","no","legacy","legacy","legacy","0","uniform","1","undefined","undefined","undefined","1","j","0","0","0","0","6","0","0","0","6","NA","2","6","2","0","2","3","6","0","6","Fri Feb 19 12:47:25 2021","The main experiment item","yes","Lexical_Decision_Task.osexp","/Users/kian","no","Andale Mono","no","18","no","white","no","yes","576","legacy","2","2","3","/Users/kian/subject-5226110.csv","legacy","Lentiform Loewenfeld","3.3.7","yes","yes","600bd7cfb6416f0113b04181","602110864497cf011d9c0822","0","j","NA","space","space","space","NA","j","704","NA","7005","37753","33779","NA","704","2","legacy","1024","2","48000","-16","task","5226110","even","NA","85863","94871","87865","99965","4473","76020","42237","100471","NA","99963","100471","99921","94871","101175","84003","99421","4436","NA","Lexical Decision Task","7","9282","7","yes","1024"
"2.705007959","6.01","4","wept","word","100","100","1282.375","1282.375","black","no","legacy","legacy","legacy","0","uniform","1","undefined","undefined","undefined","1","j","0","0","0","0","7","0","0","0","7","NA","3","7","3","0","3","3","7","0","7","Fri Feb 19 12:47:25 2021","The main experiment item","yes","Lexical_Decision_Task.osexp","/Users/kian","no","Andale Mono","no","18","no","white","no","yes","576","legacy","3","3","3","/Users/kian/subject-5226110.csv","legacy","Lentiform Loewenfeld","3.3.7","yes","yes","600bd7cfb6416f0113b04181","602110864497cf011d9c0822","0","j","NA","space","space","space","NA","j","977","NA","7005","37753","33779","NA","977","2","legacy","1024","2","48000","-16","task","5226110","even","NA","85863","94871","87865","101724","4473","76020","42237","102226","NA","101722","102226","101680","94871","103204","84003","101180","4436","NA","Lexical Decision Task","8","10259","8","yes","1024"
"2.746890964","9.67","3","plug","word","100","100","1207.6666666666667","1207.6666666666667","black","no","legacy","legacy","legacy","0","uniform","1","undefined","undefined","undefined","1","j","0","0","0","0","8","0","0","0","8","NA","4","8","4","0","4","3","8","0","8","Fri Feb 19 12:47:25 2021","The main experiment item","yes","Lexical_Decision_Task.osexp","/Users/kian","no","Andale Mono","no","18","no","white","no","yes","576","legacy","4","4","3","/Users/kian/subject-5226110.csv","legacy","Lentiform Loewenfeld","3.3.7","yes","yes","600bd7cfb6416f0113b04181","602110864497cf011d9c0822","0","j","NA","space","space","space","NA","j","610","NA","7005","37753","33779","NA","610","2","legacy","1024","2","48000","-16","task","5226110","even","NA","85863","94871","87865","103754","4473","76020","42237","104256","NA","103751","104256","103709","94871","104867","84003","103209","4436","NA","Lexical Decision Task","9","10869","9","yes","1024"
"2.6599162","0","2","saff","non-word","100","100","1186.9","1186.9","black","no","legacy","legacy","legacy","0","uniform","1","undefined","undefined","undefined","1","f","0","0","0","0","9","0","0","0","9","NA","5","9","5","0","5","3","9","0","9","Fri Feb 19 12:47:25 2021","The main experiment item","yes","Lexical_Decision_Task.osexp","/Users/kian","no","Andale Mono","no","18","no","white","no","yes","576","legacy","5","5","3","/Users/kian/subject-5226110.csv","legacy","Lentiform Loewenfeld","3.3.7","yes","yes","600bd7cfb6416f0113b04181","602110864497cf011d9c0822","0","f","NA","space","space","space","NA","f","1000","NA","7005","37753","33779","NA","1000","2","legacy","1024","2","48000","-16","task","5226110","even","NA","85863","94871","87865","105415","4473","76020","42237","105919","NA","105413","105920","105371","94871","106921","84003","104871","4436","NA","Lexical Decision Task","10","11869","10","yes","1024"
"3.488597715","0","9","nain","non-word","100","100","1167.6363636363637","1167.6363636363637","black","no","legacy","legacy","legacy","0","uniform","1","undefined","undefined","undefined","1","f","0","0","0","0","10","0","0","0","10","NA","6","10","6","0","6","3","10","0","10","Fri Feb 19 12:47:25 2021","The main experiment item","yes","Lexical_Decision_Task.osexp","/Users/kian","no","Andale Mono","no","18","no","white","no","yes","576","legacy","6","6","3","/Users/kian/subject-5226110.csv","legacy","Lentiform Loewenfeld","3.3.7","yes","yes","600bd7cfb6416f0113b04181","602110864497cf011d9c0822","0","f","NA","space","space","space","NA","f","975","NA","7005","37753","33779","NA","975","2","legacy","1024","2","48000","-16","task","5226110","even","NA","85863","94871","87865","107469","4473","76020","42237","107972","NA","107467","107972","107425","94871","108947","84003","106925","4436","NA","Lexical Decision Task","11","12844","11","yes","1024"
"3.131833513","7.66","4","limb","word","100","100","1124.5","1124.5","black","no","legacy","legacy","legacy","0","uniform","1","undefined","undefined","undefined","1","j","0","0","0","0","11","0","0","0","11","NA","7","11","7","0","7","3","11","0","11","Fri Feb 19 12:47:25 2021","The main experiment item","yes","Lexical_Decision_Task.osexp","/Users/kian","no","Andale Mono","no","18","no","white","no","yes","576","legacy","7","7","3","/Users/kian/subject-5226110.csv","legacy","Lentiform Loewenfeld","3.3.7","yes","yes","600bd7cfb6416f0113b04181","602110864497cf011d9c0822","0","j","NA","space","space","space","NA","j","650","NA","7005","37753","33779","NA","650","2","legacy","1024","2","48000","-16","task","5226110","even","NA","85863","94871","87865","109495","4473","76020","42237","109998","NA","109493","109998","109451","94871","110649","84003","108951","4436","NA","Lexical Decision Task","12","13494","12","yes","1024"
"2.668385917","5.48","4","twig","word","100","100","1075.3846153846155","1075.3846153846155","black","no","legacy","legacy","legacy","0","uniform","1","undefined","undefined","undefined","1","j","0","0","0","0","12","0","0","0","12","NA","8","12","8","0","8","3","12","0","12","Fri Feb 19 12:47:25 2021","The main experiment item","yes","Lexical_Decision_Task.osexp","/Users/kian","no","Andale Mono","no","18","no","white","no","yes","576","legacy","8","8","3","/Users/kian/subject-5226110.csv","legacy","Lentiform Loewenfeld","3.3.7","yes","yes","600bd7cfb6416f0113b04181","602110864497cf011d9c0822","0","j","NA","space","space","space","NA","j","486","NA","7005","37753","33779","NA","486","2","legacy","1024","2","48000","-16","task","5226110","even","NA","85863","94871","87865","111197","4473","76020","42237","111699","NA","111195","111699","111153","94871","112186","84003","110653","4436","NA","Lexical Decision Task","13","13980","13","yes","1024"
"3.218535505","7.85","7","goat","word","100","100","1032.4285714285713","1032.4285714285713","black","no","legacy","legacy","legacy","0","uniform","1","undefined","undefined","undefined","1","j","0","0","0","0","13","0","0","0","13","NA","9","13","9","0","9","3","13","0","13","Fri Feb 19 12:47:25 2021","The main experiment item","yes","Lexical_Decision_Task.osexp","/Users/kian","no","Andale Mono","no","18","no","white","no","yes","576","legacy","9","9","3","/Users/kian/subject-5226110.csv","legacy","Lentiform Loewenfeld","3.3.7","yes","yes","600bd7cfb6416f0113b04181","602110864497cf011d9c0822","0","j","NA","space","space","space","NA","j","474","NA","7005","37753","33779","NA","474","2","legacy","1024","2","48000","-16","task","5226110","even","NA","85863","94871","87865","112734","4473","76020","42237","113236","NA","112731","113236","112690","94871","113711","84003","112190","4436","NA","Lexical Decision Task","14","14454","14","yes","1024"
"3.248054965","7.86","5","glow","word","100","100","994.4666666666667","994.4666666666667","black","no","legacy","legacy","legacy","0","uniform","1","undefined","undefined","undefined","1","j","0","0","0","0","14","0","0","0","14","NA","10","14","10","0","10","3","14","0","14","Fri Feb 19 12:47:25 2021","The main experiment item","yes","Lexical_Decision_Task.osexp","/Users/kian","no","Andale Mono","no","18","no","white","no","yes","576","legacy","10","10","3","/Users/kian/subject-5226110.csv","legacy","Lentiform Loewenfeld","3.3.7","yes","yes","600bd7cfb6416f0113b04181","602110864497cf011d9c0822","0","j","NA","space","space","space","NA","j","463","NA","7005","37753","33779","NA","463","2","legacy","1024","2","48000","-16","task","5226110","even","NA","85863","94871","87865","114259","4473","76020","42237","114761","NA","114257","114761","114215","94871","115224","84003","113715","4436","NA","Lexical Decision Task","15","14917","15","yes","1024"
"2.8162413","0","5","nusk","non-word","93.75","93.75","963.3125","963.3125","black","no","legacy","legacy","legacy","0","uniform","0","undefined","undefined","undefined","0","f","0","0","0","0","15","0","0","0","15","NA","11","15","11","0","11","3","15","0","15","Fri Feb 19 12:47:25 2021","The main experiment item","yes","Lexical_Decision_Task.osexp","/Users/kian","no","Andale Mono","no","18","no","white","no","yes","576","legacy","11","11","3","/Users/kian/subject-5226110.csv","legacy","Lentiform Loewenfeld","3.3.7","yes","yes","600bd7cfb6416f0113b04181","602110864497cf011d9c0822","0","j","NA","space","space","space","NA","j","496","NA","7005","37753","33779","NA","496","2","legacy","1024","2","48000","-16","task","5226110","even","NA","85863","94871","87865","115773","4473","76020","42237","116275","NA","115771","116275","115729","94871","116771","84003","115229","4436","NA","Lexical Decision Task","15","15413","16","yes","1024"
"3.274157849","0","8","leet","non-word","94.11764705882354","94.11764705882354","978.1764705882352","978.1764705882352","black","no","legacy","legacy","legacy","0","uniform","1","undefined","undefined","undefined","1","f","0","0","0","0","16","0","0","0","16","NA","12","16","12","0","12","3","16","0","16","Fri Feb 19 12:47:25 2021","The main experiment item","yes","Lexical_Decision_Task.osexp","/Users/kian","no","Andale Mono","no","18","no","white","no","yes","576","legacy","12","12","3","/Users/kian/subject-5226110.csv","legacy","Lentiform Loewenfeld","3.3.7","yes","yes","600bd7cfb6416f0113b04181","602110864497cf011d9c0822","0","f","NA","space","space","space","NA","f","1216","NA","7005","37753","33779","NA","1216","2","legacy","1024","2","48000","-16","task","5226110","even","NA","85863","94871","87865","118321","4473","76020","42237","118823","NA","118318","118823","118276","94871","120039","84003","115229","4436","116776","Lexical Decision Task","16","16629","17","yes","1024"
"3.307211407","6.07","7","honk","word","94.44444444444444","94.44444444444444","964.6666666666666","964.6666666666666","black","no","legacy","legacy","legacy","0","uniform","1","undefined","undefined","undefined","1","j","0","0","0","0","17","0","0","0","17","NA","13","17","13","0","13","3","17","0","17","Fri Feb 19 12:47:25 2021","The main experiment item","yes","Lexical_Decision_Task.osexp","/Users/kian","no","Andale Mono","no","18","no","white","no","yes","576","legacy","13","13","3","/Users/kian/subject-5226110.csv","legacy","Lentiform Loewenfeld","3.3.7","yes","yes","600bd7cfb6416f0113b04181","602110864497cf011d9c0822","0","j","NA","space","space","space","NA","j","735","NA","7005","37753","33779","NA","735","2","legacy","1024","2","48000","-16","task","5226110","even","NA","85863","94871","87865","120587","4473","76020","42237","121089","NA","120585","121089","120544","94871","121825","84003","120043","4436","116776","Lexical Decision Task","17","17364","18","yes","1024"
"2.983324025","9.56","2","debt","word","94.73684210526316","94.73684210526316","947.4736842105264","947.4736842105264","black","no","legacy","legacy","legacy","0","uniform","1","undefined","undefined","undefined","1","j","0","0","0","0","18","0","0","0","18","NA","14","18","14","0","14","3","18","0","18","Fri Feb 19 12:47:25 2021","The main experiment item","yes","Lexical_Decision_Task.osexp","/Users/kian","no","Andale Mono","no","18","no","white","no","yes","576","legacy","14","14","3","/Users/kian/subject-5226110.csv","legacy","Lentiform Loewenfeld","3.3.7","yes","yes","600bd7cfb6416f0113b04181","602110864497cf011d9c0822","0","j","NA","space","space","space","NA","j","638","NA","7005","37753","33779","NA","638","2","legacy","1024","2","48000","-16","task","5226110","even","NA","85863","94871","87865","122374","4473","76020","42237","122876","NA","122372","122876","122330","94871","123515","84003","121829","4436","116776","Lexical Decision Task","18","18002","19","yes","1024"
"3.374137706","10.21","4","tree","word","95","95","933.1","933.1","black","no","legacy","legacy","legacy","0","uniform","1","undefined","undefined","undefined","1","j","0","0","0","0","19","0","0","0","19","NA","15","19","15","0","15","3","19","0","19","Fri Feb 19 12:47:25 2021","The main experiment item","yes","Lexical_Decision_Task.osexp","/Users/kian","no","Andale Mono","no","18","no","white","no","yes","576","legacy","15","15","3","/Users/kian/subject-5226110.csv","legacy","Lentiform Loewenfeld","3.3.7","yes","yes","600bd7cfb6416f0113b04181","602110864497cf011d9c0822","0","j","NA","space","space","space","NA","j","660","NA","7005","37753","33779","NA","660","2","legacy","1024","2","48000","-16","task","5226110","even","NA","85863","94871","87865","124063","4473","76020","42237","124565","NA","124061","124565","124019","94871","125225","84003","123519","4436","116776","Lexical Decision Task","19","18662","20","yes","1024"
"2.986323777","10.85","8","ship","word","95.23809523809524","95.23809523809524","911.9047619047619","911.9047619047619","black","no","legacy","legacy","legacy","0","uniform","1","undefined","undefined","undefined","1","j","0","0","0","0","20","0","0","0","20","NA","16","20","16","0","16","3","20","0","20","Fri Feb 19 12:47:25 2021","The main experiment item","yes","Lexical_Decision_Task.osexp","/Users/kian","no","Andale Mono","no","18","no","white","no","yes","576","legacy","16","16","3","/Users/kian/subject-5226110.csv","legacy","Lentiform Loewenfeld","3.3.7","yes","yes","600bd7cfb6416f0113b04181","602110864497cf011d9c0822","0","j","NA","space","space","space","NA","j","488","NA","7005","37753","33779","NA","488","2","legacy","1024","2","48000","-16","task","5226110","even","NA","85863","94871","87865","125773","4473","76020","42237","126276","NA","125771","126276","125729","94871","126764","84003","125229","4436","116776","Lexical Decision Task","20","19150","21","yes","1024"
"3.081107167","0","6","chot","non-word","95.45454545454545","95.45454545454545","902.4545454545455","902.4545454545455","black","no","legacy","legacy","legacy","0","uniform","1","undefined","undefined","undefined","1","f","0","0","0","0","21","0","0","0","21","NA","17","21","17","0","17","3","21","0","21","Fri Feb 19 12:47:25 2021","The main experiment item","yes","Lexical_Decision_Task.osexp","/Users/kian","no","Andale Mono","no","18","no","white","no","yes","576","legacy","17","17","3","/Users/kian/subject-5226110.csv","legacy","Lentiform Loewenfeld","3.3.7","yes","yes","600bd7cfb6416f0113b04181","602110864497cf011d9c0822","0","f","NA","space","space","space","NA","f","704","NA","7005","37753","33779","NA","704","2","legacy","1024","2","48000","-16","task","5226110","even","NA","85863","94871","87865","127311","4473","76020","42237","127814","NA","127309","127815","127268","94871","128520","84003","126768","4436","116776","Lexical Decision Task","21","19854","22","yes","1024"
"3.003891166","8.05","2","frog","word","95.65217391304348","95.65217391304348","881.7826086956521","881.7826086956521","black","no","legacy","legacy","legacy","0","uniform","1","undefined","undefined","undefined","1","j","0","0","0","0","22","0","0","0","22","NA","18","22","18","0","18","3","22","0","22","Fri Feb 19 12:47:25 2021","The main experiment item","yes","Lexical_Decision_Task.osexp","/Users/kian","no","Andale Mono","no","18","no","white","no","yes","576","legacy","18","18","3","/Users/kian/subject-5226110.csv","legacy","Lentiform Loewenfeld","3.3.7","yes","yes","600bd7cfb6416f0113b04181","602110864497cf011d9c0822","0","j","NA","space","space","space","NA","j","427","NA","7005","37753","33779","NA","427","2","legacy","1024","2","48000","-16","task","5226110","even","NA","85863","94871","87865","129066","4473","76020","42237","129568","NA","129065","129569","129024","94871","129997","84003","128524","4436","116776","Lexical Decision Task","22","20281","23","yes","1024"
"2.664328519","0","4","plux","non-word","95.83333333333333","95.83333333333333","878.7916666666666","878.7916666666666","black","no","legacy","legacy","legacy","0","uniform","1","undefined","undefined","undefined","1","f","0","0","0","0","23","0","0","0","23","NA","19","23","19","0","19","3","23","0","23","Fri Feb 19 12:47:25 2021","The main experiment item","yes","Lexical_Decision_Task.osexp","/Users/kian","no","Andale Mono","no","18","no","white","no","yes","576","legacy","19","19","3","/Users/kian/subject-5226110.csv","legacy","Lentiform Loewenfeld","3.3.7","yes","yes","600bd7cfb6416f0113b04181","602110864497cf011d9c0822","0","f","NA","space","space","space","NA","f","810","NA","7005","37753","33779","NA","810","2","legacy","1024","2","48000","-16","task","5226110","even","NA","85863","94871","87865","130545","4473","76020","42237","131047","NA","130542","131047","130501","94871","131858","84003","130001","4436","116776","Lexical Decision Task","23","21091","24","yes","1024"
"3.431095062","5.74","9","perk","word","96","96","867.64","867.64","black","no","legacy","legacy","legacy","0","uniform","1","undefined","undefined","undefined","1","j","0","0","0","0","24","0","0","0","24","NA","20","24","20","0","20","3","24","0","24","Fri Feb 19 12:47:25 2021","The main experiment item","yes","Lexical_Decision_Task.osexp","/Users/kian","no","Andale Mono","no","18","no","white","no","yes","576","legacy","20","20","3","/Users/kian/subject-5226110.csv","legacy","Lentiform Loewenfeld","3.3.7","yes","yes","600bd7cfb6416f0113b04181","602110864497cf011d9c0822","0","j","NA","space","space","space","NA","j","600","NA","7005","37753","33779","NA","600","2","legacy","1024","2","48000","-16","task","5226110","even","NA","85863","94871","87865","132406","4473","76020","42237","132908","NA","132404","132908","132362","94871","133509","84003","131862","4436","116776","Lexical Decision Task","24","21691","25","yes","1024"
"3.076883066","0","8","mout","non-word","96.15384615384616","96.15384615384616","874.0769230769231","874.0769230769231","black","no","legacy","legacy","legacy","0","uniform","1","undefined","undefined","undefined","1","f","0","0","0","0","25","0","0","0","25","NA","21","25","21","0","21","3","25","0","25","Fri Feb 19 12:47:25 2021","The main experiment item","yes","Lexical_Decision_Task.osexp","/Users/kian","no","Andale Mono","no","18","no","white","no","yes","576","legacy","21","21","3","/Users/kian/subject-5226110.csv","legacy","Lentiform Loewenfeld","3.3.7","yes","yes","600bd7cfb6416f0113b04181","602110864497cf011d9c0822","0","f","NA","space","space","space","NA","f","1035","NA","7005","37753","33779","NA","1035","2","legacy","1024","2","48000","-16","task","5226110","even","NA","85863","94871","87865","134057","4473","76020","42237","134559","NA","134055","134559","134014","94871","135594","84003","133513","4436","116776","Lexical Decision Task","25","22726","26","yes","1024"
"2.892836167","10.01","5","soft","word","96.29629629629629","96.29629629629629","862.0370370370371","862.0370370370371","black","no","legacy","legacy","legacy","0","uniform","1","undefined","undefined","undefined","1","j","0","0","0","0","26","0","0","0","26","NA","22","26","22","0","22","3","26","0","26","Fri Feb 19 12:47:25 2021","The main experiment item","yes","Lexical_Decision_Task.osexp","/Users/kian","no","Andale Mono","no","18","no","white","no","yes","576","legacy","22","22","3","/Users/kian/subject-5226110.csv","legacy","Lentiform Loewenfeld","3.3.7","yes","yes","600bd7cfb6416f0113b04181","602110864497cf011d9c0822","0","j","NA","space","space","space","NA","j","549","NA","7005","37753","33779","NA","549","2","legacy","1024","2","48000","-16","task","5226110","even","NA","85863","94871","87865","136143","4473","76020","42237","136644","NA","136141","136645","136099","94871","137195","84003","135599","4436","116776","Lexical Decision Task","26","23275","27","yes","1024"
"2.845304797","0","6","buct","non-word","96.42857142857143","96.42857142857143","855.3928571428571","855.3928571428571","black","no","legacy","legacy","legacy","0","uniform","1","undefined","undefined","undefined","1","f","0","0","0","0","27","0","0","0","27","NA","23","27","23","0","23","3","27","0","27","Fri Feb 19 12:47:25 2021","The main experiment item","yes","Lexical_Decision_Task.osexp","/Users/kian","no","Andale Mono","no","18","no","white","no","yes","576","legacy","23","23","3","/Users/kian/subject-5226110.csv","legacy","Lentiform Loewenfeld","3.3.7","yes","yes","600bd7cfb6416f0113b04181","602110864497cf011d9c0822","0","f","NA","space","space","space","NA","f","676","NA","7005","37753","33779","NA","676","2","legacy","1024","2","48000","-16","task","5226110","even","NA","85863","94871","87865","137742","4473","76020","42237","138244","NA","137740","138244","137698","94871","138921","84003","137198","4436","116776","Lexical Decision Task","27","23951","28","yes","1024"
"2.875447132","0","9","jelt","non-word","96.55172413793103","96.55172413793103","875.8965517241379","875.8965517241379","black","no","legacy","legacy","legacy","0","uniform","1","undefined","undefined","undefined","1","f","0","0","0","0","28","0","0","0","28","NA","24","28","24","0","24","3","28","0","28","Fri Feb 19 12:47:25 2021","The main experiment item","yes","Lexical_Decision_Task.osexp","/Users/kian","no","Andale Mono","no","18","no","white","no","yes","576","legacy","24","24","3","/Users/kian/subject-5226110.csv","legacy","Lentiform Loewenfeld","3.3.7","yes","yes","600bd7cfb6416f0113b04181","602110864497cf011d9c0822","0","f","NA","space","space","space","NA","f","1450","NA","7005","37753","33779","NA","1450","2","legacy","1024","2","48000","-16","task","5226110","even","NA","85863","94871","87865","139469","4473","76020","42237","139971","NA","139467","139971","139425","94871","141421","84003","138925","4436","116776","Lexical Decision Task","28","25401","29","yes","1024"
"2.813801082","5.47","7","nook","word","96.66666666666667","96.66666666666667","916.6","916.6","black","no","legacy","legacy","legacy","0","uniform","1","undefined","undefined","undefined","1","j","0","0","0","0","29","0","0","0","29","NA","25","29","25","0","25","3","29","0","29","Fri Feb 19 12:47:25 2021","The main experiment item","yes","Lexical_Decision_Task.osexp","/Users/kian","no","Andale Mono","no","18","no","white","no","yes","576","legacy","25","25","3","/Users/kian/subject-5226110.csv","legacy","Lentiform Loewenfeld","3.3.7","yes","yes","600bd7cfb6416f0113b04181","602110864497cf011d9c0822","0","j","NA","space","space","space","NA","j","2097","NA","7005","37753","33779","NA","2097","2","legacy","1024","2","48000","-16","task","5226110","even","NA","85863","94871","87865","141969","4473","76020","42237","142471","NA","141967","142471","141926","94871","144568","84003","141426","4436","116776","Lexical Decision Task","29","27498","30","yes","1024"
"3.14849993","10.75","7","hour","word","96.7741935483871","96.7741935483871","904.6129032258065","904.6129032258065","black","no","legacy","legacy","legacy","0","uniform","1","undefined","undefined","undefined","1","j","0","0","0","0","30","0","0","0","30","NA","26","30","26","0","26","3","30","0","30","Fri Feb 19 12:47:25 2021","The main experiment item","yes","Lexical_Decision_Task.osexp","/Users/kian","no","Andale Mono","no","18","no","white","no","yes","576","legacy","26","26","3","/Users/kian/subject-5226110.csv","legacy","Lentiform Loewenfeld","3.3.7","yes","yes","600bd7cfb6416f0113b04181","602110864497cf011d9c0822","0","j","NA","space","space","space","NA","j","545","NA","7005","37753","33779","NA","545","2","legacy","1024","2","48000","-16","task","5226110","even","NA","85863","94871","87865","145117","4473","76020","42237","145619","NA","145114","145619","145072","94871","146164","84003","144572","4436","116776","Lexical Decision Task","30","28043","31","yes","1024"
"3.153104174","10.89","6","door","word","96.875","96.875","892.03125","892.03125","black","no","legacy","legacy","legacy","0","uniform","1","undefined","undefined","undefined","1","j","0","0","0","0","31","0","0","0","31","NA","27","31","27","0","27","3","31","0","31","Fri Feb 19 12:47:25 2021","The main experiment item","yes","Lexical_Decision_Task.osexp","/Users/kian","no","Andale Mono","no","18","no","white","no","yes","576","legacy","27","27","3","/Users/kian/subject-5226110.csv","legacy","Lentiform Loewenfeld","3.3.7","yes","yes","600bd7cfb6416f0113b04181","602110864497cf011d9c0822","0","j","NA","space","space","space","NA","j","502","NA","7005","37753","33779","NA","502","2","legacy","1024","2","48000","-16","task","5226110","even","NA","85863","94871","87865","146713","4473","76020","42237","147215","NA","146710","147215","146669","94871","147718","84003","146169","4436","116776","Lexical Decision Task","31","28545","32","yes","1024"
"2.719886232","7.98","2","quiz","word","96.96969696969697","96.96969696969697","887.7272727272727","887.7272727272727","black","no","legacy","legacy","legacy","0","uniform","1","undefined","undefined","undefined","1","j","0","0","0","0","32","0","0","0","32","NA","28","32","28","0","28","3","32","0","32","Fri Feb 19 12:47:25 2021","The main experiment item","yes","Lexical_Decision_Task.osexp","/Users/kian","no","Andale Mono","no","18","no","white","no","yes","576","legacy","28","28","3","/Users/kian/subject-5226110.csv","legacy","Lentiform Loewenfeld","3.3.7","yes","yes","600bd7cfb6416f0113b04181","602110864497cf011d9c0822","0","j","NA","space","space","space","NA","j","750","NA","7005","37753","33779","NA","750","2","legacy","1024","2","48000","-16","task","5226110","even","NA","85863","94871","87865","148267","4473","76020","42237","148769","NA","148264","148769","148222","94871","149520","84003","147722","4436","116776","Lexical Decision Task","32","29295","33","yes","1024"
"2.979548375","8.71","4","soup","word","97.05882352941177","97.05882352941177","887.2058823529412","887.2058823529412","black","no","legacy","legacy","legacy","0","uniform","1","undefined","undefined","undefined","1","j","0","0","0","0","33","0","0","0","33","NA","29","33","29","0","29","3","33","0","33","Fri Feb 19 12:47:25 2021","The main experiment item","yes","Lexical_Decision_Task.osexp","/Users/kian","no","Andale Mono","no","18","no","white","no","yes","576","legacy","29","29","3","/Users/kian/subject-5226110.csv","legacy","Lentiform Loewenfeld","3.3.7","yes","yes","600bd7cfb6416f0113b04181","602110864497cf011d9c0822","0","j","NA","space","space","space","NA","j","870","NA","7005","37753","33779","NA","870","2","legacy","1024","2","48000","-16","task","5226110","even","NA","85863","94871","87865","150068","4473","76020","42237","150570","NA","150066","150570","150024","94871","151440","84003","149524","4436","116776","Lexical Decision Task","33","30165","34","yes","1024"
"3.705778213","0","6","stin","non-word","97.14285714285714","97.14285714285714","886.4571428571429","886.4571428571429","black","no","legacy","legacy","legacy","0","uniform","1","undefined","undefined","undefined","1","f","0","0","0","0","34","0","0","0","34","NA","30","34","30","0","30","3","34","0","34","Fri Feb 19 12:47:25 2021","The main experiment item","yes","Lexical_Decision_Task.osexp","/Users/kian","no","Andale Mono","no","18","no","white","no","yes","576","legacy","30","30","3","/Users/kian/subject-5226110.csv","legacy","Lentiform Loewenfeld","3.3.7","yes","yes","600bd7cfb6416f0113b04181","602110864497cf011d9c0822","0","f","NA","space","space","space","NA","f","861","NA","7005","37753","33779","NA","861","2","legacy","1024","2","48000","-16","task","5226110","even","NA","85863","94871","87865","151988","4473","76020","42237","152491","NA","151986","152491","151945","94871","153352","84003","151445","4436","116776","Lexical Decision Task","34","31026","35","yes","1024"
"2.784379519","0","2","snaf","non-word","97.22222222222223","97.22222222222223","888.3055555555555","888.3055555555555","black","no","legacy","legacy","legacy","0","uniform","1","undefined","undefined","undefined","1","f","0","0","0","0","35","0","0","0","35","NA","31","35","31","0","31","3","35","0","35","Fri Feb 19 12:47:25 2021","The main experiment item","yes","Lexical_Decision_Task.osexp","/Users/kian","no","Andale Mono","no","18","no","white","no","yes","576","legacy","31","31","3","/Users/kian/subject-5226110.csv","legacy","Lentiform Loewenfeld","3.3.7","yes","yes","600bd7cfb6416f0113b04181","602110864497cf011d9c0822","0","f","NA","space","space","space","NA","f","953","NA","7005","37753","33779","NA","953","2","legacy","1024","2","48000","-16","task","5226110","even","NA","85863","94871","87865","153900","4473","76020","42237","154402","NA","153898","154402","153857","94871","155356","84003","153357","4436","116776","Lexical Decision Task","35","31979","36","yes","1024"
"2.64476673","0","5","moft","non-word","97.29729729729729","97.29729729729729","885.6216216216217","885.6216216216217","black","no","legacy","legacy","legacy","0","uniform","1","undefined","undefined","undefined","1","f","0","0","0","0","36","0","0","0","36","NA","32","36","32","0","32","3","36","0","36","Fri Feb 19 12:47:25 2021","The main experiment item","yes","Lexical_Decision_Task.osexp","/Users/kian","no","Andale Mono","no","18","no","white","no","yes","576","legacy","32","32","3","/Users/kian/subject-5226110.csv","legacy","Lentiform Loewenfeld","3.3.7","yes","yes","600bd7cfb6416f0113b04181","602110864497cf011d9c0822","0","f","NA","space","space","space","NA","f","789","NA","7005","37753","33779","NA","789","2","legacy","1024","2","48000","-16","task","5226110","even","NA","85863","94871","87865","155903","4473","76020","42237","156406","NA","155901","156406","155860","94871","157195","84003","155360","4436","116776","Lexical Decision Task","36","32768","37","yes","1024"
"3.100255637","0","6","brax","non-word","97.36842105263158","97.36842105263158","879.5526315789474","879.5526315789474","black","no","legacy","legacy","legacy","0","uniform","1","undefined","undefined","undefined","1","f","0","0","0","0","37","0","0","0","37","NA","33","37","33","0","33","3","37","0","37","Fri Feb 19 12:47:25 2021","The main experiment item","yes","Lexical_Decision_Task.osexp","/Users/kian","no","Andale Mono","no","18","no","white","no","yes","576","legacy","33","33","3","/Users/kian/subject-5226110.csv","legacy","Lentiform Loewenfeld","3.3.7","yes","yes","600bd7cfb6416f0113b04181","602110864497cf011d9c0822","0","f","NA","space","space","space","NA","f","655","NA","7005","37753","33779","NA","655","2","legacy","1024","2","48000","-16","task","5226110","even","NA","85863","94871","87865","157742","4473","76020","42237","158245","NA","157740","158245","157699","94871","158901","84003","157199","4436","116776","Lexical Decision Task","37","33423","38","yes","1024"
"2.69019608","9.01","2","myth","word","97.43589743589743","97.43589743589743","876.0512820512821","876.0512820512821","black","no","legacy","legacy","legacy","0","uniform","1","undefined","undefined","undefined","1","j","0","0","0","0","38","0","0","0","38","NA","34","38","34","0","34","3","38","0","38","Fri Feb 19 12:47:25 2021","The main experiment item","yes","Lexical_Decision_Task.osexp","/Users/kian","no","Andale Mono","no","18","no","white","no","yes","576","legacy","34","34","3","/Users/kian/subject-5226110.csv","legacy","Lentiform Loewenfeld","3.3.7","yes","yes","600bd7cfb6416f0113b04181","602110864497cf011d9c0822","0","j","NA","space","space","space","NA","j","743","NA","7005","37753","33779","NA","743","2","legacy","1024","2","48000","-16","task","5226110","even","NA","85863","94871","87865","159450","4473","76020","42237","159952","NA","159448","159952","159406","94871","160696","84003","158905","4436","116776","Lexical Decision Task","38","34166","39","yes","1024"
"3.134602053","0","8","jart","non-word","97.5","97.5","878.775","878.775","black","no","legacy","legacy","legacy","0","uniform","1","undefined","undefined","undefined","1","f","0","0","0","0","39","0","0","0","39","NA","35","39","35","0","35","3","39","0","39","Fri Feb 19 12:47:25 2021","The main experiment item","yes","Lexical_Decision_Task.osexp","/Users/kian","no","Andale Mono","no","18","no","white","no","yes","576","legacy","35","35","3","/Users/kian/subject-5226110.csv","legacy","Lentiform Loewenfeld","3.3.7","yes","yes","600bd7cfb6416f0113b04181","602110864497cf011d9c0822","0","f","NA","space","space","space","NA","f","985","NA","7005","37753","33779","NA","985","2","legacy","1024","2","48000","-16","task","5226110","even","NA","85863","94871","87865","161243","4473","76020","42237","161745","NA","161241","161745","161200","94871","162731","84003","160700","4436","116776","Lexical Decision Task","39","35151","40","yes","1024"
"2.821076612","0","4","lult","non-word","97.5609756097561","97.5609756097561","877.0975609756098","877.0975609756098","black","no","legacy","legacy","legacy","0","uniform","1","undefined","undefined","undefined","1","f","0","0","0","0","40","0","0","0","40","NA","36","40","36","0","36","3","40","0","40","Fri Feb 19 12:47:25 2021","The main experiment item","yes","Lexical_Decision_Task.osexp","/Users/kian","no","Andale Mono","no","18","no","white","no","yes","576","legacy","36","36","3","/Users/kian/subject-5226110.csv","legacy","Lentiform Loewenfeld","3.3.7","yes","yes","600bd7cfb6416f0113b04181","602110864497cf011d9c0822","0","f","NA","space","space","space","NA","f","810","NA","7005","37753","33779","NA","810","2","legacy","1024","2","48000","-16","task","5226110","even","NA","85863","94871","87865","163279","4473","76020","42237","163781","NA","163277","163781","163235","94871","164592","84003","162735","4436","116776","Lexical Decision Task","40","35961","41","yes","1024"
"3.156347201","0","8","lasp","non-word","97.61904761904762","97.61904761904762","874.8571428571429","874.8571428571429","black","no","legacy","legacy","legacy","0","uniform","1","undefined","undefined","undefined","1","f","0","0","0","0","41","0","0","0","41","NA","37","41","37","0","37","3","41","0","41","Fri Feb 19 12:47:25 2021","The main experiment item","yes","Lexical_Decision_Task.osexp","/Users/kian","no","Andale Mono","no","18","no","white","no","yes","576","legacy","37","37","3","/Users/kian/subject-5226110.csv","legacy","Lentiform Loewenfeld","3.3.7","yes","yes","600bd7cfb6416f0113b04181","602110864497cf011d9c0822","0","f","NA","space","space","space","NA","f","783","NA","7005","37753","33779","NA","783","2","legacy","1024","2","48000","-16","task","5226110","even","NA","85863","94871","87865","165140","4473","76020","42237","165642","NA","165138","165642","165096","94871","166426","84003","164596","4436","116776","Lexical Decision Task","41","36744","42","yes","1024"
"2.616654026","9.37","5","gift","word","97.67441860465117","97.67441860465117","867.4418604651163","867.4418604651163","black","no","legacy","legacy","legacy","0","uniform","1","undefined","undefined","undefined","1","j","0","0","0","0","42","0","0","0","42","NA","38","42","38","0","38","3","42","0","42","Fri Feb 19 12:47:25 2021","The main experiment item","yes","Lexical_Decision_Task.osexp","/Users/kian","no","Andale Mono","no","18","no","white","no","yes","576","legacy","38","38","3","/Users/kian/subject-5226110.csv","legacy","Lentiform Loewenfeld","3.3.7","yes","yes","600bd7cfb6416f0113b04181","602110864497cf011d9c0822","0","j","NA","space","space","space","NA","j","556","NA","7005","37753","33779","NA","556","2","legacy","1024","2","48000","-16","task","5226110","even","NA","85863","94871","87865","166974","4473","76020","42237","167476","NA","166972","167476","166930","94871","168033","84003","166430","4436","116776","Lexical Decision Task","42","37300","43","yes","1024"
"3.282244367","0","6","fute","non-word","97.72727272727273","97.72727272727273","867.5227272727273","867.5227272727273","black","no","legacy","legacy","legacy","0","uniform","1","undefined","undefined","undefined","1","f","0","0","0","0","43","0","0","0","43","NA","39","43","39","0","39","3","43","0","43","Fri Feb 19 12:47:25 2021","The main experiment item","yes","Lexical_Decision_Task.osexp","/Users/kian","no","Andale Mono","no","18","no","white","no","yes","576","legacy","39","39","3","/Users/kian/subject-5226110.csv","legacy","Lentiform Loewenfeld","3.3.7","yes","yes","600bd7cfb6416f0113b04181","602110864497cf011d9c0822","0","f","NA","space","space","space","NA","f","871","NA","7005","37753","33779","NA","871","2","legacy","1024","2","48000","-16","task","5226110","even","NA","85863","94871","87865","168580","4473","76020","42237","169083","NA","168578","169083","168537","94871","169955","84003","168037","4436","116776","Lexical Decision Task","43","38171","44","yes","1024"
"3.067070856","9.39","3","loud","word","97.77777777777777","97.77777777777777","858.7777777777778","858.7777777777778","black","no","legacy","legacy","legacy","0","uniform","1","undefined","undefined","undefined","1","j","0","0","0","0","44","0","0","0","44","NA","40","44","40","0","40","3","44","0","44","Fri Feb 19 12:47:25 2021","The main experiment item","yes","Lexical_Decision_Task.osexp","/Users/kian","no","Andale Mono","no","18","no","white","no","yes","576","legacy","40","40","3","/Users/kian/subject-5226110.csv","legacy","Lentiform Loewenfeld","3.3.7","yes","yes","600bd7cfb6416f0113b04181","602110864497cf011d9c0822","0","j","NA","space","space","space","NA","j","474","NA","7005","37753","33779","NA","474","2","legacy","1024","2","48000","-16","task","5226110","even","NA","85863","94871","87865","170502","4473","76020","42237","171003","NA","170500","171004","170459","94871","171478","84003","169959","4436","116776","Lexical Decision Task","44","38645","45","yes","1024"
"2.842815106","7.86","8","lump","word","97.82608695652173","97.82608695652173","852.5","852.5","black","no","legacy","legacy","legacy","0","uniform","1","undefined","undefined","undefined","1","j","0","0","0","0","45","0","0","0","45","NA","41","45","41","0","41","3","45","0","45","Fri Feb 19 12:47:25 2021","The main experiment item","yes","Lexical_Decision_Task.osexp","/Users/kian","no","Andale Mono","no","18","no","white","no","yes","576","legacy","41","41","3","/Users/kian/subject-5226110.csv","legacy","Lentiform Loewenfeld","3.3.7","yes","yes","600bd7cfb6416f0113b04181","602110864497cf011d9c0822","0","j","NA","space","space","space","NA","j","570","NA","7005","37753","33779","NA","570","2","legacy","1024","2","48000","-16","task","5226110","even","NA","85863","94871","87865","172027","4473","76020","42237","172529","NA","172024","172529","171983","94871","173100","84003","171483","4436","116776","Lexical Decision Task","45","39215","46","yes","1024"
"3.225825991","0","7","talm","non-word","97.87234042553192","97.87234042553192","848.8085106382979","848.8085106382979","black","no","legacy","legacy","legacy","0","uniform","1","undefined","undefined","undefined","1","f","0","0","0","0","46","0","0","0","46","NA","42","46","42","0","42","3","46","0","46","Fri Feb 19 12:47:25 2021","The main experiment item","yes","Lexical_Decision_Task.osexp","/Users/kian","no","Andale Mono","no","18","no","white","no","yes","576","legacy","42","42","3","/Users/kian/subject-5226110.csv","legacy","Lentiform Loewenfeld","3.3.7","yes","yes","600bd7cfb6416f0113b04181","602110864497cf011d9c0822","0","f","NA","space","space","space","NA","f","679","NA","7005","37753","33779","NA","679","2","legacy","1024","2","48000","-16","task","5226110","even","NA","85863","94871","87865","173648","4473","76020","42237","174149","NA","173646","174150","173604","94871","174830","84003","173104","4436","116776","Lexical Decision Task","46","39894","47","yes","1024"
"2.920123326","7.43","4","duel","word","97.91666666666667","97.91666666666667","842.9583333333334","842.9583333333334","black","no","legacy","legacy","legacy","0","uniform","1","undefined","undefined","undefined","1","j","0","0","0","0","47","0","0","0","47","NA","43","47","43","0","43","3","47","0","47","Fri Feb 19 12:47:25 2021","The main experiment item","yes","Lexical_Decision_Task.osexp","/Users/kian","no","Andale Mono","no","18","no","white","no","yes","576","legacy","43","43","3","/Users/kian/subject-5226110.csv","legacy","Lentiform Loewenfeld","3.3.7","yes","yes","600bd7cfb6416f0113b04181","602110864497cf011d9c0822","0","j","NA","space","space","space","NA","j","568","NA","7005","37753","33779","NA","568","2","legacy","1024","2","48000","-16","task","5226110","even","NA","85863","94871","87865","175378","4473","76020","42237","175880","NA","175376","175880","175334","94871","176448","84003","174834","4436","116776","Lexical Decision Task","47","40462","48","yes","1024"
"3.274543461","7.46","7","scar","word","97.95918367346938","97.95918367346938","837.2857142857143","837.2857142857143","black","no","legacy","legacy","legacy","0","uniform","1","undefined","undefined","undefined","1","j","0","0","0","0","48","0","0","0","48","NA","44","48","44","0","44","3","48","0","48","Fri Feb 19 12:47:25 2021","The main experiment item","yes","Lexical_Decision_Task.osexp","/Users/kian","no","Andale Mono","no","18","no","white","no","yes","576","legacy","44","44","3","/Users/kian/subject-5226110.csv","legacy","Lentiform Loewenfeld","3.3.7","yes","yes","600bd7cfb6416f0113b04181","602110864497cf011d9c0822","0","j","NA","space","space","space","NA","j","565","NA","7005","37753","33779","NA","565","2","legacy","1024","2","48000","-16","task","5226110","even","NA","85863","94871","87865","176998","4473","76020","42237","177500","NA","176995","177500","176954","94871","178066","84003","176454","4436","116776","Lexical Decision Task","48","41027","49","yes","1024"
"3.068433376","8.09","2","bulb","word","98","98","831.82","831.82","black","no","legacy","legacy","legacy","0","uniform","1","undefined","undefined","undefined","1","j","0","0","0","0","49","0","0","0","49","NA","45","49","45","0","45","3","49","0","49","Fri Feb 19 12:47:25 2021","The main experiment item","yes","Lexical_Decision_Task.osexp","/Users/kian","no","Andale Mono","no","18","no","white","no","yes","576","legacy","45","45","3","/Users/kian/subject-5226110.csv","legacy","Lentiform Loewenfeld","3.3.7","yes","yes","600bd7cfb6416f0113b04181","602110864497cf011d9c0822","0","j","NA","space","space","space","NA","j","564","NA","7005","37753","33779","NA","564","2","legacy","1024","2","48000","-16","task","5226110","even","NA","85863","94871","87865","178615","4473","76020","42237","179117","NA","178613","179118","178570","94871","179683","84003","178070","4436","116776","Lexical Decision Task","49","41591","50","yes","1024"
"2.698100546","0","9","mulk","non-word","98.03921568627452","98.03921568627452","832.5098039215686","832.5098039215686","black","no","legacy","legacy","legacy","0","uniform","1","undefined","undefined","undefined","1","f","0","0","0","0","50","0","0","0","50","NA","46","50","46","0","46","3","50","0","50","Fri Feb 19 12:47:25 2021","The main experiment item","yes","Lexical_Decision_Task.osexp","/Users/kian","no","Andale Mono","no","18","no","white","no","yes","576","legacy","46","46","3","/Users/kian/subject-5226110.csv","legacy","Lentiform Loewenfeld","3.3.7","yes","yes","600bd7cfb6416f0113b04181","602110864497cf011d9c0822","0","f","NA","space","space","space","NA","f","867","NA","7005","37753","33779","NA","867","2","legacy","1024","2","48000","-16","task","5226110","even","NA","85863","94871","87865","180232","4473","76020","42237","180735","NA","180230","180735","180188","94871","181603","84003","179687","4436","116776","Lexical Decision Task","50","42458","51","yes","1024"
"3.15462682","0","6","noal","non-word","98.07692307692308","98.07692307692308","836.0576923076923","836.0576923076923","black","no","legacy","legacy","legacy","0","uniform","1","undefined","undefined","undefined","1","f","0","0","0","0","51","0","0","0","51","NA","47","51","47","0","47","3","51","0","51","Fri Feb 19 12:47:25 2021","The main experiment item","yes","Lexical_Decision_Task.osexp","/Users/kian","no","Andale Mono","no","18","no","white","no","yes","576","legacy","47","47","3","/Users/kian/subject-5226110.csv","legacy","Lentiform Loewenfeld","3.3.7","yes","yes","600bd7cfb6416f0113b04181","602110864497cf011d9c0822","0","f","NA","space","space","space","NA","f","1017","NA","7005","37753","33779","NA","1017","2","legacy","1024","2","48000","-16","task","5226110","even","NA","85863","94871","87865","182152","4473","76020","42237","182654","NA","182150","182654","182108","94871","183672","84003","181607","4436","116776","Lexical Decision Task","51","43475","52","yes","1024"
"3.208172527","10.27","7","deck","word","98.11320754716981","98.11320754716981","830.0566037735849","830.0566037735849","black","no","legacy","legacy","legacy","0","uniform","1","undefined","undefined","undefined","1","j","0","0","0","0","52","0","0","0","52","NA","48","52","48","0","48","3","52","0","52","Fri Feb 19 12:47:25 2021","The main experiment item","yes","Lexical_Decision_Task.osexp","/Users/kian","no","Andale Mono","no","18","no","white","no","yes","576","legacy","48","48","3","/Users/kian/subject-5226110.csv","legacy","Lentiform Loewenfeld","3.3.7","yes","yes","600bd7cfb6416f0113b04181","602110864497cf011d9c0822","0","j","NA","space","space","space","NA","j","518","NA","7005","37753","33779","NA","518","2","legacy","1024","2","48000","-16","task","5226110","even","NA","85863","94871","87865","184220","4473","76020","42237","184722","NA","184218","184722","184177","94871","185240","84003","183676","4436","116776","Lexical Decision Task","52","43993","53","yes","1024"
"3.174641193","0","3","ramb","non-word","96.29629629629629","96.29629629629629","829.574074074074","829.574074074074","black","no","legacy","legacy","legacy","0","uniform","0","undefined","undefined","undefined","0","f","0","0","0","0","53","0","0","0","53","NA","49","53","49","0","49","3","53","0","53","Fri Feb 19 12:47:25 2021","The main experiment item","yes","Lexical_Decision_Task.osexp","/Users/kian","no","Andale Mono","no","18","no","white","no","yes","576","legacy","49","49","3","/Users/kian/subject-5226110.csv","legacy","Lentiform Loewenfeld","3.3.7","yes","yes","600bd7cfb6416f0113b04181","602110864497cf011d9c0822","0","j","NA","space","space","space","NA","j","804","NA","7005","37753","33779","NA","804","2","legacy","1024","2","48000","-16","task","5226110","even","NA","85863","94871","87865","185788","4473","76020","42237","186289","NA","185786","186290","185745","94871","187095","84003","185245","4436","116776","Lexical Decision Task","52","44797","54","yes","1024"
"3.460446784","0","5","dess","non-word","96.36363636363636","96.36363636363636","848.7636363636364","848.7636363636364","black","no","legacy","legacy","legacy","0","uniform","1","undefined","undefined","undefined","1","f","0","0","0","0","54","0","0","0","54","0","50","54","50","0","50","3","54","0","54","Fri Feb 19 12:47:25 2021","The main experiment item","yes","Lexical_Decision_Task.osexp","/Users/kian","no","Andale Mono","no","18","no","white","no","yes","576","legacy","50","50","3","/Users/kian/subject-5226110.csv","legacy","Lentiform Loewenfeld","3.3.7","yes","yes","600bd7cfb6416f0113b04181","602110864497cf011d9c0822","0","f","NA","space","space","space","space","f","1885","NA","7005","37753","33779","27118","1885","2","legacy","1024","2","48000","-16","task","5226110","even","NA","85863","94871","87865","215791","4473","76020","42237","216293","188627","215789","216293","188599","94871","218179","84003","185245","4436","187099","Lexical Decision Task","53","46682","55","yes","1024"
"2.895974732","6.65","5","sift","word","94.64285714285714","94.64285714285714","846.8392857142857","846.8392857142857","black","no","legacy","legacy","legacy","0","uniform","0","undefined","undefined","undefined","0","j","0","0","0","0","55","0","0","0","55","0","51","55","51","0","51","3","55","0","55","Fri Feb 19 12:47:25 2021","The main experiment item","yes","Lexical_Decision_Task.osexp","/Users/kian","no","Andale Mono","no","18","no","white","no","yes","576","legacy","51","51","3","/Users/kian/subject-5226110.csv","legacy","Lentiform Loewenfeld","3.3.7","yes","yes","600bd7cfb6416f0113b04181","602110864497cf011d9c0822","0","f","NA","space","space","space","space","f","741","NA","7005","37753","33779","27118","741","2","legacy","1024","2","48000","-16","task","5226110","even","NA","85863","94871","87865","218728","4473","76020","42237","219230","188627","218725","219230","218683","94871","219971","84003","218183","4436","187099","Lexical Decision Task","53","47423","56","yes","1024"
"2.937852093","0","7","bamp","non-word","94.73684210526316","94.73684210526316","846.8070175438596","846.8070175438596","black","no","legacy","legacy","legacy","0","uniform","1","undefined","undefined","undefined","1","f","0","0","0","0","56","0","0","0","56","0","52","56","52","0","52","3","56","0","56","Fri Feb 19 12:47:25 2021","The main experiment item","yes","Lexical_Decision_Task.osexp","/Users/kian","no","Andale Mono","no","18","no","white","no","yes","576","legacy","52","52","3","/Users/kian/subject-5226110.csv","legacy","Lentiform Loewenfeld","3.3.7","yes","yes","600bd7cfb6416f0113b04181","602110864497cf011d9c0822","0","f","NA","space","space","space","space","f","845","NA","7005","37753","33779","27118","845","2","legacy","1024","2","48000","-16","task","5226110","even","NA","85863","94871","87865","221521","4473","76020","42237","222023","188627","221519","222023","221476","94871","222869","84003","218183","4436","219975","Lexical Decision Task","54","48268","57","yes","1024"
"2.755364069","7.72","2","hoax","word","94.82758620689656","94.82758620689656","842.5","842.5","black","no","legacy","legacy","legacy","0","uniform","1","undefined","undefined","undefined","1","j","0","0","0","0","57","0","0","0","57","0","53","57","53","0","53","3","57","0","57","Fri Feb 19 12:47:25 2021","The main experiment item","yes","Lexical_Decision_Task.osexp","/Users/kian","no","Andale Mono","no","18","no","white","no","yes","576","legacy","53","53","3","/Users/kian/subject-5226110.csv","legacy","Lentiform Loewenfeld","3.3.7","yes","yes","600bd7cfb6416f0113b04181","602110864497cf011d9c0822","0","j","NA","space","space","space","space","j","597","NA","7005","37753","33779","27118","597","2","legacy","1024","2","48000","-16","task","5226110","even","NA","85863","94871","87865","223418","4473","76020","42237","223920","188627","223416","223920","223374","94871","224518","84003","222873","4436","219975","Lexical Decision Task","55","48865","58","yes","1024"
"3.374198258","0","8","vist","non-word","94.91525423728814","94.91525423728814","851.3898305084746","851.3898305084746","black","no","legacy","legacy","legacy","0","uniform","1","undefined","undefined","undefined","1","f","0","0","0","0","58","0","0","0","58","0","54","58","54","0","54","3","58","0","58","Fri Feb 19 12:47:25 2021","The main experiment item","yes","Lexical_Decision_Task.osexp","/Users/kian","no","Andale Mono","no","18","no","white","no","yes","576","legacy","54","54","3","/Users/kian/subject-5226110.csv","legacy","Lentiform Loewenfeld","3.3.7","yes","yes","600bd7cfb6416f0113b04181","602110864497cf011d9c0822","0","f","NA","space","space","space","space","f","1367","NA","7005","37753","33779","27118","1367","2","legacy","1024","2","48000","-16","task","5226110","even","NA","85863","94871","87865","225067","4473","76020","42237","225568","188627","225065","225569","225023","94871","226937","84003","224523","4436","219975","Lexical Decision Task","56","50232","59","yes","1024"
"2.68604012","0","4","pumb","non-word","93.33333333333333","93.33333333333333","859","859","black","no","legacy","legacy","legacy","0","uniform","0","undefined","undefined","undefined","0","f","0","0","0","0","59","0","0","0","59","0","55","59","55","0","55","3","59","0","59","Fri Feb 19 12:47:25 2021","The main experiment item","yes","Lexical_Decision_Task.osexp","/Users/kian","no","Andale Mono","no","18","no","white","no","yes","576","legacy","55","55","3","/Users/kian/subject-5226110.csv","legacy","Lentiform Loewenfeld","3.3.7","yes","yes","600bd7cfb6416f0113b04181","602110864497cf011d9c0822","0","j","NA","space","space","space","space","j","1308","NA","7005","37753","33779","27118","1308","2","legacy","1024","2","48000","-16","task","5226110","even","NA","85863","94871","87865","227485","4473","76020","42237","227987","188627","227483","227988","227441","94871","229297","84003","226941","4436","219975","Lexical Decision Task","56","51540","60","yes","1024"
"2.7084209","0","8","vump","non-word","93.44262295081967","93.44262295081967","868.688524590164","868.688524590164","black","no","legacy","legacy","legacy","0","uniform","1","undefined","undefined","undefined","1","f","0","0","0","0","60","0","0","0","60","0","56","60","56","0","56","3","60","0","60","Fri Feb 19 12:47:25 2021","The main experiment item","yes","Lexical_Decision_Task.osexp","/Users/kian","no","Andale Mono","no","18","no","white","no","yes","576","legacy","56","56","3","/Users/kian/subject-5226110.csv","legacy","Lentiform Loewenfeld","3.3.7","yes","yes","600bd7cfb6416f0113b04181","602110864497cf011d9c0822","0","f","NA","space","space","space","space","f","1450","NA","7005","37753","33779","27118","1450","2","legacy","1024","2","48000","-16","task","5226110","even","NA","85863","94871","87865","230846","4473","76020","42237","231348","188627","230844","231348","230801","94871","232799","84003","226941","4436","229301","Lexical Decision Task","57","52990","61","yes","1024"
"2.990042563","6.64","9","plow","word","91.93548387096774","91.93548387096774","903.0645161290323","903.0645161290323","black","no","legacy","legacy","legacy","0","uniform","0","undefined","undefined","undefined","0","j","0","0","0","0","61","0","0","0","61","0","57","61","57","0","57","3","61","0","61","Fri Feb 19 12:47:25 2021","The main experiment item","yes","Lexical_Decision_Task.osexp","/Users/kian","no","Andale Mono","no","18","no","white","no","yes","576","legacy","57","57","3","/Users/kian/subject-5226110.csv","legacy","Lentiform Loewenfeld","3.3.7","yes","yes","600bd7cfb6416f0113b04181","602110864497cf011d9c0822","0","None","NA","space","space","space","space","None","3000","NA","7005","37753","33779","27118","3000","2","legacy","1024","2","48000","-16","task","5226110","even","NA","85863","94871","87865","233348","4473","76020","42237","233851","188627","233346","233851","233303","94871","236851","84003","232803","4436","229301","Lexical Decision Task","57","55990","62","yes","1024"
"2.794720352","0","9","koot","non-word","92.06349206349206","92.06349206349206","906.7142857142857","906.7142857142857","black","no","legacy","legacy","legacy","0","uniform","1","undefined","undefined","undefined","1","f","0","0","0","0","62","0","0","0","62","0","58","62","58","0","58","3","62","0","62","Fri Feb 19 12:47:25 2021","The main experiment item","yes","Lexical_Decision_Task.osexp","/Users/kian","no","Andale Mono","no","18","no","white","no","yes","576","legacy","58","58","3","/Users/kian/subject-5226110.csv","legacy","Lentiform Loewenfeld","3.3.7","yes","yes","600bd7cfb6416f0113b04181","602110864497cf011d9c0822","0","f","NA","space","space","space","space","f","1133","NA","7005","37753","33779","27118","1133","2","legacy","1024","2","48000","-16","task","5226110","even","NA","85863","94871","87865","238400","4473","76020","42237","238902","188627","238398","238902","238356","94871","240036","84003","232803","4436","236856","Lexical Decision Task","58","57123","63","yes","1024"
"2.696644658","5.78","2","yolk","word","92.1875","92.1875","937.34375","937.34375","black","no","legacy","legacy","legacy","0","uniform","1","undefined","undefined","undefined","1","j","0","0","0","0","63","0","0","0","63","0","59","63","59","0","59","3","63","0","63","Fri Feb 19 12:47:25 2021","The main experiment item","yes","Lexical_Decision_Task.osexp","/Users/kian","no","Andale Mono","no","18","no","white","no","yes","576","legacy","59","59","3","/Users/kian/subject-5226110.csv","legacy","Lentiform Loewenfeld","3.3.7","yes","yes","600bd7cfb6416f0113b04181","602110864497cf011d9c0822","0","j","NA","space","space","space","space","j","2867","NA","7005","37753","33779","27118","2867","2","legacy","1024","2","48000","-16","task","5226110","even","NA","85863","94871","87865","240583","4473","76020","42237","241086","188627","240581","241086","240540","94871","243954","84003","240040","4436","236856","Lexical Decision Task","59","59990","64","yes","1024"
"2.709837904","6.85","8","skim","word","92.3076923076923","92.3076923076923","948.1538461538462","948.1538461538462","black","no","legacy","legacy","legacy","0","uniform","1","undefined","undefined","undefined","1","j","0","0","0","0","64","0","0","0","64","0","60","64","60","0","60","3","64","0","64","Fri Feb 19 12:47:25 2021","The main experiment item","yes","Lexical_Decision_Task.osexp","/Users/kian","no","Andale Mono","no","18","no","white","no","yes","576","legacy","60","60","3","/Users/kian/subject-5226110.csv","legacy","Lentiform Loewenfeld","3.3.7","yes","yes","600bd7cfb6416f0113b04181","602110864497cf011d9c0822","0","j","NA","space","space","space","space","j","1640","NA","7005","37753","33779","27118","1640","2","legacy","1024","2","48000","-16","task","5226110","even","NA","85863","94871","87865","244501","4473","76020","42237","245003","188627","244499","245004","244458","94871","246645","84003","243958","4436","236856","Lexical Decision Task","60","61630","65","yes","1024"
"3.137775856","7.39","5","comb","word","92.42424242424242","92.42424242424242","944.7878787878788","944.7878787878788","black","no","legacy","legacy","legacy","0","uniform","1","undefined","undefined","undefined","1","j","0","0","0","0","65","0","0","0","65","0","61","65","61","0","61","3","65","0","65","Fri Feb 19 12:47:25 2021","The main experiment item","yes","Lexical_Decision_Task.osexp","/Users/kian","no","Andale Mono","no","18","no","white","no","yes","576","legacy","61","61","3","/Users/kian/subject-5226110.csv","legacy","Lentiform Loewenfeld","3.3.7","yes","yes","600bd7cfb6416f0113b04181","602110864497cf011d9c0822","0","j","NA","space","space","space","space","j","726","NA","7005","37753","33779","27118","726","2","legacy","1024","2","48000","-16","task","5226110","even","NA","85863","94871","87865","247194","4473","76020","42237","247695","188627","247191","247696","247149","94871","248423","84003","246649","4436","236856","Lexical Decision Task","61","62356","66","yes","1024"
"3.495914186","0","4","peng","non-word","91.04477611940298","91.04477611940298","943.6268656716418","943.6268656716418","black","no","legacy","legacy","legacy","0","uniform","0","undefined","undefined","undefined","0","f","0","0","0","0","66","0","0","0","66","0","62","66","62","0","62","3","66","0","66","Fri Feb 19 12:47:25 2021","The main experiment item","yes","Lexical_Decision_Task.osexp","/Users/kian","no","Andale Mono","no","18","no","white","no","yes","576","legacy","62","62","3","/Users/kian/subject-5226110.csv","legacy","Lentiform Loewenfeld","3.3.7","yes","yes","600bd7cfb6416f0113b04181","602110864497cf011d9c0822","0","j","NA","space","space","space","space","j","867","NA","7005","37753","33779","27118","867","2","legacy","1024","2","48000","-16","task","5226110","even","NA","85863","94871","87865","248971","4473","76020","42237","249473","188627","248969","249473","248927","94871","250341","84003","248427","4436","236856","Lexical Decision Task","61","63223","67","yes","1024"
"2.843025032","0","9","pusk","non-word","89.70588235294117","89.70588235294117","942.4558823529412","942.4558823529412","black","no","legacy","legacy","legacy","0","uniform","0","undefined","undefined","undefined","0","f","0","0","0","0","67","0","0","0","67","0","63","67","63","0","63","3","67","0","67","Fri Feb 19 12:47:25 2021","The main experiment item","yes","Lexical_Decision_Task.osexp","/Users/kian","no","Andale Mono","no","18","no","white","no","yes","576","legacy","63","63","3","/Users/kian/subject-5226110.csv","legacy","Lentiform Loewenfeld","3.3.7","yes","yes","600bd7cfb6416f0113b04181","602110864497cf011d9c0822","0","j","NA","space","space","space","space","j","864","NA","7005","37753","33779","27118","864","2","legacy","1024","2","48000","-16","task","5226110","even","NA","85863","94871","87865","251891","4473","76020","42237","252393","188627","251889","252393","251845","94871","253258","84003","248427","4436","250345","Lexical Decision Task","61","64087","68","yes","1024"
"2.799799878","0","4","ciff","non-word","89.85507246376811","89.85507246376811","938.3913043478261","938.3913043478261","black","no","legacy","legacy","legacy","0","uniform","1","undefined","undefined","undefined","1","f","0","0","0","0","68","0","0","0","68","0","64","68","64","0","64","3","68","0","68","Fri Feb 19 12:47:25 2021","The main experiment item","yes","Lexical_Decision_Task.osexp","/Users/kian","no","Andale Mono","no","18","no","white","no","yes","576","legacy","64","64","3","/Users/kian/subject-5226110.csv","legacy","Lentiform Loewenfeld","3.3.7","yes","yes","600bd7cfb6416f0113b04181","602110864497cf011d9c0822","0","f","NA","space","space","space","space","f","662","NA","7005","37753","33779","27118","662","2","legacy","1024","2","48000","-16","task","5226110","even","NA","85863","94871","87865","254806","4473","76020","42237","255308","188627","254804","255309","254762","94871","255972","84003","248427","4436","253262","Lexical Decision Task","62","64749","69","yes","1024"
"3.037294994","8.64","7","roof","word","90","90","940.8428571428572","940.8428571428572","black","no","legacy","legacy","legacy","0","uniform","1","undefined","undefined","undefined","1","j","0","0","0","0","69","0","0","0","69","0","65","69","65","0","65","3","69","0","69","Fri Feb 19 12:47:25 2021","The main experiment item","yes","Lexical_Decision_Task.osexp","/Users/kian","no","Andale Mono","no","18","no","white","no","yes","576","legacy","65","65","3","/Users/kian/subject-5226110.csv","legacy","Lentiform Loewenfeld","3.3.7","yes","yes","600bd7cfb6416f0113b04181","602110864497cf011d9c0822","0","j","NA","space","space","space","space","j","1110","NA","7005","37753","33779","27118","1110","2","legacy","1024","2","48000","-16","task","5226110","even","NA","85863","94871","87865","256520","4473","76020","42237","257022","188627","256518","257022","256476","94871","258133","84003","255976","4436","253262","Lexical Decision Task","63","65859","70","yes","1024"
"2.899638141","0","3","hapt","non-word","90.14084507042253","90.14084507042253","941.9295774647887","941.9295774647887","black","no","legacy","legacy","legacy","0","uniform","1","undefined","undefined","undefined","1","f","0","0","0","0","70","0","0","0","70","0","66","70","66","0","66","3","70","0","70","Fri Feb 19 12:47:25 2021","The main experiment item","yes","Lexical_Decision_Task.osexp","/Users/kian","no","Andale Mono","no","18","no","white","no","yes","576","legacy","66","66","3","/Users/kian/subject-5226110.csv","legacy","Lentiform Loewenfeld","3.3.7","yes","yes","600bd7cfb6416f0113b04181","602110864497cf011d9c0822","0","f","NA","space","space","space","space","f","1018","NA","7005","37753","33779","27118","1018","2","legacy","1024","2","48000","-16","task","5226110","even","NA","85863","94871","87865","258681","4473","76020","42237","259184","188627","258680","259184","258637","94871","260202","84003","258137","4436","253262","Lexical Decision Task","64","66877","71","yes","1024"
"3.347850856","10.51","2","rich","word","90.27777777777777","90.27777777777777","936.8472222222222","936.8472222222222","black","no","legacy","legacy","legacy","0","uniform","1","undefined","undefined","undefined","1","j","0","0","0","0","71","0","0","0","71","0","67","71","67","0","67","3","71","0","71","Fri Feb 19 12:47:25 2021","The main experiment item","yes","Lexical_Decision_Task.osexp","/Users/kian","no","Andale Mono","no","18","no","white","no","yes","576","legacy","67","67","3","/Users/kian/subject-5226110.csv","legacy","Lentiform Loewenfeld","3.3.7","yes","yes","600bd7cfb6416f0113b04181","602110864497cf011d9c0822","0","j","NA","space","space","space","space","j","576","NA","7005","37753","33779","27118","576","2","legacy","1024","2","48000","-16","task","5226110","even","NA","85863","94871","87865","260752","4473","76020","42237","261254","188627","260750","261254","260707","94871","261831","84003","260207","4436","253262","Lexical Decision Task","65","67453","72","yes","1024"
"3.299579929","0","2","flis","non-word","90.41095890410959","90.41095890410959","935.3424657534247","935.3424657534247","black","no","legacy","legacy","legacy","0","uniform","1","undefined","undefined","undefined","1","f","0","0","0","0","72","0","0","0","72","0","68","72","68","0","68","3","72","0","72","Fri Feb 19 12:47:25 2021","The main experiment item","yes","Lexical_Decision_Task.osexp","/Users/kian","no","Andale Mono","no","18","no","white","no","yes","576","legacy","68","68","3","/Users/kian/subject-5226110.csv","legacy","Lentiform Loewenfeld","3.3.7","yes","yes","600bd7cfb6416f0113b04181","602110864497cf011d9c0822","0","f","NA","space","space","space","space","f","827","NA","7005","37753","33779","27118","827","2","legacy","1024","2","48000","-16","task","5226110","even","NA","85863","94871","87865","262379","4473","76020","42237","262881","188627","262377","262881","262335","94871","263709","84003","261835","4436","253262","Lexical Decision Task","66","68280","73","yes","1024"
"2.82129731","6.72","5","plum","word","90.54054054054055","90.54054054054055","929.3108108108108","929.3108108108108","black","no","legacy","legacy","legacy","0","uniform","1","undefined","undefined","undefined","1","j","0","0","0","0","73","0","0","0","73","0","69","73","69","0","69","3","73","0","73","Fri Feb 19 12:47:25 2021","The main experiment item","yes","Lexical_Decision_Task.osexp","/Users/kian","no","Andale Mono","no","18","no","white","no","yes","576","legacy","69","69","3","/Users/kian/subject-5226110.csv","legacy","Lentiform Loewenfeld","3.3.7","yes","yes","600bd7cfb6416f0113b04181","602110864497cf011d9c0822","0","j","NA","space","space","space","space","j","489","NA","7005","37753","33779","27118","489","2","legacy","1024","2","48000","-16","task","5226110","even","NA","85863","94871","87865","264256","4473","76020","42237","264758","188627","264254","264758","264213","94871","265248","84003","263713","4436","253262","Lexical Decision Task","67","68769","74","yes","1024"
"3.531734309","0","6","lerd","non-word","90.66666666666667","90.66666666666667","926.4133333333333","926.4133333333333","black","no","legacy","legacy","legacy","0","uniform","1","undefined","undefined","undefined","1","f","0","0","0","0","74","0","0","0","74","0","70","74","70","0","70","3","74","0","74","Fri Feb 19 12:47:25 2021","The main experiment item","yes","Lexical_Decision_Task.osexp","/Users/kian","no","Andale Mono","no","18","no","white","no","yes","576","legacy","70","70","3","/Users/kian/subject-5226110.csv","legacy","Lentiform Loewenfeld","3.3.7","yes","yes","600bd7cfb6416f0113b04181","602110864497cf011d9c0822","0","f","NA","space","space","space","space","f","712","NA","7005","37753","33779","27118","712","2","legacy","1024","2","48000","-16","task","5226110","even","NA","85863","94871","87865","265795","4473","76020","42237","266297","188627","265793","266297","265752","94871","267010","84003","265252","4436","253262","Lexical Decision Task","68","69481","75","yes","1024"
"3.378276681","6.39","8","bran","word","89.47368421052632","89.47368421052632","922.8815789473684","922.8815789473684","black","no","legacy","legacy","legacy","0","uniform","0","undefined","undefined","undefined","0","j","0","0","0","0","75","0","0","0","75","0","71","75","71","0","71","3","75","0","75","Fri Feb 19 12:47:25 2021","The main experiment item","yes","Lexical_Decision_Task.osexp","/Users/kian","no","Andale Mono","no","18","no","white","no","yes","576","legacy","71","71","3","/Users/kian/subject-5226110.csv","legacy","Lentiform Loewenfeld","3.3.7","yes","yes","600bd7cfb6416f0113b04181","602110864497cf011d9c0822","0","f","NA","space","space","space","space","f","658","NA","7005","37753","33779","27118","658","2","legacy","1024","2","48000","-16","task","5226110","even","NA","85863","94871","87865","267560","4473","76020","42237","268062","188627","267558","268062","267515","94871","268720","84003","267014","4436","253262","Lexical Decision Task","68","70139","76","yes","1024"
"3.088136089","8.32","9","worm","word","89.6103896103896","89.6103896103896","918.1038961038961","918.1038961038961","black","no","legacy","legacy","legacy","0","uniform","1","undefined","undefined","undefined","1","j","0","0","0","0","76","0","0","0","76","0","72","76","72","0","72","3","76","0","76","Fri Feb 19 12:47:25 2021","The main experiment item","yes","Lexical_Decision_Task.osexp","/Users/kian","no","Andale Mono","no","18","no","white","no","yes","576","legacy","72","72","3","/Users/kian/subject-5226110.csv","legacy","Lentiform Loewenfeld","3.3.7","yes","yes","600bd7cfb6416f0113b04181","602110864497cf011d9c0822","0","j","NA","space","space","space","space","j","555","NA","7005","37753","33779","27118","555","2","legacy","1024","2","48000","-16","task","5226110","even","NA","85863","94871","87865","270270","4473","76020","42237","270772","188627","270268","270772","270225","94871","271328","84003","267014","4436","268725","Lexical Decision Task","69","70694","77","yes","1024"
"3.168400243","9.12","6","horn","word","89.74358974358974","89.74358974358974","912.974358974359","912.974358974359","black","no","legacy","legacy","legacy","0","uniform","1","undefined","undefined","undefined","1","j","0","0","0","0","77","0","0","0","77","0","73","77","73","0","73","3","77","0","77","Fri Feb 19 12:47:25 2021","The main experiment item","yes","Lexical_Decision_Task.osexp","/Users/kian","no","Andale Mono","no","18","no","white","no","yes","576","legacy","73","73","3","/Users/kian/subject-5226110.csv","legacy","Lentiform Loewenfeld","3.3.7","yes","yes","600bd7cfb6416f0113b04181","602110864497cf011d9c0822","0","j","NA","space","space","space","space","j","518","NA","7005","37753","33779","27118","518","2","legacy","1024","2","48000","-16","task","5226110","even","NA","85863","94871","87865","271875","4473","76020","42237","272378","188627","271873","272378","271833","94871","272897","84003","271333","4436","268725","Lexical Decision Task","70","71212","78","yes","1024"
"2.9737419","7.69","7","claw","word","89.87341772151899","89.87341772151899","907.4177215189874","907.4177215189874","black","no","legacy","legacy","legacy","0","uniform","1","undefined","undefined","undefined","1","j","0","0","0","0","78","0","0","0","78","0","74","78","74","0","74","3","78","0","78","Fri Feb 19 12:47:25 2021","The main experiment item","yes","Lexical_Decision_Task.osexp","/Users/kian","no","Andale Mono","no","18","no","white","no","yes","576","legacy","74","74","3","/Users/kian/subject-5226110.csv","legacy","Lentiform Loewenfeld","3.3.7","yes","yes","600bd7cfb6416f0113b04181","602110864497cf011d9c0822","0","j","NA","space","space","space","space","j","474","NA","7005","37753","33779","27118","474","2","legacy","1024","2","48000","-16","task","5226110","even","NA","85863","94871","87865","273445","4473","76020","42237","273948","188627","273443","273948","273402","94871","274423","84003","272902","4436","268725","Lexical Decision Task","71","71686","79","yes","1024"
"3.140404328","10.66","9","deep","word","90","90","902.125","902.125","black","no","legacy","legacy","legacy","0","uniform","1","undefined","undefined","undefined","1","j","0","0","0","0","79","0","0","0","79","0","75","79","75","0","75","3","79","0","79","Fri Feb 19 12:47:25 2021","The main experiment item","yes","Lexical_Decision_Task.osexp","/Users/kian","no","Andale Mono","no","18","no","white","no","yes","576","legacy","75","75","3","/Users/kian/subject-5226110.csv","legacy","Lentiform Loewenfeld","3.3.7","yes","yes","600bd7cfb6416f0113b04181","602110864497cf011d9c0822","0","j","NA","space","space","space","space","j","484","NA","7005","37753","33779","27118","484","2","legacy","1024","2","48000","-16","task","5226110","even","NA","85863","94871","87865","274970","4473","76020","42237","275471","188627","274968","275472","274927","94871","275957","84003","274427","4436","268725","Lexical Decision Task","72","72170","80","yes","1024"
"3.031812271","6.52","3","gulp","word","90.12345679012346","90.12345679012346","896.9629629629629","896.9629629629629","black","no","legacy","legacy","legacy","0","uniform","1","undefined","undefined","undefined","1","j","0","0","0","0","80","0","0","0","80","0","76","80","76","0","76","3","80","0","80","Fri Feb 19 12:47:25 2021","The main experiment item","yes","Lexical_Decision_Task.osexp","/Users/kian","no","Andale Mono","no","18","no","white","no","yes","576","legacy","76","76","3","/Users/kian/subject-5226110.csv","legacy","Lentiform Loewenfeld","3.3.7","yes","yes","600bd7cfb6416f0113b04181","602110864497cf011d9c0822","0","j","NA","space","space","space","space","j","484","NA","7005","37753","33779","27118","484","2","legacy","1024","2","48000","-16","task","5226110","even","NA","85863","94871","87865","276507","4473","76020","42237","277009","188627","276504","277009","276462","94871","277494","84003","275961","4436","268725","Lexical Decision Task","73","72654","81","yes","1024"
"2.68604012","0","3","mulb","non-word","90.2439024390244","90.2439024390244","893.9756097560976","893.9756097560976","black","no","legacy","legacy","legacy","0","uniform","1","undefined","undefined","undefined","1","f","0","0","0","0","81","0","0","0","81","0","77","81","77","0","77","3","81","0","81","Fri Feb 19 12:47:25 2021","The main experiment item","yes","Lexical_Decision_Task.osexp","/Users/kian","no","Andale Mono","no","18","no","white","no","yes","576","legacy","77","77","3","/Users/kian/subject-5226110.csv","legacy","Lentiform Loewenfeld","3.3.7","yes","yes","600bd7cfb6416f0113b04181","602110864497cf011d9c0822","0","f","NA","space","space","space","space","f","652","NA","7005","37753","33779","27118","652","2","legacy","1024","2","48000","-16","task","5226110","even","NA","85863","94871","87865","278043","4473","76020","42237","278545","188627","278041","278545","277999","94871","279198","84003","277498","4436","268725","Lexical Decision Task","74","73306","82","yes","1024"
"3.366547468","0","6","plat","non-word","89.1566265060241","89.1566265060241","899.2168674698795","899.2168674698795","black","no","legacy","legacy","legacy","0","uniform","0","undefined","undefined","undefined","0","f","0","0","0","0","82","0","0","0","82","0","78","82","78","0","78","3","82","0","82","Fri Feb 19 12:47:25 2021","The main experiment item","yes","Lexical_Decision_Task.osexp","/Users/kian","no","Andale Mono","no","18","no","white","no","yes","576","legacy","78","78","3","/Users/kian/subject-5226110.csv","legacy","Lentiform Loewenfeld","3.3.7","yes","yes","600bd7cfb6416f0113b04181","602110864497cf011d9c0822","0","j","NA","space","space","space","space","j","1329","NA","7005","37753","33779","27118","1329","2","legacy","1024","2","48000","-16","task","5226110","even","NA","85863","94871","87865","279746","4473","76020","42237","280248","188627","279744","280248","279702","94871","281577","84003","279202","4436","268725","Lexical Decision Task","74","74635","83","yes","1024"
"2.708989954","9.28","9","bowl","word","89.28571428571429","89.28571428571429","895.6547619047619","895.6547619047619","black","no","legacy","legacy","legacy","0","uniform","1","undefined","undefined","undefined","1","j","0","0","0","0","83","0","0","0","83","0","79","83","79","0","79","3","83","0","83","Fri Feb 19 12:47:25 2021","The main experiment item","yes","Lexical_Decision_Task.osexp","/Users/kian","no","Andale Mono","no","18","no","white","no","yes","576","legacy","79","79","3","/Users/kian/subject-5226110.csv","legacy","Lentiform Loewenfeld","3.3.7","yes","yes","600bd7cfb6416f0113b04181","602110864497cf011d9c0822","0","j","NA","space","space","space","space","j","600","NA","7005","37753","33779","27118","600","2","legacy","1024","2","48000","-16","task","5226110","even","NA","85863","94871","87865","283127","4473","76020","42237","283629","188627","283125","283629","283082","94871","284230","84003","279202","4436","281582","Lexical Decision Task","75","75235","84","yes","1024"
"3.263399331","0","8","cour","non-word","89.41176470588235","89.41176470588235","892.4235294117647","892.4235294117647","black","no","legacy","legacy","legacy","0","uniform","1","undefined","undefined","undefined","1","f","0","0","0","0","84","0","0","0","84","0","80","84","80","0","80","3","84","0","84","Fri Feb 19 12:47:25 2021","The main experiment item","yes","Lexical_Decision_Task.osexp","/Users/kian","no","Andale Mono","no","18","no","white","no","yes","576","legacy","80","80","3","/Users/kian/subject-5226110.csv","legacy","Lentiform Loewenfeld","3.3.7","yes","yes","600bd7cfb6416f0113b04181","602110864497cf011d9c0822","0","f","NA","space","space","space","space","f","621","NA","7005","37753","33779","27118","621","2","legacy","1024","2","48000","-16","task","5226110","even","NA","85863","94871","87865","284777","4473","76020","42237","285279","188627","284775","285279","284734","94871","285901","84003","284234","4436","281582","Lexical Decision Task","76","75856","85","yes","1024"
"3.031408464","0","7","drow","non-word","89.53488372093024","89.53488372093024","892.7093023255813","892.7093023255813","black","no","legacy","legacy","legacy","0","uniform","1","undefined","undefined","undefined","1","f","0","0","0","0","85","0","0","0","85","0","81","85","81","0","81","3","85","0","85","Fri Feb 19 12:47:25 2021","The main experiment item","yes","Lexical_Decision_Task.osexp","/Users/kian","no","Andale Mono","no","18","no","white","no","yes","576","legacy","81","81","3","/Users/kian/subject-5226110.csv","legacy","Lentiform Loewenfeld","3.3.7","yes","yes","600bd7cfb6416f0113b04181","602110864497cf011d9c0822","0","f","NA","space","space","space","space","f","917","NA","7005","37753","33779","27118","917","2","legacy","1024","2","48000","-16","task","5226110","even","NA","85863","94871","87865","286448","4473","76020","42237","286949","188627","286446","286950","286405","94871","287868","84003","285905","4436","281582","Lexical Decision Task","77","76773","86","yes","1024"
"2.972819734","0","4","scew","non-word","89.65517241379311","89.65517241379311","891.080459770115","891.080459770115","black","no","legacy","legacy","legacy","0","uniform","1","undefined","undefined","undefined","1","f","0","0","0","0","86","0","0","0","86","0","82","86","82","0","82","3","86","0","86","Fri Feb 19 12:47:25 2021","The main experiment item","yes","Lexical_Decision_Task.osexp","/Users/kian","no","Andale Mono","no","18","no","white","no","yes","576","legacy","82","82","3","/Users/kian/subject-5226110.csv","legacy","Lentiform Loewenfeld","3.3.7","yes","yes","600bd7cfb6416f0113b04181","602110864497cf011d9c0822","0","f","NA","space","space","space","space","f","751","NA","7005","37753","33779","27118","751","2","legacy","1024","2","48000","-16","task","5226110","even","NA","85863","94871","87865","288416","4473","76020","42237","288918","188627","288414","288918","288372","94871","289669","84003","287872","4436","281582","Lexical Decision Task","78","77524","87","yes","1024"
"3.153001286","8.7","5","palm","word","89.77272727272727","89.77272727272727","887.9772727272727","887.9772727272727","black","no","legacy","legacy","legacy","0","uniform","1","undefined","undefined","undefined","1","j","0","0","0","0","87","0","0","0","87","0","83","87","83","0","83","3","87","0","87","Fri Feb 19 12:47:25 2021","The main experiment item","yes","Lexical_Decision_Task.osexp","/Users/kian","no","Andale Mono","no","18","no","white","no","yes","576","legacy","83","83","3","/Users/kian/subject-5226110.csv","legacy","Lentiform Loewenfeld","3.3.7","yes","yes","600bd7cfb6416f0113b04181","602110864497cf011d9c0822","0","j","NA","space","space","space","space","j","618","NA","7005","37753","33779","27118","618","2","legacy","1024","2","48000","-16","task","5226110","even","NA","85863","94871","87865","290217","4473","76020","42237","290719","188627","290215","290719","290174","94871","291338","84003","289674","4436","281582","Lexical Decision Task","79","78142","88","yes","1024"
"2.868644438","10.52","4","town","word","89.88764044943821","89.88764044943821","884.314606741573","884.314606741573","black","no","legacy","legacy","legacy","0","uniform","1","undefined","undefined","undefined","1","j","0","0","0","0","88","0","0","0","88","0","84","88","84","0","84","3","88","0","88","Fri Feb 19 12:47:25 2021","The main experiment item","yes","Lexical_Decision_Task.osexp","/Users/kian","no","Andale Mono","no","18","no","white","no","yes","576","legacy","84","84","3","/Users/kian/subject-5226110.csv","legacy","Lentiform Loewenfeld","3.3.7","yes","yes","600bd7cfb6416f0113b04181","602110864497cf011d9c0822","0","j","NA","space","space","space","space","j","562","NA","7005","37753","33779","27118","562","2","legacy","1024","2","48000","-16","task","5226110","even","NA","85863","94871","87865","291885","4473","76020","42237","292386","188627","291883","292387","291842","94871","292949","84003","291342","4436","281582","Lexical Decision Task","80","78704","89","yes","1024"
"2.767650507","0","6","yolt","non-word","90","90","882.7333333333333","882.7333333333333","black","no","legacy","legacy","legacy","0","uniform","1","undefined","undefined","undefined","1","f","0","0","0","0","89","0","0","0","89","0","85","89","85","0","85","3","89","0","89","Fri Feb 19 12:47:25 2021","The main experiment item","yes","Lexical_Decision_Task.osexp","/Users/kian","no","Andale Mono","no","18","no","white","no","yes","576","legacy","85","85","3","/Users/kian/subject-5226110.csv","legacy","Lentiform Loewenfeld","3.3.7","yes","yes","600bd7cfb6416f0113b04181","602110864497cf011d9c0822","0","f","NA","space","space","space","space","f","742","NA","7005","37753","33779","27118","742","2","legacy","1024","2","48000","-16","task","5226110","even","NA","85863","94871","87865","293497","4473","76020","42237","293999","188627","293495","293999","293454","94871","294742","84003","292954","4436","281582","Lexical Decision Task","81","79446","90","yes","1024"
"2.819763221","0","2","durp","non-word","90.10989010989012","90.10989010989012","880.8791208791209","880.8791208791209","black","no","legacy","legacy","legacy","0","uniform","1","undefined","undefined","undefined","1","f","0","0","0","0","90","0","0","0","90","0","86","90","86","0","86","3","90","0","90","Fri Feb 19 12:47:25 2021","The main experiment item","yes","Lexical_Decision_Task.osexp","/Users/kian","no","Andale Mono","no","18","no","white","no","yes","576","legacy","86","86","3","/Users/kian/subject-5226110.csv","legacy","Lentiform Loewenfeld","3.3.7","yes","yes","600bd7cfb6416f0113b04181","602110864497cf011d9c0822","0","f","NA","space","space","space","space","f","714","NA","7005","37753","33779","27118","714","2","legacy","1024","2","48000","-16","task","5226110","even","NA","85863","94871","87865","295289","4473","76020","42237","295791","188627","295287","295791","295246","94871","296506","84003","294746","4436","281582","Lexical Decision Task","82","80160","91","yes","1024"
"2.771097306","0","9","jold","non-word","90.21739130434783","90.21739130434783","881.695652173913","881.695652173913","black","no","legacy","legacy","legacy","0","uniform","1","undefined","undefined","undefined","1","f","0","0","0","0","91","0","0","0","91","0","87","91","87","0","87","3","91","0","91","Fri Feb 19 12:47:25 2021","The main experiment item","yes","Lexical_Decision_Task.osexp","/Users/kian","no","Andale Mono","no","18","no","white","no","yes","576","legacy","87","87","3","/Users/kian/subject-5226110.csv","legacy","Lentiform Loewenfeld","3.3.7","yes","yes","600bd7cfb6416f0113b04181","602110864497cf011d9c0822","0","f","NA","space","space","space","space","f","956","NA","7005","37753","33779","27118","956","2","legacy","1024","2","48000","-16","task","5226110","even","NA","85863","94871","87865","297055","4473","76020","42237","297557","188627","297053","297557","297011","94871","298514","84003","296511","4436","281582","Lexical Decision Task","83","81116","92","yes","1024"
"2.898725182","0","7","turl","non-word","90.3225806451613","90.3225806451613","881.5268817204301","881.5268817204301","black","no","legacy","legacy","legacy","0","uniform","1","undefined","undefined","undefined","1","f","0","0","0","0","92","0","0","0","92","0","88","92","88","0","88","3","92","0","92","Fri Feb 19 12:47:25 2021","The main experiment item","yes","Lexical_Decision_Task.osexp","/Users/kian","no","Andale Mono","no","18","no","white","no","yes","576","legacy","88","88","3","/Users/kian/subject-5226110.csv","legacy","Lentiform Loewenfeld","3.3.7","yes","yes","600bd7cfb6416f0113b04181","602110864497cf011d9c0822","0","f","NA","space","space","space","space","f","866","NA","7005","37753","33779","27118","866","2","legacy","1024","2","48000","-16","task","5226110","even","NA","85863","94871","87865","299062","4473","76020","42237","299564","188627","299060","299564","299019","94871","300432","84003","298519","4436","281582","Lexical Decision Task","84","81982","93","yes","1024"
"2.884795364","0","6","flob","non-word","90.42553191489361","90.42553191489361","879.1595744680851","879.1595744680851","black","no","legacy","legacy","legacy","0","uniform","1","undefined","undefined","undefined","1","f","0","0","0","0","93","0","0","0","93","0","89","93","89","0","89","3","93","0","93","Fri Feb 19 12:47:25 2021","The main experiment item","yes","Lexical_Decision_Task.osexp","/Users/kian","no","Andale Mono","no","18","no","white","no","yes","576","legacy","89","89","3","/Users/kian/subject-5226110.csv","legacy","Lentiform Loewenfeld","3.3.7","yes","yes","600bd7cfb6416f0113b04181","602110864497cf011d9c0822","0","f","NA","space","space","space","space","f","659","NA","7005","37753","33779","27118","659","2","legacy","1024","2","48000","-16","task","5226110","even","NA","85863","94871","87865","300980","4473","76020","42237","301482","188627","300978","301482","300936","94871","302142","84003","300436","4436","281582","Lexical Decision Task","85","82641","94","yes","1024"
"3.474361976","5.24","6","veer","word","89.47368421052632","89.47368421052632","877.2105263157895","877.2105263157895","black","no","legacy","legacy","legacy","0","uniform","0","undefined","undefined","undefined","0","j","0","0","0","0","94","0","0","0","94","0","90","94","90","0","90","3","94","0","94","Fri Feb 19 12:47:25 2021","The main experiment item","yes","Lexical_Decision_Task.osexp","/Users/kian","no","Andale Mono","no","18","no","white","no","yes","576","legacy","90","90","3","/Users/kian/subject-5226110.csv","legacy","Lentiform Loewenfeld","3.3.7","yes","yes","600bd7cfb6416f0113b04181","602110864497cf011d9c0822","0","f","NA","space","space","space","space","f","694","NA","7005","37753","33779","27118","694","2","legacy","1024","2","48000","-16","task","5226110","even","NA","85863","94871","87865","302690","4473","76020","42237","303192","188627","302688","303192","302647","94871","303887","84003","302146","4436","281582","Lexical Decision Task","85","83335","95","yes","1024"
"3.077974404","10.41","8","tool","word","89.58333333333333","89.58333333333333","879.4895833333334","879.4895833333334","black","no","legacy","legacy","legacy","0","uniform","1","undefined","undefined","undefined","1","j","0","0","0","0","95","0","0","0","95","0","91","95","91","0","91","3","95","0","95","Fri Feb 19 12:47:25 2021","The main experiment item","yes","Lexical_Decision_Task.osexp","/Users/kian","no","Andale Mono","no","18","no","white","no","yes","576","legacy","91","91","3","/Users/kian/subject-5226110.csv","legacy","Lentiform Loewenfeld","3.3.7","yes","yes","600bd7cfb6416f0113b04181","602110864497cf011d9c0822","0","j","NA","space","space","space","space","j","1096","NA","7005","37753","33779","27118","1096","2","legacy","1024","2","48000","-16","task","5226110","even","NA","85863","94871","87865","305438","4473","76020","42237","305940","188627","305436","305940","305392","94871","307037","84003","302146","4436","303892","Lexical Decision Task","86","84431","96","yes","1024"
"2.793790385","5.67","9","swab","word","89.69072164948453","89.69072164948453","876.8969072164948","876.8969072164948","black","no","legacy","legacy","legacy","0","uniform","1","undefined","undefined","undefined","1","j","0","0","0","0","96","0","0","0","96","0","92","96","92","0","92","3","96","0","96","Fri Feb 19 12:47:25 2021","The main experiment item","yes","Lexical_Decision_Task.osexp","/Users/kian","no","Andale Mono","no","18","no","white","no","yes","576","legacy","92","92","3","/Users/kian/subject-5226110.csv","legacy","Lentiform Loewenfeld","3.3.7","yes","yes","600bd7cfb6416f0113b04181","602110864497cf011d9c0822","0","j","NA","space","space","space","space","j","628","NA","7005","37753","33779","27118","628","2","legacy","1024","2","48000","-16","task","5226110","even","NA","85863","94871","87865","307586","4473","76020","42237","308088","188627","307583","308088","307542","94871","308717","84003","307041","4436","303892","Lexical Decision Task","87","85059","97","yes","1024"
"3.197740804","6.74","3","ache","word","89.79591836734694","89.79591836734694","874.3469387755102","874.3469387755102","black","no","legacy","legacy","legacy","0","uniform","1","undefined","undefined","undefined","1","j","0","0","0","0","97","0","0","0","97","0","93","97","93","0","93","3","97","0","97","Fri Feb 19 12:47:25 2021","The main experiment item","yes","Lexical_Decision_Task.osexp","/Users/kian","no","Andale Mono","no","18","no","white","no","yes","576","legacy","93","93","3","/Users/kian/subject-5226110.csv","legacy","Lentiform Loewenfeld","3.3.7","yes","yes","600bd7cfb6416f0113b04181","602110864497cf011d9c0822","0","j","NA","space","space","space","space","j","627","NA","7005","37753","33779","27118","627","2","legacy","1024","2","48000","-16","task","5226110","even","NA","85863","94871","87865","309265","4473","76020","42237","309767","188627","309263","309767","309222","94871","310395","84003","308722","4436","303892","Lexical Decision Task","88","85686","98","yes","1024"
"3.216517684","10.87","3","film","word","89.8989898989899","89.8989898989899","871.1111111111111","871.1111111111111","black","no","legacy","legacy","legacy","0","uniform","1","undefined","undefined","undefined","1","j","0","0","0","0","98","0","0","0","98","0","94","98","94","0","94","3","98","0","98","Fri Feb 19 12:47:25 2021","The main experiment item","yes","Lexical_Decision_Task.osexp","/Users/kian","no","Andale Mono","no","18","no","white","no","yes","576","legacy","94","94","3","/Users/kian/subject-5226110.csv","legacy","Lentiform Loewenfeld","3.3.7","yes","yes","600bd7cfb6416f0113b04181","602110864497cf011d9c0822","0","j","NA","space","space","space","space","j","554","NA","7005","37753","33779","27118","554","2","legacy","1024","2","48000","-16","task","5226110","even","NA","85863","94871","87865","310943","4473","76020","42237","311446","188627","310941","311446","310900","94871","312001","84003","310400","4436","303892","Lexical Decision Task","89","86240","99","yes","1024"
"2.728085817","10.02","9","bike","word","90","90","868.19","868.19","black","no","legacy","legacy","legacy","0","uniform","1","undefined","undefined","undefined","1","j","0","0","0","0","99","0","0","0","99","0","95","99","95","0","95","3","99","0","99","Fri Feb 19 12:47:25 2021","The main experiment item","yes","Lexical_Decision_Task.osexp","/Users/kian","no","Andale Mono","no","18","no","white","no","yes","576","legacy","95","95","3","/Users/kian/subject-5226110.csv","legacy","Lentiform Loewenfeld","3.3.7","yes","yes","600bd7cfb6416f0113b04181","602110864497cf011d9c0822","0","j","NA","space","space","space","space","j","579","NA","7005","37753","33779","27118","579","2","legacy","1024","2","48000","-16","task","5226110","even","NA","85863","94871","87865","312549","4473","76020","42237","313051","188627","312547","313051","312505","94871","313631","84003","312005","4436","303892","Lexical Decision Task","90","86819","100","yes","1024"
"3.311895072","0","9","gung","non-word","90.0990099009901","90.0990099009901","873.2772277227723","873.2772277227723","black","no","legacy","legacy","legacy","0","uniform","1","undefined","undefined","undefined","1","f","0","0","0","0","100","0","0","0","100","0","96","100","96","0","96","3","100","0","100","Fri Feb 19 12:47:25 2021","The main experiment item","yes","Lexical_Decision_Task.osexp","/Users/kian","no","Andale Mono","no","18","no","white","no","yes","576","legacy","96","96","3","/Users/kian/subject-5226110.csv","legacy","Lentiform Loewenfeld","3.3.7","yes","yes","600bd7cfb6416f0113b04181","602110864497cf011d9c0822","0","f","NA","space","space","space","space","f","1382","NA","7005","37753","33779","27118","1382","2","legacy","1024","2","48000","-16","task","5226110","even","NA","85863","94871","87865","314178","4473","76020","42237","314680","188627","314176","314680","314135","94871","316063","84003","313635","4436","303892","Lexical Decision Task","91","88201","101","yes","1024"
"3.252447662","9.67","9","boat","word","90.19607843137256","90.19607843137256","871","871","black","no","legacy","legacy","legacy","0","uniform","1","undefined","undefined","undefined","1","j","0","0","0","0","101","0","0","0","101","0","97","101","97","0","97","3","101","0","101","Fri Feb 19 12:47:25 2021","The main experiment item","yes","Lexical_Decision_Task.osexp","/Users/kian","no","Andale Mono","no","18","no","white","no","yes","576","legacy","97","97","3","/Users/kian/subject-5226110.csv","legacy","Lentiform Loewenfeld","3.3.7","yes","yes","600bd7cfb6416f0113b04181","602110864497cf011d9c0822","0","j","NA","space","space","space","space","j","641","NA","7005","37753","33779","27118","641","2","legacy","1024","2","48000","-16","task","5226110","even","NA","85863","94871","87865","316610","4473","76020","42237","317112","188627","316608","317112","316567","94871","317754","84003","316067","4436","303892","Lexical Decision Task","92","88842","102","yes","1024"
"2.693726949","5.08","3","swig","word","90.29126213592232","90.29126213592232","873.9805825242719","873.9805825242719","black","no","legacy","legacy","legacy","0","uniform","1","undefined","undefined","undefined","1","j","0","0","0","0","102","0","0","0","102","0","98","102","98","0","98","3","102","0","102","Fri Feb 19 12:47:25 2021","The main experiment item","yes","Lexical_Decision_Task.osexp","/Users/kian","no","Andale Mono","no","18","no","white","no","yes","576","legacy","98","98","3","/Users/kian/subject-5226110.csv","legacy","Lentiform Loewenfeld","3.3.7","yes","yes","600bd7cfb6416f0113b04181","602110864497cf011d9c0822","0","j","NA","space","space","space","space","j","1178","NA","7005","37753","33779","27118","1178","2","legacy","1024","2","48000","-16","task","5226110","even","NA","85863","94871","87865","318302","4473","76020","42237","318804","188627","318300","318804","318258","94871","319983","84003","317758","4436","303892","Lexical Decision Task","93","90020","103","yes","1024"
