"Log_BG","Log_Freq_HAL","Ortho_N","Stimulus","Type","acc","accuracy","average_response_time","avg_rt","background","bidi","canvas_backend","clock_backend","color_backend","compensation","coordinates","correct","correct_Experimental_intro","correct_Introduction","correct_Practice_intro","correct_experimenter_kb","correct_response","count_End_Of_Experiment","count_End_Of_Practice","count_Experimental_Loop","count_Experimental_intro","count_Fixation","count_Introduction","count_Practice_Loop","count_Practice_intro","count_Stimulus","count_block_break_feedback","count_experimental_sequence","count_experimenter_kb","count_increment_trial_count","count_init_trial_count","count_logger","count_practice_sequence","count_right","count_task","count_wrong","datetime","description","disable_garbage_collection","experiment_file","experiment_path","font_bold","font_family","font_italic","font_size","font_underline","foreground","form_clicks","fullscreen","height","keyboard_backend","live_row","live_row_Experimental_Loop","live_row_Practice_Loop","logfile","mouse_backend","opensesame_codename","opensesame_version","osf_always_upload_data","osf_always_upload_experiment","osf_datanode_id","osf_id","repeat_cycle","response","response_End_Of_Experiment","response_Experimental_intro","response_Introduction","response_Practice_intro","response_block_break_feedback","response_experimenter_kb","response_time","response_time_End_Of_Experiment","response_time_Experimental_intro","response_time_Introduction","response_time_Practice_intro","response_time_block_break_feedback","response_time_experimenter_kb","round_decimals","sampler_backend","sound_buf_size","sound_channels","sound_freq","sound_sample_size","start","subject_nr","subject_parity","time_End_Of_Experiment","time_End_Of_Practice","time_Experimental_Loop","time_Experimental_intro","time_Fixation","time_Introduction","time_Practice_Loop","time_Practice_intro","time_Stimulus","time_block_break_feedback","time_experimental_sequence","time_experimenter_kb","time_increment_trial_count","time_init_trial_count","time_logger","time_practice_sequence","time_right","time_task","time_wrong","title","total_correct","total_response_time","total_responses","uniform_coordinates","width"
"3.20996159","0","4","clee","non-word","40","40","2622.8","2622.8","black","no","legacy","legacy","legacy","0","uniform","1","undefined","undefined","undefined","1","f","0","0","0","0","4","0","0","0","4","NA","0","4","0","0","0","3","4","0","4","Tue Feb 16 13:17:52 2021","The main experiment item","yes","Lexical_Decision_Task.osexp","/Users/carlyburr/Desktop","no","Andale Mono","no","18","no","white","no","yes","576","legacy","0","0","3","/Users/carlyburr/Desktop/subject2-5226283.csv","legacy","Lentiform Loewenfeld","3.3.7","yes","yes","600bd7cfb6416f0113b04181","602110864497cf011d9c0822","0","f","NA","space","space","space","NA","f","2181","NA","4360","37334","7600","NA","2181","2","legacy","1024","2","48000","-16","task","5226283","odd","NA","69036","75400","71040","75424","5762","50730","43126","75928","NA","75423","75928","NA","75400","78109","64004","63441","5752","67513","Lexical Decision Task","2","13114","5","yes","1024"
"3.302475237","0","7","leel","non-word","50","50","2597","2597","black","no","legacy","legacy","legacy","0","uniform","1","undefined","undefined","undefined","1","f","0","0","0","0","5","0","0","0","5","NA","1","5","1","0","1","3","5","0","5","Tue Feb 16 13:17:52 2021","The main experiment item","yes","Lexical_Decision_Task.osexp","/Users/carlyburr/Desktop","no","Andale Mono","no","18","no","white","no","yes","576","legacy","1","1","3","/Users/carlyburr/Desktop/subject2-5226283.csv","legacy","Lentiform Loewenfeld","3.3.7","yes","yes","600bd7cfb6416f0113b04181","602110864497cf011d9c0822","0","f","NA","space","space","space","NA","f","2468","NA","4360","37334","7600","NA","2468","2","legacy","1024","2","48000","-16","task","5226283","odd","NA","69036","75400","71040","78688","5762","50730","43126","79191","NA","78685","79192","78619","75400","81661","64004","78119","5752","67513","Lexical Decision Task","3","15582","6","yes","1024"
"3.276537627","9.15","5","trap","word","57.142857142857146","57.142857142857146","2412","2412","black","no","legacy","legacy","legacy","0","uniform","1","undefined","undefined","undefined","1","j","0","0","0","0","6","0","0","0","6","NA","2","6","2","0","2","3","6","0","6","Tue Feb 16 13:17:52 2021","The main experiment item","yes","Lexical_Decision_Task.osexp","/Users/carlyburr/Desktop","no","Andale Mono","no","18","no","white","no","yes","576","legacy","2","2","3","/Users/carlyburr/Desktop/subject2-5226283.csv","legacy","Lentiform Loewenfeld","3.3.7","yes","yes","600bd7cfb6416f0113b04181","602110864497cf011d9c0822","0","j","NA","space","space","space","NA","j","1302","NA","4360","37334","7600","NA","1302","2","legacy","1024","2","48000","-16","task","5226283","odd","NA","69036","75400","71040","82230","5762","50730","43126","82733","NA","82227","82734","82164","75400","84037","64004","81664","5752","67513","Lexical Decision Task","4","16884","7","yes","1024"
"2.86332286","6.71","2","feud","word","50","50","2485.5","2485.5","black","no","legacy","legacy","legacy","0","uniform","0","undefined","undefined","undefined","0","j","0","0","0","0","7","0","0","0","7","NA","3","7","3","0","3","3","7","0","7","Tue Feb 16 13:17:52 2021","The main experiment item","yes","Lexical_Decision_Task.osexp","/Users/carlyburr/Desktop","no","Andale Mono","no","18","no","white","no","yes","576","legacy","3","3","3","/Users/carlyburr/Desktop/subject2-5226283.csv","legacy","Lentiform Loewenfeld","3.3.7","yes","yes","600bd7cfb6416f0113b04181","602110864497cf011d9c0822","0","None","NA","space","space","space","NA","None","3000","NA","4360","37334","7600","NA","3000","2","legacy","1024","2","48000","-16","task","5226283","odd","NA","69036","75400","71040","84605","5762","50730","43126","85109","NA","84603","85109","84540","75400","88109","64004","84040","5752","67513","Lexical Decision Task","4","19884","8","yes","1024"
"3.492014979","0","9","yine","non-word","55.55555555555556","55.55555555555556","2319.1111111111113","2319.1111111111113","black","no","legacy","legacy","legacy","0","uniform","1","undefined","undefined","undefined","1","f","0","0","0","0","8","0","0","0","8","NA","4","8","4","0","4","3","8","0","8","Tue Feb 16 13:17:52 2021","The main experiment item","yes","Lexical_Decision_Task.osexp","/Users/carlyburr/Desktop","no","Andale Mono","no","18","no","white","no","yes","576","legacy","4","4","3","/Users/carlyburr/Desktop/subject2-5226283.csv","legacy","Lentiform Loewenfeld","3.3.7","yes","yes","600bd7cfb6416f0113b04181","602110864497cf011d9c0822","0","f","NA","space","space","space","NA","f","988","NA","4360","37334","7600","NA","988","2","legacy","1024","2","48000","-16","task","5226283","odd","NA","69036","75400","71040","89681","5762","50730","43126","90185","NA","89679","90185","89613","75400","91174","64004","84040","5752","88113","Lexical Decision Task","5","20872","9","yes","1024"
"3.16326079","0","5","parg","non-word","60","60","2166.5","2166.5","black","no","legacy","legacy","legacy","0","uniform","1","undefined","undefined","undefined","1","f","0","0","0","0","9","0","0","0","9","NA","5","9","5","0","5","3","9","0","9","Tue Feb 16 13:17:52 2021","The main experiment item","yes","Lexical_Decision_Task.osexp","/Users/carlyburr/Desktop","no","Andale Mono","no","18","no","white","no","yes","576","legacy","5","5","3","/Users/carlyburr/Desktop/subject2-5226283.csv","legacy","Lentiform Loewenfeld","3.3.7","yes","yes","600bd7cfb6416f0113b04181","602110864497cf011d9c0822","0","f","NA","space","space","space","NA","f","793","NA","4360","37334","7600","NA","793","2","legacy","1024","2","48000","-16","task","5226283","odd","NA","69036","75400","71040","91744","5762","50730","43126","92247","NA","91741","92248","91678","75400","93042","64004","91177","5752","88113","Lexical Decision Task","6","21665","10","yes","1024"
"2.813801082","5.47","7","nook","word","54.54545454545455","54.54545454545455","2086.3636363636365","2086.3636363636365","black","no","legacy","legacy","legacy","0","uniform","0","undefined","undefined","undefined","0","j","0","0","0","0","10","0","0","0","10","NA","6","10","6","0","6","3","10","0","10","Tue Feb 16 13:17:52 2021","The main experiment item","yes","Lexical_Decision_Task.osexp","/Users/carlyburr/Desktop","no","Andale Mono","no","18","no","white","no","yes","576","legacy","6","6","3","/Users/carlyburr/Desktop/subject2-5226283.csv","legacy","Lentiform Loewenfeld","3.3.7","yes","yes","600bd7cfb6416f0113b04181","602110864497cf011d9c0822","0","f","NA","space","space","space","NA","f","1285","NA","4360","37334","7600","NA","1285","2","legacy","1024","2","48000","-16","task","5226283","odd","NA","69036","75400","71040","93611","5762","50730","43126","94114","NA","93608","94115","93545","75400","95400","64004","93045","5752","88113","Lexical Decision Task","6","22950","11","yes","1024"
"3.257359335","8","6","brew","word","58.333333333333336","58.333333333333336","1975.8333333333333","1975.8333333333333","black","no","legacy","legacy","legacy","0","uniform","1","undefined","undefined","undefined","1","j","0","0","0","0","11","0","0","0","11","NA","7","11","7","0","7","3","11","0","11","Tue Feb 16 13:17:52 2021","The main experiment item","yes","Lexical_Decision_Task.osexp","/Users/carlyburr/Desktop","no","Andale Mono","no","18","no","white","no","yes","576","legacy","7","7","3","/Users/carlyburr/Desktop/subject2-5226283.csv","legacy","Lentiform Loewenfeld","3.3.7","yes","yes","600bd7cfb6416f0113b04181","602110864497cf011d9c0822","0","j","NA","space","space","space","NA","j","760","NA","4360","37334","7600","NA","760","2","legacy","1024","2","48000","-16","task","5226283","odd","NA","69036","75400","71040","96972","5762","50730","43126","97475","NA","96969","97476","96905","75400","98236","64004","93045","5752","95405","Lexical Decision Task","7","23710","12","yes","1024"
"2.67699827","0","6","hulf","non-word","61.53846153846154","61.53846153846154","1899.8461538461538","1899.8461538461538","black","no","legacy","legacy","legacy","0","uniform","1","undefined","undefined","undefined","1","f","0","0","0","0","12","0","0","0","12","NA","8","12","8","0","8","3","12","0","12","Tue Feb 16 13:17:52 2021","The main experiment item","yes","Lexical_Decision_Task.osexp","/Users/carlyburr/Desktop","no","Andale Mono","no","18","no","white","no","yes","576","legacy","8","8","3","/Users/carlyburr/Desktop/subject2-5226283.csv","legacy","Lentiform Loewenfeld","3.3.7","yes","yes","600bd7cfb6416f0113b04181","602110864497cf011d9c0822","0","f","NA","space","space","space","NA","f","988","NA","4360","37334","7600","NA","988","2","legacy","1024","2","48000","-16","task","5226283","odd","NA","69036","75400","71040","98807","5762","50730","43126","99310","NA","98804","99311","98740","75400","100300","64004","98239","5752","95405","Lexical Decision Task","8","24698","13","yes","1024"
"3.119255889","6.63","2","itch","word","64.28571428571429","64.28571428571429","1827.857142857143","1827.857142857143","black","no","legacy","legacy","legacy","0","uniform","1","undefined","undefined","undefined","1","j","0","0","0","0","13","0","0","0","13","NA","9","13","9","0","9","3","13","0","13","Tue Feb 16 13:17:52 2021","The main experiment item","yes","Lexical_Decision_Task.osexp","/Users/carlyburr/Desktop","no","Andale Mono","no","18","no","white","no","yes","576","legacy","9","9","3","/Users/carlyburr/Desktop/subject2-5226283.csv","legacy","Lentiform Loewenfeld","3.3.7","yes","yes","600bd7cfb6416f0113b04181","602110864497cf011d9c0822","0","j","NA","space","space","space","NA","j","892","NA","4360","37334","7600","NA","892","2","legacy","1024","2","48000","-16","task","5226283","odd","NA","69036","75400","71040","100868","5762","50730","43126","101371","NA","100865","101371","100803","75400","102263","64004","100303","5752","95405","Lexical Decision Task","9","25590","14","yes","1024"
"3.194328374","9.42","6","harm","word","66.66666666666667","66.66666666666667","1756.7333333333333","1756.7333333333333","black","no","legacy","legacy","legacy","0","uniform","1","undefined","undefined","undefined","1","j","0","0","0","0","14","0","0","0","14","NA","10","14","10","0","10","3","14","0","14","Tue Feb 16 13:17:52 2021","The main experiment item","yes","Lexical_Decision_Task.osexp","/Users/carlyburr/Desktop","no","Andale Mono","no","18","no","white","no","yes","576","legacy","10","10","3","/Users/carlyburr/Desktop/subject2-5226283.csv","legacy","Lentiform Loewenfeld","3.3.7","yes","yes","600bd7cfb6416f0113b04181","602110864497cf011d9c0822","0","j","NA","space","space","space","NA","j","761","NA","4360","37334","7600","NA","761","2","legacy","1024","2","48000","-16","task","5226283","odd","NA","69036","75400","71040","102831","5762","50730","43126","103334","NA","102828","103335","102766","75400","104096","64004","102266","5752","95405","Lexical Decision Task","10","26351","15","yes","1024"
"3.039414119","0","9","meep","non-word","68.75","68.75","1711.6875","1711.6875","black","no","legacy","legacy","legacy","0","uniform","1","undefined","undefined","undefined","1","f","0","0","0","0","15","0","0","0","15","NA","11","15","11","0","11","3","15","0","15","Tue Feb 16 13:17:52 2021","The main experiment item","yes","Lexical_Decision_Task.osexp","/Users/carlyburr/Desktop","no","Andale Mono","no","18","no","white","no","yes","576","legacy","11","11","3","/Users/carlyburr/Desktop/subject2-5226283.csv","legacy","Lentiform Loewenfeld","3.3.7","yes","yes","600bd7cfb6416f0113b04181","602110864497cf011d9c0822","0","f","NA","space","space","space","NA","f","1036","NA","4360","37334","7600","NA","1036","2","legacy","1024","2","48000","-16","task","5226283","odd","NA","69036","75400","71040","104664","5762","50730","43126","105167","NA","104661","105168","104599","75400","106204","64004","104099","5752","95405","Lexical Decision Task","11","27387","16","yes","1024"
"3.121778632","0","9","sark","non-word","70.58823529411765","70.58823529411765","1652.4117647058824","1652.4117647058824","black","no","legacy","legacy","legacy","0","uniform","1","undefined","undefined","undefined","1","f","0","0","0","0","16","0","0","0","16","NA","12","16","12","0","12","3","16","0","16","Tue Feb 16 13:17:52 2021","The main experiment item","yes","Lexical_Decision_Task.osexp","/Users/carlyburr/Desktop","no","Andale Mono","no","18","no","white","no","yes","576","legacy","12","12","3","/Users/carlyburr/Desktop/subject2-5226283.csv","legacy","Lentiform Loewenfeld","3.3.7","yes","yes","600bd7cfb6416f0113b04181","602110864497cf011d9c0822","0","f","NA","space","space","space","NA","f","704","NA","4360","37334","7600","NA","704","2","legacy","1024","2","48000","-16","task","5226283","odd","NA","69036","75400","71040","106773","5762","50730","43126","107276","NA","106770","107277","106708","75400","107982","64004","106207","5752","95405","Lexical Decision Task","12","28091","17","yes","1024"
"2.713490543","0","3","feps","non-word","72.22222222222223","72.22222222222223","1614","1614","black","no","legacy","legacy","legacy","0","uniform","1","undefined","undefined","undefined","1","f","0","0","0","0","17","0","0","0","17","NA","13","17","13","0","13","3","17","0","17","Tue Feb 16 13:17:52 2021","The main experiment item","yes","Lexical_Decision_Task.osexp","/Users/carlyburr/Desktop","no","Andale Mono","no","18","no","white","no","yes","576","legacy","13","13","3","/Users/carlyburr/Desktop/subject2-5226283.csv","legacy","Lentiform Loewenfeld","3.3.7","yes","yes","600bd7cfb6416f0113b04181","602110864497cf011d9c0822","0","f","NA","space","space","space","NA","f","961","NA","4360","37334","7600","NA","961","2","legacy","1024","2","48000","-16","task","5226283","odd","NA","69036","75400","71040","108550","5762","50730","43126","109053","NA","108547","109054","108485","75400","110015","64004","107985","5752","95405","Lexical Decision Task","13","29052","18","yes","1024"
"3.14849993","10.75","7","hour","word","73.6842105263158","73.6842105263158","1568.3157894736842","1568.3157894736842","black","no","legacy","legacy","legacy","0","uniform","1","undefined","undefined","undefined","1","j","0","0","0","0","18","0","0","0","18","NA","14","18","14","0","14","3","18","0","18","Tue Feb 16 13:17:52 2021","The main experiment item","yes","Lexical_Decision_Task.osexp","/Users/carlyburr/Desktop","no","Andale Mono","no","18","no","white","no","yes","576","legacy","14","14","3","/Users/carlyburr/Desktop/subject2-5226283.csv","legacy","Lentiform Loewenfeld","3.3.7","yes","yes","600bd7cfb6416f0113b04181","602110864497cf011d9c0822","0","j","NA","space","space","space","NA","j","746","NA","4360","37334","7600","NA","746","2","legacy","1024","2","48000","-16","task","5226283","odd","NA","69036","75400","71040","110583","5762","50730","43126","111086","NA","110580","111087","110518","75400","111834","64004","110018","5752","95405","Lexical Decision Task","14","29798","19","yes","1024"
"3.031408464","0","7","drow","non-word","75","75","1545.6","1545.6","black","no","legacy","legacy","legacy","0","uniform","1","undefined","undefined","undefined","1","f","0","0","0","0","19","0","0","0","19","NA","15","19","15","0","15","3","19","0","19","Tue Feb 16 13:17:52 2021","The main experiment item","yes","Lexical_Decision_Task.osexp","/Users/carlyburr/Desktop","no","Andale Mono","no","18","no","white","no","yes","576","legacy","15","15","3","/Users/carlyburr/Desktop/subject2-5226283.csv","legacy","Lentiform Loewenfeld","3.3.7","yes","yes","600bd7cfb6416f0113b04181","602110864497cf011d9c0822","0","f","NA","space","space","space","NA","f","1114","NA","4360","37334","7600","NA","1114","2","legacy","1024","2","48000","-16","task","5226283","odd","NA","69036","75400","71040","112404","5762","50730","43126","112907","NA","112401","112908","112337","75400","114023","64004","111837","5752","95405","Lexical Decision Task","15","30912","20","yes","1024"
"3.066077331","0","7","vorn","non-word","76.19047619047619","76.19047619047619","1510.857142857143","1510.857142857143","black","no","legacy","legacy","legacy","0","uniform","1","undefined","undefined","undefined","1","f","0","0","0","0","20","0","0","0","20","NA","16","20","16","0","16","3","20","0","20","Tue Feb 16 13:17:52 2021","The main experiment item","yes","Lexical_Decision_Task.osexp","/Users/carlyburr/Desktop","no","Andale Mono","no","18","no","white","no","yes","576","legacy","16","16","3","/Users/carlyburr/Desktop/subject2-5226283.csv","legacy","Lentiform Loewenfeld","3.3.7","yes","yes","600bd7cfb6416f0113b04181","602110864497cf011d9c0822","0","f","NA","space","space","space","NA","f","816","NA","4360","37334","7600","NA","816","2","legacy","1024","2","48000","-16","task","5226283","odd","NA","69036","75400","71040","114591","5762","50730","43126","115094","NA","114588","115094","114526","75400","115911","64004","114026","5752","95405","Lexical Decision Task","16","31728","21","yes","1024"
"2.845304797","0","6","buct","non-word","77.27272727272727","77.27272727272727","1505.8636363636363","1505.8636363636363","black","no","legacy","legacy","legacy","0","uniform","1","undefined","undefined","undefined","1","f","0","0","0","0","21","0","0","0","21","NA","17","21","17","0","17","3","21","0","21","Tue Feb 16 13:17:52 2021","The main experiment item","yes","Lexical_Decision_Task.osexp","/Users/carlyburr/Desktop","no","Andale Mono","no","18","no","white","no","yes","576","legacy","17","17","3","/Users/carlyburr/Desktop/subject2-5226283.csv","legacy","Lentiform Loewenfeld","3.3.7","yes","yes","600bd7cfb6416f0113b04181","602110864497cf011d9c0822","0","f","NA","space","space","space","NA","f","1401","NA","4360","37334","7600","NA","1401","2","legacy","1024","2","48000","-16","task","5226283","odd","NA","69036","75400","71040","116479","5762","50730","43126","116982","NA","116476","116983","116414","75400","118385","64004","115914","5752","95405","Lexical Decision Task","17","33129","22","yes","1024"
"3.431095062","5.74","9","perk","word","78.26086956521739","78.26086956521739","1473.3478260869565","1473.3478260869565","black","no","legacy","legacy","legacy","0","uniform","1","undefined","undefined","undefined","1","j","0","0","0","0","22","0","0","0","22","NA","18","22","18","0","18","3","22","0","22","Tue Feb 16 13:17:52 2021","The main experiment item","yes","Lexical_Decision_Task.osexp","/Users/carlyburr/Desktop","no","Andale Mono","no","18","no","white","no","yes","576","legacy","18","18","3","/Users/carlyburr/Desktop/subject2-5226283.csv","legacy","Lentiform Loewenfeld","3.3.7","yes","yes","600bd7cfb6416f0113b04181","602110864497cf011d9c0822","0","j","NA","space","space","space","NA","j","758","NA","4360","37334","7600","NA","758","2","legacy","1024","2","48000","-16","task","5226283","odd","NA","69036","75400","71040","118952","5762","50730","43126","119455","NA","118949","119456","118887","75400","120215","64004","118387","5752","95405","Lexical Decision Task","18","33887","23","yes","1024"
"3.067193647","6.73","6","raft","word","79.16666666666667","79.16666666666667","1464.0833333333333","1464.0833333333333","black","no","legacy","legacy","legacy","0","uniform","1","undefined","undefined","undefined","1","j","0","0","0","0","23","0","0","0","23","NA","19","23","19","0","19","3","23","0","23","Tue Feb 16 13:17:52 2021","The main experiment item","yes","Lexical_Decision_Task.osexp","/Users/carlyburr/Desktop","no","Andale Mono","no","18","no","white","no","yes","576","legacy","19","19","3","/Users/carlyburr/Desktop/subject2-5226283.csv","legacy","Lentiform Loewenfeld","3.3.7","yes","yes","600bd7cfb6416f0113b04181","602110864497cf011d9c0822","0","j","NA","space","space","space","NA","j","1251","NA","4360","37334","7600","NA","1251","2","legacy","1024","2","48000","-16","task","5226283","odd","NA","69036","75400","71040","120783","5762","50730","43126","121287","NA","120781","121288","120718","75400","122540","64004","120218","5752","95405","Lexical Decision Task","19","35138","24","yes","1024"
"2.705007959","6.01","4","wept","word","80","80","1438.92","1438.92","black","no","legacy","legacy","legacy","0","uniform","1","undefined","undefined","undefined","1","j","0","0","0","0","24","0","0","0","24","NA","20","24","20","0","20","3","24","0","24","Tue Feb 16 13:17:52 2021","The main experiment item","yes","Lexical_Decision_Task.osexp","/Users/carlyburr/Desktop","no","Andale Mono","no","18","no","white","no","yes","576","legacy","20","20","3","/Users/carlyburr/Desktop/subject2-5226283.csv","legacy","Lentiform Loewenfeld","3.3.7","yes","yes","600bd7cfb6416f0113b04181","602110864497cf011d9c0822","0","j","NA","space","space","space","NA","j","835","NA","4360","37334","7600","NA","835","2","legacy","1024","2","48000","-16","task","5226283","odd","NA","69036","75400","71040","123108","5762","50730","43126","123611","NA","123105","123612","123043","75400","124448","64004","122543","5752","95405","Lexical Decision Task","20","35973","25","yes","1024"
"3.043885998","0","9","gome","non-word","80.76923076923077","80.76923076923077","1411.9615384615386","1411.9615384615386","black","no","legacy","legacy","legacy","0","uniform","1","undefined","undefined","undefined","1","f","0","0","0","0","25","0","0","0","25","NA","21","25","21","0","21","3","25","0","25","Tue Feb 16 13:17:52 2021","The main experiment item","yes","Lexical_Decision_Task.osexp","/Users/carlyburr/Desktop","no","Andale Mono","no","18","no","white","no","yes","576","legacy","21","21","3","/Users/carlyburr/Desktop/subject2-5226283.csv","legacy","Lentiform Loewenfeld","3.3.7","yes","yes","600bd7cfb6416f0113b04181","602110864497cf011d9c0822","0","f","NA","space","space","space","NA","f","738","NA","4360","37334","7600","NA","738","2","legacy","1024","2","48000","-16","task","5226283","odd","NA","69036","75400","71040","125017","5762","50730","43126","125520","NA","125014","125521","124951","75400","126260","64004","124451","5752","95405","Lexical Decision Task","21","36711","26","yes","1024"
"3.094121596","0","8","fode","non-word","81.48148148148148","81.48148148148148","1393.9259259259259","1393.9259259259259","black","no","legacy","legacy","legacy","0","uniform","1","undefined","undefined","undefined","1","f","0","0","0","0","26","0","0","0","26","NA","22","26","22","0","22","3","26","0","26","Tue Feb 16 13:17:52 2021","The main experiment item","yes","Lexical_Decision_Task.osexp","/Users/carlyburr/Desktop","no","Andale Mono","no","18","no","white","no","yes","576","legacy","22","22","3","/Users/carlyburr/Desktop/subject2-5226283.csv","legacy","Lentiform Loewenfeld","3.3.7","yes","yes","600bd7cfb6416f0113b04181","602110864497cf011d9c0822","0","f","NA","space","space","space","NA","f","925","NA","4360","37334","7600","NA","925","2","legacy","1024","2","48000","-16","task","5226283","odd","NA","69036","75400","71040","126829","5762","50730","43126","127332","NA","126826","127332","126763","75400","128258","64004","126263","5752","95405","Lexical Decision Task","22","37636","27","yes","1024"
"2.767650507","0","6","yolt","non-word","78.57142857142857","78.57142857142857","1368.857142857143","1368.857142857143","black","no","legacy","legacy","legacy","0","uniform","0","undefined","undefined","undefined","0","f","0","0","0","0","27","0","0","0","27","NA","23","27","23","0","23","3","27","0","27","Tue Feb 16 13:17:52 2021","The main experiment item","yes","Lexical_Decision_Task.osexp","/Users/carlyburr/Desktop","no","Andale Mono","no","18","no","white","no","yes","576","legacy","23","23","3","/Users/carlyburr/Desktop/subject2-5226283.csv","legacy","Lentiform Loewenfeld","3.3.7","yes","yes","600bd7cfb6416f0113b04181","602110864497cf011d9c0822","0","j","NA","space","space","space","NA","j","692","NA","4360","37334","7600","NA","692","2","legacy","1024","2","48000","-16","task","5226283","odd","NA","69036","75400","71040","128826","5762","50730","43126","129329","NA","128823","129330","128761","75400","130023","64004","128261","5752","95405","Lexical Decision Task","22","38328","28","yes","1024"
"2.9737419","7.69","7","claw","word","79.3103448275862","79.3103448275862","1352.6206896551723","1352.6206896551723","black","no","legacy","legacy","legacy","0","uniform","1","undefined","undefined","undefined","1","j","0","0","0","0","28","0","0","0","28","NA","24","28","24","0","24","3","28","0","28","Tue Feb 16 13:17:52 2021","The main experiment item","yes","Lexical_Decision_Task.osexp","/Users/carlyburr/Desktop","no","Andale Mono","no","18","no","white","no","yes","576","legacy","24","24","3","/Users/carlyburr/Desktop/subject2-5226283.csv","legacy","Lentiform Loewenfeld","3.3.7","yes","yes","600bd7cfb6416f0113b04181","602110864497cf011d9c0822","0","j","NA","space","space","space","NA","j","898","NA","4360","37334","7600","NA","898","2","legacy","1024","2","48000","-16","task","5226283","odd","NA","69036","75400","71040","131594","5762","50730","43126","132097","NA","131591","132098","131526","75400","132996","64004","128261","5752","130026","Lexical Decision Task","23","39226","29","yes","1024"
"3.263399331","0","8","cour","non-word","80","80","1332.2666666666667","1332.2666666666667","black","no","legacy","legacy","legacy","0","uniform","1","undefined","undefined","undefined","1","f","0","0","0","0","29","0","0","0","29","NA","25","29","25","0","25","3","29","0","29","Tue Feb 16 13:17:52 2021","The main experiment item","yes","Lexical_Decision_Task.osexp","/Users/carlyburr/Desktop","no","Andale Mono","no","18","no","white","no","yes","576","legacy","25","25","3","/Users/carlyburr/Desktop/subject2-5226283.csv","legacy","Lentiform Loewenfeld","3.3.7","yes","yes","600bd7cfb6416f0113b04181","602110864497cf011d9c0822","0","f","NA","space","space","space","NA","f","742","NA","4360","37334","7600","NA","742","2","legacy","1024","2","48000","-16","task","5226283","odd","NA","69036","75400","71040","133565","5762","50730","43126","134068","NA","133562","134069","133500","75400","134811","64004","133000","5752","130026","Lexical Decision Task","24","39968","30","yes","1024"
"3.216517684","10.87","3","film","word","80.64516129032258","80.64516129032258","1309.3548387096773","1309.3548387096773","black","no","legacy","legacy","legacy","0","uniform","1","undefined","undefined","undefined","1","j","0","0","0","0","30","0","0","0","30","NA","26","30","26","0","26","3","30","0","30","Tue Feb 16 13:17:52 2021","The main experiment item","yes","Lexical_Decision_Task.osexp","/Users/carlyburr/Desktop","no","Andale Mono","no","18","no","white","no","yes","576","legacy","26","26","3","/Users/carlyburr/Desktop/subject2-5226283.csv","legacy","Lentiform Loewenfeld","3.3.7","yes","yes","600bd7cfb6416f0113b04181","602110864497cf011d9c0822","0","j","NA","space","space","space","NA","j","622","NA","4360","37334","7600","NA","622","2","legacy","1024","2","48000","-16","task","5226283","odd","NA","69036","75400","71040","135381","5762","50730","43126","135885","NA","135379","135886","135315","75400","136508","64004","134814","5752","130026","Lexical Decision Task","25","40590","31","yes","1024"
"3.460446784","0","5","dess","non-word","81.25","81.25","1303.03125","1303.03125","black","no","legacy","legacy","legacy","0","uniform","1","undefined","undefined","undefined","1","f","0","0","0","0","31","0","0","0","31","NA","27","31","27","0","27","3","31","0","31","Tue Feb 16 13:17:52 2021","The main experiment item","yes","Lexical_Decision_Task.osexp","/Users/carlyburr/Desktop","no","Andale Mono","no","18","no","white","no","yes","576","legacy","27","27","3","/Users/carlyburr/Desktop/subject2-5226283.csv","legacy","Lentiform Loewenfeld","3.3.7","yes","yes","600bd7cfb6416f0113b04181","602110864497cf011d9c0822","0","f","NA","space","space","space","NA","f","1107","NA","4360","37334","7600","NA","1107","2","legacy","1024","2","48000","-16","task","5226283","odd","NA","69036","75400","71040","137076","5762","50730","43126","137579","NA","137073","137580","137011","75400","138687","64004","136511","5752","130026","Lexical Decision Task","26","41697","32","yes","1024"
"2.952953801","0","8","clax","non-word","81.81818181818181","81.81818181818181","1287.060606060606","1287.060606060606","black","no","legacy","legacy","legacy","0","uniform","1","undefined","undefined","undefined","1","f","0","0","0","0","32","0","0","0","32","NA","28","32","28","0","28","3","32","0","32","Tue Feb 16 13:17:52 2021","The main experiment item","yes","Lexical_Decision_Task.osexp","/Users/carlyburr/Desktop","no","Andale Mono","no","18","no","white","no","yes","576","legacy","28","28","3","/Users/carlyburr/Desktop/subject2-5226283.csv","legacy","Lentiform Loewenfeld","3.3.7","yes","yes","600bd7cfb6416f0113b04181","602110864497cf011d9c0822","0","f","NA","space","space","space","NA","f","776","NA","4360","37334","7600","NA","776","2","legacy","1024","2","48000","-16","task","5226283","odd","NA","69036","75400","71040","139256","5762","50730","43126","139759","NA","139253","139760","139190","75400","140536","64004","138690","5752","130026","Lexical Decision Task","27","42473","33","yes","1024"
"3.299579929","0","2","flis","non-word","82.3529411764706","82.3529411764706","1281.4705882352941","1281.4705882352941","black","no","legacy","legacy","legacy","0","uniform","1","undefined","undefined","undefined","1","f","0","0","0","0","33","0","0","0","33","NA","29","33","29","0","29","3","33","0","33","Tue Feb 16 13:17:52 2021","The main experiment item","yes","Lexical_Decision_Task.osexp","/Users/carlyburr/Desktop","no","Andale Mono","no","18","no","white","no","yes","576","legacy","29","29","3","/Users/carlyburr/Desktop/subject2-5226283.csv","legacy","Lentiform Loewenfeld","3.3.7","yes","yes","600bd7cfb6416f0113b04181","602110864497cf011d9c0822","0","f","NA","space","space","space","NA","f","1097","NA","4360","37334","7600","NA","1097","2","legacy","1024","2","48000","-16","task","5226283","odd","NA","69036","75400","71040","141104","5762","50730","43126","141607","NA","141101","141608","141039","75400","142706","64004","140539","5752","130026","Lexical Decision Task","28","43570","34","yes","1024"
"2.616654026","9.37","5","gift","word","82.85714285714286","82.85714285714286","1323.2857142857142","1323.2857142857142","black","no","legacy","legacy","legacy","0","uniform","1","undefined","undefined","undefined","1","j","0","0","0","0","34","0","0","0","34","NA","30","34","30","0","30","3","34","0","34","Tue Feb 16 13:17:52 2021","The main experiment item","yes","Lexical_Decision_Task.osexp","/Users/carlyburr/Desktop","no","Andale Mono","no","18","no","white","no","yes","576","legacy","30","30","3","/Users/carlyburr/Desktop/subject2-5226283.csv","legacy","Lentiform Loewenfeld","3.3.7","yes","yes","600bd7cfb6416f0113b04181","602110864497cf011d9c0822","0","j","NA","space","space","space","NA","j","2745","NA","4360","37334","7600","NA","2745","2","legacy","1024","2","48000","-16","task","5226283","odd","NA","69036","75400","71040","143274","5762","50730","43126","143777","NA","143272","143778","143210","75400","146524","64004","142710","5752","130026","Lexical Decision Task","29","46315","35","yes","1024"
"3.081107167","0","6","chot","non-word","83.33333333333333","83.33333333333333","1315.9166666666667","1315.9166666666667","black","no","legacy","legacy","legacy","0","uniform","1","undefined","undefined","undefined","1","f","0","0","0","0","35","0","0","0","35","NA","31","35","31","0","31","3","35","0","35","Tue Feb 16 13:17:52 2021","The main experiment item","yes","Lexical_Decision_Task.osexp","/Users/carlyburr/Desktop","no","Andale Mono","no","18","no","white","no","yes","576","legacy","31","31","3","/Users/carlyburr/Desktop/subject2-5226283.csv","legacy","Lentiform Loewenfeld","3.3.7","yes","yes","600bd7cfb6416f0113b04181","602110864497cf011d9c0822","0","f","NA","space","space","space","NA","f","1058","NA","4360","37334","7600","NA","1058","2","legacy","1024","2","48000","-16","task","5226283","odd","NA","69036","75400","71040","147093","5762","50730","43126","147596","NA","147090","147597","147027","75400","148656","64004","146527","5752","130026","Lexical Decision Task","30","47373","36","yes","1024"
"2.895974732","6.65","5","sift","word","81.08108108108108","81.08108108108108","1310.5675675675675","1310.5675675675675","black","no","legacy","legacy","legacy","0","uniform","0","undefined","undefined","undefined","0","j","0","0","0","0","36","0","0","0","36","NA","32","36","32","0","32","3","36","0","36","Tue Feb 16 13:17:52 2021","The main experiment item","yes","Lexical_Decision_Task.osexp","/Users/carlyburr/Desktop","no","Andale Mono","no","18","no","white","no","yes","576","legacy","32","32","3","/Users/carlyburr/Desktop/subject2-5226283.csv","legacy","Lentiform Loewenfeld","3.3.7","yes","yes","600bd7cfb6416f0113b04181","602110864497cf011d9c0822","0","f","NA","space","space","space","NA","f","1118","NA","4360","37334","7600","NA","1118","2","legacy","1024","2","48000","-16","task","5226283","odd","NA","69036","75400","71040","149224","5762","50730","43126","149728","NA","149222","149729","149159","75400","150848","64004","148659","5752","130026","Lexical Decision Task","30","48491","37","yes","1024"
"3.134602053","0","8","jart","non-word","81.57894736842105","81.57894736842105","1302.421052631579","1302.421052631579","black","no","legacy","legacy","legacy","0","uniform","1","undefined","undefined","undefined","1","f","0","0","0","0","37","0","0","0","37","NA","33","37","33","0","33","3","37","0","37","Tue Feb 16 13:17:52 2021","The main experiment item","yes","Lexical_Decision_Task.osexp","/Users/carlyburr/Desktop","no","Andale Mono","no","18","no","white","no","yes","576","legacy","33","33","3","/Users/carlyburr/Desktop/subject2-5226283.csv","legacy","Lentiform Loewenfeld","3.3.7","yes","yes","600bd7cfb6416f0113b04181","602110864497cf011d9c0822","0","f","NA","space","space","space","NA","f","1001","NA","4360","37334","7600","NA","1001","2","legacy","1024","2","48000","-16","task","5226283","odd","NA","69036","75400","71040","152421","5762","50730","43126","152924","NA","152418","152925","152352","75400","153927","64004","148659","5752","150851","Lexical Decision Task","31","49492","38","yes","1024"
"2.899092422","7.27","6","snag","word","82.05128205128206","82.05128205128206","1292.179487179487","1292.179487179487","black","no","legacy","legacy","legacy","0","uniform","1","undefined","undefined","undefined","1","j","0","0","0","0","38","0","0","0","38","NA","34","38","34","0","34","3","38","0","38","Tue Feb 16 13:17:52 2021","The main experiment item","yes","Lexical_Decision_Task.osexp","/Users/carlyburr/Desktop","no","Andale Mono","no","18","no","white","no","yes","576","legacy","34","34","3","/Users/carlyburr/Desktop/subject2-5226283.csv","legacy","Lentiform Loewenfeld","3.3.7","yes","yes","600bd7cfb6416f0113b04181","602110864497cf011d9c0822","0","j","NA","space","space","space","NA","j","903","NA","4360","37334","7600","NA","903","2","legacy","1024","2","48000","-16","task","5226283","odd","NA","69036","75400","71040","154495","5762","50730","43126","154999","NA","154492","154999","154430","75400","155903","64004","153930","5752","150851","Lexical Decision Task","32","50395","39","yes","1024"
"3.15462682","0","6","noal","non-word","82.5","82.5","1277.2","1277.2","black","no","legacy","legacy","legacy","0","uniform","1","undefined","undefined","undefined","1","f","0","0","0","0","39","0","0","0","39","NA","35","39","35","0","35","3","39","0","39","Tue Feb 16 13:17:52 2021","The main experiment item","yes","Lexical_Decision_Task.osexp","/Users/carlyburr/Desktop","no","Andale Mono","no","18","no","white","no","yes","576","legacy","35","35","3","/Users/carlyburr/Desktop/subject2-5226283.csv","legacy","Lentiform Loewenfeld","3.3.7","yes","yes","600bd7cfb6416f0113b04181","602110864497cf011d9c0822","0","f","NA","space","space","space","NA","f","693","NA","4360","37334","7600","NA","693","2","legacy","1024","2","48000","-16","task","5226283","odd","NA","69036","75400","71040","156471","5762","50730","43126","156974","NA","156468","156975","156406","75400","157669","64004","155906","5752","150851","Lexical Decision Task","33","51088","40","yes","1024"
"2.979548375","8.71","4","soup","word","82.92682926829268","82.92682926829268","1261.5365853658536","1261.5365853658536","black","no","legacy","legacy","legacy","0","uniform","1","undefined","undefined","undefined","1","j","0","0","0","0","40","0","0","0","40","NA","36","40","36","0","36","3","40","0","40","Tue Feb 16 13:17:52 2021","The main experiment item","yes","Lexical_Decision_Task.osexp","/Users/carlyburr/Desktop","no","Andale Mono","no","18","no","white","no","yes","576","legacy","36","36","3","/Users/carlyburr/Desktop/subject2-5226283.csv","legacy","Lentiform Loewenfeld","3.3.7","yes","yes","600bd7cfb6416f0113b04181","602110864497cf011d9c0822","0","j","NA","space","space","space","NA","j","635","NA","4360","37334","7600","NA","635","2","legacy","1024","2","48000","-16","task","5226283","odd","NA","69036","75400","71040","158237","5762","50730","43126","158740","NA","158234","158741","158172","75400","159377","64004","157672","5752","150851","Lexical Decision Task","34","51723","41","yes","1024"
"2.842815106","7.86","8","lump","word","83.33333333333333","83.33333333333333","1254.2380952380952","1254.2380952380952","black","no","legacy","legacy","legacy","0","uniform","1","undefined","undefined","undefined","1","j","0","0","0","0","41","0","0","0","41","NA","37","41","37","0","37","3","41","0","41","Tue Feb 16 13:17:52 2021","The main experiment item","yes","Lexical_Decision_Task.osexp","/Users/carlyburr/Desktop","no","Andale Mono","no","18","no","white","no","yes","576","legacy","37","37","3","/Users/carlyburr/Desktop/subject2-5226283.csv","legacy","Lentiform Loewenfeld","3.3.7","yes","yes","600bd7cfb6416f0113b04181","602110864497cf011d9c0822","0","j","NA","space","space","space","NA","j","955","NA","4360","37334","7600","NA","955","2","legacy","1024","2","48000","-16","task","5226283","odd","NA","69036","75400","71040","159944","5762","50730","43126","160447","NA","159942","160448","159880","75400","161404","64004","159380","5752","150851","Lexical Decision Task","35","52678","42","yes","1024"
"2.996511672","0","7","hoil","non-word","83.72093023255815","83.72093023255815","1246.6744186046512","1246.6744186046512","black","no","legacy","legacy","legacy","0","uniform","1","undefined","undefined","undefined","1","f","0","0","0","0","42","0","0","0","42","NA","38","42","38","0","38","3","42","0","42","Tue Feb 16 13:17:52 2021","The main experiment item","yes","Lexical_Decision_Task.osexp","/Users/carlyburr/Desktop","no","Andale Mono","no","18","no","white","no","yes","576","legacy","38","38","3","/Users/carlyburr/Desktop/subject2-5226283.csv","legacy","Lentiform Loewenfeld","3.3.7","yes","yes","600bd7cfb6416f0113b04181","602110864497cf011d9c0822","0","f","NA","space","space","space","NA","f","929","NA","4360","37334","7600","NA","929","2","legacy","1024","2","48000","-16","task","5226283","odd","NA","69036","75400","71040","161970","5762","50730","43126","162474","NA","161968","162475","161907","75400","163405","64004","161407","5752","150851","Lexical Decision Task","36","53607","43","yes","1024"
"2.664328519","0","4","plux","non-word","84.0909090909091","84.0909090909091","1246.4772727272727","1246.4772727272727","black","no","legacy","legacy","legacy","0","uniform","1","undefined","undefined","undefined","1","f","0","0","0","0","43","0","0","0","43","NA","39","43","39","0","39","3","43","0","43","Tue Feb 16 13:17:52 2021","The main experiment item","yes","Lexical_Decision_Task.osexp","/Users/carlyburr/Desktop","no","Andale Mono","no","18","no","white","no","yes","576","legacy","39","39","3","/Users/carlyburr/Desktop/subject2-5226283.csv","legacy","Lentiform Loewenfeld","3.3.7","yes","yes","600bd7cfb6416f0113b04181","602110864497cf011d9c0822","0","f","NA","space","space","space","NA","f","1238","NA","4360","37334","7600","NA","1238","2","legacy","1024","2","48000","-16","task","5226283","odd","NA","69036","75400","71040","163970","5762","50730","43126","164474","NA","163968","164475","163908","75400","165713","64004","163408","5752","150851","Lexical Decision Task","37","54845","44","yes","1024"
"3.531734309","0","6","lerd","non-word","84.44444444444444","84.44444444444444","1233.6888888888889","1233.6888888888889","black","no","legacy","legacy","legacy","0","uniform","1","undefined","undefined","undefined","1","f","0","0","0","0","44","0","0","0","44","NA","40","44","40","0","40","3","44","0","44","Tue Feb 16 13:17:52 2021","The main experiment item","yes","Lexical_Decision_Task.osexp","/Users/carlyburr/Desktop","no","Andale Mono","no","18","no","white","no","yes","576","legacy","40","40","3","/Users/carlyburr/Desktop/subject2-5226283.csv","legacy","Lentiform Loewenfeld","3.3.7","yes","yes","600bd7cfb6416f0113b04181","602110864497cf011d9c0822","0","f","NA","space","space","space","NA","f","671","NA","4360","37334","7600","NA","671","2","legacy","1024","2","48000","-16","task","5226283","odd","NA","69036","75400","71040","166282","5762","50730","43126","166785","NA","166279","166785","166216","75400","167456","64004","165716","5752","150851","Lexical Decision Task","38","55516","45","yes","1024"
"2.907588697","8.91","9","mood","word","84.78260869565217","84.78260869565217","1222.5","1222.5","black","no","legacy","legacy","legacy","0","uniform","1","undefined","undefined","undefined","1","j","0","0","0","0","45","0","0","0","45","NA","41","45","41","0","41","3","45","0","45","Tue Feb 16 13:17:52 2021","The main experiment item","yes","Lexical_Decision_Task.osexp","/Users/carlyburr/Desktop","no","Andale Mono","no","18","no","white","no","yes","576","legacy","41","41","3","/Users/carlyburr/Desktop/subject2-5226283.csv","legacy","Lentiform Loewenfeld","3.3.7","yes","yes","600bd7cfb6416f0113b04181","602110864497cf011d9c0822","0","j","NA","space","space","space","NA","j","719","NA","4360","37334","7600","NA","719","2","legacy","1024","2","48000","-16","task","5226283","odd","NA","69036","75400","71040","168024","5762","50730","43126","168528","NA","168022","168528","167959","75400","169248","64004","167459","5752","150851","Lexical Decision Task","39","56235","46","yes","1024"
"2.937852093","0","7","bamp","non-word","85.1063829787234","85.1063829787234","1220.4255319148936","1220.4255319148936","black","no","legacy","legacy","legacy","0","uniform","1","undefined","undefined","undefined","1","f","0","0","0","0","46","0","0","0","46","NA","42","46","42","0","42","3","46","0","46","Tue Feb 16 13:17:52 2021","The main experiment item","yes","Lexical_Decision_Task.osexp","/Users/carlyburr/Desktop","no","Andale Mono","no","18","no","white","no","yes","576","legacy","42","42","3","/Users/carlyburr/Desktop/subject2-5226283.csv","legacy","Lentiform Loewenfeld","3.3.7","yes","yes","600bd7cfb6416f0113b04181","602110864497cf011d9c0822","0","f","NA","space","space","space","NA","f","1125","NA","4360","37334","7600","NA","1125","2","legacy","1024","2","48000","-16","task","5226283","odd","NA","69036","75400","71040","169817","5762","50730","43126","170321","NA","169814","170321","169751","75400","171446","64004","169251","5752","150851","Lexical Decision Task","40","57360","47","yes","1024"
"3.153001286","8.7","5","palm","word","85.41666666666667","85.41666666666667","1208.3958333333333","1208.3958333333333","black","no","legacy","legacy","legacy","0","uniform","1","undefined","undefined","undefined","1","j","0","0","0","0","47","0","0","0","47","NA","43","47","43","0","43","3","47","0","47","Tue Feb 16 13:17:52 2021","The main experiment item","yes","Lexical_Decision_Task.osexp","/Users/carlyburr/Desktop","no","Andale Mono","no","18","no","white","no","yes","576","legacy","43","43","3","/Users/carlyburr/Desktop/subject2-5226283.csv","legacy","Lentiform Loewenfeld","3.3.7","yes","yes","600bd7cfb6416f0113b04181","602110864497cf011d9c0822","0","j","NA","space","space","space","NA","j","643","NA","4360","37334","7600","NA","643","2","legacy","1024","2","48000","-16","task","5226283","odd","NA","69036","75400","71040","172014","5762","50730","43126","172517","NA","172011","172518","171949","75400","173162","64004","171449","5752","150851","Lexical Decision Task","41","58003","48","yes","1024"
"2.675164031","8.57","6","glue","word","85.71428571428571","85.71428571428571","1214.3061224489795","1214.3061224489795","black","no","legacy","legacy","legacy","0","uniform","1","undefined","undefined","undefined","1","j","0","0","0","0","48","0","0","0","48","NA","44","48","44","0","44","3","48","0","48","Tue Feb 16 13:17:52 2021","The main experiment item","yes","Lexical_Decision_Task.osexp","/Users/carlyburr/Desktop","no","Andale Mono","no","18","no","white","no","yes","576","legacy","44","44","3","/Users/carlyburr/Desktop/subject2-5226283.csv","legacy","Lentiform Loewenfeld","3.3.7","yes","yes","600bd7cfb6416f0113b04181","602110864497cf011d9c0822","0","j","NA","space","space","space","NA","j","1498","NA","4360","37334","7600","NA","1498","2","legacy","1024","2","48000","-16","task","5226283","odd","NA","69036","75400","71040","173730","5762","50730","43126","174233","NA","173727","174233","173665","75400","175732","64004","173165","5752","150851","Lexical Decision Task","42","59501","49","yes","1024"
"3.208172527","10.27","7","deck","word","86","86","1209.08","1209.08","black","no","legacy","legacy","legacy","0","uniform","1","undefined","undefined","undefined","1","j","0","0","0","0","49","0","0","0","49","NA","45","49","45","0","45","3","49","0","49","Tue Feb 16 13:17:52 2021","The main experiment item","yes","Lexical_Decision_Task.osexp","/Users/carlyburr/Desktop","no","Andale Mono","no","18","no","white","no","yes","576","legacy","45","45","3","/Users/carlyburr/Desktop/subject2-5226283.csv","legacy","Lentiform Loewenfeld","3.3.7","yes","yes","600bd7cfb6416f0113b04181","602110864497cf011d9c0822","0","j","NA","space","space","space","NA","j","953","NA","4360","37334","7600","NA","953","2","legacy","1024","2","48000","-16","task","5226283","odd","NA","69036","75400","71040","176278","5762","50730","43126","176782","NA","176276","176782","176234","75400","177736","64004","175734","5752","150851","Lexical Decision Task","43","60454","50","yes","1024"
"2.6599162","0","2","saff","non-word","86.27450980392157","86.27450980392157","1197.078431372549","1197.078431372549","black","no","legacy","legacy","legacy","0","uniform","1","undefined","undefined","undefined","1","f","0","0","0","0","50","0","0","0","50","NA","46","50","46","0","46","3","50","0","50","Tue Feb 16 13:17:52 2021","The main experiment item","yes","Lexical_Decision_Task.osexp","/Users/carlyburr/Desktop","no","Andale Mono","no","18","no","white","no","yes","576","legacy","46","46","3","/Users/carlyburr/Desktop/subject2-5226283.csv","legacy","Lentiform Loewenfeld","3.3.7","yes","yes","600bd7cfb6416f0113b04181","602110864497cf011d9c0822","0","f","NA","space","space","space","NA","f","597","NA","4360","37334","7600","NA","597","2","legacy","1024","2","48000","-16","task","5226283","odd","NA","69036","75400","71040","178304","5762","50730","43126","178807","NA","178301","178808","178239","75400","179406","64004","177739","5752","150851","Lexical Decision Task","44","61051","51","yes","1024"
"3.174641193","0","3","ramb","non-word","86.53846153846153","86.53846153846153","1226.4615384615386","1226.4615384615386","black","no","legacy","legacy","legacy","0","uniform","1","undefined","undefined","undefined","1","f","0","0","0","0","51","0","0","0","51","NA","47","51","47","0","47","3","51","0","51","Tue Feb 16 13:17:52 2021","The main experiment item","yes","Lexical_Decision_Task.osexp","/Users/carlyburr/Desktop","no","Andale Mono","no","18","no","white","no","yes","576","legacy","47","47","3","/Users/carlyburr/Desktop/subject2-5226283.csv","legacy","Lentiform Loewenfeld","3.3.7","yes","yes","600bd7cfb6416f0113b04181","602110864497cf011d9c0822","0","f","NA","space","space","space","NA","f","2725","NA","4360","37334","7600","NA","2725","2","legacy","1024","2","48000","-16","task","5226283","odd","NA","69036","75400","71040","179973","5762","50730","43126","180477","NA","179971","180478","179909","75400","183204","64004","179409","5752","150851","Lexical Decision Task","45","63776","52","yes","1024"
"3.397302518","7.01","2","knit","word","86.79245283018868","86.79245283018868","1222.0377358490566","1222.0377358490566","black","no","legacy","legacy","legacy","0","uniform","1","undefined","undefined","undefined","1","j","0","0","0","0","52","0","0","0","52","NA","48","52","48","0","48","3","52","0","52","Tue Feb 16 13:17:52 2021","The main experiment item","yes","Lexical_Decision_Task.osexp","/Users/carlyburr/Desktop","no","Andale Mono","no","18","no","white","no","yes","576","legacy","48","48","3","/Users/carlyburr/Desktop/subject2-5226283.csv","legacy","Lentiform Loewenfeld","3.3.7","yes","yes","600bd7cfb6416f0113b04181","602110864497cf011d9c0822","0","j","NA","space","space","space","NA","j","992","NA","4360","37334","7600","NA","992","2","legacy","1024","2","48000","-16","task","5226283","odd","NA","69036","75400","71040","183772","5762","50730","43126","184275","NA","183769","184276","183707","75400","185268","64004","183207","5752","150851","Lexical Decision Task","46","64768","53","yes","1024"
"3.090140555","5.81","8","pout","word","87.03703703703704","87.03703703703704","1216.1296296296296","1216.1296296296296","black","no","legacy","legacy","legacy","0","uniform","1","undefined","undefined","undefined","1","j","0","0","0","0","53","0","0","0","53","NA","49","53","49","0","49","3","53","0","53","Tue Feb 16 13:17:52 2021","The main experiment item","yes","Lexical_Decision_Task.osexp","/Users/carlyburr/Desktop","no","Andale Mono","no","18","no","white","no","yes","576","legacy","49","49","3","/Users/carlyburr/Desktop/subject2-5226283.csv","legacy","Lentiform Loewenfeld","3.3.7","yes","yes","600bd7cfb6416f0113b04181","602110864497cf011d9c0822","0","j","NA","space","space","space","NA","j","903","NA","4360","37334","7600","NA","903","2","legacy","1024","2","48000","-16","task","5226283","odd","NA","69036","75400","71040","185836","5762","50730","43126","186340","NA","185833","186340","185771","75400","187244","64004","185271","5752","150851","Lexical Decision Task","47","65671","54","yes","1024"
"2.899638141","0","3","hapt","non-word","87.27272727272727","87.27272727272727","1231.7636363636364","1231.7636363636364","black","no","legacy","legacy","legacy","0","uniform","1","undefined","undefined","undefined","1","f","0","0","0","0","54","0","0","0","54","0","50","54","50","0","50","3","54","0","54","Tue Feb 16 13:17:52 2021","The main experiment item","yes","Lexical_Decision_Task.osexp","/Users/carlyburr/Desktop","no","Andale Mono","no","18","no","white","no","yes","576","legacy","50","50","3","/Users/carlyburr/Desktop/subject2-5226283.csv","legacy","Lentiform Loewenfeld","3.3.7","yes","yes","600bd7cfb6416f0113b04181","602110864497cf011d9c0822","0","f","NA","space","space","space","space","f","2076","NA","4360","37334","7600","11221","2076","2","legacy","1024","2","48000","-16","task","5226283","odd","NA","69036","75400","71040","199049","5762","50730","43126","199553","187785","199046","199553","187747","75400","201630","64004","187247","5752","150851","Lexical Decision Task","48","67747","55","yes","1024"
"2.897810299","0","5","glur","non-word","87.5","87.5","1223.3035714285713","1223.3035714285713","black","no","legacy","legacy","legacy","0","uniform","1","undefined","undefined","undefined","1","f","0","0","0","0","55","0","0","0","55","0","51","55","51","0","51","3","55","0","55","Tue Feb 16 13:17:52 2021","The main experiment item","yes","Lexical_Decision_Task.osexp","/Users/carlyburr/Desktop","no","Andale Mono","no","18","no","white","no","yes","576","legacy","51","51","3","/Users/carlyburr/Desktop/subject2-5226283.csv","legacy","Lentiform Loewenfeld","3.3.7","yes","yes","600bd7cfb6416f0113b04181","602110864497cf011d9c0822","0","f","NA","space","space","space","space","f","758","NA","4360","37334","7600","11221","758","2","legacy","1024","2","48000","-16","task","5226283","odd","NA","69036","75400","71040","202191","5762","50730","43126","202695","187785","202189","202696","202133","75400","203455","64004","201633","5752","150851","Lexical Decision Task","49","68505","56","yes","1024"
"3.316948329","0","1","besc","non-word","87.71929824561404","87.71929824561404","1212.1052631578948","1212.1052631578948","black","no","legacy","legacy","legacy","0","uniform","1","undefined","undefined","undefined","1","f","0","0","0","0","56","0","0","0","56","0","52","56","52","0","52","3","56","0","56","Tue Feb 16 13:17:52 2021","The main experiment item","yes","Lexical_Decision_Task.osexp","/Users/carlyburr/Desktop","no","Andale Mono","no","18","no","white","no","yes","576","legacy","52","52","3","/Users/carlyburr/Desktop/subject2-5226283.csv","legacy","Lentiform Loewenfeld","3.3.7","yes","yes","600bd7cfb6416f0113b04181","602110864497cf011d9c0822","0","f","NA","space","space","space","space","f","585","NA","4360","37334","7600","11221","585","2","legacy","1024","2","48000","-16","task","5226283","odd","NA","69036","75400","71040","204023","5762","50730","43126","204527","187785","204021","204528","203958","75400","205114","64004","203458","5752","150851","Lexical Decision Task","50","69090","57","yes","1024"
"2.799799878","0","4","ciff","non-word","87.93103448275862","87.93103448275862","1210.4137931034484","1210.4137931034484","black","no","legacy","legacy","legacy","0","uniform","1","undefined","undefined","undefined","1","f","0","0","0","0","57","0","0","0","57","0","53","57","53","0","53","3","57","0","57","Tue Feb 16 13:17:52 2021","The main experiment item","yes","Lexical_Decision_Task.osexp","/Users/carlyburr/Desktop","no","Andale Mono","no","18","no","white","no","yes","576","legacy","53","53","3","/Users/carlyburr/Desktop/subject2-5226283.csv","legacy","Lentiform Loewenfeld","3.3.7","yes","yes","600bd7cfb6416f0113b04181","602110864497cf011d9c0822","0","f","NA","space","space","space","space","f","1114","NA","4360","37334","7600","11221","1114","2","legacy","1024","2","48000","-16","task","5226283","odd","NA","69036","75400","71040","205683","5762","50730","43126","206187","187785","205680","206187","205617","75400","207302","64004","205117","5752","150851","Lexical Decision Task","51","70204","58","yes","1024"
"2.6599162","0","6","flug","non-word","88.13559322033899","88.13559322033899","1230.1864406779662","1230.1864406779662","black","no","legacy","legacy","legacy","0","uniform","1","undefined","undefined","undefined","1","f","0","0","0","0","58","0","0","0","58","0","54","58","54","0","54","3","58","0","58","Tue Feb 16 13:17:52 2021","The main experiment item","yes","Lexical_Decision_Task.osexp","/Users/carlyburr/Desktop","no","Andale Mono","no","18","no","white","no","yes","576","legacy","54","54","3","/Users/carlyburr/Desktop/subject2-5226283.csv","legacy","Lentiform Loewenfeld","3.3.7","yes","yes","600bd7cfb6416f0113b04181","602110864497cf011d9c0822","0","f","NA","space","space","space","space","f","2377","NA","4360","37334","7600","11221","2377","2","legacy","1024","2","48000","-16","task","5226283","odd","NA","69036","75400","71040","207873","5762","50730","43126","208376","187785","207870","208377","207805","75400","210755","64004","207305","5752","150851","Lexical Decision Task","52","72581","59","yes","1024"
"2.693726949","5.08","3","swig","word","86.66666666666667","86.66666666666667","1229.2666666666667","1229.2666666666667","black","no","legacy","legacy","legacy","0","uniform","0","undefined","undefined","undefined","0","j","0","0","0","0","59","0","0","0","59","0","55","59","55","0","55","3","59","0","59","Tue Feb 16 13:17:52 2021","The main experiment item","yes","Lexical_Decision_Task.osexp","/Users/carlyburr/Desktop","no","Andale Mono","no","18","no","white","no","yes","576","legacy","55","55","3","/Users/carlyburr/Desktop/subject2-5226283.csv","legacy","Lentiform Loewenfeld","3.3.7","yes","yes","600bd7cfb6416f0113b04181","602110864497cf011d9c0822","0","f","NA","space","space","space","space","f","1175","NA","4360","37334","7600","11221","1175","2","legacy","1024","2","48000","-16","task","5226283","odd","NA","69036","75400","71040","211325","5762","50730","43126","211828","187785","211322","211829","211259","75400","213005","64004","210758","5752","150851","Lexical Decision Task","52","73756","60","yes","1024"
"3.010582609","0","2","drod","non-word","86.88524590163935","86.88524590163935","1221.295081967213","1221.295081967213","black","no","legacy","legacy","legacy","0","uniform","1","undefined","undefined","undefined","1","f","0","0","0","0","60","0","0","0","60","0","56","60","56","0","56","3","60","0","60","Tue Feb 16 13:17:52 2021","The main experiment item","yes","Lexical_Decision_Task.osexp","/Users/carlyburr/Desktop","no","Andale Mono","no","18","no","white","no","yes","576","legacy","56","56","3","/Users/carlyburr/Desktop/subject2-5226283.csv","legacy","Lentiform Loewenfeld","3.3.7","yes","yes","600bd7cfb6416f0113b04181","602110864497cf011d9c0822","0","f","NA","space","space","space","space","f","743","NA","4360","37334","7600","11221","743","2","legacy","1024","2","48000","-16","task","5226283","odd","NA","69036","75400","71040","214575","5762","50730","43126","215079","187785","214572","215079","214508","75400","215823","64004","210758","5752","213008","Lexical Decision Task","53","74499","61","yes","1024"
"2.80048796","0","8","pife","non-word","87.09677419354838","87.09677419354838","1213.9516129032259","1213.9516129032259","black","no","legacy","legacy","legacy","0","uniform","1","undefined","undefined","undefined","1","f","0","0","0","0","61","0","0","0","61","0","57","61","57","0","57","3","61","0","61","Tue Feb 16 13:17:52 2021","The main experiment item","yes","Lexical_Decision_Task.osexp","/Users/carlyburr/Desktop","no","Andale Mono","no","18","no","white","no","yes","576","legacy","57","57","3","/Users/carlyburr/Desktop/subject2-5226283.csv","legacy","Lentiform Loewenfeld","3.3.7","yes","yes","600bd7cfb6416f0113b04181","602110864497cf011d9c0822","0","f","NA","space","space","space","space","f","766","NA","4360","37334","7600","11221","766","2","legacy","1024","2","48000","-16","task","5226283","odd","NA","69036","75400","71040","216368","5762","50730","43126","216870","187785","216366","216871","216325","75400","217639","64004","215825","5752","213008","Lexical Decision Task","54","75265","62","yes","1024"
"3.2757719","0","5","slea","non-word","87.3015873015873","87.3015873015873","1206.6349206349207","1206.6349206349207","black","no","legacy","legacy","legacy","0","uniform","1","undefined","undefined","undefined","1","f","0","0","0","0","62","0","0","0","62","0","58","62","58","0","58","3","62","0","62","Tue Feb 16 13:17:52 2021","The main experiment item","yes","Lexical_Decision_Task.osexp","/Users/carlyburr/Desktop","no","Andale Mono","no","18","no","white","no","yes","576","legacy","58","58","3","/Users/carlyburr/Desktop/subject2-5226283.csv","legacy","Lentiform Loewenfeld","3.3.7","yes","yes","600bd7cfb6416f0113b04181","602110864497cf011d9c0822","0","f","NA","space","space","space","space","f","753","NA","4360","37334","7600","11221","753","2","legacy","1024","2","48000","-16","task","5226283","odd","NA","69036","75400","71040","218197","5762","50730","43126","218700","187785","218195","218700","218142","75400","219454","64004","217642","5752","213008","Lexical Decision Task","55","76018","63","yes","1024"
"3.102203805","7.21","3","drip","word","87.5","87.5","1195.484375","1195.484375","black","no","legacy","legacy","legacy","0","uniform","1","undefined","undefined","undefined","1","j","0","0","0","0","63","0","0","0","63","0","59","63","59","0","59","3","63","0","63","Tue Feb 16 13:17:52 2021","The main experiment item","yes","Lexical_Decision_Task.osexp","/Users/carlyburr/Desktop","no","Andale Mono","no","18","no","white","no","yes","576","legacy","59","59","3","/Users/carlyburr/Desktop/subject2-5226283.csv","legacy","Lentiform Loewenfeld","3.3.7","yes","yes","600bd7cfb6416f0113b04181","602110864497cf011d9c0822","0","j","NA","space","space","space","space","j","493","NA","4360","37334","7600","11221","493","2","legacy","1024","2","48000","-16","task","5226283","odd","NA","69036","75400","71040","220022","5762","50730","43126","220527","187785","220019","220527","219957","75400","221021","64004","219456","5752","213008","Lexical Decision Task","56","76511","64","yes","1024"
"3.132473155","0","4","glim","non-word","86.15384615384616","86.15384615384616","1190.6307692307691","1190.6307692307691","black","no","legacy","legacy","legacy","0","uniform","0","undefined","undefined","undefined","0","f","0","0","0","0","64","0","0","0","64","0","60","64","60","0","60","3","64","0","64","Tue Feb 16 13:17:52 2021","The main experiment item","yes","Lexical_Decision_Task.osexp","/Users/carlyburr/Desktop","no","Andale Mono","no","18","no","white","no","yes","576","legacy","60","60","3","/Users/carlyburr/Desktop/subject2-5226283.csv","legacy","Lentiform Loewenfeld","3.3.7","yes","yes","600bd7cfb6416f0113b04181","602110864497cf011d9c0822","0","j","NA","space","space","space","space","j","880","NA","4360","37334","7600","11221","880","2","legacy","1024","2","48000","-16","task","5226283","odd","NA","69036","75400","71040","221590","5762","50730","43126","222093","187785","221587","222093","221524","75400","222973","64004","221024","5752","213008","Lexical Decision Task","56","77391","65","yes","1024"
"3.311895072","0","9","gung","non-word","86.36363636363636","86.36363636363636","1181.7575757575758","1181.7575757575758","black","no","legacy","legacy","legacy","0","uniform","1","undefined","undefined","undefined","1","f","0","0","0","0","65","0","0","0","65","0","61","65","61","0","61","3","65","0","65","Tue Feb 16 13:17:52 2021","The main experiment item","yes","Lexical_Decision_Task.osexp","/Users/carlyburr/Desktop","no","Andale Mono","no","18","no","white","no","yes","576","legacy","61","61","3","/Users/carlyburr/Desktop/subject2-5226283.csv","legacy","Lentiform Loewenfeld","3.3.7","yes","yes","600bd7cfb6416f0113b04181","602110864497cf011d9c0822","0","f","NA","space","space","space","space","f","605","NA","4360","37334","7600","11221","605","2","legacy","1024","2","48000","-16","task","5226283","odd","NA","69036","75400","71040","224546","5762","50730","43126","225050","187785","224543","225050","224477","75400","225655","64004","221024","5752","222977","Lexical Decision Task","57","77996","66","yes","1024"
"3.347850856","10.51","2","rich","word","86.56716417910448","86.56716417910448","1177.3432835820895","1177.3432835820895","black","no","legacy","legacy","legacy","0","uniform","1","undefined","undefined","undefined","1","j","0","0","0","0","66","0","0","0","66","0","62","66","62","0","62","3","66","0","66","Tue Feb 16 13:17:52 2021","The main experiment item","yes","Lexical_Decision_Task.osexp","/Users/carlyburr/Desktop","no","Andale Mono","no","18","no","white","no","yes","576","legacy","62","62","3","/Users/carlyburr/Desktop/subject2-5226283.csv","legacy","Lentiform Loewenfeld","3.3.7","yes","yes","600bd7cfb6416f0113b04181","602110864497cf011d9c0822","0","j","NA","space","space","space","space","j","886","NA","4360","37334","7600","11221","886","2","legacy","1024","2","48000","-16","task","5226283","odd","NA","69036","75400","71040","226225","5762","50730","43126","226728","187785","226222","226729","226159","75400","227616","64004","225659","5752","222977","Lexical Decision Task","58","78882","67","yes","1024"
"3.225825991","0","7","talm","non-word","86.76470588235294","86.76470588235294","1170.7205882352941","1170.7205882352941","black","no","legacy","legacy","legacy","0","uniform","1","undefined","undefined","undefined","1","f","0","0","0","0","67","0","0","0","67","0","63","67","63","0","63","3","67","0","67","Tue Feb 16 13:17:52 2021","The main experiment item","yes","Lexical_Decision_Task.osexp","/Users/carlyburr/Desktop","no","Andale Mono","no","18","no","white","no","yes","576","legacy","63","63","3","/Users/carlyburr/Desktop/subject2-5226283.csv","legacy","Lentiform Loewenfeld","3.3.7","yes","yes","600bd7cfb6416f0113b04181","602110864497cf011d9c0822","0","f","NA","space","space","space","space","f","727","NA","4360","37334","7600","11221","727","2","legacy","1024","2","48000","-16","task","5226283","odd","NA","69036","75400","71040","228185","5762","50730","43126","228689","187785","228182","228689","228119","75400","229417","64004","227619","5752","222977","Lexical Decision Task","59","79609","68","yes","1024"
"3.037294994","8.64","7","roof","word","86.95652173913044","86.95652173913044","1172.768115942029","1172.768115942029","black","no","legacy","legacy","legacy","0","uniform","1","undefined","undefined","undefined","1","j","0","0","0","0","68","0","0","0","68","0","64","68","64","0","64","3","68","0","68","Tue Feb 16 13:17:52 2021","The main experiment item","yes","Lexical_Decision_Task.osexp","/Users/carlyburr/Desktop","no","Andale Mono","no","18","no","white","no","yes","576","legacy","64","64","3","/Users/carlyburr/Desktop/subject2-5226283.csv","legacy","Lentiform Loewenfeld","3.3.7","yes","yes","600bd7cfb6416f0113b04181","602110864497cf011d9c0822","0","j","NA","space","space","space","space","j","1312","NA","4360","37334","7600","11221","1312","2","legacy","1024","2","48000","-16","task","5226283","odd","NA","69036","75400","71040","229986","5762","50730","43126","230489","187785","229983","230490","229921","75400","231803","64004","229421","5752","222977","Lexical Decision Task","60","80921","69","yes","1024"
"2.892836167","10.01","5","soft","word","87.14285714285714","87.14285714285714","1164.3428571428572","1164.3428571428572","black","no","legacy","legacy","legacy","0","uniform","1","undefined","undefined","undefined","1","j","0","0","0","0","69","0","0","0","69","0","65","69","65","0","65","3","69","0","69","Tue Feb 16 13:17:52 2021","The main experiment item","yes","Lexical_Decision_Task.osexp","/Users/carlyburr/Desktop","no","Andale Mono","no","18","no","white","no","yes","576","legacy","65","65","3","/Users/carlyburr/Desktop/subject2-5226283.csv","legacy","Lentiform Loewenfeld","3.3.7","yes","yes","600bd7cfb6416f0113b04181","602110864497cf011d9c0822","0","j","NA","space","space","space","space","j","583","NA","4360","37334","7600","11221","583","2","legacy","1024","2","48000","-16","task","5226283","odd","NA","69036","75400","71040","232372","5762","50730","43126","232875","187785","232369","232876","232306","75400","233459","64004","231806","5752","222977","Lexical Decision Task","61","81504","70","yes","1024"
"2.64476673","0","5","moft","non-word","87.32394366197182","87.32394366197182","1182.6338028169014","1182.6338028169014","black","no","legacy","legacy","legacy","0","uniform","1","undefined","undefined","undefined","1","f","0","0","0","0","70","0","0","0","70","0","66","70","66","0","66","3","70","0","70","Tue Feb 16 13:17:52 2021","The main experiment item","yes","Lexical_Decision_Task.osexp","/Users/carlyburr/Desktop","no","Andale Mono","no","18","no","white","no","yes","576","legacy","66","66","3","/Users/carlyburr/Desktop/subject2-5226283.csv","legacy","Lentiform Loewenfeld","3.3.7","yes","yes","600bd7cfb6416f0113b04181","602110864497cf011d9c0822","0","f","NA","space","space","space","space","f","2463","NA","4360","37334","7600","11221","2463","2","legacy","1024","2","48000","-16","task","5226283","odd","NA","69036","75400","71040","234029","5762","50730","43126","234532","187785","234026","234532","233963","75400","236996","64004","233463","5752","222977","Lexical Decision Task","62","83967","71","yes","1024"
"3.307211407","6.07","7","honk","word","87.5","87.5","1177.1944444444443","1177.1944444444443","black","no","legacy","legacy","legacy","0","uniform","1","undefined","undefined","undefined","1","j","0","0","0","0","71","0","0","0","71","0","67","71","67","0","67","3","71","0","71","Tue Feb 16 13:17:52 2021","The main experiment item","yes","Lexical_Decision_Task.osexp","/Users/carlyburr/Desktop","no","Andale Mono","no","18","no","white","no","yes","576","legacy","67","67","3","/Users/carlyburr/Desktop/subject2-5226283.csv","legacy","Lentiform Loewenfeld","3.3.7","yes","yes","600bd7cfb6416f0113b04181","602110864497cf011d9c0822","0","j","NA","space","space","space","space","j","791","NA","4360","37334","7600","11221","791","2","legacy","1024","2","48000","-16","task","5226283","odd","NA","69036","75400","71040","237564","5762","50730","43126","238068","187785","237561","238068","237499","75400","238860","64004","236999","5752","222977","Lexical Decision Task","63","84758","72","yes","1024"
"3.22685757","9.99","7","roll","word","87.67123287671232","87.67123287671232","1177.0958904109589","1177.0958904109589","black","no","legacy","legacy","legacy","0","uniform","1","undefined","undefined","undefined","1","j","0","0","0","0","72","0","0","0","72","0","68","72","68","0","68","3","72","0","72","Tue Feb 16 13:17:52 2021","The main experiment item","yes","Lexical_Decision_Task.osexp","/Users/carlyburr/Desktop","no","Andale Mono","no","18","no","white","no","yes","576","legacy","68","68","3","/Users/carlyburr/Desktop/subject2-5226283.csv","legacy","Lentiform Loewenfeld","3.3.7","yes","yes","600bd7cfb6416f0113b04181","602110864497cf011d9c0822","0","j","NA","space","space","space","space","j","1170","NA","4360","37334","7600","11221","1170","2","legacy","1024","2","48000","-16","task","5226283","odd","NA","69036","75400","71040","239431","5762","50730","43126","239934","187785","239426","239935","239363","75400","241107","64004","238863","5752","222977","Lexical Decision Task","64","85928","73","yes","1024"
"2.771097306","0","9","jold","non-word","87.83783783783784","87.83783783783784","1176.081081081081","1176.081081081081","black","no","legacy","legacy","legacy","0","uniform","1","undefined","undefined","undefined","1","f","0","0","0","0","73","0","0","0","73","0","69","73","69","0","69","3","73","0","73","Tue Feb 16 13:17:52 2021","The main experiment item","yes","Lexical_Decision_Task.osexp","/Users/carlyburr/Desktop","no","Andale Mono","no","18","no","white","no","yes","576","legacy","69","69","3","/Users/carlyburr/Desktop/subject2-5226283.csv","legacy","Lentiform Loewenfeld","3.3.7","yes","yes","600bd7cfb6416f0113b04181","602110864497cf011d9c0822","0","f","NA","space","space","space","space","f","1102","NA","4360","37334","7600","11221","1102","2","legacy","1024","2","48000","-16","task","5226283","odd","NA","69036","75400","71040","241675","5762","50730","43126","242178","187785","241672","242179","241610","75400","243282","64004","241110","5752","222977","Lexical Decision Task","65","87030","74","yes","1024"
"3.248054965","7.86","5","glow","word","88","88","1169.68","1169.68","black","no","legacy","legacy","legacy","0","uniform","1","undefined","undefined","undefined","1","j","0","0","0","0","74","0","0","0","74","0","70","74","70","0","70","3","74","0","74","Tue Feb 16 13:17:52 2021","The main experiment item","yes","Lexical_Decision_Task.osexp","/Users/carlyburr/Desktop","no","Andale Mono","no","18","no","white","no","yes","576","legacy","70","70","3","/Users/carlyburr/Desktop/subject2-5226283.csv","legacy","Lentiform Loewenfeld","3.3.7","yes","yes","600bd7cfb6416f0113b04181","602110864497cf011d9c0822","0","j","NA","space","space","space","space","j","696","NA","4360","37334","7600","11221","696","2","legacy","1024","2","48000","-16","task","5226283","odd","NA","69036","75400","71040","243850","5762","50730","43126","244354","187785","243847","244354","243785","75400","245051","64004","243285","5752","222977","Lexical Decision Task","66","87726","75","yes","1024"
"2.594027722","9.08","8","skip","word","88.15789473684211","88.15789473684211","1162.671052631579","1162.671052631579","black","no","legacy","legacy","legacy","0","uniform","1","undefined","undefined","undefined","1","j","0","0","0","0","75","0","0","0","75","0","71","75","71","0","71","3","75","0","75","Tue Feb 16 13:17:52 2021","The main experiment item","yes","Lexical_Decision_Task.osexp","/Users/carlyburr/Desktop","no","Andale Mono","no","18","no","white","no","yes","576","legacy","71","71","3","/Users/carlyburr/Desktop/subject2-5226283.csv","legacy","Lentiform Loewenfeld","3.3.7","yes","yes","600bd7cfb6416f0113b04181","602110864497cf011d9c0822","0","j","NA","space","space","space","space","j","637","NA","4360","37334","7600","11221","637","2","legacy","1024","2","48000","-16","task","5226283","odd","NA","69036","75400","71040","245619","5762","50730","43126","246122","187785","245616","246123","245554","75400","246761","64004","245054","5752","222977","Lexical Decision Task","67","88363","76","yes","1024"
"3.440331212","7.35","6","stew","word","88.31168831168831","88.31168831168831","1158.6623376623377","1158.6623376623377","black","no","legacy","legacy","legacy","0","uniform","1","undefined","undefined","undefined","1","j","0","0","0","0","76","0","0","0","76","0","72","76","72","0","72","3","76","0","76","Tue Feb 16 13:17:52 2021","The main experiment item","yes","Lexical_Decision_Task.osexp","/Users/carlyburr/Desktop","no","Andale Mono","no","18","no","white","no","yes","576","legacy","72","72","3","/Users/carlyburr/Desktop/subject2-5226283.csv","legacy","Lentiform Loewenfeld","3.3.7","yes","yes","600bd7cfb6416f0113b04181","602110864497cf011d9c0822","0","j","NA","space","space","space","space","j","854","NA","4360","37334","7600","11221","854","2","legacy","1024","2","48000","-16","task","5226283","odd","NA","69036","75400","71040","247329","5762","50730","43126","247832","187785","247326","247833","247264","75400","248688","64004","246764","5752","222977","Lexical Decision Task","68","89217","77","yes","1024"
"2.744553742","0","2","nawk","non-word","88.46153846153847","88.46153846153847","1152.576923076923","1152.576923076923","black","no","legacy","legacy","legacy","0","uniform","1","undefined","undefined","undefined","1","f","0","0","0","0","77","0","0","0","77","0","73","77","73","0","73","3","77","0","77","Tue Feb 16 13:17:52 2021","The main experiment item","yes","Lexical_Decision_Task.osexp","/Users/carlyburr/Desktop","no","Andale Mono","no","18","no","white","no","yes","576","legacy","73","73","3","/Users/carlyburr/Desktop/subject2-5226283.csv","legacy","Lentiform Loewenfeld","3.3.7","yes","yes","600bd7cfb6416f0113b04181","602110864497cf011d9c0822","0","f","NA","space","space","space","space","f","684","NA","4360","37334","7600","11221","684","2","legacy","1024","2","48000","-16","task","5226283","odd","NA","69036","75400","71040","249255","5762","50730","43126","249759","187785","249253","249760","249191","75400","250445","64004","248691","5752","222977","Lexical Decision Task","69","89901","78","yes","1024"
"3.159867847","5.98","5","brim","word","88.60759493670886","88.60759493670886","1146.860759493671","1146.860759493671","black","no","legacy","legacy","legacy","0","uniform","1","undefined","undefined","undefined","1","j","0","0","0","0","78","0","0","0","78","0","74","78","74","0","74","3","78","0","78","Tue Feb 16 13:17:52 2021","The main experiment item","yes","Lexical_Decision_Task.osexp","/Users/carlyburr/Desktop","no","Andale Mono","no","18","no","white","no","yes","576","legacy","74","74","3","/Users/carlyburr/Desktop/subject2-5226283.csv","legacy","Lentiform Loewenfeld","3.3.7","yes","yes","600bd7cfb6416f0113b04181","602110864497cf011d9c0822","0","j","NA","space","space","space","space","j","701","NA","4360","37334","7600","11221","701","2","legacy","1024","2","48000","-16","task","5226283","odd","NA","69036","75400","71040","251012","5762","50730","43126","251515","187785","251009","251516","250948","75400","252218","64004","250448","5752","222977","Lexical Decision Task","70","90602","79","yes","1024"
"3.705778213","0","6","stin","non-word","88.75","88.75","1142.775","1142.775","black","no","legacy","legacy","legacy","0","uniform","1","undefined","undefined","undefined","1","f","0","0","0","0","79","0","0","0","79","0","75","79","75","0","75","3","79","0","79","Tue Feb 16 13:17:52 2021","The main experiment item","yes","Lexical_Decision_Task.osexp","/Users/carlyburr/Desktop","no","Andale Mono","no","18","no","white","no","yes","576","legacy","75","75","3","/Users/carlyburr/Desktop/subject2-5226283.csv","legacy","Lentiform Loewenfeld","3.3.7","yes","yes","600bd7cfb6416f0113b04181","602110864497cf011d9c0822","0","f","NA","space","space","space","space","f","820","NA","4360","37334","7600","11221","820","2","legacy","1024","2","48000","-16","task","5226283","odd","NA","69036","75400","71040","252788","5762","50730","43126","253292","187785","252785","253292","252721","75400","254113","64004","252221","5752","222977","Lexical Decision Task","71","91422","80","yes","1024"
"2.839268497","0","8","maft","non-word","88.88888888888889","88.88888888888889","1143.0740740740741","1143.0740740740741","black","no","legacy","legacy","legacy","0","uniform","1","undefined","undefined","undefined","1","f","0","0","0","0","80","0","0","0","80","0","76","80","76","0","76","3","80","0","80","Tue Feb 16 13:17:52 2021","The main experiment item","yes","Lexical_Decision_Task.osexp","/Users/carlyburr/Desktop","no","Andale Mono","no","18","no","white","no","yes","576","legacy","76","76","3","/Users/carlyburr/Desktop/subject2-5226283.csv","legacy","Lentiform Loewenfeld","3.3.7","yes","yes","600bd7cfb6416f0113b04181","602110864497cf011d9c0822","0","f","NA","space","space","space","space","f","1167","NA","4360","37334","7600","11221","1167","2","legacy","1024","2","48000","-16","task","5226283","odd","NA","69036","75400","71040","254682","5762","50730","43126","255185","187785","254679","255186","254617","75400","256353","64004","254117","5752","222977","Lexical Decision Task","72","92589","81","yes","1024"
"2.981215883","10.66","5","hair","word","89.02439024390245","89.02439024390245","1135.3536585365853","1135.3536585365853","black","no","legacy","legacy","legacy","0","uniform","1","undefined","undefined","undefined","1","j","0","0","0","0","81","0","0","0","81","0","77","81","77","0","77","3","81","0","81","Tue Feb 16 13:17:52 2021","The main experiment item","yes","Lexical_Decision_Task.osexp","/Users/carlyburr/Desktop","no","Andale Mono","no","18","no","white","no","yes","576","legacy","77","77","3","/Users/carlyburr/Desktop/subject2-5226283.csv","legacy","Lentiform Loewenfeld","3.3.7","yes","yes","600bd7cfb6416f0113b04181","602110864497cf011d9c0822","0","j","NA","space","space","space","space","j","510","NA","4360","37334","7600","11221","510","2","legacy","1024","2","48000","-16","task","5226283","odd","NA","69036","75400","71040","256922","5762","50730","43126","257425","187785","256919","257426","256857","75400","257937","64004","256357","5752","222977","Lexical Decision Task","73","93099","82","yes","1024"
"2.809559715","8.44","4","volt","word","89.1566265060241","89.1566265060241","1129.5421686746988","1129.5421686746988","black","no","legacy","legacy","legacy","0","uniform","1","undefined","undefined","undefined","1","j","0","0","0","0","82","0","0","0","82","0","78","82","78","0","78","3","82","0","82","Tue Feb 16 13:17:52 2021","The main experiment item","yes","Lexical_Decision_Task.osexp","/Users/carlyburr/Desktop","no","Andale Mono","no","18","no","white","no","yes","576","legacy","78","78","3","/Users/carlyburr/Desktop/subject2-5226283.csv","legacy","Lentiform Loewenfeld","3.3.7","yes","yes","600bd7cfb6416f0113b04181","602110864497cf011d9c0822","0","j","NA","space","space","space","space","j","653","NA","4360","37334","7600","11221","653","2","legacy","1024","2","48000","-16","task","5226283","odd","NA","69036","75400","71040","258506","5762","50730","43126","259011","187785","258504","259011","258440","75400","259665","64004","257940","5752","222977","Lexical Decision Task","74","93752","83","yes","1024"
"3.252447662","9.67","9","boat","word","89.28571428571429","89.28571428571429","1122.0595238095239","1122.0595238095239","black","no","legacy","legacy","legacy","0","uniform","1","undefined","undefined","undefined","1","j","0","0","0","0","83","0","0","0","83","0","79","83","79","0","79","3","83","0","83","Tue Feb 16 13:17:52 2021","The main experiment item","yes","Lexical_Decision_Task.osexp","/Users/carlyburr/Desktop","no","Andale Mono","no","18","no","white","no","yes","576","legacy","79","79","3","/Users/carlyburr/Desktop/subject2-5226283.csv","legacy","Lentiform Loewenfeld","3.3.7","yes","yes","600bd7cfb6416f0113b04181","602110864497cf011d9c0822","0","j","NA","space","space","space","space","j","501","NA","4360","37334","7600","11221","501","2","legacy","1024","2","48000","-16","task","5226283","odd","NA","69036","75400","71040","260233","5762","50730","43126","260736","187785","260230","260737","260168","75400","261238","64004","259668","5752","222977","Lexical Decision Task","75","94253","84","yes","1024"
"2.793790385","5.67","9","swab","word","89.41176470588235","89.41176470588235","1115.3058823529411","1115.3058823529411","black","no","legacy","legacy","legacy","0","uniform","1","undefined","undefined","undefined","1","j","0","0","0","0","84","0","0","0","84","0","80","84","80","0","80","3","84","0","84","Tue Feb 16 13:17:52 2021","The main experiment item","yes","Lexical_Decision_Task.osexp","/Users/carlyburr/Desktop","no","Andale Mono","no","18","no","white","no","yes","576","legacy","80","80","3","/Users/carlyburr/Desktop/subject2-5226283.csv","legacy","Lentiform Loewenfeld","3.3.7","yes","yes","600bd7cfb6416f0113b04181","602110864497cf011d9c0822","0","j","NA","space","space","space","space","j","548","NA","4360","37334","7600","11221","548","2","legacy","1024","2","48000","-16","task","5226283","odd","NA","69036","75400","71040","261808","5762","50730","43126","262311","187785","261805","262312","261742","75400","262861","64004","261242","5752","222977","Lexical Decision Task","76","94801","85","yes","1024"
"2.812467698","0","7","hafe","non-word","89.53488372093024","89.53488372093024","1110.4651162790697","1110.4651162790697","black","no","legacy","legacy","legacy","0","uniform","1","undefined","undefined","undefined","1","f","0","0","0","0","85","0","0","0","85","0","81","85","81","0","81","3","85","0","85","Tue Feb 16 13:17:52 2021","The main experiment item","yes","Lexical_Decision_Task.osexp","/Users/carlyburr/Desktop","no","Andale Mono","no","18","no","white","no","yes","576","legacy","81","81","3","/Users/carlyburr/Desktop/subject2-5226283.csv","legacy","Lentiform Loewenfeld","3.3.7","yes","yes","600bd7cfb6416f0113b04181","602110864497cf011d9c0822","0","f","NA","space","space","space","space","f","699","NA","4360","37334","7600","11221","699","2","legacy","1024","2","48000","-16","task","5226283","odd","NA","69036","75400","71040","263431","5762","50730","43126","263934","187785","263428","263935","263365","75400","264635","64004","262864","5752","222977","Lexical Decision Task","77","95500","86","yes","1024"
"3.120135028","0","3","vals","non-word","89.65517241379311","89.65517241379311","1106.1264367816093","1106.1264367816093","black","no","legacy","legacy","legacy","0","uniform","1","undefined","undefined","undefined","1","f","0","0","0","0","86","0","0","0","86","0","82","86","82","0","82","3","86","0","86","Tue Feb 16 13:17:52 2021","The main experiment item","yes","Lexical_Decision_Task.osexp","/Users/carlyburr/Desktop","no","Andale Mono","no","18","no","white","no","yes","576","legacy","82","82","3","/Users/carlyburr/Desktop/subject2-5226283.csv","legacy","Lentiform Loewenfeld","3.3.7","yes","yes","600bd7cfb6416f0113b04181","602110864497cf011d9c0822","0","f","NA","space","space","space","space","f","733","NA","4360","37334","7600","11221","733","2","legacy","1024","2","48000","-16","task","5226283","odd","NA","69036","75400","71040","265204","5762","50730","43126","265707","187785","265201","265708","265138","75400","266442","64004","264638","5752","222977","Lexical Decision Task","78","96233","87","yes","1024"
"3.209246849","0","7","slem","non-word","89.77272727272727","89.77272727272727","1106.375","1106.375","black","no","legacy","legacy","legacy","0","uniform","1","undefined","undefined","undefined","1","f","0","0","0","0","87","0","0","0","87","0","83","87","83","0","83","3","87","0","87","Tue Feb 16 13:17:52 2021","The main experiment item","yes","Lexical_Decision_Task.osexp","/Users/carlyburr/Desktop","no","Andale Mono","no","18","no","white","no","yes","576","legacy","83","83","3","/Users/carlyburr/Desktop/subject2-5226283.csv","legacy","Lentiform Loewenfeld","3.3.7","yes","yes","600bd7cfb6416f0113b04181","602110864497cf011d9c0822","0","f","NA","space","space","space","space","f","1128","NA","4360","37334","7600","11221","1128","2","legacy","1024","2","48000","-16","task","5226283","odd","NA","69036","75400","71040","267010","5762","50730","43126","267513","187785","267007","267513","266945","75400","268642","64004","266445","5752","222977","Lexical Decision Task","79","97361","88","yes","1024"
"3.067070856","9.39","3","loud","word","89.88764044943821","89.88764044943821","1099.741573033708","1099.741573033708","black","no","legacy","legacy","legacy","0","uniform","1","undefined","undefined","undefined","1","j","0","0","0","0","88","0","0","0","88","0","84","88","84","0","84","3","88","0","88","Tue Feb 16 13:17:52 2021","The main experiment item","yes","Lexical_Decision_Task.osexp","/Users/carlyburr/Desktop","no","Andale Mono","no","18","no","white","no","yes","576","legacy","84","84","3","/Users/carlyburr/Desktop/subject2-5226283.csv","legacy","Lentiform Loewenfeld","3.3.7","yes","yes","600bd7cfb6416f0113b04181","602110864497cf011d9c0822","0","j","NA","space","space","space","space","j","516","NA","4360","37334","7600","11221","516","2","legacy","1024","2","48000","-16","task","5226283","odd","NA","69036","75400","71040","269210","5762","50730","43126","269714","187785","269208","269714","269145","75400","270231","64004","268645","5752","222977","Lexical Decision Task","80","97877","89","yes","1024"
"3.149629599","0","2","cleb","non-word","90","90","1095.6444444444444","1095.6444444444444","black","no","legacy","legacy","legacy","0","uniform","1","undefined","undefined","undefined","1","f","0","0","0","0","89","0","0","0","89","0","85","89","85","0","85","3","89","0","89","Tue Feb 16 13:17:52 2021","The main experiment item","yes","Lexical_Decision_Task.osexp","/Users/carlyburr/Desktop","no","Andale Mono","no","18","no","white","no","yes","576","legacy","85","85","3","/Users/carlyburr/Desktop/subject2-5226283.csv","legacy","Lentiform Loewenfeld","3.3.7","yes","yes","600bd7cfb6416f0113b04181","602110864497cf011d9c0822","0","f","NA","space","space","space","space","f","731","NA","4360","37334","7600","11221","731","2","legacy","1024","2","48000","-16","task","5226283","odd","NA","69036","75400","71040","270797","5762","50730","43126","271300","187785","270794","271301","270734","75400","272033","64004","270234","5752","222977","Lexical Decision Task","81","98608","90","yes","1024"
"2.695770526","7.34","6","pawn","word","90.10989010989012","90.10989010989012","1101.5824175824175","1101.5824175824175","black","no","legacy","legacy","legacy","0","uniform","1","undefined","undefined","undefined","1","j","0","0","0","0","90","0","0","0","90","0","86","90","86","0","86","3","90","0","90","Tue Feb 16 13:17:52 2021","The main experiment item","yes","Lexical_Decision_Task.osexp","/Users/carlyburr/Desktop","no","Andale Mono","no","18","no","white","no","yes","576","legacy","86","86","3","/Users/carlyburr/Desktop/subject2-5226283.csv","legacy","Lentiform Loewenfeld","3.3.7","yes","yes","600bd7cfb6416f0113b04181","602110864497cf011d9c0822","0","j","NA","space","space","space","space","j","1636","NA","4360","37334","7600","11221","1636","2","legacy","1024","2","48000","-16","task","5226283","odd","NA","69036","75400","71040","272600","5762","50730","43126","273104","187785","272598","273104","272536","75400","274741","64004","272036","5752","222977","Lexical Decision Task","82","100244","91","yes","1024"
"3.105055783","0","2","norp","non-word","90.21739130434783","90.21739130434783","1097.7717391304348","1097.7717391304348","black","no","legacy","legacy","legacy","0","uniform","1","undefined","undefined","undefined","1","f","0","0","0","0","91","0","0","0","91","0","87","91","87","0","87","3","91","0","91","Tue Feb 16 13:17:52 2021","The main experiment item","yes","Lexical_Decision_Task.osexp","/Users/carlyburr/Desktop","no","Andale Mono","no","18","no","white","no","yes","576","legacy","87","87","3","/Users/carlyburr/Desktop/subject2-5226283.csv","legacy","Lentiform Loewenfeld","3.3.7","yes","yes","600bd7cfb6416f0113b04181","602110864497cf011d9c0822","0","f","NA","space","space","space","space","f","751","NA","4360","37334","7600","11221","751","2","legacy","1024","2","48000","-16","task","5226283","odd","NA","69036","75400","71040","275309","5762","50730","43126","275812","187785","275306","275813","275244","75400","276565","64004","274744","5752","222977","Lexical Decision Task","83","100995","92","yes","1024"
"2.875447132","0","9","jelt","non-word","90.3225806451613","90.3225806451613","1097.720430107527","1097.720430107527","black","no","legacy","legacy","legacy","0","uniform","1","undefined","undefined","undefined","1","f","0","0","0","0","92","0","0","0","92","0","88","92","88","0","88","3","92","0","92","Tue Feb 16 13:17:52 2021","The main experiment item","yes","Lexical_Decision_Task.osexp","/Users/carlyburr/Desktop","no","Andale Mono","no","18","no","white","no","yes","576","legacy","88","88","3","/Users/carlyburr/Desktop/subject2-5226283.csv","legacy","Lentiform Loewenfeld","3.3.7","yes","yes","600bd7cfb6416f0113b04181","602110864497cf011d9c0822","0","f","NA","space","space","space","space","f","1093","NA","4360","37334","7600","11221","1093","2","legacy","1024","2","48000","-16","task","5226283","odd","NA","69036","75400","71040","277132","5762","50730","43126","277635","187785","277130","277636","277068","75400","278730","64004","276568","5752","222977","Lexical Decision Task","84","102088","93","yes","1024"
"3.003891166","8.05","2","frog","word","90.42553191489361","90.42553191489361","1093.0851063829787","1093.0851063829787","black","no","legacy","legacy","legacy","0","uniform","1","undefined","undefined","undefined","1","j","0","0","0","0","93","0","0","0","93","0","89","93","89","0","89","3","93","0","93","Tue Feb 16 13:17:52 2021","The main experiment item","yes","Lexical_Decision_Task.osexp","/Users/carlyburr/Desktop","no","Andale Mono","no","18","no","white","no","yes","576","legacy","89","89","3","/Users/carlyburr/Desktop/subject2-5226283.csv","legacy","Lentiform Loewenfeld","3.3.7","yes","yes","600bd7cfb6416f0113b04181","602110864497cf011d9c0822","0","j","NA","space","space","space","space","j","662","NA","4360","37334","7600","11221","662","2","legacy","1024","2","48000","-16","task","5226283","odd","NA","69036","75400","71040","279298","5762","50730","43126","279801","187785","279295","279802","279233","75400","280464","64004","278733","5752","222977","Lexical Decision Task","85","102750","94","yes","1024"
"2.75025376","10.2","6","jump","word","90.52631578947368","90.52631578947368","1088.2","1088.2","black","no","legacy","legacy","legacy","0","uniform","1","undefined","undefined","undefined","1","j","0","0","0","0","94","0","0","0","94","0","90","94","90","0","90","3","94","0","94","Tue Feb 16 13:17:52 2021","The main experiment item","yes","Lexical_Decision_Task.osexp","/Users/carlyburr/Desktop","no","Andale Mono","no","18","no","white","no","yes","576","legacy","90","90","3","/Users/carlyburr/Desktop/subject2-5226283.csv","legacy","Lentiform Loewenfeld","3.3.7","yes","yes","600bd7cfb6416f0113b04181","602110864497cf011d9c0822","0","j","NA","space","space","space","space","j","629","NA","4360","37334","7600","11221","629","2","legacy","1024","2","48000","-16","task","5226283","odd","NA","69036","75400","71040","281033","5762","50730","43126","281536","187785","281030","281536","280968","75400","282166","64004","280468","5752","222977","Lexical Decision Task","86","103379","95","yes","1024"
"3.353210739","0","9","reet","non-word","90.625","90.625","1083.625","1083.625","black","no","legacy","legacy","legacy","0","uniform","1","undefined","undefined","undefined","1","f","0","0","0","0","95","0","0","0","95","0","91","95","91","0","91","3","95","0","95","Tue Feb 16 13:17:52 2021","The main experiment item","yes","Lexical_Decision_Task.osexp","/Users/carlyburr/Desktop","no","Andale Mono","no","18","no","white","no","yes","576","legacy","91","91","3","/Users/carlyburr/Desktop/subject2-5226283.csv","legacy","Lentiform Loewenfeld","3.3.7","yes","yes","600bd7cfb6416f0113b04181","602110864497cf011d9c0822","0","f","NA","space","space","space","space","f","649","NA","4360","37334","7600","11221","649","2","legacy","1024","2","48000","-16","task","5226283","odd","NA","69036","75400","71040","282736","5762","50730","43126","283239","187785","282733","283240","282670","75400","283890","64004","282170","5752","222977","Lexical Decision Task","87","104028","96","yes","1024"
"2.784379519","0","2","snaf","non-word","90.72164948453609","90.72164948453609","1088.701030927835","1088.701030927835","black","no","legacy","legacy","legacy","0","uniform","1","undefined","undefined","undefined","1","f","0","0","0","0","96","0","0","0","96","0","92","96","92","0","92","3","96","0","96","Tue Feb 16 13:17:52 2021","The main experiment item","yes","Lexical_Decision_Task.osexp","/Users/carlyburr/Desktop","no","Andale Mono","no","18","no","white","no","yes","576","legacy","92","92","3","/Users/carlyburr/Desktop/subject2-5226283.csv","legacy","Lentiform Loewenfeld","3.3.7","yes","yes","600bd7cfb6416f0113b04181","602110864497cf011d9c0822","0","f","NA","space","space","space","space","f","1576","NA","4360","37334","7600","11221","1576","2","legacy","1024","2","48000","-16","task","5226283","odd","NA","69036","75400","71040","284458","5762","50730","43126","284962","187785","284455","284963","284393","75400","286540","64004","283893","5752","222977","Lexical Decision Task","88","105604","97","yes","1024"
"3.049218023","7.4","9","robe","word","90.81632653061224","90.81632653061224","1082.5510204081634","1082.5510204081634","black","no","legacy","legacy","legacy","0","uniform","1","undefined","undefined","undefined","1","j","0","0","0","0","97","0","0","0","97","0","93","97","93","0","93","3","97","0","97","Tue Feb 16 13:17:52 2021","The main experiment item","yes","Lexical_Decision_Task.osexp","/Users/carlyburr/Desktop","no","Andale Mono","no","18","no","white","no","yes","576","legacy","93","93","3","/Users/carlyburr/Desktop/subject2-5226283.csv","legacy","Lentiform Loewenfeld","3.3.7","yes","yes","600bd7cfb6416f0113b04181","602110864497cf011d9c0822","0","j","NA","space","space","space","space","j","486","NA","4360","37334","7600","11221","486","2","legacy","1024","2","48000","-16","task","5226283","odd","NA","69036","75400","71040","287108","5762","50730","43126","287611","187785","287105","287612","287043","75400","288099","64004","286543","5752","222977","Lexical Decision Task","89","106090","98","yes","1024"
"3.382617311","0","4","pret","non-word","90.9090909090909","90.9090909090909","1078.8383838383838","1078.8383838383838","black","no","legacy","legacy","legacy","0","uniform","1","undefined","undefined","undefined","1","f","0","0","0","0","98","0","0","0","98","0","94","98","94","0","94","3","98","0","98","Tue Feb 16 13:17:52 2021","The main experiment item","yes","Lexical_Decision_Task.osexp","/Users/carlyburr/Desktop","no","Andale Mono","no","18","no","white","no","yes","576","legacy","94","94","3","/Users/carlyburr/Desktop/subject2-5226283.csv","legacy","Lentiform Loewenfeld","3.3.7","yes","yes","600bd7cfb6416f0113b04181","602110864497cf011d9c0822","0","f","NA","space","space","space","space","f","715","NA","4360","37334","7600","11221","715","2","legacy","1024","2","48000","-16","task","5226283","odd","NA","69036","75400","71040","288666","5762","50730","43126","289170","187785","288664","289170","288602","75400","289885","64004","288102","5752","222977","Lexical Decision Task","90","106805","99","yes","1024"
"2.971428938","9.86","7","spot","word","91","91","1072.92","1072.92","black","no","legacy","legacy","legacy","0","uniform","1","undefined","undefined","undefined","1","j","0","0","0","0","99","0","0","0","99","0","95","99","95","0","95","3","99","0","99","Tue Feb 16 13:17:52 2021","The main experiment item","yes","Lexical_Decision_Task.osexp","/Users/carlyburr/Desktop","no","Andale Mono","no","18","no","white","no","yes","576","legacy","95","95","3","/Users/carlyburr/Desktop/subject2-5226283.csv","legacy","Lentiform Loewenfeld","3.3.7","yes","yes","600bd7cfb6416f0113b04181","602110864497cf011d9c0822","0","j","NA","space","space","space","space","j","487","NA","4360","37334","7600","11221","487","2","legacy","1024","2","48000","-16","task","5226283","odd","NA","69036","75400","71040","290453","5762","50730","43126","290958","187785","290451","290958","290388","75400","291446","64004","289888","5752","222977","Lexical Decision Task","91","107292","100","yes","1024"
