"Log_BG","Log_Freq_HAL","Ortho_N","Stimulus","Type","acc","accuracy","average_response_time","avg_rt","background","bidi","canvas_backend","clock_backend","color_backend","compensation","coordinates","correct","correct_Experimental_intro","correct_Introduction","correct_Practice_intro","correct_experimenter_kb","correct_response","count_End_Of_Experiment","count_End_Of_Practice","count_Experimental_Loop","count_Experimental_intro","count_Fixation","count_Introduction","count_Practice_Loop","count_Practice_intro","count_Stimulus","count_block_break_feedback","count_experimental_sequence","count_experimenter_kb","count_increment_trial_count","count_init_trial_count","count_logger","count_practice_sequence","count_right","count_task","count_wrong","datetime","description","disable_garbage_collection","experiment_file","experiment_path","font_bold","font_family","font_italic","font_size","font_underline","foreground","form_clicks","fullscreen","height","keyboard_backend","live_row","live_row_Experimental_Loop","live_row_Practice_Loop","logfile","mouse_backend","opensesame_codename","opensesame_version","osf_always_upload_data","osf_always_upload_experiment","osf_datanode_id","osf_id","repeat_cycle","response","response_End_Of_Experiment","response_Experimental_intro","response_Introduction","response_Practice_intro","response_block_break_feedback","response_experimenter_kb","response_time","response_time_End_Of_Experiment","response_time_Experimental_intro","response_time_Introduction","response_time_Practice_intro","response_time_block_break_feedback","response_time_experimenter_kb","round_decimals","sampler_backend","sound_buf_size","sound_channels","sound_freq","sound_sample_size","start","subject_nr","subject_parity","time_End_Of_Experiment","time_End_Of_Practice","time_Experimental_Loop","time_Experimental_intro","time_Fixation","time_Introduction","time_Practice_Loop","time_Practice_intro","time_Stimulus","time_block_break_feedback","time_experimental_sequence","time_experimenter_kb","time_increment_trial_count","time_init_trial_count","time_logger","time_practice_sequence","time_right","time_task","time_wrong","title","total_correct","total_response_time","total_responses","uniform_coordinates","width"
"2.819763221","0","2","durp","non-word","60","60","1438","1438","black","no","legacy","legacy","legacy","0","uniform","1","undefined","undefined","undefined","1","f","0","0","0","0","4","0","0","0","4","NA","0","4","0","0","0","3","4","0","4","Thu Feb 18 14:21:22 2021","The main experiment item","yes","Lexical_Decision_Task.osexp","/Users/kieramurrell/Desktop","no","Andale Mono","no","18","no","white","no","yes","576","legacy","0","0","3","/Users/kieramurrell/Desktop/subject-5204590CAL.csv","legacy","Lentiform Loewenfeld","3.3.7","yes","yes","600bd7cfb6416f0113b04181","602110864497cf011d9c0822","0","F","NA","space","","space","NA","F","1041","NA","3666","24339","10355","NA","1041","2","legacy","1024","2","48000","-16","task","5204590","even","NA","53795","59467","55799","59501","4827","41355","30999","60004","NA","59498","60005","NA","59467","61047","50655","50104","4771","52265","Lexical Decision Task","3","7190","5","yes","1024"
"3.140404328","10.66","9","deep","word","66.66666666666667","66.66666666666667","1377.1666666666667","1377.1666666666667","black","no","legacy","legacy","legacy","0","uniform","1","undefined","undefined","undefined","1","j","0","0","0","0","5","0","0","0","5","NA","1","5","1","0","1","3","5","0","5","Thu Feb 18 14:21:22 2021","The main experiment item","yes","Lexical_Decision_Task.osexp","/Users/kieramurrell/Desktop","no","Andale Mono","no","18","no","white","no","yes","576","legacy","1","1","3","/Users/kieramurrell/Desktop/subject-5204590CAL.csv","legacy","Lentiform Loewenfeld","3.3.7","yes","yes","600bd7cfb6416f0113b04181","602110864497cf011d9c0822","0","J","NA","space","","space","NA","J","1073","NA","3666","24339","10355","NA","1073","2","legacy","1024","2","48000","-16","task","5204590","even","NA","53795","59467","55799","61619","4827","41355","30999","62122","NA","61616","62123","61557","59467","63198","50655","61057","4771","52265","Lexical Decision Task","4","8263","6","yes","1024"
"3.064581521","5.51","6","cask","word","57.142857142857146","57.142857142857146","1376.7142857142858","1376.7142857142858","black","no","legacy","legacy","legacy","0","uniform","0","undefined","undefined","undefined","0","j","0","0","0","0","6","0","0","0","6","NA","2","6","2","0","2","3","6","0","6","Thu Feb 18 14:21:22 2021","The main experiment item","yes","Lexical_Decision_Task.osexp","/Users/kieramurrell/Desktop","no","Andale Mono","no","18","no","white","no","yes","576","legacy","2","2","3","/Users/kieramurrell/Desktop/subject-5204590CAL.csv","legacy","Lentiform Loewenfeld","3.3.7","yes","yes","600bd7cfb6416f0113b04181","602110864497cf011d9c0822","0","F","NA","space","","space","NA","F","1374","NA","3666","24339","10355","NA","1374","2","legacy","1024","2","48000","-16","task","5204590","even","NA","53795","59467","55799","63758","4827","41355","30999","64262","NA","63755","64262","63702","59467","65638","50655","63202","4771","52265","Lexical Decision Task","4","9637","7","yes","1024"
"2.728085817","10.02","9","bike","word","62.5","62.5","1314.375","1314.375","black","no","legacy","legacy","legacy","0","uniform","1","undefined","undefined","undefined","1","j","0","0","0","0","7","0","0","0","7","NA","3","7","3","0","3","3","7","0","7","Thu Feb 18 14:21:22 2021","The main experiment item","yes","Lexical_Decision_Task.osexp","/Users/kieramurrell/Desktop","no","Andale Mono","no","18","no","white","no","yes","576","legacy","3","3","3","/Users/kieramurrell/Desktop/subject-5204590CAL.csv","legacy","Lentiform Loewenfeld","3.3.7","yes","yes","600bd7cfb6416f0113b04181","602110864497cf011d9c0822","0","J","NA","space","","space","NA","J","878","NA","3666","24339","10355","NA","878","2","legacy","1024","2","48000","-16","task","5204590","even","NA","53795","59467","55799","67206","4827","41355","30999","67710","NA","67203","67711","67149","59467","68590","50655","63202","4771","65648","Lexical Decision Task","5","10515","8","yes","1024"
"3.353210739","0","9","reet","non-word","55.55555555555556","55.55555555555556","1313.4444444444443","1313.4444444444443","black","no","legacy","legacy","legacy","0","uniform","0","undefined","undefined","undefined","0","f","0","0","0","0","8","0","0","0","8","NA","4","8","4","0","4","3","8","0","8","Thu Feb 18 14:21:22 2021","The main experiment item","yes","Lexical_Decision_Task.osexp","/Users/kieramurrell/Desktop","no","Andale Mono","no","18","no","white","no","yes","576","legacy","4","4","3","/Users/kieramurrell/Desktop/subject-5204590CAL.csv","legacy","Lentiform Loewenfeld","3.3.7","yes","yes","600bd7cfb6416f0113b04181","602110864497cf011d9c0822","0","J","NA","space","","space","NA","J","1306","NA","3666","24339","10355","NA","1306","2","legacy","1024","2","48000","-16","task","5204590","even","NA","53795","59467","55799","69151","4827","41355","30999","69654","NA","69148","69655","69096","59467","70962","50655","68595","4771","65648","Lexical Decision Task","5","11821","9","yes","1024"
"3.209246849","0","7","slem","non-word","60","60","1355.8","1355.8","black","no","legacy","legacy","legacy","0","uniform","1","undefined","undefined","undefined","1","f","0","0","0","0","9","0","0","0","9","NA","5","9","5","0","5","3","9","0","9","Thu Feb 18 14:21:22 2021","The main experiment item","yes","Lexical_Decision_Task.osexp","/Users/kieramurrell/Desktop","no","Andale Mono","no","18","no","white","no","yes","576","legacy","5","5","3","/Users/kieramurrell/Desktop/subject-5204590CAL.csv","legacy","Lentiform Loewenfeld","3.3.7","yes","yes","600bd7cfb6416f0113b04181","602110864497cf011d9c0822","0","F","NA","space","","space","NA","F","1737","NA","3666","24339","10355","NA","1737","2","legacy","1024","2","48000","-16","task","5204590","even","NA","53795","59467","55799","72525","4827","41355","30999","73029","NA","72522","73030","72467","59467","74768","50655","68595","4771","70967","Lexical Decision Task","6","13558","10","yes","1024"
"2.972357144","0","5","dasp","non-word","63.63636363636363","63.63636363636363","1341.3636363636363","1341.3636363636363","black","no","legacy","legacy","legacy","0","uniform","1","undefined","undefined","undefined","1","f","0","0","0","0","10","0","0","0","10","NA","6","10","6","0","6","3","10","0","10","Thu Feb 18 14:21:22 2021","The main experiment item","yes","Lexical_Decision_Task.osexp","/Users/kieramurrell/Desktop","no","Andale Mono","no","18","no","white","no","yes","576","legacy","6","6","3","/Users/kieramurrell/Desktop/subject-5204590CAL.csv","legacy","Lentiform Loewenfeld","3.3.7","yes","yes","600bd7cfb6416f0113b04181","602110864497cf011d9c0822","0","F","NA","space","","space","NA","F","1197","NA","3666","24339","10355","NA","1197","2","legacy","1024","2","48000","-16","task","5204590","even","NA","53795","59467","55799","75328","4827","41355","30999","75831","NA","75326","75831","75273","59467","77030","50655","74773","4771","70967","Lexical Decision Task","7","14755","11","yes","1024"
"2.868644438","10.52","4","town","word","66.66666666666667","66.66666666666667","1294","1294","black","no","legacy","legacy","legacy","0","uniform","1","undefined","undefined","undefined","1","j","0","0","0","0","11","0","0","0","11","NA","7","11","7","0","7","3","11","0","11","Thu Feb 18 14:21:22 2021","The main experiment item","yes","Lexical_Decision_Task.osexp","/Users/kieramurrell/Desktop","no","Andale Mono","no","18","no","white","no","yes","576","legacy","7","7","3","/Users/kieramurrell/Desktop/subject-5204590CAL.csv","legacy","Lentiform Loewenfeld","3.3.7","yes","yes","600bd7cfb6416f0113b04181","602110864497cf011d9c0822","0","J","NA","space","","space","NA","J","773","NA","3666","24339","10355","NA","773","2","legacy","1024","2","48000","-16","task","5204590","even","NA","53795","59467","55799","77590","4827","41355","30999","78094","NA","77588","78095","77535","59467","78870","50655","77034","4771","70967","Lexical Decision Task","8","15528","12","yes","1024"
"2.884795364","0","6","flob","non-word","69.23076923076923","69.23076923076923","1292.2307692307693","1292.2307692307693","black","no","legacy","legacy","legacy","0","uniform","1","undefined","undefined","undefined","1","f","0","0","0","0","12","0","0","0","12","NA","8","12","8","0","8","3","12","0","12","Thu Feb 18 14:21:22 2021","The main experiment item","yes","Lexical_Decision_Task.osexp","/Users/kieramurrell/Desktop","no","Andale Mono","no","18","no","white","no","yes","576","legacy","8","8","3","/Users/kieramurrell/Desktop/subject-5204590CAL.csv","legacy","Lentiform Loewenfeld","3.3.7","yes","yes","600bd7cfb6416f0113b04181","602110864497cf011d9c0822","0","F","NA","space","","space","NA","F","1271","NA","3666","24339","10355","NA","1271","2","legacy","1024","2","48000","-16","task","5204590","even","NA","53795","59467","55799","79431","4827","41355","30999","79934","NA","79428","79935","79375","59467","81208","50655","78874","4771","70967","Lexical Decision Task","9","16799","13","yes","1024"
"3.119255889","6.63","2","itch","word","71.42857142857143","71.42857142857143","1246.4285714285713","1246.4285714285713","black","no","legacy","legacy","legacy","0","uniform","1","undefined","undefined","undefined","1","j","0","0","0","0","13","0","0","0","13","NA","9","13","9","0","9","3","13","0","13","Thu Feb 18 14:21:22 2021","The main experiment item","yes","Lexical_Decision_Task.osexp","/Users/kieramurrell/Desktop","no","Andale Mono","no","18","no","white","no","yes","576","legacy","9","9","3","/Users/kieramurrell/Desktop/subject-5204590CAL.csv","legacy","Lentiform Loewenfeld","3.3.7","yes","yes","600bd7cfb6416f0113b04181","602110864497cf011d9c0822","0","J","NA","space","","space","NA","J","651","NA","3666","24339","10355","NA","651","2","legacy","1024","2","48000","-16","task","5204590","even","NA","53795","59467","55799","81768","4827","41355","30999","82271","NA","81765","82272","81713","59467","82924","50655","81212","4771","70967","Lexical Decision Task","10","17450","14","yes","1024"
"3.378276681","6.39","8","bran","word","66.66666666666667","66.66666666666667","1229.2","1229.2","black","no","legacy","legacy","legacy","0","uniform","0","undefined","undefined","undefined","0","j","0","0","0","0","14","0","0","0","14","NA","10","14","10","0","10","3","14","0","14","Thu Feb 18 14:21:22 2021","The main experiment item","yes","Lexical_Decision_Task.osexp","/Users/kieramurrell/Desktop","no","Andale Mono","no","18","no","white","no","yes","576","legacy","10","10","3","/Users/kieramurrell/Desktop/subject-5204590CAL.csv","legacy","Lentiform Loewenfeld","3.3.7","yes","yes","600bd7cfb6416f0113b04181","602110864497cf011d9c0822","0","F","NA","space","","space","NA","F","988","NA","3666","24339","10355","NA","988","2","legacy","1024","2","48000","-16","task","5204590","even","NA","53795","59467","55799","83485","4827","41355","30999","83989","NA","83482","83989","83430","59467","84978","50655","82929","4771","70967","Lexical Decision Task","10","18438","15","yes","1024"
"3.094121596","0","8","fode","non-word","68.75","68.75","1203.0625","1203.0625","black","no","legacy","legacy","legacy","0","uniform","1","undefined","undefined","undefined","1","f","0","0","0","0","15","0","0","0","15","NA","11","15","11","0","11","3","15","0","15","Thu Feb 18 14:21:22 2021","The main experiment item","yes","Lexical_Decision_Task.osexp","/Users/kieramurrell/Desktop","no","Andale Mono","no","18","no","white","no","yes","576","legacy","11","11","3","/Users/kieramurrell/Desktop/subject-5204590CAL.csv","legacy","Lentiform Loewenfeld","3.3.7","yes","yes","600bd7cfb6416f0113b04181","602110864497cf011d9c0822","0","F","NA","space","","space","NA","F","811","NA","3666","24339","10355","NA","811","2","legacy","1024","2","48000","-16","task","5204590","even","NA","53795","59467","55799","86541","4827","41355","30999","87044","NA","86538","87045","86483","59467","87857","50655","82929","4771","84983","Lexical Decision Task","11","19249","16","yes","1024"
"2.755364069","7.72","2","hoax","word","70.58823529411765","70.58823529411765","1184.5882352941176","1184.5882352941176","black","no","legacy","legacy","legacy","0","uniform","1","undefined","undefined","undefined","1","j","0","0","0","0","16","0","0","0","16","NA","12","16","12","0","12","3","16","0","16","Thu Feb 18 14:21:22 2021","The main experiment item","yes","Lexical_Decision_Task.osexp","/Users/kieramurrell/Desktop","no","Andale Mono","no","18","no","white","no","yes","576","legacy","12","12","3","/Users/kieramurrell/Desktop/subject-5204590CAL.csv","legacy","Lentiform Loewenfeld","3.3.7","yes","yes","600bd7cfb6416f0113b04181","602110864497cf011d9c0822","0","J","NA","space","","space","NA","J","889","NA","3666","24339","10355","NA","889","2","legacy","1024","2","48000","-16","task","5204590","even","NA","53795","59467","55799","88417","4827","41355","30999","88920","NA","88415","88921","88362","59467","89811","50655","87862","4771","84983","Lexical Decision Task","12","20138","17","yes","1024"
"3.261341392","5.08","8","reek","word","72.22222222222223","72.22222222222223","1164.2222222222222","1164.2222222222222","black","no","legacy","legacy","legacy","0","uniform","1","undefined","undefined","undefined","1","j","0","0","0","0","17","0","0","0","17","NA","13","17","13","0","13","3","17","0","17","Thu Feb 18 14:21:22 2021","The main experiment item","yes","Lexical_Decision_Task.osexp","/Users/kieramurrell/Desktop","no","Andale Mono","no","18","no","white","no","yes","576","legacy","13","13","3","/Users/kieramurrell/Desktop/subject-5204590CAL.csv","legacy","Lentiform Loewenfeld","3.3.7","yes","yes","600bd7cfb6416f0113b04181","602110864497cf011d9c0822","0","J","NA","space","","space","NA","J","818","NA","3666","24339","10355","NA","818","2","legacy","1024","2","48000","-16","task","5204590","even","NA","53795","59467","55799","90372","4827","41355","30999","90875","NA","90369","90876","90317","59467","91695","50655","89816","4771","84983","Lexical Decision Task","13","20956","18","yes","1024"
"2.68604012","0","4","pumb","non-word","73.6842105263158","73.6842105263158","1167.2105263157894","1167.2105263157894","black","no","legacy","legacy","legacy","0","uniform","1","undefined","undefined","undefined","1","f","0","0","0","0","18","0","0","0","18","NA","14","18","14","0","14","3","18","0","18","Thu Feb 18 14:21:22 2021","The main experiment item","yes","Lexical_Decision_Task.osexp","/Users/kieramurrell/Desktop","no","Andale Mono","no","18","no","white","no","yes","576","legacy","14","14","3","/Users/kieramurrell/Desktop/subject-5204590CAL.csv","legacy","Lentiform Loewenfeld","3.3.7","yes","yes","600bd7cfb6416f0113b04181","602110864497cf011d9c0822","0","F","NA","space","","space","NA","F","1221","NA","3666","24339","10355","NA","1221","2","legacy","1024","2","48000","-16","task","5204590","even","NA","53795","59467","55799","92255","4827","41355","30999","92759","NA","92253","92759","92201","59467","93981","50655","91700","4771","84983","Lexical Decision Task","14","22177","19","yes","1024"
"2.803231716","5.26","3","kiln","word","75","75","1155.4","1155.4","black","no","legacy","legacy","legacy","0","uniform","1","undefined","undefined","undefined","1","j","0","0","0","0","19","0","0","0","19","NA","15","19","15","0","15","3","19","0","19","Thu Feb 18 14:21:22 2021","The main experiment item","yes","Lexical_Decision_Task.osexp","/Users/kieramurrell/Desktop","no","Andale Mono","no","18","no","white","no","yes","576","legacy","15","15","3","/Users/kieramurrell/Desktop/subject-5204590CAL.csv","legacy","Lentiform Loewenfeld","3.3.7","yes","yes","600bd7cfb6416f0113b04181","602110864497cf011d9c0822","0","J","NA","space","","space","NA","J","931","NA","3666","24339","10355","NA","931","2","legacy","1024","2","48000","-16","task","5204590","even","NA","53795","59467","55799","94542","4827","41355","30999","95045","NA","94539","95046","94487","59467","95979","50655","93986","4771","84983","Lexical Decision Task","15","23108","20","yes","1024"
"2.952953801","0","8","clax","non-word","76.19047619047619","76.19047619047619","1135.3809523809523","1135.3809523809523","black","no","legacy","legacy","legacy","0","uniform","1","undefined","undefined","undefined","1","f","0","0","0","0","20","0","0","0","20","NA","16","20","16","0","16","3","20","0","20","Thu Feb 18 14:21:22 2021","The main experiment item","yes","Lexical_Decision_Task.osexp","/Users/kieramurrell/Desktop","no","Andale Mono","no","18","no","white","no","yes","576","legacy","16","16","3","/Users/kieramurrell/Desktop/subject-5204590CAL.csv","legacy","Lentiform Loewenfeld","3.3.7","yes","yes","600bd7cfb6416f0113b04181","602110864497cf011d9c0822","0","F","NA","space","","space","NA","F","735","NA","3666","24339","10355","NA","735","2","legacy","1024","2","48000","-16","task","5204590","even","NA","53795","59467","55799","96542","4827","41355","30999","97046","NA","96540","97047","96488","59467","97783","50655","95988","4771","84983","Lexical Decision Task","16","23843","21","yes","1024"
"2.971428938","9.86","7","spot","word","77.27272727272727","77.27272727272727","1111.9545454545455","1111.9545454545455","black","no","legacy","legacy","legacy","0","uniform","1","undefined","undefined","undefined","1","j","0","0","0","0","21","0","0","0","21","NA","17","21","17","0","17","3","21","0","21","Thu Feb 18 14:21:22 2021","The main experiment item","yes","Lexical_Decision_Task.osexp","/Users/kieramurrell/Desktop","no","Andale Mono","no","18","no","white","no","yes","576","legacy","17","17","3","/Users/kieramurrell/Desktop/subject-5204590CAL.csv","legacy","Lentiform Loewenfeld","3.3.7","yes","yes","600bd7cfb6416f0113b04181","602110864497cf011d9c0822","0","J","NA","space","","space","NA","J","620","NA","3666","24339","10355","NA","620","2","legacy","1024","2","48000","-16","task","5204590","even","NA","53795","59467","55799","98344","4827","41355","30999","98848","NA","98341","98848","98289","59467","99470","50655","97788","4771","84983","Lexical Decision Task","17","24463","22","yes","1024"
"3.010582609","0","2","drod","non-word","78.26086956521739","78.26086956521739","1132.2173913043478","1132.2173913043478","black","no","legacy","legacy","legacy","0","uniform","1","undefined","undefined","undefined","1","f","0","0","0","0","22","0","0","0","22","NA","18","22","18","0","18","3","22","0","22","Thu Feb 18 14:21:22 2021","The main experiment item","yes","Lexical_Decision_Task.osexp","/Users/kieramurrell/Desktop","no","Andale Mono","no","18","no","white","no","yes","576","legacy","18","18","3","/Users/kieramurrell/Desktop/subject-5204590CAL.csv","legacy","Lentiform Loewenfeld","3.3.7","yes","yes","600bd7cfb6416f0113b04181","602110864497cf011d9c0822","0","F","NA","space","","space","NA","F","1578","NA","3666","24339","10355","NA","1578","2","legacy","1024","2","48000","-16","task","5204590","even","NA","53795","59467","55799","100030","4827","41355","30999","100534","NA","100027","100534","99975","59467","102113","50655","99474","4771","84983","Lexical Decision Task","18","26041","23","yes","1024"
"2.966923697","5.4","2","fume","word","79.16666666666667","79.16666666666667","1125.625","1125.625","black","no","legacy","legacy","legacy","0","uniform","1","undefined","undefined","undefined","1","j","0","0","0","0","23","0","0","0","23","NA","19","23","19","0","19","3","23","0","23","Thu Feb 18 14:21:22 2021","The main experiment item","yes","Lexical_Decision_Task.osexp","/Users/kieramurrell/Desktop","no","Andale Mono","no","18","no","white","no","yes","576","legacy","19","19","3","/Users/kieramurrell/Desktop/subject-5204590CAL.csv","legacy","Lentiform Loewenfeld","3.3.7","yes","yes","600bd7cfb6416f0113b04181","602110864497cf011d9c0822","0","J","NA","space","","space","NA","J","974","NA","3666","24339","10355","NA","974","2","legacy","1024","2","48000","-16","task","5204590","even","NA","53795","59467","55799","102673","4827","41355","30999","103177","NA","102670","103177","102618","59467","104152","50655","102118","4771","84983","Lexical Decision Task","19","27015","24","yes","1024"
"2.82129731","6.72","5","plum","word","80","80","1106.64","1106.64","black","no","legacy","legacy","legacy","0","uniform","1","undefined","undefined","undefined","1","j","0","0","0","0","24","0","0","0","24","NA","20","24","20","0","20","3","24","0","24","Thu Feb 18 14:21:22 2021","The main experiment item","yes","Lexical_Decision_Task.osexp","/Users/kieramurrell/Desktop","no","Andale Mono","no","18","no","white","no","yes","576","legacy","20","20","3","/Users/kieramurrell/Desktop/subject-5204590CAL.csv","legacy","Lentiform Loewenfeld","3.3.7","yes","yes","600bd7cfb6416f0113b04181","602110864497cf011d9c0822","0","J","NA","space","","space","NA","J","651","NA","3666","24339","10355","NA","651","2","legacy","1024","2","48000","-16","task","5204590","even","NA","53795","59467","55799","104722","4827","41355","30999","105226","NA","104718","105226","104658","59467","105878","50655","104157","4771","84983","Lexical Decision Task","20","27666","25","yes","1024"
"3.440331212","7.35","6","stew","word","80.76923076923077","80.76923076923077","1090.8846153846155","1090.8846153846155","black","no","legacy","legacy","legacy","0","uniform","1","undefined","undefined","undefined","1","j","0","0","0","0","25","0","0","0","25","NA","21","25","21","0","21","3","25","0","25","Thu Feb 18 14:21:22 2021","The main experiment item","yes","Lexical_Decision_Task.osexp","/Users/kieramurrell/Desktop","no","Andale Mono","no","18","no","white","no","yes","576","legacy","21","21","3","/Users/kieramurrell/Desktop/subject-5204590CAL.csv","legacy","Lentiform Loewenfeld","3.3.7","yes","yes","600bd7cfb6416f0113b04181","602110864497cf011d9c0822","0","J","NA","space","","space","NA","J","697","NA","3666","24339","10355","NA","697","2","legacy","1024","2","48000","-16","task","5204590","even","NA","53795","59467","55799","106442","4827","41355","30999","106945","NA","106438","106946","106383","59467","107645","50655","105883","4771","84983","Lexical Decision Task","21","28363","26","yes","1024"
"2.858136002","0","4","phip","non-word","81.48148148148148","81.48148148148148","1099.888888888889","1099.888888888889","black","no","legacy","legacy","legacy","0","uniform","1","undefined","undefined","undefined","1","f","0","0","0","0","26","0","0","0","26","NA","22","26","22","0","22","3","26","0","26","Thu Feb 18 14:21:22 2021","The main experiment item","yes","Lexical_Decision_Task.osexp","/Users/kieramurrell/Desktop","no","Andale Mono","no","18","no","white","no","yes","576","legacy","22","22","3","/Users/kieramurrell/Desktop/subject-5204590CAL.csv","legacy","Lentiform Loewenfeld","3.3.7","yes","yes","600bd7cfb6416f0113b04181","602110864497cf011d9c0822","0","F","NA","space","","space","NA","F","1334","NA","3666","24339","10355","NA","1334","2","legacy","1024","2","48000","-16","task","5204590","even","NA","53795","59467","55799","108207","4827","41355","30999","108710","NA","108204","108711","108151","59467","110046","50655","107651","4771","84983","Lexical Decision Task","22","29697","27","yes","1024"
"2.705007959","6.01","4","wept","word","82.14285714285714","82.14285714285714","1098.0357142857142","1098.0357142857142","black","no","legacy","legacy","legacy","0","uniform","1","undefined","undefined","undefined","1","j","0","0","0","0","27","0","0","0","27","NA","23","27","23","0","23","3","27","0","27","Thu Feb 18 14:21:22 2021","The main experiment item","yes","Lexical_Decision_Task.osexp","/Users/kieramurrell/Desktop","no","Andale Mono","no","18","no","white","no","yes","576","legacy","23","23","3","/Users/kieramurrell/Desktop/subject-5204590CAL.csv","legacy","Lentiform Loewenfeld","3.3.7","yes","yes","600bd7cfb6416f0113b04181","602110864497cf011d9c0822","0","J","NA","space","","space","NA","J","1048","NA","3666","24339","10355","NA","1048","2","legacy","1024","2","48000","-16","task","5204590","even","NA","53795","59467","55799","110606","4827","41355","30999","111110","NA","110603","111110","110551","59467","112159","50655","110051","4771","84983","Lexical Decision Task","23","30745","28","yes","1024"
"2.839898939","8.99","6","soap","word","82.75862068965517","82.75862068965517","1079.655172413793","1079.655172413793","black","no","legacy","legacy","legacy","0","uniform","1","undefined","undefined","undefined","1","j","0","0","0","0","28","0","0","0","28","NA","24","28","24","0","24","3","28","0","28","Thu Feb 18 14:21:22 2021","The main experiment item","yes","Lexical_Decision_Task.osexp","/Users/kieramurrell/Desktop","no","Andale Mono","no","18","no","white","no","yes","576","legacy","24","24","3","/Users/kieramurrell/Desktop/subject-5204590CAL.csv","legacy","Lentiform Loewenfeld","3.3.7","yes","yes","600bd7cfb6416f0113b04181","602110864497cf011d9c0822","0","J","NA","space","","space","NA","J","565","NA","3666","24339","10355","NA","565","2","legacy","1024","2","48000","-16","task","5204590","even","NA","53795","59467","55799","112719","4827","41355","30999","113222","NA","112717","113223","112664","59467","113790","50655","112164","4771","84983","Lexical Decision Task","24","31310","29","yes","1024"
"2.594027722","9.08","8","skip","word","83.33333333333333","83.33333333333333","1060.7","1060.7","black","no","legacy","legacy","legacy","0","uniform","1","undefined","undefined","undefined","1","j","0","0","0","0","29","0","0","0","29","NA","25","29","25","0","25","3","29","0","29","Thu Feb 18 14:21:22 2021","The main experiment item","yes","Lexical_Decision_Task.osexp","/Users/kieramurrell/Desktop","no","Andale Mono","no","18","no","white","no","yes","576","legacy","25","25","3","/Users/kieramurrell/Desktop/subject-5204590CAL.csv","legacy","Lentiform Loewenfeld","3.3.7","yes","yes","600bd7cfb6416f0113b04181","602110864497cf011d9c0822","0","J","NA","space","","space","NA","J","511","NA","3666","24339","10355","NA","511","2","legacy","1024","2","48000","-16","task","5204590","even","NA","53795","59467","55799","114351","4827","41355","30999","114854","NA","114348","114855","114295","59467","115367","50655","113794","4771","84983","Lexical Decision Task","25","31821","30","yes","1024"
"3.067070856","9.39","3","loud","word","83.87096774193549","83.87096774193549","1046.4193548387098","1046.4193548387098","black","no","legacy","legacy","legacy","0","uniform","1","undefined","undefined","undefined","1","j","0","0","0","0","30","0","0","0","30","NA","26","30","26","0","26","3","30","0","30","Thu Feb 18 14:21:22 2021","The main experiment item","yes","Lexical_Decision_Task.osexp","/Users/kieramurrell/Desktop","no","Andale Mono","no","18","no","white","no","yes","576","legacy","26","26","3","/Users/kieramurrell/Desktop/subject-5204590CAL.csv","legacy","Lentiform Loewenfeld","3.3.7","yes","yes","600bd7cfb6416f0113b04181","602110864497cf011d9c0822","0","J","NA","space","","space","NA","J","618","NA","3666","24339","10355","NA","618","2","legacy","1024","2","48000","-16","task","5204590","even","NA","53795","59467","55799","115928","4827","41355","30999","116431","NA","115925","116432","115872","59467","117051","50655","115372","4771","84983","Lexical Decision Task","26","32439","31","yes","1024"
"2.893578687","8.69","3","surf","word","84.375","84.375","1027.46875","1027.46875","black","no","legacy","legacy","legacy","0","uniform","1","undefined","undefined","undefined","1","j","0","0","0","0","31","0","0","0","31","NA","27","31","27","0","27","3","31","0","31","Thu Feb 18 14:21:22 2021","The main experiment item","yes","Lexical_Decision_Task.osexp","/Users/kieramurrell/Desktop","no","Andale Mono","no","18","no","white","no","yes","576","legacy","27","27","3","/Users/kieramurrell/Desktop/subject-5204590CAL.csv","legacy","Lentiform Loewenfeld","3.3.7","yes","yes","600bd7cfb6416f0113b04181","602110864497cf011d9c0822","0","J","NA","space","","space","NA","J","440","NA","3666","24339","10355","NA","440","2","legacy","1024","2","48000","-16","task","5204590","even","NA","53795","59467","55799","117611","4827","41355","30999","118114","NA","117608","118115","117556","59467","118556","50655","117056","4771","84983","Lexical Decision Task","27","32879","32","yes","1024"
"3.149629599","0","2","cleb","non-word","84.84848484848484","84.84848484848484","1037.8181818181818","1037.8181818181818","black","no","legacy","legacy","legacy","0","uniform","1","undefined","undefined","undefined","1","f","0","0","0","0","32","0","0","0","32","NA","28","32","28","0","28","3","32","0","32","Thu Feb 18 14:21:22 2021","The main experiment item","yes","Lexical_Decision_Task.osexp","/Users/kieramurrell/Desktop","no","Andale Mono","no","18","no","white","no","yes","576","legacy","28","28","3","/Users/kieramurrell/Desktop/subject-5204590CAL.csv","legacy","Lentiform Loewenfeld","3.3.7","yes","yes","600bd7cfb6416f0113b04181","602110864497cf011d9c0822","0","F","NA","space","","space","NA","F","1369","NA","3666","24339","10355","NA","1369","2","legacy","1024","2","48000","-16","task","5204590","even","NA","53795","59467","55799","119116","4827","41355","30999","119619","NA","119113","119619","119061","59467","120989","50655","118561","4771","84983","Lexical Decision Task","28","34248","33","yes","1024"
"2.895974732","6.65","5","sift","word","85.29411764705883","85.29411764705883","1035.7058823529412","1035.7058823529412","black","no","legacy","legacy","legacy","0","uniform","1","undefined","undefined","undefined","1","j","0","0","0","0","33","0","0","0","33","NA","29","33","29","0","29","3","33","0","33","Thu Feb 18 14:21:22 2021","The main experiment item","yes","Lexical_Decision_Task.osexp","/Users/kieramurrell/Desktop","no","Andale Mono","no","18","no","white","no","yes","576","legacy","29","29","3","/Users/kieramurrell/Desktop/subject-5204590CAL.csv","legacy","Lentiform Loewenfeld","3.3.7","yes","yes","600bd7cfb6416f0113b04181","602110864497cf011d9c0822","0","J","NA","space","","space","NA","J","966","NA","3666","24339","10355","NA","966","2","legacy","1024","2","48000","-16","task","5204590","even","NA","53795","59467","55799","121548","4827","41355","30999","122052","NA","121546","122053","121494","59467","123020","50655","120994","4771","84983","Lexical Decision Task","29","35214","34","yes","1024"
"2.703007489","8.37","3","pulp","word","85.71428571428571","85.71428571428571","1031.4285714285713","1031.4285714285713","black","no","legacy","legacy","legacy","0","uniform","1","undefined","undefined","undefined","1","j","0","0","0","0","34","0","0","0","34","NA","30","34","30","0","30","3","34","0","34","Thu Feb 18 14:21:22 2021","The main experiment item","yes","Lexical_Decision_Task.osexp","/Users/kieramurrell/Desktop","no","Andale Mono","no","18","no","white","no","yes","576","legacy","30","30","3","/Users/kieramurrell/Desktop/subject-5204590CAL.csv","legacy","Lentiform Loewenfeld","3.3.7","yes","yes","600bd7cfb6416f0113b04181","602110864497cf011d9c0822","0","J","NA","space","","space","NA","J","886","NA","3666","24339","10355","NA","886","2","legacy","1024","2","48000","-16","task","5204590","even","NA","53795","59467","55799","123581","4827","41355","30999","124086","NA","123578","124086","123526","59467","124973","50655","123025","4771","84983","Lexical Decision Task","30","36100","35","yes","1024"
"3.168400243","9.12","6","horn","word","86.11111111111111","86.11111111111111","1020.7222222222222","1020.7222222222222","black","no","legacy","legacy","legacy","0","uniform","1","undefined","undefined","undefined","1","j","0","0","0","0","35","0","0","0","35","NA","31","35","31","0","31","3","35","0","35","Thu Feb 18 14:21:22 2021","The main experiment item","yes","Lexical_Decision_Task.osexp","/Users/kieramurrell/Desktop","no","Andale Mono","no","18","no","white","no","yes","576","legacy","31","31","3","/Users/kieramurrell/Desktop/subject-5204590CAL.csv","legacy","Lentiform Loewenfeld","3.3.7","yes","yes","600bd7cfb6416f0113b04181","602110864497cf011d9c0822","0","J","NA","space","","space","NA","J","646","NA","3666","24339","10355","NA","646","2","legacy","1024","2","48000","-16","task","5204590","even","NA","53795","59467","55799","125534","4827","41355","30999","126038","NA","125532","126038","125479","59467","126685","50655","124979","4771","84983","Lexical Decision Task","31","36746","36","yes","1024"
"3.159867847","5.98","5","brim","word","86.48648648648648","86.48648648648648","1024.5945945945946","1024.5945945945946","black","no","legacy","legacy","legacy","0","uniform","1","undefined","undefined","undefined","1","j","0","0","0","0","36","0","0","0","36","NA","32","36","32","0","32","3","36","0","36","Thu Feb 18 14:21:22 2021","The main experiment item","yes","Lexical_Decision_Task.osexp","/Users/kieramurrell/Desktop","no","Andale Mono","no","18","no","white","no","yes","576","legacy","32","32","3","/Users/kieramurrell/Desktop/subject-5204590CAL.csv","legacy","Lentiform Loewenfeld","3.3.7","yes","yes","600bd7cfb6416f0113b04181","602110864497cf011d9c0822","0","J","NA","space","","space","NA","J","1164","NA","3666","24339","10355","NA","1164","2","legacy","1024","2","48000","-16","task","5204590","even","NA","53795","59467","55799","127250","4827","41355","30999","127754","NA","127247","127754","127195","59467","128920","50655","126695","4771","84983","Lexical Decision Task","32","37910","37","yes","1024"
"3.374137706","10.21","4","tree","word","86.84210526315789","86.84210526315789","1011.6578947368421","1011.6578947368421","black","no","legacy","legacy","legacy","0","uniform","1","undefined","undefined","undefined","1","j","0","0","0","0","37","0","0","0","37","NA","33","37","33","0","33","3","37","0","37","Thu Feb 18 14:21:22 2021","The main experiment item","yes","Lexical_Decision_Task.osexp","/Users/kieramurrell/Desktop","no","Andale Mono","no","18","no","white","no","yes","576","legacy","33","33","3","/Users/kieramurrell/Desktop/subject-5204590CAL.csv","legacy","Lentiform Loewenfeld","3.3.7","yes","yes","600bd7cfb6416f0113b04181","602110864497cf011d9c0822","0","J","NA","space","","space","NA","J","533","NA","3666","24339","10355","NA","533","2","legacy","1024","2","48000","-16","task","5204590","even","NA","53795","59467","55799","129481","4827","41355","30999","129985","NA","129479","129986","129426","59467","130521","50655","128925","4771","84983","Lexical Decision Task","33","38443","38","yes","1024"
"3.248054965","7.86","5","glow","word","87.17948717948718","87.17948717948718","998.9487179487179","998.9487179487179","black","no","legacy","legacy","legacy","0","uniform","1","undefined","undefined","undefined","1","j","0","0","0","0","38","0","0","0","38","NA","34","38","34","0","34","3","38","0","38","Thu Feb 18 14:21:22 2021","The main experiment item","yes","Lexical_Decision_Task.osexp","/Users/kieramurrell/Desktop","no","Andale Mono","no","18","no","white","no","yes","576","legacy","34","34","3","/Users/kieramurrell/Desktop/subject-5204590CAL.csv","legacy","Lentiform Loewenfeld","3.3.7","yes","yes","600bd7cfb6416f0113b04181","602110864497cf011d9c0822","0","J","NA","space","","space","NA","J","516","NA","3666","24339","10355","NA","516","2","legacy","1024","2","48000","-16","task","5204590","even","NA","53795","59467","55799","131082","4827","41355","30999","131586","NA","131079","131586","131027","59467","132103","50655","130526","4771","84983","Lexical Decision Task","34","38959","39","yes","1024"
"2.767650507","0","6","yolt","non-word","87.5","87.5","1011.8","1011.8","black","no","legacy","legacy","legacy","0","uniform","1","undefined","undefined","undefined","1","f","0","0","0","0","39","0","0","0","39","NA","35","39","35","0","35","3","39","0","39","Thu Feb 18 14:21:22 2021","The main experiment item","yes","Lexical_Decision_Task.osexp","/Users/kieramurrell/Desktop","no","Andale Mono","no","18","no","white","no","yes","576","legacy","35","35","3","/Users/kieramurrell/Desktop/subject-5204590CAL.csv","legacy","Lentiform Loewenfeld","3.3.7","yes","yes","600bd7cfb6416f0113b04181","602110864497cf011d9c0822","0","F","NA","space","","space","NA","F","1513","NA","3666","24339","10355","NA","1513","2","legacy","1024","2","48000","-16","task","5204590","even","NA","53795","59467","55799","132663","4827","41355","30999","133167","NA","132661","133168","132609","59467","134682","50655","132109","4771","84983","Lexical Decision Task","35","40472","40","yes","1024"
"3.531734309","0","6","lerd","non-word","87.8048780487805","87.8048780487805","1035.439024390244","1035.439024390244","black","no","legacy","legacy","legacy","0","uniform","1","undefined","undefined","undefined","1","f","0","0","0","0","40","0","0","0","40","NA","36","40","36","0","36","3","40","0","40","Thu Feb 18 14:21:22 2021","The main experiment item","yes","Lexical_Decision_Task.osexp","/Users/kieramurrell/Desktop","no","Andale Mono","no","18","no","white","no","yes","576","legacy","36","36","3","/Users/kieramurrell/Desktop/subject-5204590CAL.csv","legacy","Lentiform Loewenfeld","3.3.7","yes","yes","600bd7cfb6416f0113b04181","602110864497cf011d9c0822","0","F","NA","space","","space","NA","F","1981","NA","3666","24339","10355","NA","1981","2","legacy","1024","2","48000","-16","task","5204590","even","NA","53795","59467","55799","135243","4827","41355","30999","135746","NA","135240","135747","135187","59467","137729","50655","134687","4771","84983","Lexical Decision Task","36","42453","41","yes","1024"
"2.708989954","9.28","9","bowl","word","88.0952380952381","88.0952380952381","1033","1033","black","no","legacy","legacy","legacy","0","uniform","1","undefined","undefined","undefined","1","j","0","0","0","0","41","0","0","0","41","NA","37","41","37","0","37","3","41","0","41","Thu Feb 18 14:21:22 2021","The main experiment item","yes","Lexical_Decision_Task.osexp","/Users/kieramurrell/Desktop","no","Andale Mono","no","18","no","white","no","yes","576","legacy","37","37","3","/Users/kieramurrell/Desktop/subject-5204590CAL.csv","legacy","Lentiform Loewenfeld","3.3.7","yes","yes","600bd7cfb6416f0113b04181","602110864497cf011d9c0822","0","J","NA","space","","space","NA","J","933","NA","3666","24339","10355","NA","933","2","legacy","1024","2","48000","-16","task","5204590","even","NA","53795","59467","55799","138290","4827","41355","30999","138794","NA","138287","138794","138234","59467","139728","50655","137734","4771","84983","Lexical Decision Task","37","43386","42","yes","1024"
"2.771097306","0","9","jold","non-word","88.37209302325581","88.37209302325581","1069.5348837209303","1069.5348837209303","black","no","legacy","legacy","legacy","0","uniform","1","undefined","undefined","undefined","1","f","0","0","0","0","42","0","0","0","42","NA","38","42","38","0","38","3","42","0","42","Thu Feb 18 14:21:22 2021","The main experiment item","yes","Lexical_Decision_Task.osexp","/Users/kieramurrell/Desktop","no","Andale Mono","no","18","no","white","no","yes","576","legacy","38","38","3","/Users/kieramurrell/Desktop/subject-5204590CAL.csv","legacy","Lentiform Loewenfeld","3.3.7","yes","yes","600bd7cfb6416f0113b04181","602110864497cf011d9c0822","0","F","NA","space","","space","NA","F","2604","NA","3666","24339","10355","NA","2604","2","legacy","1024","2","48000","-16","task","5204590","even","NA","53795","59467","55799","140288","4827","41355","30999","140792","NA","140285","140792","140233","59467","143398","50655","139732","4771","84983","Lexical Decision Task","38","45990","43","yes","1024"
"2.719886232","7.98","2","quiz","word","88.63636363636364","88.63636363636364","1059.75","1059.75","black","no","legacy","legacy","legacy","0","uniform","1","undefined","undefined","undefined","1","j","0","0","0","0","43","0","0","0","43","NA","39","43","39","0","39","3","43","0","43","Thu Feb 18 14:21:22 2021","The main experiment item","yes","Lexical_Decision_Task.osexp","/Users/kieramurrell/Desktop","no","Andale Mono","no","18","no","white","no","yes","576","legacy","39","39","3","/Users/kieramurrell/Desktop/subject-5204590CAL.csv","legacy","Lentiform Loewenfeld","3.3.7","yes","yes","600bd7cfb6416f0113b04181","602110864497cf011d9c0822","0","J","NA","space","","space","NA","J","639","NA","3666","24339","10355","NA","639","2","legacy","1024","2","48000","-16","task","5204590","even","NA","53795","59467","55799","143958","4827","41355","30999","144461","NA","143955","144462","143903","59467","145103","50655","143402","4771","84983","Lexical Decision Task","39","46629","44","yes","1024"
"2.990042563","6.64","9","plow","word","88.88888888888889","88.88888888888889","1058.6888888888889","1058.6888888888889","black","no","legacy","legacy","legacy","0","uniform","1","undefined","undefined","undefined","1","j","0","0","0","0","44","0","0","0","44","NA","40","44","40","0","40","3","44","0","44","Thu Feb 18 14:21:22 2021","The main experiment item","yes","Lexical_Decision_Task.osexp","/Users/kieramurrell/Desktop","no","Andale Mono","no","18","no","white","no","yes","576","legacy","40","40","3","/Users/kieramurrell/Desktop/subject-5204590CAL.csv","legacy","Lentiform Loewenfeld","3.3.7","yes","yes","600bd7cfb6416f0113b04181","602110864497cf011d9c0822","0","J","NA","space","","space","NA","J","1012","NA","3666","24339","10355","NA","1012","2","legacy","1024","2","48000","-16","task","5204590","even","NA","53795","59467","55799","145662","4827","41355","30999","146166","NA","145659","146167","145608","59467","147181","50655","145108","4771","84983","Lexical Decision Task","40","47641","45","yes","1024"
"3.1430148","7.92","8","bald","word","89.1304347826087","89.1304347826087","1058.5434782608695","1058.5434782608695","black","no","legacy","legacy","legacy","0","uniform","1","undefined","undefined","undefined","1","j","0","0","0","0","45","0","0","0","45","NA","41","45","41","0","41","3","45","0","45","Thu Feb 18 14:21:22 2021","The main experiment item","yes","Lexical_Decision_Task.osexp","/Users/kieramurrell/Desktop","no","Andale Mono","no","18","no","white","no","yes","576","legacy","41","41","3","/Users/kieramurrell/Desktop/subject-5204590CAL.csv","legacy","Lentiform Loewenfeld","3.3.7","yes","yes","600bd7cfb6416f0113b04181","602110864497cf011d9c0822","0","J","NA","space","","space","NA","J","1052","NA","3666","24339","10355","NA","1052","2","legacy","1024","2","48000","-16","task","5204590","even","NA","53795","59467","55799","147741","4827","41355","30999","148246","NA","147739","148246","147686","59467","149300","50655","147186","4771","84983","Lexical Decision Task","41","48693","46","yes","1024"
"3.082307743","9.68","8","camp","word","89.36170212765957","89.36170212765957","1064.872340425532","1064.872340425532","black","no","legacy","legacy","legacy","0","uniform","1","undefined","undefined","undefined","1","j","0","0","0","0","46","0","0","0","46","NA","42","46","42","0","42","3","46","0","46","Thu Feb 18 14:21:22 2021","The main experiment item","yes","Lexical_Decision_Task.osexp","/Users/kieramurrell/Desktop","no","Andale Mono","no","18","no","white","no","yes","576","legacy","42","42","3","/Users/kieramurrell/Desktop/subject-5204590CAL.csv","legacy","Lentiform Loewenfeld","3.3.7","yes","yes","600bd7cfb6416f0113b04181","602110864497cf011d9c0822","0","J","NA","space","","space","NA","J","1356","NA","3666","24339","10355","NA","1356","2","legacy","1024","2","48000","-16","task","5204590","even","NA","53795","59467","55799","149861","4827","41355","30999","150365","NA","149858","150365","149805","59467","151722","50655","149304","4771","84983","Lexical Decision Task","42","50049","47","yes","1024"
"2.695481676","0","7","goke","non-word","89.58333333333333","89.58333333333333","1057.9791666666667","1057.9791666666667","black","no","legacy","legacy","legacy","0","uniform","1","undefined","undefined","undefined","1","f","0","0","0","0","47","0","0","0","47","NA","43","47","43","0","43","3","47","0","47","Thu Feb 18 14:21:22 2021","The main experiment item","yes","Lexical_Decision_Task.osexp","/Users/kieramurrell/Desktop","no","Andale Mono","no","18","no","white","no","yes","576","legacy","43","43","3","/Users/kieramurrell/Desktop/subject-5204590CAL.csv","legacy","Lentiform Loewenfeld","3.3.7","yes","yes","600bd7cfb6416f0113b04181","602110864497cf011d9c0822","0","F","NA","space","","space","NA","F","734","NA","3666","24339","10355","NA","734","2","legacy","1024","2","48000","-16","task","5204590","even","NA","53795","59467","55799","152282","4827","41355","30999","152785","NA","152279","152786","152227","59467","153521","50655","151726","4771","84983","Lexical Decision Task","43","50783","48","yes","1024"
"2.778633532","0","3","jurp","non-word","89.79591836734694","89.79591836734694","1054.3877551020407","1054.3877551020407","black","no","legacy","legacy","legacy","0","uniform","1","undefined","undefined","undefined","1","f","0","0","0","0","48","0","0","0","48","NA","44","48","44","0","44","3","48","0","48","Thu Feb 18 14:21:22 2021","The main experiment item","yes","Lexical_Decision_Task.osexp","/Users/kieramurrell/Desktop","no","Andale Mono","no","18","no","white","no","yes","576","legacy","44","44","3","/Users/kieramurrell/Desktop/subject-5204590CAL.csv","legacy","Lentiform Loewenfeld","3.3.7","yes","yes","600bd7cfb6416f0113b04181","602110864497cf011d9c0822","0","F","NA","space","","space","NA","F","882","NA","3666","24339","10355","NA","882","2","legacy","1024","2","48000","-16","task","5204590","even","NA","53795","59467","55799","154081","4827","41355","30999","154585","NA","154078","154585","154026","59467","155469","50655","153526","4771","84983","Lexical Decision Task","44","51665","49","yes","1024"
"3.225825991","0","7","talm","non-word","90","90","1048.2","1048.2","black","no","legacy","legacy","legacy","0","uniform","1","undefined","undefined","undefined","1","f","0","0","0","0","49","0","0","0","49","NA","45","49","45","0","45","3","49","0","49","Thu Feb 18 14:21:22 2021","The main experiment item","yes","Lexical_Decision_Task.osexp","/Users/kieramurrell/Desktop","no","Andale Mono","no","18","no","white","no","yes","576","legacy","45","45","3","/Users/kieramurrell/Desktop/subject-5204590CAL.csv","legacy","Lentiform Loewenfeld","3.3.7","yes","yes","600bd7cfb6416f0113b04181","602110864497cf011d9c0822","0","F","NA","space","","space","NA","F","745","NA","3666","24339","10355","NA","745","2","legacy","1024","2","48000","-16","task","5204590","even","NA","53795","59467","55799","156045","4827","41355","30999","156550","NA","156042","156550","155990","59467","157296","50655","155489","4771","84983","Lexical Decision Task","45","52410","50","yes","1024"
"3.194328374","9.42","6","harm","word","90.19607843137256","90.19607843137256","1039.7254901960785","1039.7254901960785","black","no","legacy","legacy","legacy","0","uniform","1","undefined","undefined","undefined","1","j","0","0","0","0","50","0","0","0","50","NA","46","50","46","0","46","3","50","0","50","Thu Feb 18 14:21:22 2021","The main experiment item","yes","Lexical_Decision_Task.osexp","/Users/kieramurrell/Desktop","no","Andale Mono","no","18","no","white","no","yes","576","legacy","46","46","3","/Users/kieramurrell/Desktop/subject-5204590CAL.csv","legacy","Lentiform Loewenfeld","3.3.7","yes","yes","600bd7cfb6416f0113b04181","602110864497cf011d9c0822","0","J","NA","space","","space","NA","J","616","NA","3666","24339","10355","NA","616","2","legacy","1024","2","48000","-16","task","5204590","even","NA","53795","59467","55799","157858","4827","41355","30999","158361","NA","157855","158361","157802","59467","158979","50655","157302","4771","84983","Lexical Decision Task","46","53026","51","yes","1024"
"3.368162872","0","4","ferk","non-word","90.38461538461539","90.38461538461539","1036.076923076923","1036.076923076923","black","no","legacy","legacy","legacy","0","uniform","1","undefined","undefined","undefined","1","f","0","0","0","0","51","0","0","0","51","NA","47","51","47","0","47","3","51","0","51","Thu Feb 18 14:21:22 2021","The main experiment item","yes","Lexical_Decision_Task.osexp","/Users/kieramurrell/Desktop","no","Andale Mono","no","18","no","white","no","yes","576","legacy","47","47","3","/Users/kieramurrell/Desktop/subject-5204590CAL.csv","legacy","Lentiform Loewenfeld","3.3.7","yes","yes","600bd7cfb6416f0113b04181","602110864497cf011d9c0822","0","F","NA","space","","space","NA","F","850","NA","3666","24339","10355","NA","850","2","legacy","1024","2","48000","-16","task","5204590","even","NA","53795","59467","55799","159538","4827","41355","30999","160042","NA","159536","160043","159484","59467","160895","50655","158984","4771","84983","Lexical Decision Task","47","53876","52","yes","1024"
"2.713490543","0","3","feps","non-word","90.56603773584905","90.56603773584905","1031.377358490566","1031.377358490566","black","no","legacy","legacy","legacy","0","uniform","1","undefined","undefined","undefined","1","f","0","0","0","0","52","0","0","0","52","NA","48","52","48","0","48","3","52","0","52","Thu Feb 18 14:21:22 2021","The main experiment item","yes","Lexical_Decision_Task.osexp","/Users/kieramurrell/Desktop","no","Andale Mono","no","18","no","white","no","yes","576","legacy","48","48","3","/Users/kieramurrell/Desktop/subject-5204590CAL.csv","legacy","Lentiform Loewenfeld","3.3.7","yes","yes","600bd7cfb6416f0113b04181","602110864497cf011d9c0822","0","F","NA","space","","space","NA","F","787","NA","3666","24339","10355","NA","787","2","legacy","1024","2","48000","-16","task","5204590","even","NA","53795","59467","55799","161455","4827","41355","30999","161959","NA","161453","161959","161400","59467","162747","50655","160899","4771","84983","Lexical Decision Task","48","54663","53","yes","1024"
"3.133964479","0","8","graw","non-word","90.74074074074075","90.74074074074075","1026.0740740740741","1026.0740740740741","black","no","legacy","legacy","legacy","0","uniform","1","undefined","undefined","undefined","1","f","0","0","0","0","53","0","0","0","53","NA","49","53","49","0","49","3","53","0","53","Thu Feb 18 14:21:22 2021","The main experiment item","yes","Lexical_Decision_Task.osexp","/Users/kieramurrell/Desktop","no","Andale Mono","no","18","no","white","no","yes","576","legacy","49","49","3","/Users/kieramurrell/Desktop/subject-5204590CAL.csv","legacy","Lentiform Loewenfeld","3.3.7","yes","yes","600bd7cfb6416f0113b04181","602110864497cf011d9c0822","0","F","NA","space","","space","NA","F","745","NA","3666","24339","10355","NA","745","2","legacy","1024","2","48000","-16","task","5204590","even","NA","53795","59467","55799","163308","4827","41355","30999","163811","NA","163306","163812","163253","59467","164559","50655","162752","4771","84983","Lexical Decision Task","49","55408","54","yes","1024"
"2.898725182","0","7","turl","non-word","90.9090909090909","90.9090909090909","1028.1272727272728","1028.1272727272728","black","no","legacy","legacy","legacy","0","uniform","1","undefined","undefined","undefined","1","f","0","0","0","0","54","0","0","0","54","0","50","54","50","0","50","3","54","0","54","Thu Feb 18 14:21:22 2021","The main experiment item","yes","Lexical_Decision_Task.osexp","/Users/kieramurrell/Desktop","no","Andale Mono","no","18","no","white","no","yes","576","legacy","50","50","3","/Users/kieramurrell/Desktop/subject-5204590CAL.csv","legacy","Lentiform Loewenfeld","3.3.7","yes","yes","600bd7cfb6416f0113b04181","602110864497cf011d9c0822","0","F","NA","space","","space","space","F","1139","NA","3666","24339","10355","3960","1139","2","legacy","1024","2","48000","-16","task","5204590","even","NA","53795","59467","55799","169109","4827","41355","30999","169613","165092","169106","169613","165064","59467","170754","50655","164564","4771","84983","Lexical Decision Task","50","56547","55","yes","1024"
"3.120135028","0","3","vals","non-word","91.07142857142857","91.07142857142857","1021.9464285714286","1021.9464285714286","black","no","legacy","legacy","legacy","0","uniform","1","undefined","undefined","undefined","1","f","0","0","0","0","55","0","0","0","55","0","51","55","51","0","51","3","55","0","55","Thu Feb 18 14:21:22 2021","The main experiment item","yes","Lexical_Decision_Task.osexp","/Users/kieramurrell/Desktop","no","Andale Mono","no","18","no","white","no","yes","576","legacy","51","51","3","/Users/kieramurrell/Desktop/subject-5204590CAL.csv","legacy","Lentiform Loewenfeld","3.3.7","yes","yes","600bd7cfb6416f0113b04181","602110864497cf011d9c0822","0","F","NA","space","","space","space","F","682","NA","3666","24339","10355","3960","682","2","legacy","1024","2","48000","-16","task","5204590","even","NA","53795","59467","55799","171315","4827","41355","30999","171818","165092","171312","171818","171259","59467","172502","50655","170758","4771","84983","Lexical Decision Task","51","57229","56","yes","1024"
"3.039414119","0","9","meep","non-word","91.2280701754386","91.2280701754386","1014","1014","black","no","legacy","legacy","legacy","0","uniform","1","undefined","undefined","undefined","1","f","0","0","0","0","56","0","0","0","56","0","52","56","52","0","52","3","56","0","56","Thu Feb 18 14:21:22 2021","The main experiment item","yes","Lexical_Decision_Task.osexp","/Users/kieramurrell/Desktop","no","Andale Mono","no","18","no","white","no","yes","576","legacy","52","52","3","/Users/kieramurrell/Desktop/subject-5204590CAL.csv","legacy","Lentiform Loewenfeld","3.3.7","yes","yes","600bd7cfb6416f0113b04181","602110864497cf011d9c0822","0","F","NA","space","","space","space","F","569","NA","3666","24339","10355","3960","569","2","legacy","1024","2","48000","-16","task","5204590","even","NA","53795","59467","55799","173061","4827","41355","30999","173564","165092","173058","173565","173006","59467","174136","50655","172506","4771","84983","Lexical Decision Task","52","57798","57","yes","1024"
"3.529815197","0","3","lerm","non-word","91.37931034482759","91.37931034482759","1007.8448275862069","1007.8448275862069","black","no","legacy","legacy","legacy","0","uniform","1","undefined","undefined","undefined","1","f","0","0","0","0","57","0","0","0","57","0","53","57","53","0","53","3","57","0","57","Thu Feb 18 14:21:22 2021","The main experiment item","yes","Lexical_Decision_Task.osexp","/Users/kieramurrell/Desktop","no","Andale Mono","no","18","no","white","no","yes","576","legacy","53","53","3","/Users/kieramurrell/Desktop/subject-5204590CAL.csv","legacy","Lentiform Loewenfeld","3.3.7","yes","yes","600bd7cfb6416f0113b04181","602110864497cf011d9c0822","0","F","NA","space","","space","space","F","657","NA","3666","24339","10355","3960","657","2","legacy","1024","2","48000","-16","task","5204590","even","NA","53795","59467","55799","174697","4827","41355","30999","175201","165092","174694","175202","174641","59467","175861","50655","174141","4771","84983","Lexical Decision Task","53","58455","58","yes","1024"
"3.282244367","0","6","fute","non-word","91.52542372881356","91.52542372881356","1000.7796610169491","1000.7796610169491","black","no","legacy","legacy","legacy","0","uniform","1","undefined","undefined","undefined","1","f","0","0","0","0","58","0","0","0","58","0","54","58","54","0","54","3","58","0","58","Thu Feb 18 14:21:22 2021","The main experiment item","yes","Lexical_Decision_Task.osexp","/Users/kieramurrell/Desktop","no","Andale Mono","no","18","no","white","no","yes","576","legacy","54","54","3","/Users/kieramurrell/Desktop/subject-5204590CAL.csv","legacy","Lentiform Loewenfeld","3.3.7","yes","yes","600bd7cfb6416f0113b04181","602110864497cf011d9c0822","0","F","NA","space","","space","space","F","591","NA","3666","24339","10355","3960","591","2","legacy","1024","2","48000","-16","task","5204590","even","NA","53795","59467","55799","176421","4827","41355","30999","176924","165092","176418","176925","176366","59467","177518","50655","175866","4771","84983","Lexical Decision Task","54","59046","59","yes","1024"
"3.488597715","0","9","nain","non-word","91.66666666666667","91.66666666666667","999.9333333333333","999.9333333333333","black","no","legacy","legacy","legacy","0","uniform","1","undefined","undefined","undefined","1","f","0","0","0","0","59","0","0","0","59","0","55","59","55","0","55","3","59","0","59","Thu Feb 18 14:21:22 2021","The main experiment item","yes","Lexical_Decision_Task.osexp","/Users/kieramurrell/Desktop","no","Andale Mono","no","18","no","white","no","yes","576","legacy","55","55","3","/Users/kieramurrell/Desktop/subject-5204590CAL.csv","legacy","Lentiform Loewenfeld","3.3.7","yes","yes","600bd7cfb6416f0113b04181","602110864497cf011d9c0822","0","F","NA","space","","space","space","F","950","NA","3666","24339","10355","3960","950","2","legacy","1024","2","48000","-16","task","5204590","even","NA","53795","59467","55799","178077","4827","41355","30999","178581","165092","178075","178582","178023","59467","179533","50655","177522","4771","84983","Lexical Decision Task","55","59996","60","yes","1024"
"2.892836167","10.01","5","soft","word","91.80327868852459","91.80327868852459","993.3770491803278","993.3770491803278","black","no","legacy","legacy","legacy","0","uniform","1","undefined","undefined","undefined","1","j","0","0","0","0","60","0","0","0","60","0","56","60","56","0","56","3","60","0","60","Thu Feb 18 14:21:22 2021","The main experiment item","yes","Lexical_Decision_Task.osexp","/Users/kieramurrell/Desktop","no","Andale Mono","no","18","no","white","no","yes","576","legacy","56","56","3","/Users/kieramurrell/Desktop/subject-5204590CAL.csv","legacy","Lentiform Loewenfeld","3.3.7","yes","yes","600bd7cfb6416f0113b04181","602110864497cf011d9c0822","0","J","NA","space","","space","space","J","600","NA","3666","24339","10355","3960","600","2","legacy","1024","2","48000","-16","task","5204590","even","NA","53795","59467","55799","180093","4827","41355","30999","180597","165092","180091","180597","180039","59467","181199","50655","179539","4771","84983","Lexical Decision Task","56","60596","61","yes","1024"
"2.69019608","9.01","2","myth","word","91.93548387096774","91.93548387096774","986.5322580645161","986.5322580645161","black","no","legacy","legacy","legacy","0","uniform","1","undefined","undefined","undefined","1","j","0","0","0","0","61","0","0","0","61","0","57","61","57","0","57","3","61","0","61","Thu Feb 18 14:21:22 2021","The main experiment item","yes","Lexical_Decision_Task.osexp","/Users/kieramurrell/Desktop","no","Andale Mono","no","18","no","white","no","yes","576","legacy","57","57","3","/Users/kieramurrell/Desktop/subject-5204590CAL.csv","legacy","Lentiform Loewenfeld","3.3.7","yes","yes","600bd7cfb6416f0113b04181","602110864497cf011d9c0822","0","J","NA","space","","space","space","J","569","NA","3666","24339","10355","3960","569","2","legacy","1024","2","48000","-16","task","5204590","even","NA","53795","59467","55799","181760","4827","41355","30999","182263","165092","181757","182264","181704","59467","182835","50655","181204","4771","84983","Lexical Decision Task","57","61165","62","yes","1024"
"2.793790385","5.67","9","swab","word","92.06349206349206","92.06349206349206","982.952380952381","982.952380952381","black","no","legacy","legacy","legacy","0","uniform","1","undefined","undefined","undefined","1","j","0","0","0","0","62","0","0","0","62","0","58","62","58","0","58","3","62","0","62","Thu Feb 18 14:21:22 2021","The main experiment item","yes","Lexical_Decision_Task.osexp","/Users/kieramurrell/Desktop","no","Andale Mono","no","18","no","white","no","yes","576","legacy","58","58","3","/Users/kieramurrell/Desktop/subject-5204590CAL.csv","legacy","Lentiform Loewenfeld","3.3.7","yes","yes","600bd7cfb6416f0113b04181","602110864497cf011d9c0822","0","J","NA","space","","space","space","J","761","NA","3666","24339","10355","3960","761","2","legacy","1024","2","48000","-16","task","5204590","even","NA","53795","59467","55799","183395","4827","41355","30999","183898","165092","183392","183898","183340","59467","184660","50655","182839","4771","84983","Lexical Decision Task","58","61926","63","yes","1024"
"2.668385917","5.48","4","twig","word","92.1875","92.1875","976.875","976.875","black","no","legacy","legacy","legacy","0","uniform","1","undefined","undefined","undefined","1","j","0","0","0","0","63","0","0","0","63","0","59","63","59","0","59","3","63","0","63","Thu Feb 18 14:21:22 2021","The main experiment item","yes","Lexical_Decision_Task.osexp","/Users/kieramurrell/Desktop","no","Andale Mono","no","18","no","white","no","yes","576","legacy","59","59","3","/Users/kieramurrell/Desktop/subject-5204590CAL.csv","legacy","Lentiform Loewenfeld","3.3.7","yes","yes","600bd7cfb6416f0113b04181","602110864497cf011d9c0822","0","J","NA","space","","space","space","J","594","NA","3666","24339","10355","3960","594","2","legacy","1024","2","48000","-16","task","5204590","even","NA","53795","59467","55799","185232","4827","41355","30999","185736","165092","185229","185737","185166","59467","186333","50655","184665","4771","84983","Lexical Decision Task","59","62520","64","yes","1024"
"3.252447662","9.67","9","boat","word","92.3076923076923","92.3076923076923","969.4769230769231","969.4769230769231","black","no","legacy","legacy","legacy","0","uniform","1","undefined","undefined","undefined","1","j","0","0","0","0","64","0","0","0","64","0","60","64","60","0","60","3","64","0","64","Thu Feb 18 14:21:22 2021","The main experiment item","yes","Lexical_Decision_Task.osexp","/Users/kieramurrell/Desktop","no","Andale Mono","no","18","no","white","no","yes","576","legacy","60","60","3","/Users/kieramurrell/Desktop/subject-5204590CAL.csv","legacy","Lentiform Loewenfeld","3.3.7","yes","yes","600bd7cfb6416f0113b04181","602110864497cf011d9c0822","0","J","NA","space","","space","space","J","496","NA","3666","24339","10355","3960","496","2","legacy","1024","2","48000","-16","task","5204590","even","NA","53795","59467","55799","186898","4827","41355","30999","187402","165092","186896","187402","186843","59467","187900","50655","186342","4771","84983","Lexical Decision Task","60","63016","65","yes","1024"
"3.043885998","0","9","gome","non-word","92.42424242424242","92.42424242424242","972.5151515151515","972.5151515151515","black","no","legacy","legacy","legacy","0","uniform","1","undefined","undefined","undefined","1","f","0","0","0","0","65","0","0","0","65","0","61","65","61","0","61","3","65","0","65","Thu Feb 18 14:21:22 2021","The main experiment item","yes","Lexical_Decision_Task.osexp","/Users/kieramurrell/Desktop","no","Andale Mono","no","18","no","white","no","yes","576","legacy","61","61","3","/Users/kieramurrell/Desktop/subject-5204590CAL.csv","legacy","Lentiform Loewenfeld","3.3.7","yes","yes","600bd7cfb6416f0113b04181","602110864497cf011d9c0822","0","F","NA","space","","space","space","F","1170","NA","3666","24339","10355","3960","1170","2","legacy","1024","2","48000","-16","task","5204590","even","NA","53795","59467","55799","188461","4827","41355","30999","188964","165092","188458","188965","188406","59467","190137","50655","187906","4771","84983","Lexical Decision Task","61","64186","66","yes","1024"
"2.979548375","8.71","4","soup","word","92.53731343283582","92.53731343283582","966.5522388059702","966.5522388059702","black","no","legacy","legacy","legacy","0","uniform","1","undefined","undefined","undefined","1","j","0","0","0","0","66","0","0","0","66","0","62","66","62","0","62","3","66","0","66","Thu Feb 18 14:21:22 2021","The main experiment item","yes","Lexical_Decision_Task.osexp","/Users/kieramurrell/Desktop","no","Andale Mono","no","18","no","white","no","yes","576","legacy","62","62","3","/Users/kieramurrell/Desktop/subject-5204590CAL.csv","legacy","Lentiform Loewenfeld","3.3.7","yes","yes","600bd7cfb6416f0113b04181","602110864497cf011d9c0822","0","J","NA","space","","space","space","J","573","NA","3666","24339","10355","3960","573","2","legacy","1024","2","48000","-16","task","5204590","even","NA","53795","59467","55799","190698","4827","41355","30999","191201","165092","190695","191202","190643","59467","191777","50655","190143","4771","84983","Lexical Decision Task","62","64759","67","yes","1024"
"2.714888338","0","3","brug","non-word","92.6470588235294","92.6470588235294","964","964","black","no","legacy","legacy","legacy","0","uniform","1","undefined","undefined","undefined","1","f","0","0","0","0","67","0","0","0","67","0","63","67","63","0","63","3","67","0","67","Thu Feb 18 14:21:22 2021","The main experiment item","yes","Lexical_Decision_Task.osexp","/Users/kieramurrell/Desktop","no","Andale Mono","no","18","no","white","no","yes","576","legacy","63","63","3","/Users/kieramurrell/Desktop/subject-5204590CAL.csv","legacy","Lentiform Loewenfeld","3.3.7","yes","yes","600bd7cfb6416f0113b04181","602110864497cf011d9c0822","0","F","NA","space","","space","space","F","793","NA","3666","24339","10355","3960","793","2","legacy","1024","2","48000","-16","task","5204590","even","NA","53795","59467","55799","192338","4827","41355","30999","192841","165092","192335","192842","192282","59467","193636","50655","191782","4771","84983","Lexical Decision Task","63","65552","68","yes","1024"
"2.64476673","0","5","moft","non-word","92.7536231884058","92.7536231884058","960.5942028985507","960.5942028985507","black","no","legacy","legacy","legacy","0","uniform","1","undefined","undefined","undefined","1","f","0","0","0","0","68","0","0","0","68","0","64","68","64","0","64","3","68","0","68","Thu Feb 18 14:21:22 2021","The main experiment item","yes","Lexical_Decision_Task.osexp","/Users/kieramurrell/Desktop","no","Andale Mono","no","18","no","white","no","yes","576","legacy","64","64","3","/Users/kieramurrell/Desktop/subject-5204590CAL.csv","legacy","Lentiform Loewenfeld","3.3.7","yes","yes","600bd7cfb6416f0113b04181","602110864497cf011d9c0822","0","F","NA","space","","space","space","F","729","NA","3666","24339","10355","3960","729","2","legacy","1024","2","48000","-16","task","5204590","even","NA","53795","59467","55799","194198","4827","41355","30999","194700","165092","194195","194701","194142","59467","195432","50655","193642","4771","84983","Lexical Decision Task","64","66281","69","yes","1024"
"3.15462682","0","6","noal","non-word","91.42857142857143","91.42857142857143","961.9714285714285","961.9714285714285","black","no","legacy","legacy","legacy","0","uniform","0","undefined","undefined","undefined","0","f","0","0","0","0","69","0","0","0","69","0","65","69","65","0","65","3","69","0","69","Thu Feb 18 14:21:22 2021","The main experiment item","yes","Lexical_Decision_Task.osexp","/Users/kieramurrell/Desktop","no","Andale Mono","no","18","no","white","no","yes","576","legacy","65","65","3","/Users/kieramurrell/Desktop/subject-5204590CAL.csv","legacy","Lentiform Loewenfeld","3.3.7","yes","yes","600bd7cfb6416f0113b04181","602110864497cf011d9c0822","0","J","NA","space","","space","space","J","1057","NA","3666","24339","10355","3960","1057","2","legacy","1024","2","48000","-16","task","5204590","even","NA","53795","59467","55799","195994","4827","41355","30999","196498","165092","195992","196498","195937","59467","197556","50655","195437","4771","84983","Lexical Decision Task","64","67338","70","yes","1024"
"2.746890964","9.67","3","plug","word","91.54929577464789","91.54929577464789","958.2112676056338","958.2112676056338","black","no","legacy","legacy","legacy","0","uniform","1","undefined","undefined","undefined","1","j","0","0","0","0","70","0","0","0","70","0","66","70","66","0","66","3","70","0","70","Thu Feb 18 14:21:22 2021","The main experiment item","yes","Lexical_Decision_Task.osexp","/Users/kieramurrell/Desktop","no","Andale Mono","no","18","no","white","no","yes","576","legacy","66","66","3","/Users/kieramurrell/Desktop/subject-5204590CAL.csv","legacy","Lentiform Loewenfeld","3.3.7","yes","yes","600bd7cfb6416f0113b04181","602110864497cf011d9c0822","0","J","NA","space","","space","space","J","695","NA","3666","24339","10355","3960","695","2","legacy","1024","2","48000","-16","task","5204590","even","NA","53795","59467","55799","199119","4827","41355","30999","199623","165092","199116","199624","199061","59467","200321","50655","195437","4771","197561","Lexical Decision Task","65","68033","71","yes","1024"
"3.218535505","7.85","7","goat","word","91.66666666666667","91.66666666666667","952.2083333333334","952.2083333333334","black","no","legacy","legacy","legacy","0","uniform","1","undefined","undefined","undefined","1","j","0","0","0","0","71","0","0","0","71","0","67","71","67","0","67","3","71","0","71","Thu Feb 18 14:21:22 2021","The main experiment item","yes","Lexical_Decision_Task.osexp","/Users/kieramurrell/Desktop","no","Andale Mono","no","18","no","white","no","yes","576","legacy","67","67","3","/Users/kieramurrell/Desktop/subject-5204590CAL.csv","legacy","Lentiform Loewenfeld","3.3.7","yes","yes","600bd7cfb6416f0113b04181","602110864497cf011d9c0822","0","J","NA","space","","space","space","J","526","NA","3666","24339","10355","3960","526","2","legacy","1024","2","48000","-16","task","5204590","even","NA","53795","59467","55799","200882","4827","41355","30999","201386","165092","200879","201386","200827","59467","201913","50655","200327","4771","197561","Lexical Decision Task","66","68559","72","yes","1024"
"3.067193647","6.73","6","raft","word","91.78082191780823","91.78082191780823","946.8219178082192","946.8219178082192","black","no","legacy","legacy","legacy","0","uniform","1","undefined","undefined","undefined","1","j","0","0","0","0","72","0","0","0","72","0","68","72","68","0","68","3","72","0","72","Thu Feb 18 14:21:22 2021","The main experiment item","yes","Lexical_Decision_Task.osexp","/Users/kieramurrell/Desktop","no","Andale Mono","no","18","no","white","no","yes","576","legacy","68","68","3","/Users/kieramurrell/Desktop/subject-5204590CAL.csv","legacy","Lentiform Loewenfeld","3.3.7","yes","yes","600bd7cfb6416f0113b04181","602110864497cf011d9c0822","0","J","NA","space","","space","space","J","559","NA","3666","24339","10355","3960","559","2","legacy","1024","2","48000","-16","task","5204590","even","NA","53795","59467","55799","202473","4827","41355","30999","202977","165092","202471","202978","202418","59467","203539","50655","201918","4771","197561","Lexical Decision Task","67","69118","73","yes","1024"
"3.105055783","0","2","norp","non-word","91.89189189189189","91.89189189189189","943.7702702702703","943.7702702702703","black","no","legacy","legacy","legacy","0","uniform","1","undefined","undefined","undefined","1","f","0","0","0","0","73","0","0","0","73","0","69","73","69","0","69","3","73","0","73","Thu Feb 18 14:21:22 2021","The main experiment item","yes","Lexical_Decision_Task.osexp","/Users/kieramurrell/Desktop","no","Andale Mono","no","18","no","white","no","yes","576","legacy","69","69","3","/Users/kieramurrell/Desktop/subject-5204590CAL.csv","legacy","Lentiform Loewenfeld","3.3.7","yes","yes","600bd7cfb6416f0113b04181","602110864497cf011d9c0822","0","F","NA","space","","space","space","F","721","NA","3666","24339","10355","3960","721","2","legacy","1024","2","48000","-16","task","5204590","even","NA","53795","59467","55799","204101","4827","41355","30999","204604","165092","204098","204605","204045","59467","205328","50655","203545","4771","197561","Lexical Decision Task","68","69839","74","yes","1024"
"2.706148589","0","4","hube","non-word","92","92","941.96","941.96","black","no","legacy","legacy","legacy","0","uniform","1","undefined","undefined","undefined","1","f","0","0","0","0","74","0","0","0","74","0","70","74","70","0","70","3","74","0","74","Thu Feb 18 14:21:22 2021","The main experiment item","yes","Lexical_Decision_Task.osexp","/Users/kieramurrell/Desktop","no","Andale Mono","no","18","no","white","no","yes","576","legacy","70","70","3","/Users/kieramurrell/Desktop/subject-5204590CAL.csv","legacy","Lentiform Loewenfeld","3.3.7","yes","yes","600bd7cfb6416f0113b04181","602110864497cf011d9c0822","0","F","NA","space","","space","space","F","808","NA","3666","24339","10355","3960","808","2","legacy","1024","2","48000","-16","task","5204590","even","NA","53795","59467","55799","205889","4827","41355","30999","206393","165092","205886","206394","205833","59467","207204","50655","205332","4771","197561","Lexical Decision Task","69","70647","75","yes","1024"
"2.821076612","0","4","lult","non-word","92.10526315789474","92.10526315789474","937.5263157894736","937.5263157894736","black","no","legacy","legacy","legacy","0","uniform","1","undefined","undefined","undefined","1","f","0","0","0","0","75","0","0","0","75","0","71","75","71","0","71","3","75","0","75","Thu Feb 18 14:21:22 2021","The main experiment item","yes","Lexical_Decision_Task.osexp","/Users/kieramurrell/Desktop","no","Andale Mono","no","18","no","white","no","yes","576","legacy","71","71","3","/Users/kieramurrell/Desktop/subject-5204590CAL.csv","legacy","Lentiform Loewenfeld","3.3.7","yes","yes","600bd7cfb6416f0113b04181","602110864497cf011d9c0822","0","F","NA","space","","space","space","F","605","NA","3666","24339","10355","3960","605","2","legacy","1024","2","48000","-16","task","5204590","even","NA","53795","59467","55799","207765","4827","41355","30999","208269","165092","207762","208270","207709","59467","208877","50655","207209","4771","197561","Lexical Decision Task","70","71252","76","yes","1024"
"3.274157849","0","8","leet","non-word","92.20779220779221","92.20779220779221","932.5714285714286","932.5714285714286","black","no","legacy","legacy","legacy","0","uniform","1","undefined","undefined","undefined","1","f","0","0","0","0","76","0","0","0","76","0","72","76","72","0","72","3","76","0","76","Thu Feb 18 14:21:22 2021","The main experiment item","yes","Lexical_Decision_Task.osexp","/Users/kieramurrell/Desktop","no","Andale Mono","no","18","no","white","no","yes","576","legacy","72","72","3","/Users/kieramurrell/Desktop/subject-5204590CAL.csv","legacy","Lentiform Loewenfeld","3.3.7","yes","yes","600bd7cfb6416f0113b04181","602110864497cf011d9c0822","0","F","NA","space","","space","space","F","556","NA","3666","24339","10355","3960","556","2","legacy","1024","2","48000","-16","task","5204590","even","NA","53795","59467","55799","209437","4827","41355","30999","209941","165092","209435","209941","209383","59467","210499","50655","208883","4771","197561","Lexical Decision Task","71","71808","77","yes","1024"
"3.132473155","0","4","glim","non-word","92.3076923076923","92.3076923076923","929.474358974359","929.474358974359","black","no","legacy","legacy","legacy","0","uniform","1","undefined","undefined","undefined","1","f","0","0","0","0","77","0","0","0","77","0","73","77","73","0","73","3","77","0","77","Thu Feb 18 14:21:22 2021","The main experiment item","yes","Lexical_Decision_Task.osexp","/Users/kieramurrell/Desktop","no","Andale Mono","no","18","no","white","no","yes","576","legacy","73","73","3","/Users/kieramurrell/Desktop/subject-5204590CAL.csv","legacy","Lentiform Loewenfeld","3.3.7","yes","yes","600bd7cfb6416f0113b04181","602110864497cf011d9c0822","0","F","NA","space","","space","space","F","691","NA","3666","24339","10355","3960","691","2","legacy","1024","2","48000","-16","task","5204590","even","NA","53795","59467","55799","211059","4827","41355","30999","211563","165092","211057","211564","211005","59467","212256","50655","210505","4771","197561","Lexical Decision Task","72","72499","78","yes","1024"
"3.100255637","0","6","brax","non-word","92.40506329113924","92.40506329113924","929.620253164557","929.620253164557","black","no","legacy","legacy","legacy","0","uniform","1","undefined","undefined","undefined","1","f","0","0","0","0","78","0","0","0","78","0","74","78","74","0","74","3","78","0","78","Thu Feb 18 14:21:22 2021","The main experiment item","yes","Lexical_Decision_Task.osexp","/Users/kieramurrell/Desktop","no","Andale Mono","no","18","no","white","no","yes","576","legacy","74","74","3","/Users/kieramurrell/Desktop/subject-5204590CAL.csv","legacy","Lentiform Loewenfeld","3.3.7","yes","yes","600bd7cfb6416f0113b04181","602110864497cf011d9c0822","0","F","NA","space","","space","space","F","941","NA","3666","24339","10355","3960","941","2","legacy","1024","2","48000","-16","task","5204590","even","NA","53795","59467","55799","212815","4827","41355","30999","213319","165092","212813","213319","212761","59467","214262","50655","212261","4771","197561","Lexical Decision Task","73","73440","79","yes","1024"
"3.397302518","7.01","2","knit","word","92.5","92.5","925.275","925.275","black","no","legacy","legacy","legacy","0","uniform","1","undefined","undefined","undefined","1","j","0","0","0","0","79","0","0","0","79","0","75","79","75","0","75","3","79","0","79","Thu Feb 18 14:21:22 2021","The main experiment item","yes","Lexical_Decision_Task.osexp","/Users/kieramurrell/Desktop","no","Andale Mono","no","18","no","white","no","yes","576","legacy","75","75","3","/Users/kieramurrell/Desktop/subject-5204590CAL.csv","legacy","Lentiform Loewenfeld","3.3.7","yes","yes","600bd7cfb6416f0113b04181","602110864497cf011d9c0822","0","J","NA","space","","space","space","J","582","NA","3666","24339","10355","3960","582","2","legacy","1024","2","48000","-16","task","5204590","even","NA","53795","59467","55799","214822","4827","41355","30999","215326","165092","214819","215326","214767","59467","215909","50655","214266","4771","197561","Lexical Decision Task","74","74022","80","yes","1024"
"2.7084209","0","8","vump","non-word","92.5925925925926","92.5925925925926","927.3456790123457","927.3456790123457","black","no","legacy","legacy","legacy","0","uniform","1","undefined","undefined","undefined","1","f","0","0","0","0","80","0","0","0","80","0","76","80","76","0","76","3","80","0","80","Thu Feb 18 14:21:22 2021","The main experiment item","yes","Lexical_Decision_Task.osexp","/Users/kieramurrell/Desktop","no","Andale Mono","no","18","no","white","no","yes","576","legacy","76","76","3","/Users/kieramurrell/Desktop/subject-5204590CAL.csv","legacy","Lentiform Loewenfeld","3.3.7","yes","yes","600bd7cfb6416f0113b04181","602110864497cf011d9c0822","0","F","NA","space","","space","space","F","1093","NA","3666","24339","10355","3960","1093","2","legacy","1024","2","48000","-16","task","5204590","even","NA","53795","59467","55799","216470","4827","41355","30999","216974","165092","216467","216974","216415","59467","218068","50655","215915","4771","197561","Lexical Decision Task","75","75115","81","yes","1024"
"2.972819734","0","4","scew","non-word","92.6829268292683","92.6829268292683","928.109756097561","928.109756097561","black","no","legacy","legacy","legacy","0","uniform","1","undefined","undefined","undefined","1","f","0","0","0","0","81","0","0","0","81","0","77","81","77","0","77","3","81","0","81","Thu Feb 18 14:21:22 2021","The main experiment item","yes","Lexical_Decision_Task.osexp","/Users/kieramurrell/Desktop","no","Andale Mono","no","18","no","white","no","yes","576","legacy","77","77","3","/Users/kieramurrell/Desktop/subject-5204590CAL.csv","legacy","Lentiform Loewenfeld","3.3.7","yes","yes","600bd7cfb6416f0113b04181","602110864497cf011d9c0822","0","F","NA","space","","space","space","F","990","NA","3666","24339","10355","3960","990","2","legacy","1024","2","48000","-16","task","5204590","even","NA","53795","59467","55799","218629","4827","41355","30999","219133","165092","218626","219133","218574","59467","220125","50655","218073","4771","197561","Lexical Decision Task","76","76105","82","yes","1024"
"3.165936429","0","7","leps","non-word","92.7710843373494","92.7710843373494","926.2168674698795","926.2168674698795","black","no","legacy","legacy","legacy","0","uniform","1","undefined","undefined","undefined","1","f","0","0","0","0","82","0","0","0","82","0","78","82","78","0","78","3","82","0","82","Thu Feb 18 14:21:22 2021","The main experiment item","yes","Lexical_Decision_Task.osexp","/Users/kieramurrell/Desktop","no","Andale Mono","no","18","no","white","no","yes","576","legacy","78","78","3","/Users/kieramurrell/Desktop/subject-5204590CAL.csv","legacy","Lentiform Loewenfeld","3.3.7","yes","yes","600bd7cfb6416f0113b04181","602110864497cf011d9c0822","0","F","NA","space","","space","space","F","771","NA","3666","24339","10355","3960","771","2","legacy","1024","2","48000","-16","task","5204590","even","NA","53795","59467","55799","220686","4827","41355","30999","221189","165092","220683","221190","220631","59467","221963","50655","220130","4771","197561","Lexical Decision Task","77","76876","83","yes","1024"
"2.75025376","10.2","6","jump","word","92.85714285714286","92.85714285714286","925.1785714285714","925.1785714285714","black","no","legacy","legacy","legacy","0","uniform","1","undefined","undefined","undefined","1","j","0","0","0","0","83","0","0","0","83","0","79","83","79","0","79","3","83","0","83","Thu Feb 18 14:21:22 2021","The main experiment item","yes","Lexical_Decision_Task.osexp","/Users/kieramurrell/Desktop","no","Andale Mono","no","18","no","white","no","yes","576","legacy","79","79","3","/Users/kieramurrell/Desktop/subject-5204590CAL.csv","legacy","Lentiform Loewenfeld","3.3.7","yes","yes","600bd7cfb6416f0113b04181","602110864497cf011d9c0822","0","J","NA","space","","space","space","J","839","NA","3666","24339","10355","3960","839","2","legacy","1024","2","48000","-16","task","5204590","even","NA","53795","59467","55799","222524","4827","41355","30999","223028","165092","222521","223029","222469","59467","223870","50655","221968","4771","197561","Lexical Decision Task","78","77715","84","yes","1024"
"3.216517684","10.87","3","film","word","92.94117647058823","92.94117647058823","920.9294117647058","920.9294117647058","black","no","legacy","legacy","legacy","0","uniform","1","undefined","undefined","undefined","1","j","0","0","0","0","84","0","0","0","84","0","80","84","80","0","80","3","84","0","84","Thu Feb 18 14:21:22 2021","The main experiment item","yes","Lexical_Decision_Task.osexp","/Users/kieramurrell/Desktop","no","Andale Mono","no","18","no","white","no","yes","576","legacy","80","80","3","/Users/kieramurrell/Desktop/subject-5204590CAL.csv","legacy","Lentiform Loewenfeld","3.3.7","yes","yes","600bd7cfb6416f0113b04181","602110864497cf011d9c0822","0","J","NA","space","","space","space","J","564","NA","3666","24339","10355","3960","564","2","legacy","1024","2","48000","-16","task","5204590","even","NA","53795","59467","55799","224434","4827","41355","30999","224937","165092","224431","224937","224375","59467","225503","50655","223874","4771","197561","Lexical Decision Task","79","78279","85","yes","1024"
"2.616654026","9.37","5","gift","word","93.02325581395348","93.02325581395348","916.0116279069767","916.0116279069767","black","no","legacy","legacy","legacy","0","uniform","1","undefined","undefined","undefined","1","j","0","0","0","0","85","0","0","0","85","0","81","85","81","0","81","3","85","0","85","Thu Feb 18 14:21:22 2021","The main experiment item","yes","Lexical_Decision_Task.osexp","/Users/kieramurrell/Desktop","no","Andale Mono","no","18","no","white","no","yes","576","legacy","81","81","3","/Users/kieramurrell/Desktop/subject-5204590CAL.csv","legacy","Lentiform Loewenfeld","3.3.7","yes","yes","600bd7cfb6416f0113b04181","602110864497cf011d9c0822","0","J","NA","space","","space","space","J","498","NA","3666","24339","10355","3960","498","2","legacy","1024","2","48000","-16","task","5204590","even","NA","53795","59467","55799","226063","4827","41355","30999","226567","165092","226061","226568","226008","59467","227068","50655","225507","4771","197561","Lexical Decision Task","80","78777","86","yes","1024"
"3.705778213","0","6","stin","non-word","93.10344827586206","93.10344827586206","914.5977011494252","914.5977011494252","black","no","legacy","legacy","legacy","0","uniform","1","undefined","undefined","undefined","1","f","0","0","0","0","86","0","0","0","86","0","82","86","82","0","82","3","86","0","86","Thu Feb 18 14:21:22 2021","The main experiment item","yes","Lexical_Decision_Task.osexp","/Users/kieramurrell/Desktop","no","Andale Mono","no","18","no","white","no","yes","576","legacy","82","82","3","/Users/kieramurrell/Desktop/subject-5204590CAL.csv","legacy","Lentiform Loewenfeld","3.3.7","yes","yes","600bd7cfb6416f0113b04181","602110864497cf011d9c0822","0","F","NA","space","","space","space","F","793","NA","3666","24339","10355","3960","793","2","legacy","1024","2","48000","-16","task","5204590","even","NA","53795","59467","55799","227627","4827","41355","30999","228131","165092","227625","228132","227572","59467","228926","50655","227072","4771","197561","Lexical Decision Task","81","79570","87","yes","1024"
"2.9737419","7.69","7","claw","word","93.18181818181819","93.18181818181819","912.5113636363636","912.5113636363636","black","no","legacy","legacy","legacy","0","uniform","1","undefined","undefined","undefined","1","j","0","0","0","0","87","0","0","0","87","0","83","87","83","0","83","3","87","0","87","Thu Feb 18 14:21:22 2021","The main experiment item","yes","Lexical_Decision_Task.osexp","/Users/kieramurrell/Desktop","no","Andale Mono","no","18","no","white","no","yes","576","legacy","83","83","3","/Users/kieramurrell/Desktop/subject-5204590CAL.csv","legacy","Lentiform Loewenfeld","3.3.7","yes","yes","600bd7cfb6416f0113b04181","602110864497cf011d9c0822","0","J","NA","space","","space","space","J","731","NA","3666","24339","10355","3960","731","2","legacy","1024","2","48000","-16","task","5204590","even","NA","53795","59467","55799","229486","4827","41355","30999","229990","165092","229483","229991","229431","59467","230724","50655","228931","4771","197561","Lexical Decision Task","82","80301","88","yes","1024"
"3.363486562","6.93","9","lush","word","93.25842696629213","93.25842696629213","907.370786516854","907.370786516854","black","no","legacy","legacy","legacy","0","uniform","1","undefined","undefined","undefined","1","j","0","0","0","0","88","0","0","0","88","0","84","88","84","0","84","3","88","0","88","Thu Feb 18 14:21:22 2021","The main experiment item","yes","Lexical_Decision_Task.osexp","/Users/kieramurrell/Desktop","no","Andale Mono","no","18","no","white","no","yes","576","legacy","84","84","3","/Users/kieramurrell/Desktop/subject-5204590CAL.csv","legacy","Lentiform Loewenfeld","3.3.7","yes","yes","600bd7cfb6416f0113b04181","602110864497cf011d9c0822","0","J","NA","space","","space","space","J","455","NA","3666","24339","10355","3960","455","2","legacy","1024","2","48000","-16","task","5204590","even","NA","53795","59467","55799","231285","4827","41355","30999","231788","165092","231282","231789","231229","59467","232246","50655","230729","4771","197561","Lexical Decision Task","83","80756","89","yes","1024"
"2.696644658","5.78","2","yolk","word","92.22222222222223","92.22222222222223","916.5111111111111","916.5111111111111","black","no","legacy","legacy","legacy","0","uniform","0","undefined","undefined","undefined","0","j","0","0","0","0","89","0","0","0","89","0","85","89","85","0","85","3","89","0","89","Thu Feb 18 14:21:22 2021","The main experiment item","yes","Lexical_Decision_Task.osexp","/Users/kieramurrell/Desktop","no","Andale Mono","no","18","no","white","no","yes","576","legacy","85","85","3","/Users/kieramurrell/Desktop/subject-5204590CAL.csv","legacy","Lentiform Loewenfeld","3.3.7","yes","yes","600bd7cfb6416f0113b04181","602110864497cf011d9c0822","0","F","NA","space","","space","space","F","1730","NA","3666","24339","10355","3960","1730","2","legacy","1024","2","48000","-16","task","5204590","even","NA","53795","59467","55799","232807","4827","41355","30999","233310","165092","232804","233311","232751","59467","235042","50655","232251","4771","197561","Lexical Decision Task","83","82486","90","yes","1024"
"3.091901331","0","9","nipe","non-word","92.3076923076923","92.3076923076923","917.5274725274726","917.5274725274726","black","no","legacy","legacy","legacy","0","uniform","1","undefined","undefined","undefined","1","f","0","0","0","0","90","0","0","0","90","0","86","90","86","0","86","3","90","0","90","Thu Feb 18 14:21:22 2021","The main experiment item","yes","Lexical_Decision_Task.osexp","/Users/kieramurrell/Desktop","no","Andale Mono","no","18","no","white","no","yes","576","legacy","86","86","3","/Users/kieramurrell/Desktop/subject-5204590CAL.csv","legacy","Lentiform Loewenfeld","3.3.7","yes","yes","600bd7cfb6416f0113b04181","602110864497cf011d9c0822","0","F","NA","space","","space","space","F","1009","NA","3666","24339","10355","3960","1009","2","legacy","1024","2","48000","-16","task","5204590","even","NA","53795","59467","55799","236606","4827","41355","30999","237109","165092","236603","237110","236547","59467","238121","50655","232251","4771","235047","Lexical Decision Task","84","83495","91","yes","1024"
"2.924968096","0","4","phim","non-word","91.30434782608695","91.30434782608695","915.1630434782609","915.1630434782609","black","no","legacy","legacy","legacy","0","uniform","0","undefined","undefined","undefined","0","f","0","0","0","0","91","0","0","0","91","0","87","91","87","0","87","3","91","0","91","Thu Feb 18 14:21:22 2021","The main experiment item","yes","Lexical_Decision_Task.osexp","/Users/kieramurrell/Desktop","no","Andale Mono","no","18","no","white","no","yes","576","legacy","87","87","3","/Users/kieramurrell/Desktop/subject-5204590CAL.csv","legacy","Lentiform Loewenfeld","3.3.7","yes","yes","600bd7cfb6416f0113b04181","602110864497cf011d9c0822","0","J","NA","space","","space","space","J","700","NA","3666","24339","10355","3960","700","2","legacy","1024","2","48000","-16","task","5204590","even","NA","53795","59467","55799","238682","4827","41355","30999","239186","165092","238679","239186","238626","59467","239888","50655","238126","4771","235047","Lexical Decision Task","84","84195","92","yes","1024"
"3.168890155","0","6","thet","non-word","91.39784946236558","91.39784946236558","914.741935483871","914.741935483871","black","no","legacy","legacy","legacy","0","uniform","1","undefined","undefined","undefined","1","f","0","0","0","0","92","0","0","0","92","0","88","92","88","0","88","3","92","0","92","Thu Feb 18 14:21:22 2021","The main experiment item","yes","Lexical_Decision_Task.osexp","/Users/kieramurrell/Desktop","no","Andale Mono","no","18","no","white","no","yes","576","legacy","88","88","3","/Users/kieramurrell/Desktop/subject-5204590CAL.csv","legacy","Lentiform Loewenfeld","3.3.7","yes","yes","600bd7cfb6416f0113b04181","602110864497cf011d9c0822","0","F","NA","space","","space","space","F","876","NA","3666","24339","10355","3960","876","2","legacy","1024","2","48000","-16","task","5204590","even","NA","53795","59467","55799","241450","4827","41355","30999","241953","165092","241448","241954","241393","59467","242832","50655","238126","4771","239892","Lexical Decision Task","85","85071","93","yes","1024"
"3.145920145","8.51","8","flew","word","91.48936170212765","91.48936170212765","912.8936170212766","912.8936170212766","black","no","legacy","legacy","legacy","0","uniform","1","undefined","undefined","undefined","1","j","0","0","0","0","93","0","0","0","93","0","89","93","89","0","89","3","93","0","93","Thu Feb 18 14:21:22 2021","The main experiment item","yes","Lexical_Decision_Task.osexp","/Users/kieramurrell/Desktop","no","Andale Mono","no","18","no","white","no","yes","576","legacy","89","89","3","/Users/kieramurrell/Desktop/subject-5204590CAL.csv","legacy","Lentiform Loewenfeld","3.3.7","yes","yes","600bd7cfb6416f0113b04181","602110864497cf011d9c0822","0","J","NA","space","","space","space","J","741","NA","3666","24339","10355","3960","741","2","legacy","1024","2","48000","-16","task","5204590","even","NA","53795","59467","55799","243394","4827","41355","30999","243897","165092","243391","243897","243337","59467","244640","50655","242837","4771","239892","Lexical Decision Task","86","85812","94","yes","1024"
"2.799799878","0","4","ciff","non-word","91.57894736842105","91.57894736842105","911.5368421052632","911.5368421052632","black","no","legacy","legacy","legacy","0","uniform","1","undefined","undefined","undefined","1","f","0","0","0","0","94","0","0","0","94","0","90","94","90","0","90","3","94","0","94","Thu Feb 18 14:21:22 2021","The main experiment item","yes","Lexical_Decision_Task.osexp","/Users/kieramurrell/Desktop","no","Andale Mono","no","18","no","white","no","yes","576","legacy","90","90","3","/Users/kieramurrell/Desktop/subject-5204590CAL.csv","legacy","Lentiform Loewenfeld","3.3.7","yes","yes","600bd7cfb6416f0113b04181","602110864497cf011d9c0822","0","F","NA","space","","space","space","F","784","NA","3666","24339","10355","3960","784","2","legacy","1024","2","48000","-16","task","5204590","even","NA","53795","59467","55799","245211","4827","41355","30999","245714","165092","245207","245715","245146","59467","246501","50655","244645","4771","239892","Lexical Decision Task","87","86596","95","yes","1024"
"2.813801082","5.47","7","nook","word","91.66666666666667","91.66666666666667","908.8645833333334","908.8645833333334","black","no","legacy","legacy","legacy","0","uniform","1","undefined","undefined","undefined","1","j","0","0","0","0","95","0","0","0","95","0","91","95","91","0","91","3","95","0","95","Thu Feb 18 14:21:22 2021","The main experiment item","yes","Lexical_Decision_Task.osexp","/Users/kieramurrell/Desktop","no","Andale Mono","no","18","no","white","no","yes","576","legacy","91","91","3","/Users/kieramurrell/Desktop/subject-5204590CAL.csv","legacy","Lentiform Loewenfeld","3.3.7","yes","yes","600bd7cfb6416f0113b04181","602110864497cf011d9c0822","0","J","NA","space","","space","space","J","655","NA","3666","24339","10355","3960","655","2","legacy","1024","2","48000","-16","task","5204590","even","NA","53795","59467","55799","247064","4827","41355","30999","247567","165092","247061","247568","247009","59467","248225","50655","246508","4771","239892","Lexical Decision Task","88","87251","96","yes","1024"
"3.2757719","0","5","slea","non-word","91.75257731958763","91.75257731958763","907.1855670103092","907.1855670103092","black","no","legacy","legacy","legacy","0","uniform","1","undefined","undefined","undefined","1","f","0","0","0","0","96","0","0","0","96","0","92","96","92","0","92","3","96","0","96","Thu Feb 18 14:21:22 2021","The main experiment item","yes","Lexical_Decision_Task.osexp","/Users/kieramurrell/Desktop","no","Andale Mono","no","18","no","white","no","yes","576","legacy","92","92","3","/Users/kieramurrell/Desktop/subject-5204590CAL.csv","legacy","Lentiform Loewenfeld","3.3.7","yes","yes","600bd7cfb6416f0113b04181","602110864497cf011d9c0822","0","F","NA","space","","space","space","F","746","NA","3666","24339","10355","3960","746","2","legacy","1024","2","48000","-16","task","5204590","even","NA","53795","59467","55799","248786","4827","41355","30999","249290","165092","248783","249290","248730","59467","250037","50655","248230","4771","239892","Lexical Decision Task","89","87997","97","yes","1024"
"3.443783828","7.65","3","verb","word","91.83673469387755","91.83673469387755","906.6020408163265","906.6020408163265","black","no","legacy","legacy","legacy","0","uniform","1","undefined","undefined","undefined","1","j","0","0","0","0","97","0","0","0","97","0","93","97","93","0","93","3","97","0","97","Thu Feb 18 14:21:22 2021","The main experiment item","yes","Lexical_Decision_Task.osexp","/Users/kieramurrell/Desktop","no","Andale Mono","no","18","no","white","no","yes","576","legacy","93","93","3","/Users/kieramurrell/Desktop/subject-5204590CAL.csv","legacy","Lentiform Loewenfeld","3.3.7","yes","yes","600bd7cfb6416f0113b04181","602110864497cf011d9c0822","0","J","NA","space","","space","space","J","850","NA","3666","24339","10355","3960","850","2","legacy","1024","2","48000","-16","task","5204590","even","NA","53795","59467","55799","250598","4827","41355","30999","251102","165092","250596","251102","250543","59467","251954","50655","250043","4771","239892","Lexical Decision Task","90","88847","98","yes","1024"
"3.347850856","10.51","2","rich","word","91.91919191919192","91.91919191919192","903.5050505050505","903.5050505050505","black","no","legacy","legacy","legacy","0","uniform","1","undefined","undefined","undefined","1","j","0","0","0","0","98","0","0","0","98","0","94","98","94","0","94","3","98","0","98","Thu Feb 18 14:21:22 2021","The main experiment item","yes","Lexical_Decision_Task.osexp","/Users/kieramurrell/Desktop","no","Andale Mono","no","18","no","white","no","yes","576","legacy","94","94","3","/Users/kieramurrell/Desktop/subject-5204590CAL.csv","legacy","Lentiform Loewenfeld","3.3.7","yes","yes","600bd7cfb6416f0113b04181","602110864497cf011d9c0822","0","J","NA","space","","space","space","J","600","NA","3666","24339","10355","3960","600","2","legacy","1024","2","48000","-16","task","5204590","even","NA","53795","59467","55799","252514","4827","41355","30999","253017","165092","252511","253018","252458","59467","253619","50655","251958","4771","239892","Lexical Decision Task","91","89447","99","yes","1024"
"2.812467698","0","7","hafe","non-word","92","92","903.41","903.41","black","no","legacy","legacy","legacy","0","uniform","1","undefined","undefined","undefined","1","f","0","0","0","0","99","0","0","0","99","0","95","99","95","0","95","3","99","0","99","Thu Feb 18 14:21:22 2021","The main experiment item","yes","Lexical_Decision_Task.osexp","/Users/kieramurrell/Desktop","no","Andale Mono","no","18","no","white","no","yes","576","legacy","95","95","3","/Users/kieramurrell/Desktop/subject-5204590CAL.csv","legacy","Lentiform Loewenfeld","3.3.7","yes","yes","600bd7cfb6416f0113b04181","602110864497cf011d9c0822","0","F","NA","space","","space","space","F","894","NA","3666","24339","10355","3960","894","2","legacy","1024","2","48000","-16","task","5204590","even","NA","53795","59467","55799","254181","4827","41355","30999","254686","165092","254178","254686","254125","59467","255581","50655","253625","4771","239892","Lexical Decision Task","92","90341","100","yes","1024"
