"Log_BG","Log_Freq_HAL","Ortho_N","Stimulus","Type","acc","accuracy","average_response_time","avg_rt","background","bidi","canvas_backend","clock_backend","color_backend","compensation","coordinates","correct","correct_Experimental_intro","correct_Introduction","correct_Practice_intro","correct_experimenter_kb","correct_response","count_End_Of_Experiment","count_End_Of_Practice","count_Experimental_Loop","count_Experimental_intro","count_Fixation","count_Introduction","count_Practice_Loop","count_Practice_intro","count_Stimulus","count_block_break_feedback","count_experimental_sequence","count_experimenter_kb","count_increment_trial_count","count_init_trial_count","count_logger","count_practice_sequence","count_right","count_task","count_wrong","datetime","description","disable_garbage_collection","experiment_file","experiment_path","font_bold","font_family","font_italic","font_size","font_underline","foreground","form_clicks","fullscreen","height","keyboard_backend","live_row","live_row_Experimental_Loop","live_row_Practice_Loop","logfile","mouse_backend","opensesame_codename","opensesame_version","osf_always_upload_data","osf_always_upload_experiment","osf_datanode_id","osf_id","repeat_cycle","response","response_End_Of_Experiment","response_Experimental_intro","response_Introduction","response_Practice_intro","response_block_break_feedback","response_experimenter_kb","response_time","response_time_End_Of_Experiment","response_time_Experimental_intro","response_time_Introduction","response_time_Practice_intro","response_time_block_break_feedback","response_time_experimenter_kb","round_decimals","sampler_backend","sound_buf_size","sound_channels","sound_freq","sound_sample_size","start","subject_nr","subject_parity","time_End_Of_Experiment","time_End_Of_Practice","time_Experimental_Loop","time_Experimental_intro","time_Fixation","time_Introduction","time_Practice_Loop","time_Practice_intro","time_Stimulus","time_block_break_feedback","time_experimental_sequence","time_experimenter_kb","time_increment_trial_count","time_init_trial_count","time_logger","time_practice_sequence","time_right","time_task","time_wrong","title","total_correct","total_response_time","total_responses","uniform_coordinates","width"
"3.274157849","0","8","leet","non-word","100","100","990.8","990.8","black","no","legacy","legacy","legacy","0","uniform","1","undefined","undefined","undefined","1","f","0","0","0","0","4","0","0","0","4","NA","0","4","0","0","0","3","4","0","4","Tue Mar 16 19:57:31 2021","The main experiment item","yes","Lexical_Decision_Task.osexp","/Users/adombeblanchard/Desktop","no","Andale Mono","no","18","no","white","no","yes","576","legacy","0","0","3","/Users/adombeblanchard/Documents/subject-5212035.csv","legacy","Lentiform Loewenfeld","3.3.8","yes","yes","600bd7cfb6416f0113b04181","602110864497cf011d9c0822","0","f","NA","j","j","j","NA","f","810","NA","7048","7083","7507","NA","810","2","legacy","1024","2","48000","-16","task","5212035","odd","NA","28698","37750","30701","37791","5593","20208","12697","38295","NA","37788","38295","NA","37750","39106","26947","28163","5578","NA","Lexical Decision Task","5","4954","5","yes","1024"
"3.282244367","0","6","fute","non-word","100","100","986.1666666666666","986.1666666666666","black","no","legacy","legacy","legacy","0","uniform","1","undefined","undefined","undefined","1","f","0","0","0","0","5","0","0","0","5","NA","1","5","1","0","1","3","5","0","5","Tue Mar 16 19:57:31 2021","The main experiment item","yes","Lexical_Decision_Task.osexp","/Users/adombeblanchard/Desktop","no","Andale Mono","no","18","no","white","no","yes","576","legacy","1","1","3","/Users/adombeblanchard/Documents/subject-5212035.csv","legacy","Lentiform Loewenfeld","3.3.8","yes","yes","600bd7cfb6416f0113b04181","602110864497cf011d9c0822","0","f","NA","j","j","j","NA","f","963","NA","7048","7083","7507","NA","963","2","legacy","1024","2","48000","-16","task","5212035","odd","NA","28698","37750","30701","39678","5593","20208","12697","40182","NA","39675","40182","39616","37750","41146","26947","39116","5578","NA","Lexical Decision Task","6","5917","6","yes","1024"
"3.068433376","8.09","2","bulb","word","85.71428571428571","85.71428571428571","960","960","black","no","legacy","legacy","legacy","0","uniform","0","undefined","undefined","undefined","0","j","0","0","0","0","6","0","0","0","6","NA","2","6","2","0","2","3","6","0","6","Tue Mar 16 19:57:31 2021","The main experiment item","yes","Lexical_Decision_Task.osexp","/Users/adombeblanchard/Desktop","no","Andale Mono","no","18","no","white","no","yes","576","legacy","2","2","3","/Users/adombeblanchard/Documents/subject-5212035.csv","legacy","Lentiform Loewenfeld","3.3.8","yes","yes","600bd7cfb6416f0113b04181","602110864497cf011d9c0822","0","f","NA","j","j","j","NA","f","803","NA","7048","7083","7507","NA","803","2","legacy","1024","2","48000","-16","task","5212035","odd","NA","28698","37750","30701","41709","5593","20208","12697","42212","NA","41706","42213","41652","37750","43017","26947","41151","5578","NA","Lexical Decision Task","6","6720","7","yes","1024"
"2.703007489","8.37","3","pulp","word","87.5","87.5","950.875","950.875","black","no","legacy","legacy","legacy","0","uniform","1","undefined","undefined","undefined","1","j","0","0","0","0","7","0","0","0","7","NA","3","7","3","0","3","3","7","0","7","Tue Mar 16 19:57:31 2021","The main experiment item","yes","Lexical_Decision_Task.osexp","/Users/adombeblanchard/Desktop","no","Andale Mono","no","18","no","white","no","yes","576","legacy","3","3","3","/Users/adombeblanchard/Documents/subject-5212035.csv","legacy","Lentiform Loewenfeld","3.3.8","yes","yes","600bd7cfb6416f0113b04181","602110864497cf011d9c0822","0","j","NA","j","j","j","NA","j","887","NA","7048","7083","7507","NA","887","2","legacy","1024","2","48000","-16","task","5212035","odd","NA","28698","37750","30701","44586","5593","20208","12697","45090","NA","44583","45091","44523","37750","45980","26947","41151","5578","43023","Lexical Decision Task","7","7607","8","yes","1024"
"3.067193647","6.73","6","raft","word","88.88888888888889","88.88888888888889","949.8888888888889","949.8888888888889","black","no","legacy","legacy","legacy","0","uniform","1","undefined","undefined","undefined","1","j","0","0","0","0","8","0","0","0","8","NA","4","8","4","0","4","3","8","0","8","Tue Mar 16 19:57:31 2021","The main experiment item","yes","Lexical_Decision_Task.osexp","/Users/adombeblanchard/Desktop","no","Andale Mono","no","18","no","white","no","yes","576","legacy","4","4","3","/Users/adombeblanchard/Documents/subject-5212035.csv","legacy","Lentiform Loewenfeld","3.3.8","yes","yes","600bd7cfb6416f0113b04181","602110864497cf011d9c0822","0","j","NA","j","j","j","NA","j","942","NA","7048","7083","7507","NA","942","2","legacy","1024","2","48000","-16","task","5212035","odd","NA","28698","37750","30701","46559","5593","20208","12697","47062","NA","46556","47063","46487","37750","48006","26947","45986","5578","43023","Lexical Decision Task","8","8549","9","yes","1024"
"2.843025032","0","9","pusk","non-word","90","90","921.7","921.7","black","no","legacy","legacy","legacy","0","uniform","1","undefined","undefined","undefined","1","f","0","0","0","0","9","0","0","0","9","NA","5","9","5","0","5","3","9","0","9","Tue Mar 16 19:57:31 2021","The main experiment item","yes","Lexical_Decision_Task.osexp","/Users/adombeblanchard/Desktop","no","Andale Mono","no","18","no","white","no","yes","576","legacy","5","5","3","/Users/adombeblanchard/Documents/subject-5212035.csv","legacy","Lentiform Loewenfeld","3.3.8","yes","yes","600bd7cfb6416f0113b04181","602110864497cf011d9c0822","0","f","NA","j","j","j","NA","f","668","NA","7048","7083","7507","NA","668","2","legacy","1024","2","48000","-16","task","5212035","odd","NA","28698","37750","30701","48594","5593","20208","12697","49096","NA","48589","49097","48513","37750","49766","26947","48012","5578","43023","Lexical Decision Task","9","9217","10","yes","1024"
"3.120025233","0","2","nyst","non-word","90.9090909090909","90.9090909090909","915.9090909090909","915.9090909090909","black","no","legacy","legacy","legacy","0","uniform","1","undefined","undefined","undefined","1","f","0","0","0","0","10","0","0","0","10","NA","6","10","6","0","6","3","10","0","10","Tue Mar 16 19:57:31 2021","The main experiment item","yes","Lexical_Decision_Task.osexp","/Users/adombeblanchard/Desktop","no","Andale Mono","no","18","no","white","no","yes","576","legacy","6","6","3","/Users/adombeblanchard/Documents/subject-5212035.csv","legacy","Lentiform Loewenfeld","3.3.8","yes","yes","600bd7cfb6416f0113b04181","602110864497cf011d9c0822","0","f","NA","j","j","j","NA","f","858","NA","7048","7083","7507","NA","858","2","legacy","1024","2","48000","-16","task","5212035","odd","NA","28698","37750","30701","50330","5593","20208","12697","50833","NA","50327","50833","50273","37750","51692","26947","49772","5578","43023","Lexical Decision Task","10","10075","11","yes","1024"
"3.374198258","0","8","vist","non-word","83.33333333333333","83.33333333333333","896.5833333333334","896.5833333333334","black","no","legacy","legacy","legacy","0","uniform","0","undefined","undefined","undefined","0","f","0","0","0","0","11","0","0","0","11","NA","7","11","7","0","7","3","11","0","11","Tue Mar 16 19:57:31 2021","The main experiment item","yes","Lexical_Decision_Task.osexp","/Users/adombeblanchard/Desktop","no","Andale Mono","no","18","no","white","no","yes","576","legacy","7","7","3","/Users/adombeblanchard/Documents/subject-5212035.csv","legacy","Lentiform Loewenfeld","3.3.8","yes","yes","600bd7cfb6416f0113b04181","602110864497cf011d9c0822","0","j","NA","j","j","j","NA","j","684","NA","7048","7083","7507","NA","684","2","legacy","1024","2","48000","-16","task","5212035","odd","NA","28698","37750","30701","52252","5593","20208","12697","52754","NA","52249","52754","52199","37750","53438","26947","51698","5578","43023","Lexical Decision Task","10","10759","12","yes","1024"
"3.088136089","8.32","9","worm","word","84.61538461538461","84.61538461538461","948.9230769230769","948.9230769230769","black","no","legacy","legacy","legacy","0","uniform","1","undefined","undefined","undefined","1","j","0","0","0","0","12","0","0","0","12","NA","8","12","8","0","8","3","12","0","12","Tue Mar 16 19:57:31 2021","The main experiment item","yes","Lexical_Decision_Task.osexp","/Users/adombeblanchard/Desktop","no","Andale Mono","no","18","no","white","no","yes","576","legacy","8","8","3","/Users/adombeblanchard/Documents/subject-5212035.csv","legacy","Lentiform Loewenfeld","3.3.8","yes","yes","600bd7cfb6416f0113b04181","602110864497cf011d9c0822","0","j","NA","j","j","j","NA","j","1577","NA","7048","7083","7507","NA","1577","2","legacy","1024","2","48000","-16","task","5212035","odd","NA","28698","37750","30701","55004","5593","20208","12697","55508","NA","55001","55508","54945","37750","57086","26947","51698","5578","53445","Lexical Decision Task","11","12336","13","yes","1024"
"3.121778632","0","9","sark","non-word","85.71428571428571","85.71428571428571","936.7142857142857","936.7142857142857","black","no","legacy","legacy","legacy","0","uniform","1","undefined","undefined","undefined","1","f","0","0","0","0","13","0","0","0","13","NA","9","13","9","0","9","3","13","0","13","Tue Mar 16 19:57:31 2021","The main experiment item","yes","Lexical_Decision_Task.osexp","/Users/adombeblanchard/Desktop","no","Andale Mono","no","18","no","white","no","yes","576","legacy","9","9","3","/Users/adombeblanchard/Documents/subject-5212035.csv","legacy","Lentiform Loewenfeld","3.3.8","yes","yes","600bd7cfb6416f0113b04181","602110864497cf011d9c0822","0","f","NA","j","j","j","NA","f","778","NA","7048","7083","7507","NA","778","2","legacy","1024","2","48000","-16","task","5212035","odd","NA","28698","37750","30701","57660","5593","20208","12697","58164","NA","57657","58165","57593","37750","58944","26947","57092","5578","53445","Lexical Decision Task","12","13114","14","yes","1024"
"3.091901331","0","9","nipe","non-word","86.66666666666667","86.66666666666667","930.6666666666666","930.6666666666666","black","no","legacy","legacy","legacy","0","uniform","1","undefined","undefined","undefined","1","f","0","0","0","0","14","0","0","0","14","NA","10","14","10","0","10","3","14","0","14","Tue Mar 16 19:57:31 2021","The main experiment item","yes","Lexical_Decision_Task.osexp","/Users/adombeblanchard/Desktop","no","Andale Mono","no","18","no","white","no","yes","576","legacy","10","10","3","/Users/adombeblanchard/Documents/subject-5212035.csv","legacy","Lentiform Loewenfeld","3.3.8","yes","yes","600bd7cfb6416f0113b04181","602110864497cf011d9c0822","0","f","NA","j","j","j","NA","f","846","NA","7048","7083","7507","NA","846","2","legacy","1024","2","48000","-16","task","5212035","odd","NA","28698","37750","30701","59509","5593","20208","12697","60014","NA","59506","60014","59450","37750","60862","26947","58949","5578","53445","Lexical Decision Task","13","13960","15","yes","1024"
"3.372543801","9.24","8","coat","word","87.5","87.5","914","914","black","no","legacy","legacy","legacy","0","uniform","1","undefined","undefined","undefined","1","j","0","0","0","0","15","0","0","0","15","NA","11","15","11","0","11","3","15","0","15","Tue Mar 16 19:57:31 2021","The main experiment item","yes","Lexical_Decision_Task.osexp","/Users/adombeblanchard/Desktop","no","Andale Mono","no","18","no","white","no","yes","576","legacy","11","11","3","/Users/adombeblanchard/Documents/subject-5212035.csv","legacy","Lentiform Loewenfeld","3.3.8","yes","yes","600bd7cfb6416f0113b04181","602110864497cf011d9c0822","0","j","NA","j","j","j","NA","j","664","NA","7048","7083","7507","NA","664","2","legacy","1024","2","48000","-16","task","5212035","odd","NA","28698","37750","30701","61425","5593","20208","12697","61929","NA","61423","61929","61368","37750","62594","26947","60868","5578","53445","Lexical Decision Task","14","14624","16","yes","1024"
"2.819763221","0","2","durp","non-word","88.23529411764706","88.23529411764706","917.2352941176471","917.2352941176471","black","no","legacy","legacy","legacy","0","uniform","1","undefined","undefined","undefined","1","f","0","0","0","0","16","0","0","0","16","NA","12","16","12","0","12","3","16","0","16","Tue Mar 16 19:57:31 2021","The main experiment item","yes","Lexical_Decision_Task.osexp","/Users/adombeblanchard/Desktop","no","Andale Mono","no","18","no","white","no","yes","576","legacy","12","12","3","/Users/adombeblanchard/Documents/subject-5212035.csv","legacy","Lentiform Loewenfeld","3.3.8","yes","yes","600bd7cfb6416f0113b04181","602110864497cf011d9c0822","0","f","NA","j","j","j","NA","f","969","NA","7048","7083","7507","NA","969","2","legacy","1024","2","48000","-16","task","5212035","odd","NA","28698","37750","30701","63155","5593","20208","12697","63658","NA","63152","63658","63101","37750","64628","26947","62601","5578","53445","Lexical Decision Task","15","15593","17","yes","1024"
"3.269668578","0","7","trag","non-word","88.88888888888889","88.88888888888889","917.5","917.5","black","no","legacy","legacy","legacy","0","uniform","1","undefined","undefined","undefined","1","f","0","0","0","0","17","0","0","0","17","NA","13","17","13","0","13","3","17","0","17","Tue Mar 16 19:57:31 2021","The main experiment item","yes","Lexical_Decision_Task.osexp","/Users/adombeblanchard/Desktop","no","Andale Mono","no","18","no","white","no","yes","576","legacy","13","13","3","/Users/adombeblanchard/Documents/subject-5212035.csv","legacy","Lentiform Loewenfeld","3.3.8","yes","yes","600bd7cfb6416f0113b04181","602110864497cf011d9c0822","0","f","NA","j","j","j","NA","f","922","NA","7048","7083","7507","NA","922","2","legacy","1024","2","48000","-16","task","5212035","odd","NA","28698","37750","30701","65191","5593","20208","12697","65694","NA","65187","65694","65135","37750","66617","26947","64634","5578","53445","Lexical Decision Task","16","16515","18","yes","1024"
"2.966923697","5.4","2","fume","word","84.21052631578948","84.21052631578948","920.5263157894736","920.5263157894736","black","no","legacy","legacy","legacy","0","uniform","0","undefined","undefined","undefined","0","j","0","0","0","0","18","0","0","0","18","NA","14","18","14","0","14","3","18","0","18","Tue Mar 16 19:57:31 2021","The main experiment item","yes","Lexical_Decision_Task.osexp","/Users/adombeblanchard/Desktop","no","Andale Mono","no","18","no","white","no","yes","576","legacy","14","14","3","/Users/adombeblanchard/Documents/subject-5212035.csv","legacy","Lentiform Loewenfeld","3.3.8","yes","yes","600bd7cfb6416f0113b04181","602110864497cf011d9c0822","0","f","NA","j","j","j","NA","f","975","NA","7048","7083","7507","NA","975","2","legacy","1024","2","48000","-16","task","5212035","odd","NA","28698","37750","30701","67177","5593","20208","12697","67681","NA","67175","67682","67123","37750","68658","26947","66623","5578","53445","Lexical Decision Task","16","17490","19","yes","1024"
"2.873320602","0","4","lurg","non-word","85","85","922.65","922.65","black","no","legacy","legacy","legacy","0","uniform","1","undefined","undefined","undefined","1","f","0","0","0","0","19","0","0","0","19","NA","15","19","15","0","15","3","19","0","19","Tue Mar 16 19:57:31 2021","The main experiment item","yes","Lexical_Decision_Task.osexp","/Users/adombeblanchard/Desktop","no","Andale Mono","no","18","no","white","no","yes","576","legacy","15","15","3","/Users/adombeblanchard/Documents/subject-5212035.csv","legacy","Lentiform Loewenfeld","3.3.8","yes","yes","600bd7cfb6416f0113b04181","602110864497cf011d9c0822","0","f","NA","j","j","j","NA","f","963","NA","7048","7083","7507","NA","963","2","legacy","1024","2","48000","-16","task","5212035","odd","NA","28698","37750","30701","70221","5593","20208","12697","70724","NA","70218","70724","70164","37750","71688","26947","66623","5578","68663","Lexical Decision Task","17","18453","20","yes","1024"
"3.257359335","8","6","brew","word","85.71428571428571","85.71428571428571","949.3809523809524","949.3809523809524","black","no","legacy","legacy","legacy","0","uniform","1","undefined","undefined","undefined","1","j","0","0","0","0","20","0","0","0","20","NA","16","20","16","0","16","3","20","0","20","Tue Mar 16 19:57:31 2021","The main experiment item","yes","Lexical_Decision_Task.osexp","/Users/adombeblanchard/Desktop","no","Andale Mono","no","18","no","white","no","yes","576","legacy","16","16","3","/Users/adombeblanchard/Documents/subject-5212035.csv","legacy","Lentiform Loewenfeld","3.3.8","yes","yes","600bd7cfb6416f0113b04181","602110864497cf011d9c0822","0","j","NA","j","j","j","NA","j","1484","NA","7048","7083","7507","NA","1484","2","legacy","1024","2","48000","-16","task","5212035","odd","NA","28698","37750","30701","72247","5593","20208","12697","72750","NA","72245","72750","72194","37750","74236","26947","71694","5578","68663","Lexical Decision Task","18","19937","21","yes","1024"
"3.090140555","5.81","8","pout","word","86.36363636363636","86.36363636363636","944.6818181818181","944.6818181818181","black","no","legacy","legacy","legacy","0","uniform","1","undefined","undefined","undefined","1","j","0","0","0","0","21","0","0","0","21","NA","17","21","17","0","17","3","21","0","21","Tue Mar 16 19:57:31 2021","The main experiment item","yes","Lexical_Decision_Task.osexp","/Users/adombeblanchard/Desktop","no","Andale Mono","no","18","no","white","no","yes","576","legacy","17","17","3","/Users/adombeblanchard/Documents/subject-5212035.csv","legacy","Lentiform Loewenfeld","3.3.8","yes","yes","600bd7cfb6416f0113b04181","602110864497cf011d9c0822","0","j","NA","j","j","j","NA","j","846","NA","7048","7083","7507","NA","846","2","legacy","1024","2","48000","-16","task","5212035","odd","NA","28698","37750","30701","74803","5593","20208","12697","75306","NA","74800","75307","74741","37750","76154","26947","74241","5578","68663","Lexical Decision Task","19","20783","22","yes","1024"
"3.208172527","10.27","7","deck","word","86.95652173913044","86.95652173913044","945.1304347826087","945.1304347826087","black","no","legacy","legacy","legacy","0","uniform","1","undefined","undefined","undefined","1","j","0","0","0","0","22","0","0","0","22","NA","18","22","18","0","18","3","22","0","22","Tue Mar 16 19:57:31 2021","The main experiment item","yes","Lexical_Decision_Task.osexp","/Users/adombeblanchard/Desktop","no","Andale Mono","no","18","no","white","no","yes","576","legacy","18","18","3","/Users/adombeblanchard/Documents/subject-5212035.csv","legacy","Lentiform Loewenfeld","3.3.8","yes","yes","600bd7cfb6416f0113b04181","602110864497cf011d9c0822","0","j","NA","j","j","j","NA","j","955","NA","7048","7083","7507","NA","955","2","legacy","1024","2","48000","-16","task","5212035","odd","NA","28698","37750","30701","76715","5593","20208","12697","77219","NA","76713","77220","76660","37750","78176","26947","76159","5578","68663","Lexical Decision Task","20","21738","23","yes","1024"
"2.983324025","9.56","2","debt","word","87.5","87.5","951.2916666666666","951.2916666666666","black","no","legacy","legacy","legacy","0","uniform","1","undefined","undefined","undefined","1","j","0","0","0","0","23","0","0","0","23","NA","19","23","19","0","19","3","23","0","23","Tue Mar 16 19:57:31 2021","The main experiment item","yes","Lexical_Decision_Task.osexp","/Users/adombeblanchard/Desktop","no","Andale Mono","no","18","no","white","no","yes","576","legacy","19","19","3","/Users/adombeblanchard/Documents/subject-5212035.csv","legacy","Lentiform Loewenfeld","3.3.8","yes","yes","600bd7cfb6416f0113b04181","602110864497cf011d9c0822","0","j","NA","j","j","j","NA","j","1093","NA","7048","7083","7507","NA","1093","2","legacy","1024","2","48000","-16","task","5212035","odd","NA","28698","37750","30701","78740","5593","20208","12697","79243","NA","78737","79244","78682","37750","80338","26947","78182","5578","68663","Lexical Decision Task","21","22831","24","yes","1024"
"2.616654026","9.37","5","gift","word","88","88","945.12","945.12","black","no","legacy","legacy","legacy","0","uniform","1","undefined","undefined","undefined","1","j","0","0","0","0","24","0","0","0","24","NA","20","24","20","0","20","3","24","0","24","Tue Mar 16 19:57:31 2021","The main experiment item","yes","Lexical_Decision_Task.osexp","/Users/adombeblanchard/Desktop","no","Andale Mono","no","18","no","white","no","yes","576","legacy","20","20","3","/Users/adombeblanchard/Documents/subject-5212035.csv","legacy","Lentiform Loewenfeld","3.3.8","yes","yes","600bd7cfb6416f0113b04181","602110864497cf011d9c0822","0","j","NA","j","j","j","NA","j","797","NA","7048","7083","7507","NA","797","2","legacy","1024","2","48000","-16","task","5212035","odd","NA","28698","37750","30701","80899","5593","20208","12697","81402","NA","80896","81403","80843","37750","82200","26947","80343","5578","68663","Lexical Decision Task","22","23628","25","yes","1024"
"3.303771854","0","9","dath","non-word","88.46153846153847","88.46153846153847","943.3846153846154","943.3846153846154","black","no","legacy","legacy","legacy","0","uniform","1","undefined","undefined","undefined","1","f","0","0","0","0","25","0","0","0","25","NA","21","25","21","0","21","3","25","0","25","Tue Mar 16 19:57:31 2021","The main experiment item","yes","Lexical_Decision_Task.osexp","/Users/adombeblanchard/Desktop","no","Andale Mono","no","18","no","white","no","yes","576","legacy","21","21","3","/Users/adombeblanchard/Documents/subject-5212035.csv","legacy","Lentiform Loewenfeld","3.3.8","yes","yes","600bd7cfb6416f0113b04181","602110864497cf011d9c0822","0","f","NA","j","j","j","NA","f","900","NA","7048","7083","7507","NA","900","2","legacy","1024","2","48000","-16","task","5212035","odd","NA","28698","37750","30701","82761","5593","20208","12697","83263","NA","82758","83263","82706","37750","84165","26947","82206","5578","68663","Lexical Decision Task","23","24528","26","yes","1024"
"3.20871002","7.15","8","cram","word","88.88888888888889","88.88888888888889","940.3333333333334","940.3333333333334","black","no","legacy","legacy","legacy","0","uniform","1","undefined","undefined","undefined","1","j","0","0","0","0","26","0","0","0","26","NA","22","26","22","0","22","3","26","0","26","Tue Mar 16 19:57:31 2021","The main experiment item","yes","Lexical_Decision_Task.osexp","/Users/adombeblanchard/Desktop","no","Andale Mono","no","18","no","white","no","yes","576","legacy","22","22","3","/Users/adombeblanchard/Documents/subject-5212035.csv","legacy","Lentiform Loewenfeld","3.3.8","yes","yes","600bd7cfb6416f0113b04181","602110864497cf011d9c0822","0","j","NA","j","j","j","NA","j","861","NA","7048","7083","7507","NA","861","2","legacy","1024","2","48000","-16","task","5212035","odd","NA","28698","37750","30701","84724","5593","20208","12697","85228","NA","84721","85229","84670","37750","86091","26947","84170","5578","68663","Lexical Decision Task","24","25389","27","yes","1024"
"2.82129731","6.72","5","plum","word","89.28571428571429","89.28571428571429","930.8571428571429","930.8571428571429","black","no","legacy","legacy","legacy","0","uniform","1","undefined","undefined","undefined","1","j","0","0","0","0","27","0","0","0","27","NA","23","27","23","0","23","3","27","0","27","Tue Mar 16 19:57:31 2021","The main experiment item","yes","Lexical_Decision_Task.osexp","/Users/adombeblanchard/Desktop","no","Andale Mono","no","18","no","white","no","yes","576","legacy","23","23","3","/Users/adombeblanchard/Documents/subject-5212035.csv","legacy","Lentiform Loewenfeld","3.3.8","yes","yes","600bd7cfb6416f0113b04181","602110864497cf011d9c0822","0","j","NA","j","j","j","NA","j","675","NA","7048","7083","7507","NA","675","2","legacy","1024","2","48000","-16","task","5212035","odd","NA","28698","37750","30701","86662","5593","20208","12697","87166","NA","86660","87167","86597","37750","87843","26947","86097","5578","68663","Lexical Decision Task","25","26064","28","yes","1024"
"3.140404328","10.66","9","deep","word","89.65517241379311","89.65517241379311","922.551724137931","922.551724137931","black","no","legacy","legacy","legacy","0","uniform","1","undefined","undefined","undefined","1","j","0","0","0","0","28","0","0","0","28","NA","24","28","24","0","24","3","28","0","28","Tue Mar 16 19:57:31 2021","The main experiment item","yes","Lexical_Decision_Task.osexp","/Users/adombeblanchard/Desktop","no","Andale Mono","no","18","no","white","no","yes","576","legacy","24","24","3","/Users/adombeblanchard/Documents/subject-5212035.csv","legacy","Lentiform Loewenfeld","3.3.8","yes","yes","600bd7cfb6416f0113b04181","602110864497cf011d9c0822","0","j","NA","j","j","j","NA","j","690","NA","7048","7083","7507","NA","690","2","legacy","1024","2","48000","-16","task","5212035","odd","NA","28698","37750","30701","88401","5593","20208","12697","88905","NA","88399","88906","88348","37750","89598","26947","87848","5578","68663","Lexical Decision Task","26","26754","29","yes","1024"
"3.156347201","0","8","lasp","non-word","90","90","917.8666666666667","917.8666666666667","black","no","legacy","legacy","legacy","0","uniform","1","undefined","undefined","undefined","1","f","0","0","0","0","29","0","0","0","29","NA","25","29","25","0","25","3","29","0","29","Tue Mar 16 19:57:31 2021","The main experiment item","yes","Lexical_Decision_Task.osexp","/Users/adombeblanchard/Desktop","no","Andale Mono","no","18","no","white","no","yes","576","legacy","25","25","3","/Users/adombeblanchard/Documents/subject-5212035.csv","legacy","Lentiform Loewenfeld","3.3.8","yes","yes","600bd7cfb6416f0113b04181","602110864497cf011d9c0822","0","f","NA","j","j","j","NA","f","782","NA","7048","7083","7507","NA","782","2","legacy","1024","2","48000","-16","task","5212035","odd","NA","28698","37750","30701","90158","5593","20208","12697","90660","NA","90155","90661","90104","37750","91444","26947","89604","5578","68663","Lexical Decision Task","27","27536","30","yes","1024"
"2.807758206","6.25","4","hurl","word","90.3225806451613","90.3225806451613","909.5483870967741","909.5483870967741","black","no","legacy","legacy","legacy","0","uniform","1","undefined","undefined","undefined","1","j","0","0","0","0","30","0","0","0","30","NA","26","30","26","0","26","3","30","0","30","Tue Mar 16 19:57:31 2021","The main experiment item","yes","Lexical_Decision_Task.osexp","/Users/adombeblanchard/Desktop","no","Andale Mono","no","18","no","white","no","yes","576","legacy","26","26","3","/Users/adombeblanchard/Documents/subject-5212035.csv","legacy","Lentiform Loewenfeld","3.3.8","yes","yes","600bd7cfb6416f0113b04181","602110864497cf011d9c0822","0","j","NA","j","j","j","NA","j","660","NA","7048","7083","7507","NA","660","2","legacy","1024","2","48000","-16","task","5212035","odd","NA","28698","37750","30701","92003","5593","20208","12697","92507","NA","92001","92508","91950","37750","93169","26947","91450","5578","68663","Lexical Decision Task","28","28196","31","yes","1024"
"3.076883066","0","8","mout","non-word","87.5","87.5","899.0625","899.0625","black","no","legacy","legacy","legacy","0","uniform","0","undefined","undefined","undefined","0","f","0","0","0","0","31","0","0","0","31","NA","27","31","27","0","27","3","31","0","31","Tue Mar 16 19:57:31 2021","The main experiment item","yes","Lexical_Decision_Task.osexp","/Users/adombeblanchard/Desktop","no","Andale Mono","no","18","no","white","no","yes","576","legacy","27","27","3","/Users/adombeblanchard/Documents/subject-5212035.csv","legacy","Lentiform Loewenfeld","3.3.8","yes","yes","600bd7cfb6416f0113b04181","602110864497cf011d9c0822","0","j","NA","j","j","j","NA","j","574","NA","7048","7083","7507","NA","574","2","legacy","1024","2","48000","-16","task","5212035","odd","NA","28698","37750","30701","93730","5593","20208","12697","94233","NA","93727","94234","93675","37750","94810","26947","93175","5578","68663","Lexical Decision Task","28","28770","32","yes","1024"
"3.374137706","10.21","4","tree","word","87.87878787878788","87.87878787878788","892.2424242424242","892.2424242424242","black","no","legacy","legacy","legacy","0","uniform","1","undefined","undefined","undefined","1","j","0","0","0","0","32","0","0","0","32","NA","28","32","28","0","28","3","32","0","32","Tue Mar 16 19:57:31 2021","The main experiment item","yes","Lexical_Decision_Task.osexp","/Users/adombeblanchard/Desktop","no","Andale Mono","no","18","no","white","no","yes","576","legacy","28","28","3","/Users/adombeblanchard/Documents/subject-5212035.csv","legacy","Lentiform Loewenfeld","3.3.8","yes","yes","600bd7cfb6416f0113b04181","602110864497cf011d9c0822","0","j","NA","j","j","j","NA","j","674","NA","7048","7083","7507","NA","674","2","legacy","1024","2","48000","-16","task","5212035","odd","NA","28698","37750","30701","96374","5593","20208","12697","96877","NA","96371","96877","96316","37750","97552","26947","93175","5578","94816","Lexical Decision Task","29","29444","33","yes","1024"
"2.809559715","8.44","4","volt","word","88.23529411764706","88.23529411764706","888.3529411764706","888.3529411764706","black","no","legacy","legacy","legacy","0","uniform","1","undefined","undefined","undefined","1","j","0","0","0","0","33","0","0","0","33","NA","29","33","29","0","29","3","33","0","33","Tue Mar 16 19:57:31 2021","The main experiment item","yes","Lexical_Decision_Task.osexp","/Users/adombeblanchard/Desktop","no","Andale Mono","no","18","no","white","no","yes","576","legacy","29","29","3","/Users/adombeblanchard/Documents/subject-5212035.csv","legacy","Lentiform Loewenfeld","3.3.8","yes","yes","600bd7cfb6416f0113b04181","602110864497cf011d9c0822","0","j","NA","j","j","j","NA","j","760","NA","7048","7083","7507","NA","760","2","legacy","1024","2","48000","-16","task","5212035","odd","NA","28698","37750","30701","98111","5593","20208","12697","98613","NA","98108","98614","98057","37750","99376","26947","97556","5578","94816","Lexical Decision Task","30","30204","34","yes","1024"
"2.6599162","0","6","flug","non-word","88.57142857142857","88.57142857142857","891.3714285714286","891.3714285714286","black","no","legacy","legacy","legacy","0","uniform","1","undefined","undefined","undefined","1","f","0","0","0","0","34","0","0","0","34","NA","30","34","30","0","30","3","34","0","34","Tue Mar 16 19:57:31 2021","The main experiment item","yes","Lexical_Decision_Task.osexp","/Users/adombeblanchard/Desktop","no","Andale Mono","no","18","no","white","no","yes","576","legacy","30","30","3","/Users/adombeblanchard/Documents/subject-5212035.csv","legacy","Lentiform Loewenfeld","3.3.8","yes","yes","600bd7cfb6416f0113b04181","602110864497cf011d9c0822","0","f","NA","j","j","j","NA","f","994","NA","7048","7083","7507","NA","994","2","legacy","1024","2","48000","-16","task","5212035","odd","NA","28698","37750","30701","99938","5593","20208","12697","100441","NA","99935","100442","99881","37750","101437","26947","99380","5578","94816","Lexical Decision Task","31","31198","35","yes","1024"
"2.996511672","0","7","hoil","non-word","86.11111111111111","86.11111111111111","924.0833333333334","924.0833333333334","black","no","legacy","legacy","legacy","0","uniform","0","undefined","undefined","undefined","0","f","0","0","0","0","35","0","0","0","35","NA","31","35","31","0","31","3","35","0","35","Tue Mar 16 19:57:31 2021","The main experiment item","yes","Lexical_Decision_Task.osexp","/Users/adombeblanchard/Desktop","no","Andale Mono","no","18","no","white","no","yes","576","legacy","31","31","3","/Users/adombeblanchard/Documents/subject-5212035.csv","legacy","Lentiform Loewenfeld","3.3.8","yes","yes","600bd7cfb6416f0113b04181","602110864497cf011d9c0822","0","j","NA","j","j","j","NA","j","2069","NA","7048","7083","7507","NA","2069","2","legacy","1024","2","48000","-16","task","5212035","odd","NA","28698","37750","30701","101997","5593","20208","12697","102500","NA","101994","102501","101943","37750","104572","26947","101443","5578","94816","Lexical Decision Task","31","33267","36","yes","1024"
"2.803231716","5.26","3","kiln","word","86.48648648648648","86.48648648648648","928.2702702702703","928.2702702702703","black","no","legacy","legacy","legacy","0","uniform","1","undefined","undefined","undefined","1","j","0","0","0","0","36","0","0","0","36","NA","32","36","32","0","32","3","36","0","36","Tue Mar 16 19:57:31 2021","The main experiment item","yes","Lexical_Decision_Task.osexp","/Users/adombeblanchard/Desktop","no","Andale Mono","no","18","no","white","no","yes","576","legacy","32","32","3","/Users/adombeblanchard/Documents/subject-5212035.csv","legacy","Lentiform Loewenfeld","3.3.8","yes","yes","600bd7cfb6416f0113b04181","602110864497cf011d9c0822","0","j","NA","j","j","j","NA","j","1079","NA","7048","7083","7507","NA","1079","2","legacy","1024","2","48000","-16","task","5212035","odd","NA","28698","37750","30701","106134","5593","20208","12697","106636","NA","106131","106636","106077","37750","107717","26947","101443","5578","104577","Lexical Decision Task","32","34346","37","yes","1024"
"3.431095062","5.74","9","perk","word","86.84210526315789","86.84210526315789","922.3157894736842","922.3157894736842","black","no","legacy","legacy","legacy","0","uniform","1","undefined","undefined","undefined","1","j","0","0","0","0","37","0","0","0","37","NA","33","37","33","0","33","3","37","0","37","Tue Mar 16 19:57:31 2021","The main experiment item","yes","Lexical_Decision_Task.osexp","/Users/adombeblanchard/Desktop","no","Andale Mono","no","18","no","white","no","yes","576","legacy","33","33","3","/Users/adombeblanchard/Documents/subject-5212035.csv","legacy","Lentiform Loewenfeld","3.3.8","yes","yes","600bd7cfb6416f0113b04181","602110864497cf011d9c0822","0","j","NA","j","j","j","NA","j","702","NA","7048","7083","7507","NA","702","2","legacy","1024","2","48000","-16","task","5212035","odd","NA","28698","37750","30701","108276","5593","20208","12697","108779","NA","108273","108780","108222","37750","109483","26947","107722","5578","104577","Lexical Decision Task","33","35048","38","yes","1024"
"2.899638141","0","3","hapt","non-word","87.17948717948718","87.17948717948718","920.8205128205128","920.8205128205128","black","no","legacy","legacy","legacy","0","uniform","1","undefined","undefined","undefined","1","f","0","0","0","0","38","0","0","0","38","NA","34","38","34","0","34","3","38","0","38","Tue Mar 16 19:57:31 2021","The main experiment item","yes","Lexical_Decision_Task.osexp","/Users/adombeblanchard/Desktop","no","Andale Mono","no","18","no","white","no","yes","576","legacy","34","34","3","/Users/adombeblanchard/Documents/subject-5212035.csv","legacy","Lentiform Loewenfeld","3.3.8","yes","yes","600bd7cfb6416f0113b04181","602110864497cf011d9c0822","0","f","NA","j","j","j","NA","f","864","NA","7048","7083","7507","NA","864","2","legacy","1024","2","48000","-16","task","5212035","odd","NA","28698","37750","30701","110044","5593","20208","12697","110546","NA","110041","110547","109990","37750","111413","26947","109489","5578","104577","Lexical Decision Task","34","35912","39","yes","1024"
"2.838639236","0","4","furg","non-word","87.5","87.5","915.05","915.05","black","no","legacy","legacy","legacy","0","uniform","1","undefined","undefined","undefined","1","f","0","0","0","0","39","0","0","0","39","NA","35","39","35","0","35","3","39","0","39","Tue Mar 16 19:57:31 2021","The main experiment item","yes","Lexical_Decision_Task.osexp","/Users/adombeblanchard/Desktop","no","Andale Mono","no","18","no","white","no","yes","576","legacy","35","35","3","/Users/adombeblanchard/Documents/subject-5212035.csv","legacy","Lentiform Loewenfeld","3.3.8","yes","yes","600bd7cfb6416f0113b04181","602110864497cf011d9c0822","0","f","NA","j","j","j","NA","f","690","NA","7048","7083","7507","NA","690","2","legacy","1024","2","48000","-16","task","5212035","odd","NA","28698","37750","30701","111974","5593","20208","12697","112477","NA","111971","112478","111918","37750","113169","26947","111418","5578","104577","Lexical Decision Task","35","36602","40","yes","1024"
"3.443783828","7.65","3","verb","word","87.8048780487805","87.8048780487805","910.0975609756098","910.0975609756098","black","no","legacy","legacy","legacy","0","uniform","1","undefined","undefined","undefined","1","j","0","0","0","0","40","0","0","0","40","NA","36","40","36","0","36","3","40","0","40","Tue Mar 16 19:57:31 2021","The main experiment item","yes","Lexical_Decision_Task.osexp","/Users/adombeblanchard/Desktop","no","Andale Mono","no","18","no","white","no","yes","576","legacy","36","36","3","/Users/adombeblanchard/Documents/subject-5212035.csv","legacy","Lentiform Loewenfeld","3.3.8","yes","yes","600bd7cfb6416f0113b04181","602110864497cf011d9c0822","0","j","NA","j","j","j","NA","j","712","NA","7048","7083","7507","NA","712","2","legacy","1024","2","48000","-16","task","5212035","odd","NA","28698","37750","30701","113736","5593","20208","12697","114239","NA","113733","114240","113675","37750","114953","26947","113175","5578","104577","Lexical Decision Task","36","37314","41","yes","1024"
"2.80048796","0","8","pife","non-word","88.0952380952381","88.0952380952381","907.1190476190476","907.1190476190476","black","no","legacy","legacy","legacy","0","uniform","1","undefined","undefined","undefined","1","f","0","0","0","0","41","0","0","0","41","NA","37","41","37","0","37","3","41","0","41","Tue Mar 16 19:57:31 2021","The main experiment item","yes","Lexical_Decision_Task.osexp","/Users/adombeblanchard/Desktop","no","Andale Mono","no","18","no","white","no","yes","576","legacy","37","37","3","/Users/adombeblanchard/Documents/subject-5212035.csv","legacy","Lentiform Loewenfeld","3.3.8","yes","yes","600bd7cfb6416f0113b04181","602110864497cf011d9c0822","0","f","NA","j","j","j","NA","f","785","NA","7048","7083","7507","NA","785","2","legacy","1024","2","48000","-16","task","5212035","odd","NA","28698","37750","30701","115521","5593","20208","12697","116024","NA","115517","116025","115458","37750","116811","26947","114958","5578","104577","Lexical Decision Task","37","38099","42","yes","1024"
"3.049218023","7.4","9","robe","word","88.37209302325581","88.37209302325581","905.0232558139535","905.0232558139535","black","no","legacy","legacy","legacy","0","uniform","1","undefined","undefined","undefined","1","j","0","0","0","0","42","0","0","0","42","NA","38","42","38","0","38","3","42","0","42","Tue Mar 16 19:57:31 2021","The main experiment item","yes","Lexical_Decision_Task.osexp","/Users/adombeblanchard/Desktop","no","Andale Mono","no","18","no","white","no","yes","576","legacy","38","38","3","/Users/adombeblanchard/Documents/subject-5212035.csv","legacy","Lentiform Loewenfeld","3.3.8","yes","yes","600bd7cfb6416f0113b04181","602110864497cf011d9c0822","0","j","NA","j","j","j","NA","j","817","NA","7048","7083","7507","NA","817","2","legacy","1024","2","48000","-16","task","5212035","odd","NA","28698","37750","30701","117374","5593","20208","12697","117878","NA","117372","117878","117318","37750","118697","26947","116818","5578","104577","Lexical Decision Task","38","38916","43","yes","1024"
"3.062080345","0","6","tomp","non-word","88.63636363636364","88.63636363636364","903.3181818181819","903.3181818181819","black","no","legacy","legacy","legacy","0","uniform","1","undefined","undefined","undefined","1","f","0","0","0","0","43","0","0","0","43","NA","39","43","39","0","39","3","43","0","43","Tue Mar 16 19:57:31 2021","The main experiment item","yes","Lexical_Decision_Task.osexp","/Users/adombeblanchard/Desktop","no","Andale Mono","no","18","no","white","no","yes","576","legacy","39","39","3","/Users/adombeblanchard/Documents/subject-5212035.csv","legacy","Lentiform Loewenfeld","3.3.8","yes","yes","600bd7cfb6416f0113b04181","602110864497cf011d9c0822","0","f","NA","j","j","j","NA","f","830","NA","7048","7083","7507","NA","830","2","legacy","1024","2","48000","-16","task","5212035","odd","NA","28698","37750","30701","119260","5593","20208","12697","119762","NA","119257","119763","119204","37750","120595","26947","118703","5578","104577","Lexical Decision Task","39","39746","44","yes","1024"
"3.043885998","0","9","gome","non-word","86.66666666666667","86.66666666666667","901.7555555555556","901.7555555555556","black","no","legacy","legacy","legacy","0","uniform","0","undefined","undefined","undefined","0","f","0","0","0","0","44","0","0","0","44","NA","40","44","40","0","40","3","44","0","44","Tue Mar 16 19:57:31 2021","The main experiment item","yes","Lexical_Decision_Task.osexp","/Users/adombeblanchard/Desktop","no","Andale Mono","no","18","no","white","no","yes","576","legacy","40","40","3","/Users/adombeblanchard/Documents/subject-5212035.csv","legacy","Lentiform Loewenfeld","3.3.8","yes","yes","600bd7cfb6416f0113b04181","602110864497cf011d9c0822","0","j","NA","j","j","j","NA","j","833","NA","7048","7083","7507","NA","833","2","legacy","1024","2","48000","-16","task","5212035","odd","NA","28698","37750","30701","121157","5593","20208","12697","121659","NA","121154","121660","121101","37750","122494","26947","120600","5578","104577","Lexical Decision Task","39","40579","45","yes","1024"
"2.744553742","0","2","nawk","non-word","86.95652173913044","86.95652173913044","937.7826086956521","937.7826086956521","black","no","legacy","legacy","legacy","0","uniform","1","undefined","undefined","undefined","1","f","0","0","0","0","45","0","0","0","45","NA","41","45","41","0","41","3","45","0","45","Tue Mar 16 19:57:31 2021","The main experiment item","yes","Lexical_Decision_Task.osexp","/Users/adombeblanchard/Desktop","no","Andale Mono","no","18","no","white","no","yes","576","legacy","41","41","3","/Users/adombeblanchard/Documents/subject-5212035.csv","legacy","Lentiform Loewenfeld","3.3.8","yes","yes","600bd7cfb6416f0113b04181","602110864497cf011d9c0822","0","f","NA","j","j","j","NA","f","2559","NA","7048","7083","7507","NA","2559","2","legacy","1024","2","48000","-16","task","5212035","odd","NA","28698","37750","30701","124057","5593","20208","12697","124559","NA","124054","124560","124000","37750","127120","26947","120600","5578","122500","Lexical Decision Task","40","43138","46","yes","1024"
"2.972357144","0","5","dasp","non-word","87.23404255319149","87.23404255319149","934.3617021276596","934.3617021276596","black","no","legacy","legacy","legacy","0","uniform","1","undefined","undefined","undefined","1","f","0","0","0","0","46","0","0","0","46","NA","42","46","42","0","42","3","46","0","46","Tue Mar 16 19:57:31 2021","The main experiment item","yes","Lexical_Decision_Task.osexp","/Users/adombeblanchard/Desktop","no","Andale Mono","no","18","no","white","no","yes","576","legacy","42","42","3","/Users/adombeblanchard/Documents/subject-5212035.csv","legacy","Lentiform Loewenfeld","3.3.8","yes","yes","600bd7cfb6416f0113b04181","602110864497cf011d9c0822","0","f","NA","j","j","j","NA","f","777","NA","7048","7083","7507","NA","777","2","legacy","1024","2","48000","-16","task","5212035","odd","NA","28698","37750","30701","127699","5593","20208","12697","128202","NA","127696","128202","127626","37750","128980","26947","127126","5578","122500","Lexical Decision Task","41","43915","47","yes","1024"
"2.980306438","0","7","slun","non-word","87.5","87.5","934.0625","934.0625","black","no","legacy","legacy","legacy","0","uniform","1","undefined","undefined","undefined","1","f","0","0","0","0","47","0","0","0","47","NA","43","47","43","0","43","3","47","0","47","Tue Mar 16 19:57:31 2021","The main experiment item","yes","Lexical_Decision_Task.osexp","/Users/adombeblanchard/Desktop","no","Andale Mono","no","18","no","white","no","yes","576","legacy","43","43","3","/Users/adombeblanchard/Documents/subject-5212035.csv","legacy","Lentiform Loewenfeld","3.3.8","yes","yes","600bd7cfb6416f0113b04181","602110864497cf011d9c0822","0","f","NA","j","j","j","NA","f","920","NA","7048","7083","7507","NA","920","2","legacy","1024","2","48000","-16","task","5212035","odd","NA","28698","37750","30701","129552","5593","20208","12697","130055","NA","129549","130055","129486","37750","130976","26947","128986","5578","122500","Lexical Decision Task","42","44835","48","yes","1024"
"2.767650507","0","6","yolt","non-word","85.71428571428571","85.71428571428571","930.9795918367347","930.9795918367347","black","no","legacy","legacy","legacy","0","uniform","0","undefined","undefined","undefined","0","f","0","0","0","0","48","0","0","0","48","NA","44","48","44","0","44","3","48","0","48","Tue Mar 16 19:57:31 2021","The main experiment item","yes","Lexical_Decision_Task.osexp","/Users/adombeblanchard/Desktop","no","Andale Mono","no","18","no","white","no","yes","576","legacy","44","44","3","/Users/adombeblanchard/Documents/subject-5212035.csv","legacy","Lentiform Loewenfeld","3.3.8","yes","yes","600bd7cfb6416f0113b04181","602110864497cf011d9c0822","0","j","NA","j","j","j","NA","j","783","NA","7048","7083","7507","NA","783","2","legacy","1024","2","48000","-16","task","5212035","odd","NA","28698","37750","30701","131553","5593","20208","12697","132056","NA","131550","132057","131482","37750","132841","26947","130982","5578","122500","Lexical Decision Task","42","45618","49","yes","1024"
"2.693726949","5.08","3","swig","word","86","86","936.92","936.92","black","no","legacy","legacy","legacy","0","uniform","1","undefined","undefined","undefined","1","j","0","0","0","0","49","0","0","0","49","NA","45","49","45","0","45","3","49","0","49","Tue Mar 16 19:57:31 2021","The main experiment item","yes","Lexical_Decision_Task.osexp","/Users/adombeblanchard/Desktop","no","Andale Mono","no","18","no","white","no","yes","576","legacy","45","45","3","/Users/adombeblanchard/Documents/subject-5212035.csv","legacy","Lentiform Loewenfeld","3.3.8","yes","yes","600bd7cfb6416f0113b04181","602110864497cf011d9c0822","0","j","NA","j","j","j","NA","j","1228","NA","7048","7083","7507","NA","1228","2","legacy","1024","2","48000","-16","task","5212035","odd","NA","28698","37750","30701","134405","5593","20208","12697","134909","NA","134402","134909","134348","37750","136139","26947","130982","5578","132848","Lexical Decision Task","43","46846","50","yes","1024"
"2.705007959","6.01","4","wept","word","86.27450980392157","86.27450980392157","930.8627450980392","930.8627450980392","black","no","legacy","legacy","legacy","0","uniform","1","undefined","undefined","undefined","1","j","0","0","0","0","50","0","0","0","50","NA","46","50","46","0","46","3","50","0","50","Tue Mar 16 19:57:31 2021","The main experiment item","yes","Lexical_Decision_Task.osexp","/Users/adombeblanchard/Desktop","no","Andale Mono","no","18","no","white","no","yes","576","legacy","46","46","3","/Users/adombeblanchard/Documents/subject-5212035.csv","legacy","Lentiform Loewenfeld","3.3.8","yes","yes","600bd7cfb6416f0113b04181","602110864497cf011d9c0822","0","j","NA","j","j","j","NA","j","628","NA","7048","7083","7507","NA","628","2","legacy","1024","2","48000","-16","task","5212035","odd","NA","28698","37750","30701","136704","5593","20208","12697","137207","NA","136701","137208","136645","37750","137837","26947","136145","5578","132848","Lexical Decision Task","44","47474","51","yes","1024"
"3.20996159","0","4","clee","non-word","86.53846153846153","86.53846153846153","927.3269230769231","927.3269230769231","black","no","legacy","legacy","legacy","0","uniform","1","undefined","undefined","undefined","1","f","0","0","0","0","51","0","0","0","51","NA","47","51","47","0","47","3","51","0","51","Tue Mar 16 19:57:31 2021","The main experiment item","yes","Lexical_Decision_Task.osexp","/Users/adombeblanchard/Desktop","no","Andale Mono","no","18","no","white","no","yes","576","legacy","47","47","3","/Users/adombeblanchard/Documents/subject-5212035.csv","legacy","Lentiform Loewenfeld","3.3.8","yes","yes","600bd7cfb6416f0113b04181","602110864497cf011d9c0822","0","f","NA","j","j","j","NA","f","747","NA","7048","7083","7507","NA","747","2","legacy","1024","2","48000","-16","task","5212035","odd","NA","28698","37750","30701","138397","5593","20208","12697","138899","NA","138394","138900","138344","37750","139648","26947","137844","5578","132848","Lexical Decision Task","45","48221","52","yes","1024"
"3.134602053","0","8","jart","non-word","86.79245283018868","86.79245283018868","922.1698113207547","922.1698113207547","black","no","legacy","legacy","legacy","0","uniform","1","undefined","undefined","undefined","1","f","0","0","0","0","52","0","0","0","52","NA","48","52","48","0","48","3","52","0","52","Tue Mar 16 19:57:31 2021","The main experiment item","yes","Lexical_Decision_Task.osexp","/Users/adombeblanchard/Desktop","no","Andale Mono","no","18","no","white","no","yes","576","legacy","48","48","3","/Users/adombeblanchard/Documents/subject-5212035.csv","legacy","Lentiform Loewenfeld","3.3.8","yes","yes","600bd7cfb6416f0113b04181","602110864497cf011d9c0822","0","f","NA","j","j","j","NA","f","654","NA","7048","7083","7507","NA","654","2","legacy","1024","2","48000","-16","task","5212035","odd","NA","28698","37750","30701","140210","5593","20208","12697","140712","NA","140207","140713","140156","37750","141368","26947","139655","5578","132848","Lexical Decision Task","46","48875","53","yes","1024"
"3.165936429","0","7","leps","non-word","87.03703703703704","87.03703703703704","922.3333333333334","922.3333333333334","black","no","legacy","legacy","legacy","0","uniform","1","undefined","undefined","undefined","1","f","0","0","0","0","53","0","0","0","53","NA","49","53","49","0","49","3","53","0","53","Tue Mar 16 19:57:31 2021","The main experiment item","yes","Lexical_Decision_Task.osexp","/Users/adombeblanchard/Desktop","no","Andale Mono","no","18","no","white","no","yes","576","legacy","49","49","3","/Users/adombeblanchard/Documents/subject-5212035.csv","legacy","Lentiform Loewenfeld","3.3.8","yes","yes","600bd7cfb6416f0113b04181","602110864497cf011d9c0822","0","f","NA","j","j","j","NA","f","931","NA","7048","7083","7507","NA","931","2","legacy","1024","2","48000","-16","task","5212035","odd","NA","28698","37750","30701","141935","5593","20208","12697","142439","NA","141932","142440","141875","37750","143373","26947","141374","5578","132848","Lexical Decision Task","47","49806","54","yes","1024"
"2.8162413","0","5","nusk","non-word","87.27272727272727","87.27272727272727","925.709090909091","925.709090909091","black","no","legacy","legacy","legacy","0","uniform","1","undefined","undefined","undefined","1","f","0","0","0","0","54","0","0","0","54","0","50","54","50","0","50","3","54","0","54","Tue Mar 16 19:57:31 2021","The main experiment item","yes","Lexical_Decision_Task.osexp","/Users/adombeblanchard/Desktop","no","Andale Mono","no","18","no","white","no","yes","576","legacy","50","50","3","/Users/adombeblanchard/Documents/subject-5212035.csv","legacy","Lentiform Loewenfeld","3.3.8","yes","yes","600bd7cfb6416f0113b04181","602110864497cf011d9c0822","0","f","NA","j","j","j","j","f","1108","NA","7048","7083","7507","2560","1108","2","legacy","1024","2","48000","-16","task","5212035","odd","NA","28698","37750","30701","146535","5593","20208","12697","147040","143905","146532","147040","143878","37750","148150","26947","143378","5578","132848","Lexical Decision Task","48","50914","55","yes","1024"
"2.95456409","0","4","taud","non-word","87.5","87.5","920.3035714285714","920.3035714285714","black","no","legacy","legacy","legacy","0","uniform","1","undefined","undefined","undefined","1","f","0","0","0","0","55","0","0","0","55","0","51","55","51","0","51","3","55","0","55","Tue Mar 16 19:57:31 2021","The main experiment item","yes","Lexical_Decision_Task.osexp","/Users/adombeblanchard/Desktop","no","Andale Mono","no","18","no","white","no","yes","576","legacy","51","51","3","/Users/adombeblanchard/Documents/subject-5212035.csv","legacy","Lentiform Loewenfeld","3.3.8","yes","yes","600bd7cfb6416f0113b04181","602110864497cf011d9c0822","0","f","NA","j","j","j","j","f","623","NA","7048","7083","7507","2560","623","2","legacy","1024","2","48000","-16","task","5212035","odd","NA","28698","37750","30701","148710","5593","20208","12697","149213","143905","148707","149214","148656","37750","149838","26947","148155","5578","132848","Lexical Decision Task","49","51537","56","yes","1024"
"2.937852093","0","7","bamp","non-word","87.71929824561404","87.71929824561404","917.8421052631579","917.8421052631579","black","no","legacy","legacy","legacy","0","uniform","1","undefined","undefined","undefined","1","f","0","0","0","0","56","0","0","0","56","0","52","56","52","0","52","3","56","0","56","Tue Mar 16 19:57:31 2021","The main experiment item","yes","Lexical_Decision_Task.osexp","/Users/adombeblanchard/Desktop","no","Andale Mono","no","18","no","white","no","yes","576","legacy","52","52","3","/Users/adombeblanchard/Documents/subject-5212035.csv","legacy","Lentiform Loewenfeld","3.3.8","yes","yes","600bd7cfb6416f0113b04181","602110864497cf011d9c0822","0","f","NA","j","j","j","j","f","780","NA","7048","7083","7507","2560","780","2","legacy","1024","2","48000","-16","task","5212035","odd","NA","28698","37750","30701","150400","5593","20208","12697","150904","143905","150397","150904","150344","37750","151685","26947","149844","5578","132848","Lexical Decision Task","50","52317","57","yes","1024"
"3.037294994","8.64","7","roof","word","87.93103448275862","87.93103448275862","912.8620689655172","912.8620689655172","black","no","legacy","legacy","legacy","0","uniform","1","undefined","undefined","undefined","1","j","0","0","0","0","57","0","0","0","57","0","53","57","53","0","53","3","57","0","57","Tue Mar 16 19:57:31 2021","The main experiment item","yes","Lexical_Decision_Task.osexp","/Users/adombeblanchard/Desktop","no","Andale Mono","no","18","no","white","no","yes","576","legacy","53","53","3","/Users/adombeblanchard/Documents/subject-5212035.csv","legacy","Lentiform Loewenfeld","3.3.8","yes","yes","600bd7cfb6416f0113b04181","602110864497cf011d9c0822","0","j","NA","j","j","j","j","j","629","NA","7048","7083","7507","2560","629","2","legacy","1024","2","48000","-16","task","5212035","odd","NA","28698","37750","30701","152247","5593","20208","12697","152750","143905","152244","152751","152191","37750","153381","26947","151691","5578","132848","Lexical Decision Task","51","52946","58","yes","1024"
"2.708989954","9.28","9","bowl","word","88.13559322033899","88.13559322033899","909.1525423728814","909.1525423728814","black","no","legacy","legacy","legacy","0","uniform","1","undefined","undefined","undefined","1","j","0","0","0","0","58","0","0","0","58","0","54","58","54","0","54","3","58","0","58","Tue Mar 16 19:57:31 2021","The main experiment item","yes","Lexical_Decision_Task.osexp","/Users/adombeblanchard/Desktop","no","Andale Mono","no","18","no","white","no","yes","576","legacy","54","54","3","/Users/adombeblanchard/Documents/subject-5212035.csv","legacy","Lentiform Loewenfeld","3.3.8","yes","yes","600bd7cfb6416f0113b04181","602110864497cf011d9c0822","0","j","NA","j","j","j","j","j","694","NA","7048","7083","7507","2560","694","2","legacy","1024","2","48000","-16","task","5212035","odd","NA","28698","37750","30701","153942","5593","20208","12697","154446","143905","153940","154447","153887","37750","155143","26947","153387","5578","132848","Lexical Decision Task","52","53640","59","yes","1024"
"3.066077331","0","7","vorn","non-word","88.33333333333333","88.33333333333333","905.0833333333334","905.0833333333334","black","no","legacy","legacy","legacy","0","uniform","1","undefined","undefined","undefined","1","f","0","0","0","0","59","0","0","0","59","0","55","59","55","0","55","3","59","0","59","Tue Mar 16 19:57:31 2021","The main experiment item","yes","Lexical_Decision_Task.osexp","/Users/adombeblanchard/Desktop","no","Andale Mono","no","18","no","white","no","yes","576","legacy","55","55","3","/Users/adombeblanchard/Documents/subject-5212035.csv","legacy","Lentiform Loewenfeld","3.3.8","yes","yes","600bd7cfb6416f0113b04181","602110864497cf011d9c0822","0","f","NA","j","j","j","j","f","665","NA","7048","7083","7507","2560","665","2","legacy","1024","2","48000","-16","task","5212035","odd","NA","28698","37750","30701","155705","5593","20208","12697","156208","143905","155702","156209","155648","37750","156876","26947","155148","5578","132848","Lexical Decision Task","53","54305","60","yes","1024"
"3.119255889","6.63","2","itch","word","88.52459016393442","88.52459016393442","903.0327868852459","903.0327868852459","black","no","legacy","legacy","legacy","0","uniform","1","undefined","undefined","undefined","1","j","0","0","0","0","60","0","0","0","60","0","56","60","56","0","56","3","60","0","60","Tue Mar 16 19:57:31 2021","The main experiment item","yes","Lexical_Decision_Task.osexp","/Users/adombeblanchard/Desktop","no","Andale Mono","no","18","no","white","no","yes","576","legacy","56","56","3","/Users/adombeblanchard/Documents/subject-5212035.csv","legacy","Lentiform Loewenfeld","3.3.8","yes","yes","600bd7cfb6416f0113b04181","602110864497cf011d9c0822","0","j","NA","j","j","j","j","j","780","NA","7048","7083","7507","2560","780","2","legacy","1024","2","48000","-16","task","5212035","odd","NA","28698","37750","30701","157436","5593","20208","12697","157938","143905","157433","157939","157382","37750","158721","26947","156881","5578","132848","Lexical Decision Task","54","55085","61","yes","1024"
"3.153001286","8.7","5","palm","word","88.70967741935483","88.70967741935483","898.1612903225806","898.1612903225806","black","no","legacy","legacy","legacy","0","uniform","1","undefined","undefined","undefined","1","j","0","0","0","0","61","0","0","0","61","0","57","61","57","0","57","3","61","0","61","Tue Mar 16 19:57:31 2021","The main experiment item","yes","Lexical_Decision_Task.osexp","/Users/adombeblanchard/Desktop","no","Andale Mono","no","18","no","white","no","yes","576","legacy","57","57","3","/Users/adombeblanchard/Documents/subject-5212035.csv","legacy","Lentiform Loewenfeld","3.3.8","yes","yes","600bd7cfb6416f0113b04181","602110864497cf011d9c0822","0","j","NA","j","j","j","j","j","601","NA","7048","7083","7507","2560","601","2","legacy","1024","2","48000","-16","task","5212035","odd","NA","28698","37750","30701","159281","5593","20208","12697","159783","143905","159278","159783","159227","37750","160385","26947","158727","5578","132848","Lexical Decision Task","55","55686","62","yes","1024"
"3.149629599","0","2","cleb","non-word","88.88888888888889","88.88888888888889","894.3174603174604","894.3174603174604","black","no","legacy","legacy","legacy","0","uniform","1","undefined","undefined","undefined","1","f","0","0","0","0","62","0","0","0","62","0","58","62","58","0","58","3","62","0","62","Tue Mar 16 19:57:31 2021","The main experiment item","yes","Lexical_Decision_Task.osexp","/Users/adombeblanchard/Desktop","no","Andale Mono","no","18","no","white","no","yes","576","legacy","58","58","3","/Users/adombeblanchard/Documents/subject-5212035.csv","legacy","Lentiform Loewenfeld","3.3.8","yes","yes","600bd7cfb6416f0113b04181","602110864497cf011d9c0822","0","f","NA","j","j","j","j","f","656","NA","7048","7083","7507","2560","656","2","legacy","1024","2","48000","-16","task","5212035","odd","NA","28698","37750","30701","160945","5593","20208","12697","161448","143905","160942","161449","160891","37750","162106","26947","160391","5578","132848","Lexical Decision Task","56","56342","63","yes","1024"
"2.782472624","10.55","2","huge","word","89.0625","89.0625","889.796875","889.796875","black","no","legacy","legacy","legacy","0","uniform","1","undefined","undefined","undefined","1","j","0","0","0","0","63","0","0","0","63","0","59","63","59","0","59","3","63","0","63","Tue Mar 16 19:57:31 2021","The main experiment item","yes","Lexical_Decision_Task.osexp","/Users/adombeblanchard/Desktop","no","Andale Mono","no","18","no","white","no","yes","576","legacy","59","59","3","/Users/adombeblanchard/Documents/subject-5212035.csv","legacy","Lentiform Loewenfeld","3.3.8","yes","yes","600bd7cfb6416f0113b04181","602110864497cf011d9c0822","0","j","NA","j","j","j","j","j","605","NA","7048","7083","7507","2560","605","2","legacy","1024","2","48000","-16","task","5212035","odd","NA","28698","37750","30701","162674","5593","20208","12697","163177","143905","162671","163178","162612","37750","163785","26947","162112","5578","132848","Lexical Decision Task","57","56947","64","yes","1024"
"3.481012421","8.34","5","teen","word","89.23076923076923","89.23076923076923","884.9692307692308","884.9692307692308","black","no","legacy","legacy","legacy","0","uniform","1","undefined","undefined","undefined","1","j","0","0","0","0","64","0","0","0","64","0","60","64","60","0","60","3","64","0","64","Tue Mar 16 19:57:31 2021","The main experiment item","yes","Lexical_Decision_Task.osexp","/Users/adombeblanchard/Desktop","no","Andale Mono","no","18","no","white","no","yes","576","legacy","60","60","3","/Users/adombeblanchard/Documents/subject-5212035.csv","legacy","Lentiform Loewenfeld","3.3.8","yes","yes","600bd7cfb6416f0113b04181","602110864497cf011d9c0822","0","j","NA","j","j","j","j","j","576","NA","7048","7083","7507","2560","576","2","legacy","1024","2","48000","-16","task","5212035","odd","NA","28698","37750","30701","164345","5593","20208","12697","164847","143905","164342","164848","164291","37750","165425","26947","163790","5578","132848","Lexical Decision Task","58","57523","65","yes","1024"
"3.307211407","6.07","7","honk","word","89.39393939393939","89.39393939393939","882.5454545454545","882.5454545454545","black","no","legacy","legacy","legacy","0","uniform","1","undefined","undefined","undefined","1","j","0","0","0","0","65","0","0","0","65","0","61","65","61","0","61","3","65","0","65","Tue Mar 16 19:57:31 2021","The main experiment item","yes","Lexical_Decision_Task.osexp","/Users/adombeblanchard/Desktop","no","Andale Mono","no","18","no","white","no","yes","576","legacy","61","61","3","/Users/adombeblanchard/Documents/subject-5212035.csv","legacy","Lentiform Loewenfeld","3.3.8","yes","yes","600bd7cfb6416f0113b04181","602110864497cf011d9c0822","0","j","NA","j","j","j","j","j","725","NA","7048","7083","7507","2560","725","2","legacy","1024","2","48000","-16","task","5212035","odd","NA","28698","37750","30701","166004","5593","20208","12697","166507","143905","166001","166508","165931","37750","167235","26947","165431","5578","132848","Lexical Decision Task","59","58248","66","yes","1024"
"3.529815197","0","3","lerm","non-word","89.55223880597015","89.55223880597015","879.4179104477612","879.4179104477612","black","no","legacy","legacy","legacy","0","uniform","1","undefined","undefined","undefined","1","f","0","0","0","0","66","0","0","0","66","0","62","66","62","0","62","3","66","0","66","Tue Mar 16 19:57:31 2021","The main experiment item","yes","Lexical_Decision_Task.osexp","/Users/adombeblanchard/Desktop","no","Andale Mono","no","18","no","white","no","yes","576","legacy","62","62","3","/Users/adombeblanchard/Documents/subject-5212035.csv","legacy","Lentiform Loewenfeld","3.3.8","yes","yes","600bd7cfb6416f0113b04181","602110864497cf011d9c0822","0","f","NA","j","j","j","j","f","673","NA","7048","7083","7507","2560","673","2","legacy","1024","2","48000","-16","task","5212035","odd","NA","28698","37750","30701","167810","5593","20208","12697","168312","143905","167807","168313","167742","37750","168987","26947","167241","5578","132848","Lexical Decision Task","60","58921","67","yes","1024"
"2.696356389","0","1","pizz","non-word","89.70588235294117","89.70588235294117","877.5147058823529","877.5147058823529","black","no","legacy","legacy","legacy","0","uniform","1","undefined","undefined","undefined","1","f","0","0","0","0","67","0","0","0","67","0","63","67","63","0","63","3","67","0","67","Tue Mar 16 19:57:31 2021","The main experiment item","yes","Lexical_Decision_Task.osexp","/Users/adombeblanchard/Desktop","no","Andale Mono","no","18","no","white","no","yes","576","legacy","63","63","3","/Users/adombeblanchard/Documents/subject-5212035.csv","legacy","Lentiform Loewenfeld","3.3.8","yes","yes","600bd7cfb6416f0113b04181","602110864497cf011d9c0822","0","f","NA","j","j","j","j","f","750","NA","7048","7083","7507","2560","750","2","legacy","1024","2","48000","-16","task","5212035","odd","NA","28698","37750","30701","169558","5593","20208","12697","170062","143905","169555","170062","169493","37750","170814","26947","168993","5578","132848","Lexical Decision Task","61","59671","68","yes","1024"
"2.784379519","0","2","snaf","non-word","89.85507246376811","89.85507246376811","875.8985507246376","875.8985507246376","black","no","legacy","legacy","legacy","0","uniform","1","undefined","undefined","undefined","1","f","0","0","0","0","68","0","0","0","68","0","64","68","64","0","64","3","68","0","68","Tue Mar 16 19:57:31 2021","The main experiment item","yes","Lexical_Decision_Task.osexp","/Users/adombeblanchard/Desktop","no","Andale Mono","no","18","no","white","no","yes","576","legacy","64","64","3","/Users/adombeblanchard/Documents/subject-5212035.csv","legacy","Lentiform Loewenfeld","3.3.8","yes","yes","600bd7cfb6416f0113b04181","602110864497cf011d9c0822","0","f","NA","j","j","j","j","f","766","NA","7048","7083","7507","2560","766","2","legacy","1024","2","48000","-16","task","5212035","odd","NA","28698","37750","30701","171381","5593","20208","12697","171884","143905","171379","171885","171321","37750","172652","26947","170820","5578","132848","Lexical Decision Task","62","60437","69","yes","1024"
"3.495914186","0","4","peng","non-word","90","90","878.3142857142857","878.3142857142857","black","no","legacy","legacy","legacy","0","uniform","1","undefined","undefined","undefined","1","f","0","0","0","0","69","0","0","0","69","0","65","69","65","0","65","3","69","0","69","Tue Mar 16 19:57:31 2021","The main experiment item","yes","Lexical_Decision_Task.osexp","/Users/adombeblanchard/Desktop","no","Andale Mono","no","18","no","white","no","yes","576","legacy","65","65","3","/Users/adombeblanchard/Documents/subject-5212035.csv","legacy","Lentiform Loewenfeld","3.3.8","yes","yes","600bd7cfb6416f0113b04181","602110864497cf011d9c0822","0","f","NA","j","j","j","j","f","1045","NA","7048","7083","7507","2560","1045","2","legacy","1024","2","48000","-16","task","5212035","odd","NA","28698","37750","30701","173212","5593","20208","12697","173714","143905","173209","173715","173157","37750","174761","26947","172657","5578","132848","Lexical Decision Task","63","61482","70","yes","1024"
"2.884795364","0","6","flob","non-word","88.73239436619718","88.73239436619718","889.0985915492957","889.0985915492957","black","no","legacy","legacy","legacy","0","uniform","0","undefined","undefined","undefined","0","f","0","0","0","0","70","0","0","0","70","0","66","70","66","0","66","3","70","0","70","Tue Mar 16 19:57:31 2021","The main experiment item","yes","Lexical_Decision_Task.osexp","/Users/adombeblanchard/Desktop","no","Andale Mono","no","18","no","white","no","yes","576","legacy","66","66","3","/Users/adombeblanchard/Documents/subject-5212035.csv","legacy","Lentiform Loewenfeld","3.3.8","yes","yes","600bd7cfb6416f0113b04181","602110864497cf011d9c0822","0","j","NA","j","j","j","j","j","1644","NA","7048","7083","7507","2560","1644","2","legacy","1024","2","48000","-16","task","5212035","odd","NA","28698","37750","30701","175324","5593","20208","12697","175826","143905","175321","175827","175267","37750","177473","26947","174767","5578","132848","Lexical Decision Task","63","63126","71","yes","1024"
"2.990042563","6.64","9","plow","word","88.88888888888889","88.88888888888889","893.875","893.875","black","no","legacy","legacy","legacy","0","uniform","1","undefined","undefined","undefined","1","j","0","0","0","0","71","0","0","0","71","0","67","71","67","0","67","3","71","0","71","Tue Mar 16 19:57:31 2021","The main experiment item","yes","Lexical_Decision_Task.osexp","/Users/adombeblanchard/Desktop","no","Andale Mono","no","18","no","white","no","yes","576","legacy","67","67","3","/Users/adombeblanchard/Documents/subject-5212035.csv","legacy","Lentiform Loewenfeld","3.3.8","yes","yes","600bd7cfb6416f0113b04181","602110864497cf011d9c0822","0","j","NA","j","j","j","j","j","1233","NA","7048","7083","7507","2560","1233","2","legacy","1024","2","48000","-16","task","5212035","odd","NA","28698","37750","30701","179036","5593","20208","12697","179539","143905","179033","179540","178980","37750","180774","26947","174767","5578","177480","Lexical Decision Task","64","64359","72","yes","1024"
"3.353210739","0","9","reet","non-word","89.04109589041096","89.04109589041096","891.972602739726","891.972602739726","black","no","legacy","legacy","legacy","0","uniform","1","undefined","undefined","undefined","1","f","0","0","0","0","72","0","0","0","72","0","68","72","68","0","68","3","72","0","72","Tue Mar 16 19:57:31 2021","The main experiment item","yes","Lexical_Decision_Task.osexp","/Users/adombeblanchard/Desktop","no","Andale Mono","no","18","no","white","no","yes","576","legacy","68","68","3","/Users/adombeblanchard/Documents/subject-5212035.csv","legacy","Lentiform Loewenfeld","3.3.8","yes","yes","600bd7cfb6416f0113b04181","602110864497cf011d9c0822","0","f","NA","j","j","j","j","f","755","NA","7048","7083","7507","2560","755","2","legacy","1024","2","48000","-16","task","5212035","odd","NA","28698","37750","30701","181334","5593","20208","12697","181839","143905","181332","181839","181280","37750","182596","26947","180779","5578","177480","Lexical Decision Task","65","65114","73","yes","1024"
"2.868644438","10.52","4","town","word","89.1891891891892","89.1891891891892","892.1756756756756","892.1756756756756","black","no","legacy","legacy","legacy","0","uniform","1","undefined","undefined","undefined","1","j","0","0","0","0","73","0","0","0","73","0","69","73","69","0","69","3","73","0","73","Tue Mar 16 19:57:31 2021","The main experiment item","yes","Lexical_Decision_Task.osexp","/Users/adombeblanchard/Desktop","no","Andale Mono","no","18","no","white","no","yes","576","legacy","69","69","3","/Users/adombeblanchard/Documents/subject-5212035.csv","legacy","Lentiform Loewenfeld","3.3.8","yes","yes","600bd7cfb6416f0113b04181","602110864497cf011d9c0822","0","j","NA","j","j","j","j","j","907","NA","7048","7083","7507","2560","907","2","legacy","1024","2","48000","-16","task","5212035","odd","NA","28698","37750","30701","183155","5593","20208","12697","183657","143905","183152","183658","183101","37750","184567","26947","182601","5578","177480","Lexical Decision Task","66","66021","74","yes","1024"
"3.316948329","0","1","besc","non-word","89.33333333333333","89.33333333333333","890.9333333333333","890.9333333333333","black","no","legacy","legacy","legacy","0","uniform","1","undefined","undefined","undefined","1","f","0","0","0","0","74","0","0","0","74","0","70","74","70","0","70","3","74","0","74","Tue Mar 16 19:57:31 2021","The main experiment item","yes","Lexical_Decision_Task.osexp","/Users/adombeblanchard/Desktop","no","Andale Mono","no","18","no","white","no","yes","576","legacy","70","70","3","/Users/adombeblanchard/Documents/subject-5212035.csv","legacy","Lentiform Loewenfeld","3.3.8","yes","yes","600bd7cfb6416f0113b04181","602110864497cf011d9c0822","0","f","NA","j","j","j","j","f","799","NA","7048","7083","7507","2560","799","2","legacy","1024","2","48000","-16","task","5212035","odd","NA","28698","37750","30701","185127","5593","20208","12697","185630","143905","185124","185630","185073","37750","186430","26947","184572","5578","177480","Lexical Decision Task","67","66820","75","yes","1024"
"2.953276337","6.32","4","thaw","word","89.47368421052632","89.47368421052632","890.421052631579","890.421052631579","black","no","legacy","legacy","legacy","0","uniform","1","undefined","undefined","undefined","1","j","0","0","0","0","75","0","0","0","75","0","71","75","71","0","71","3","75","0","75","Tue Mar 16 19:57:31 2021","The main experiment item","yes","Lexical_Decision_Task.osexp","/Users/adombeblanchard/Desktop","no","Andale Mono","no","18","no","white","no","yes","576","legacy","71","71","3","/Users/adombeblanchard/Documents/subject-5212035.csv","legacy","Lentiform Loewenfeld","3.3.8","yes","yes","600bd7cfb6416f0113b04181","602110864497cf011d9c0822","0","j","NA","j","j","j","j","j","852","NA","7048","7083","7507","2560","852","2","legacy","1024","2","48000","-16","task","5212035","odd","NA","28698","37750","30701","186990","5593","20208","12697","187493","143905","186987","187494","186936","37750","188347","26947","186435","5578","177480","Lexical Decision Task","68","67672","76","yes","1024"
"3.208978517","10.33","4","fish","word","88.31168831168831","88.31168831168831","889.3506493506494","889.3506493506494","black","no","legacy","legacy","legacy","0","uniform","0","undefined","undefined","undefined","0","j","0","0","0","0","76","0","0","0","76","0","72","76","72","0","72","3","76","0","76","Tue Mar 16 19:57:31 2021","The main experiment item","yes","Lexical_Decision_Task.osexp","/Users/adombeblanchard/Desktop","no","Andale Mono","no","18","no","white","no","yes","576","legacy","72","72","3","/Users/adombeblanchard/Documents/subject-5212035.csv","legacy","Lentiform Loewenfeld","3.3.8","yes","yes","600bd7cfb6416f0113b04181","602110864497cf011d9c0822","0","f","NA","j","j","j","j","f","808","NA","7048","7083","7507","2560","808","2","legacy","1024","2","48000","-16","task","5212035","odd","NA","28698","37750","30701","188915","5593","20208","12697","189419","143905","188913","189419","188853","37750","190228","26947","188352","5578","177480","Lexical Decision Task","68","68480","77","yes","1024"
"3.145920145","8.51","8","flew","word","88.46153846153847","88.46153846153847","890.9487179487179","890.9487179487179","black","no","legacy","legacy","legacy","0","uniform","1","undefined","undefined","undefined","1","j","0","0","0","0","77","0","0","0","77","0","73","77","73","0","73","3","77","0","77","Tue Mar 16 19:57:31 2021","The main experiment item","yes","Lexical_Decision_Task.osexp","/Users/adombeblanchard/Desktop","no","Andale Mono","no","18","no","white","no","yes","576","legacy","73","73","3","/Users/adombeblanchard/Documents/subject-5212035.csv","legacy","Lentiform Loewenfeld","3.3.8","yes","yes","600bd7cfb6416f0113b04181","602110864497cf011d9c0822","0","j","NA","j","j","j","j","j","1014","NA","7048","7083","7507","2560","1014","2","legacy","1024","2","48000","-16","task","5212035","odd","NA","28698","37750","30701","191789","5593","20208","12697","192292","143905","191786","192292","191734","37750","193307","26947","188352","5578","190233","Lexical Decision Task","69","69494","78","yes","1024"
"3.159867847","5.98","5","brim","word","87.34177215189874","87.34177215189874","899.2278481012659","899.2278481012659","black","no","legacy","legacy","legacy","0","uniform","0","undefined","undefined","undefined","0","j","0","0","0","0","78","0","0","0","78","0","74","78","74","0","74","3","78","0","78","Tue Mar 16 19:57:31 2021","The main experiment item","yes","Lexical_Decision_Task.osexp","/Users/adombeblanchard/Desktop","no","Andale Mono","no","18","no","white","no","yes","576","legacy","74","74","3","/Users/adombeblanchard/Documents/subject-5212035.csv","legacy","Lentiform Loewenfeld","3.3.8","yes","yes","600bd7cfb6416f0113b04181","602110864497cf011d9c0822","0","f","NA","j","j","j","j","f","1545","NA","7048","7083","7507","2560","1545","2","legacy","1024","2","48000","-16","task","5212035","odd","NA","28698","37750","30701","193877","5593","20208","12697","194380","143905","193873","194381","193813","37750","195928","26947","193313","5578","190233","Lexical Decision Task","69","71039","79","yes","1024"
"3.028977705","0","7","frow","non-word","87.5","87.5","900.4","900.4","black","no","legacy","legacy","legacy","0","uniform","1","undefined","undefined","undefined","1","f","0","0","0","0","79","0","0","0","79","0","75","79","75","0","75","3","79","0","79","Tue Mar 16 19:57:31 2021","The main experiment item","yes","Lexical_Decision_Task.osexp","/Users/adombeblanchard/Desktop","no","Andale Mono","no","18","no","white","no","yes","576","legacy","75","75","3","/Users/adombeblanchard/Documents/subject-5212035.csv","legacy","Lentiform Loewenfeld","3.3.8","yes","yes","600bd7cfb6416f0113b04181","602110864497cf011d9c0822","0","f","NA","j","j","j","j","f","993","NA","7048","7083","7507","2560","993","2","legacy","1024","2","48000","-16","task","5212035","odd","NA","28698","37750","30701","197499","5593","20208","12697","198002","143905","197495","198003","197434","37750","198998","26947","193313","5578","195934","Lexical Decision Task","70","72032","80","yes","1024"
"2.771097306","0","9","jold","non-word","87.65432098765432","87.65432098765432","900.2716049382716","900.2716049382716","black","no","legacy","legacy","legacy","0","uniform","1","undefined","undefined","undefined","1","f","0","0","0","0","80","0","0","0","80","0","76","80","76","0","76","3","80","0","80","Tue Mar 16 19:57:31 2021","The main experiment item","yes","Lexical_Decision_Task.osexp","/Users/adombeblanchard/Desktop","no","Andale Mono","no","18","no","white","no","yes","576","legacy","76","76","3","/Users/adombeblanchard/Documents/subject-5212035.csv","legacy","Lentiform Loewenfeld","3.3.8","yes","yes","600bd7cfb6416f0113b04181","602110864497cf011d9c0822","0","f","NA","j","j","j","j","f","890","NA","7048","7083","7507","2560","890","2","legacy","1024","2","48000","-16","task","5212035","odd","NA","28698","37750","30701","199567","5593","20208","12697","200070","143905","199564","200071","199504","37750","200963","26947","199004","5578","195934","Lexical Decision Task","71","72922","81","yes","1024"
"3.133964479","0","8","graw","non-word","87.8048780487805","87.8048780487805","907.2439024390244","907.2439024390244","black","no","legacy","legacy","legacy","0","uniform","1","undefined","undefined","undefined","1","f","0","0","0","0","81","0","0","0","81","0","77","81","77","0","77","3","81","0","81","Tue Mar 16 19:57:31 2021","The main experiment item","yes","Lexical_Decision_Task.osexp","/Users/adombeblanchard/Desktop","no","Andale Mono","no","18","no","white","no","yes","576","legacy","77","77","3","/Users/adombeblanchard/Documents/subject-5212035.csv","legacy","Lentiform Loewenfeld","3.3.8","yes","yes","600bd7cfb6416f0113b04181","602110864497cf011d9c0822","0","f","NA","j","j","j","j","f","1472","NA","7048","7083","7507","2560","1472","2","legacy","1024","2","48000","-16","task","5212035","odd","NA","28698","37750","30701","201543","5593","20208","12697","202046","143905","201539","202047","201469","37750","203520","26947","200969","5578","195934","Lexical Decision Task","72","74394","82","yes","1024"
"3.14849993","10.75","7","hour","word","87.95180722891567","87.95180722891567","910.0602409638554","910.0602409638554","black","no","legacy","legacy","legacy","0","uniform","1","undefined","undefined","undefined","1","j","0","0","0","0","82","0","0","0","82","0","78","82","78","0","78","3","82","0","82","Tue Mar 16 19:57:31 2021","The main experiment item","yes","Lexical_Decision_Task.osexp","/Users/adombeblanchard/Desktop","no","Andale Mono","no","18","no","white","no","yes","576","legacy","78","78","3","/Users/adombeblanchard/Documents/subject-5212035.csv","legacy","Lentiform Loewenfeld","3.3.8","yes","yes","600bd7cfb6416f0113b04181","602110864497cf011d9c0822","0","j","NA","j","j","j","j","j","1141","NA","7048","7083","7507","2560","1141","2","legacy","1024","2","48000","-16","task","5212035","odd","NA","28698","37750","30701","204085","5593","20208","12697","204587","143905","204082","204587","204027","37750","205730","26947","203526","5578","195934","Lexical Decision Task","73","75535","83","yes","1024"
"3.252447662","9.67","9","boat","word","88.0952380952381","88.0952380952381","906.8452380952381","906.8452380952381","black","no","legacy","legacy","legacy","0","uniform","1","undefined","undefined","undefined","1","j","0","0","0","0","83","0","0","0","83","0","79","83","79","0","79","3","83","0","83","Tue Mar 16 19:57:31 2021","The main experiment item","yes","Lexical_Decision_Task.osexp","/Users/adombeblanchard/Desktop","no","Andale Mono","no","18","no","white","no","yes","576","legacy","79","79","3","/Users/adombeblanchard/Documents/subject-5212035.csv","legacy","Lentiform Loewenfeld","3.3.8","yes","yes","600bd7cfb6416f0113b04181","602110864497cf011d9c0822","0","j","NA","j","j","j","j","j","640","NA","7048","7083","7507","2560","640","2","legacy","1024","2","48000","-16","task","5212035","odd","NA","28698","37750","30701","206291","5593","20208","12697","206795","143905","206288","206795","206237","37750","207436","26947","205737","5578","195934","Lexical Decision Task","74","76175","84","yes","1024"
"3.195807436","0","6","stup","non-word","88.23529411764706","88.23529411764706","906.7294117647059","906.7294117647059","black","no","legacy","legacy","legacy","0","uniform","1","undefined","undefined","undefined","1","f","0","0","0","0","84","0","0","0","84","0","80","84","80","0","80","3","84","0","84","Tue Mar 16 19:57:31 2021","The main experiment item","yes","Lexical_Decision_Task.osexp","/Users/adombeblanchard/Desktop","no","Andale Mono","no","18","no","white","no","yes","576","legacy","80","80","3","/Users/adombeblanchard/Documents/subject-5212035.csv","legacy","Lentiform Loewenfeld","3.3.8","yes","yes","600bd7cfb6416f0113b04181","602110864497cf011d9c0822","0","f","NA","j","j","j","j","f","897","NA","7048","7083","7507","2560","897","2","legacy","1024","2","48000","-16","task","5212035","odd","NA","28698","37750","30701","208008","5593","20208","12697","208510","143905","208005","208511","207942","37750","209410","26947","207441","5578","195934","Lexical Decision Task","75","77072","85","yes","1024"
"2.875447132","0","9","jelt","non-word","88.37209302325581","88.37209302325581","903.3488372093024","903.3488372093024","black","no","legacy","legacy","legacy","0","uniform","1","undefined","undefined","undefined","1","f","0","0","0","0","85","0","0","0","85","0","81","85","81","0","81","3","85","0","85","Tue Mar 16 19:57:31 2021","The main experiment item","yes","Lexical_Decision_Task.osexp","/Users/adombeblanchard/Desktop","no","Andale Mono","no","18","no","white","no","yes","576","legacy","81","81","3","/Users/adombeblanchard/Documents/subject-5212035.csv","legacy","Lentiform Loewenfeld","3.3.8","yes","yes","600bd7cfb6416f0113b04181","602110864497cf011d9c0822","0","f","NA","j","j","j","j","f","616","NA","7048","7083","7507","2560","616","2","legacy","1024","2","48000","-16","task","5212035","odd","NA","28698","37750","30701","209974","5593","20208","12697","210477","143905","209971","210478","209916","37750","211096","26947","209416","5578","195934","Lexical Decision Task","76","77688","86","yes","1024"
"2.821076612","0","4","lult","non-word","88.50574712643679","88.50574712643679","898.7471264367816","898.7471264367816","black","no","legacy","legacy","legacy","0","uniform","1","undefined","undefined","undefined","1","f","0","0","0","0","86","0","0","0","86","0","82","86","82","0","82","3","86","0","86","Tue Mar 16 19:57:31 2021","The main experiment item","yes","Lexical_Decision_Task.osexp","/Users/adombeblanchard/Desktop","no","Andale Mono","no","18","no","white","no","yes","576","legacy","82","82","3","/Users/adombeblanchard/Documents/subject-5212035.csv","legacy","Lentiform Loewenfeld","3.3.8","yes","yes","600bd7cfb6416f0113b04181","602110864497cf011d9c0822","0","f","NA","j","j","j","j","f","503","NA","7048","7083","7507","2560","503","2","legacy","1024","2","48000","-16","task","5212035","odd","NA","28698","37750","30701","211666","5593","20208","12697","212170","143905","211664","212171","211601","37750","212675","26947","211101","5578","195934","Lexical Decision Task","77","78191","87","yes","1024"
"3.22685757","9.99","7","roll","word","88.63636363636364","88.63636363636364","894.6022727272727","894.6022727272727","black","no","legacy","legacy","legacy","0","uniform","1","undefined","undefined","undefined","1","j","0","0","0","0","87","0","0","0","87","0","83","87","83","0","83","3","87","0","87","Tue Mar 16 19:57:31 2021","The main experiment item","yes","Lexical_Decision_Task.osexp","/Users/adombeblanchard/Desktop","no","Andale Mono","no","18","no","white","no","yes","576","legacy","83","83","3","/Users/adombeblanchard/Documents/subject-5212035.csv","legacy","Lentiform Loewenfeld","3.3.8","yes","yes","600bd7cfb6416f0113b04181","602110864497cf011d9c0822","0","j","NA","j","j","j","j","j","534","NA","7048","7083","7507","2560","534","2","legacy","1024","2","48000","-16","task","5212035","odd","NA","28698","37750","30701","213236","5593","20208","12697","213740","143905","213233","213740","213182","37750","214276","26947","212681","5578","195934","Lexical Decision Task","78","78725","88","yes","1024"
"2.972819734","0","4","scew","non-word","88.76404494382022","88.76404494382022","894.1797752808989","894.1797752808989","black","no","legacy","legacy","legacy","0","uniform","1","undefined","undefined","undefined","1","f","0","0","0","0","88","0","0","0","88","0","84","88","84","0","84","3","88","0","88","Tue Mar 16 19:57:31 2021","The main experiment item","yes","Lexical_Decision_Task.osexp","/Users/adombeblanchard/Desktop","no","Andale Mono","no","18","no","white","no","yes","576","legacy","84","84","3","/Users/adombeblanchard/Documents/subject-5212035.csv","legacy","Lentiform Loewenfeld","3.3.8","yes","yes","600bd7cfb6416f0113b04181","602110864497cf011d9c0822","0","f","NA","j","j","j","j","f","857","NA","7048","7083","7507","2560","857","2","legacy","1024","2","48000","-16","task","5212035","odd","NA","28698","37750","30701","214849","5593","20208","12697","215353","143905","214846","215353","214781","37750","216211","26947","214281","5578","195934","Lexical Decision Task","79","79582","89","yes","1024"
"3.531734309","0","6","lerd","non-word","88.88888888888889","88.88888888888889","894.9666666666667","894.9666666666667","black","no","legacy","legacy","legacy","0","uniform","1","undefined","undefined","undefined","1","f","0","0","0","0","89","0","0","0","89","0","85","89","85","0","85","3","89","0","89","Tue Mar 16 19:57:31 2021","The main experiment item","yes","Lexical_Decision_Task.osexp","/Users/adombeblanchard/Desktop","no","Andale Mono","no","18","no","white","no","yes","576","legacy","85","85","3","/Users/adombeblanchard/Documents/subject-5212035.csv","legacy","Lentiform Loewenfeld","3.3.8","yes","yes","600bd7cfb6416f0113b04181","602110864497cf011d9c0822","0","f","NA","j","j","j","j","f","965","NA","7048","7083","7507","2560","965","2","legacy","1024","2","48000","-16","task","5212035","odd","NA","28698","37750","30701","216779","5593","20208","12697","217282","143905","216775","217283","216717","37750","218249","26947","216217","5578","195934","Lexical Decision Task","80","80547","90","yes","1024"
"2.695770526","7.34","6","pawn","word","89.01098901098901","89.01098901098901","894.8791208791209","894.8791208791209","black","no","legacy","legacy","legacy","0","uniform","1","undefined","undefined","undefined","1","j","0","0","0","0","90","0","0","0","90","0","86","90","86","0","86","3","90","0","90","Tue Mar 16 19:57:31 2021","The main experiment item","yes","Lexical_Decision_Task.osexp","/Users/adombeblanchard/Desktop","no","Andale Mono","no","18","no","white","no","yes","576","legacy","86","86","3","/Users/adombeblanchard/Documents/subject-5212035.csv","legacy","Lentiform Loewenfeld","3.3.8","yes","yes","600bd7cfb6416f0113b04181","602110864497cf011d9c0822","0","j","NA","j","j","j","j","j","887","NA","7048","7083","7507","2560","887","2","legacy","1024","2","48000","-16","task","5212035","odd","NA","28698","37750","30701","218818","5593","20208","12697","219322","143905","218815","219323","218756","37750","220211","26947","218256","5578","195934","Lexical Decision Task","81","81434","91","yes","1024"
"2.839898939","8.99","6","soap","word","89.1304347826087","89.1304347826087","891.4347826086956","891.4347826086956","black","no","legacy","legacy","legacy","0","uniform","1","undefined","undefined","undefined","1","j","0","0","0","0","91","0","0","0","91","0","87","91","87","0","87","3","91","0","91","Tue Mar 16 19:57:31 2021","The main experiment item","yes","Lexical_Decision_Task.osexp","/Users/adombeblanchard/Desktop","no","Andale Mono","no","18","no","white","no","yes","576","legacy","87","87","3","/Users/adombeblanchard/Documents/subject-5212035.csv","legacy","Lentiform Loewenfeld","3.3.8","yes","yes","600bd7cfb6416f0113b04181","602110864497cf011d9c0822","0","j","NA","j","j","j","j","j","578","NA","7048","7083","7507","2560","578","2","legacy","1024","2","48000","-16","task","5212035","odd","NA","28698","37750","30701","220775","5593","20208","12697","221279","143905","220772","221280","220718","37750","221860","26947","220217","5578","195934","Lexical Decision Task","82","82012","92","yes","1024"
"2.68604012","0","3","mulb","non-word","89.24731182795699","89.24731182795699","888.247311827957","888.247311827957","black","no","legacy","legacy","legacy","0","uniform","1","undefined","undefined","undefined","1","f","0","0","0","0","92","0","0","0","92","0","88","92","88","0","88","3","92","0","92","Tue Mar 16 19:57:31 2021","The main experiment item","yes","Lexical_Decision_Task.osexp","/Users/adombeblanchard/Desktop","no","Andale Mono","no","18","no","white","no","yes","576","legacy","88","88","3","/Users/adombeblanchard/Documents/subject-5212035.csv","legacy","Lentiform Loewenfeld","3.3.8","yes","yes","600bd7cfb6416f0113b04181","602110864497cf011d9c0822","0","f","NA","j","j","j","j","f","595","NA","7048","7083","7507","2560","595","2","legacy","1024","2","48000","-16","task","5212035","odd","NA","28698","37750","30701","222419","5593","20208","12697","222923","143905","222417","222924","222366","37750","223521","26947","221865","5578","195934","Lexical Decision Task","83","82607","93","yes","1024"
"3.16326079","0","5","parg","non-word","89.36170212765957","89.36170212765957","885.3297872340426","885.3297872340426","black","no","legacy","legacy","legacy","0","uniform","1","undefined","undefined","undefined","1","f","0","0","0","0","93","0","0","0","93","0","89","93","89","0","89","3","93","0","93","Tue Mar 16 19:57:31 2021","The main experiment item","yes","Lexical_Decision_Task.osexp","/Users/adombeblanchard/Desktop","no","Andale Mono","no","18","no","white","no","yes","576","legacy","89","89","3","/Users/adombeblanchard/Documents/subject-5212035.csv","legacy","Lentiform Loewenfeld","3.3.8","yes","yes","600bd7cfb6416f0113b04181","602110864497cf011d9c0822","0","f","NA","j","j","j","j","f","614","NA","7048","7083","7507","2560","614","2","legacy","1024","2","48000","-16","task","5212035","odd","NA","28698","37750","30701","224081","5593","20208","12697","224584","143905","224078","224584","224026","37750","225200","26947","223525","5578","195934","Lexical Decision Task","84","83221","94","yes","1024"
"3.218535505","7.85","7","goat","word","89.47368421052632","89.47368421052632","884.9684210526316","884.9684210526316","black","no","legacy","legacy","legacy","0","uniform","1","undefined","undefined","undefined","1","j","0","0","0","0","94","0","0","0","94","0","90","94","90","0","90","3","94","0","94","Tue Mar 16 19:57:31 2021","The main experiment item","yes","Lexical_Decision_Task.osexp","/Users/adombeblanchard/Desktop","no","Andale Mono","no","18","no","white","no","yes","576","legacy","90","90","3","/Users/adombeblanchard/Documents/subject-5212035.csv","legacy","Lentiform Loewenfeld","3.3.8","yes","yes","600bd7cfb6416f0113b04181","602110864497cf011d9c0822","0","j","NA","j","j","j","j","j","851","NA","7048","7083","7507","2560","851","2","legacy","1024","2","48000","-16","task","5212035","odd","NA","28698","37750","30701","225769","5593","20208","12697","226272","143905","225766","226273","225706","37750","227126","26947","225206","5578","195934","Lexical Decision Task","85","84072","95","yes","1024"
"3.105055783","0","2","norp","non-word","89.58333333333333","89.58333333333333","881.8333333333334","881.8333333333334","black","no","legacy","legacy","legacy","0","uniform","1","undefined","undefined","undefined","1","f","0","0","0","0","95","0","0","0","95","0","91","95","91","0","91","3","95","0","95","Tue Mar 16 19:57:31 2021","The main experiment item","yes","Lexical_Decision_Task.osexp","/Users/adombeblanchard/Desktop","no","Andale Mono","no","18","no","white","no","yes","576","legacy","91","91","3","/Users/adombeblanchard/Documents/subject-5212035.csv","legacy","Lentiform Loewenfeld","3.3.8","yes","yes","600bd7cfb6416f0113b04181","602110864497cf011d9c0822","0","f","NA","j","j","j","j","f","584","NA","7048","7083","7507","2560","584","2","legacy","1024","2","48000","-16","task","5212035","odd","NA","28698","37750","30701","227696","5593","20208","12697","228200","143905","227693","228201","227631","37750","228787","26947","227131","5578","195934","Lexical Decision Task","86","84656","96","yes","1024"
"3.261341392","5.08","8","reek","word","89.69072164948453","89.69072164948453","880.9072164948453","880.9072164948453","black","no","legacy","legacy","legacy","0","uniform","1","undefined","undefined","undefined","1","j","0","0","0","0","96","0","0","0","96","0","92","96","92","0","92","3","96","0","96","Tue Mar 16 19:57:31 2021","The main experiment item","yes","Lexical_Decision_Task.osexp","/Users/adombeblanchard/Desktop","no","Andale Mono","no","18","no","white","no","yes","576","legacy","92","92","3","/Users/adombeblanchard/Documents/subject-5212035.csv","legacy","Lentiform Loewenfeld","3.3.8","yes","yes","600bd7cfb6416f0113b04181","602110864497cf011d9c0822","0","j","NA","j","j","j","j","j","792","NA","7048","7083","7507","2560","792","2","legacy","1024","2","48000","-16","task","5212035","odd","NA","28698","37750","30701","229348","5593","20208","12697","229851","143905","229345","229852","229294","37750","230646","26947","228794","5578","195934","Lexical Decision Task","87","85448","97","yes","1024"
"2.706148589","0","4","hube","non-word","89.79591836734694","89.79591836734694","879.530612244898","879.530612244898","black","no","legacy","legacy","legacy","0","uniform","1","undefined","undefined","undefined","1","f","0","0","0","0","97","0","0","0","97","0","93","97","93","0","93","3","97","0","97","Tue Mar 16 19:57:31 2021","The main experiment item","yes","Lexical_Decision_Task.osexp","/Users/adombeblanchard/Desktop","no","Andale Mono","no","18","no","white","no","yes","576","legacy","93","93","3","/Users/adombeblanchard/Documents/subject-5212035.csv","legacy","Lentiform Loewenfeld","3.3.8","yes","yes","600bd7cfb6416f0113b04181","602110864497cf011d9c0822","0","f","NA","j","j","j","j","f","746","NA","7048","7083","7507","2560","746","2","legacy","1024","2","48000","-16","task","5212035","odd","NA","28698","37750","30701","231205","5593","20208","12697","231709","143905","231203","231709","231151","37750","232457","26947","230651","5578","195934","Lexical Decision Task","88","86194","98","yes","1024"
"3.094121596","0","8","fode","non-word","89.8989898989899","89.8989898989899","876.989898989899","876.989898989899","black","no","legacy","legacy","legacy","0","uniform","1","undefined","undefined","undefined","1","f","0","0","0","0","98","0","0","0","98","0","94","98","94","0","94","3","98","0","98","Tue Mar 16 19:57:31 2021","The main experiment item","yes","Lexical_Decision_Task.osexp","/Users/adombeblanchard/Desktop","no","Andale Mono","no","18","no","white","no","yes","576","legacy","94","94","3","/Users/adombeblanchard/Documents/subject-5212035.csv","legacy","Lentiform Loewenfeld","3.3.8","yes","yes","600bd7cfb6416f0113b04181","602110864497cf011d9c0822","0","f","NA","j","j","j","j","f","628","NA","7048","7083","7507","2560","628","2","legacy","1024","2","48000","-16","task","5212035","odd","NA","28698","37750","30701","233020","5593","20208","12697","233523","143905","233018","233524","232962","37750","234153","26947","232461","5578","195934","Lexical Decision Task","89","86822","99","yes","1024"
"3.153104174","10.89","6","door","word","90","90","873.56","873.56","black","no","legacy","legacy","legacy","0","uniform","1","undefined","undefined","undefined","1","j","0","0","0","0","99","0","0","0","99","0","95","99","95","0","95","3","99","0","99","Tue Mar 16 19:57:31 2021","The main experiment item","yes","Lexical_Decision_Task.osexp","/Users/adombeblanchard/Desktop","no","Andale Mono","no","18","no","white","no","yes","576","legacy","95","95","3","/Users/adombeblanchard/Documents/subject-5212035.csv","legacy","Lentiform Loewenfeld","3.3.8","yes","yes","600bd7cfb6416f0113b04181","602110864497cf011d9c0822","0","j","NA","j","j","j","j","j","534","NA","7048","7083","7507","2560","534","2","legacy","1024","2","48000","-16","task","5212035","odd","NA","28698","37750","30701","234715","5593","20208","12697","235219","143905","234713","235219","234659","37750","235755","26947","234159","5578","195934","Lexical Decision Task","90","87356","100","yes","1024"
"2.713490543","0","3","feps","non-word","90.0990099009901","90.0990099009901","870.5049504950495","870.5049504950495","black","no","legacy","legacy","legacy","0","uniform","1","undefined","undefined","undefined","1","f","0","0","0","0","100","0","0","0","100","0","96","100","96","0","96","3","100","0","100","Tue Mar 16 19:57:31 2021","The main experiment item","yes","Lexical_Decision_Task.osexp","/Users/adombeblanchard/Desktop","no","Andale Mono","no","18","no","white","no","yes","576","legacy","96","96","3","/Users/adombeblanchard/Documents/subject-5212035.csv","legacy","Lentiform Loewenfeld","3.3.8","yes","yes","600bd7cfb6416f0113b04181","602110864497cf011d9c0822","0","f","NA","j","j","j","j","f","565","NA","7048","7083","7507","2560","565","2","legacy","1024","2","48000","-16","task","5212035","odd","NA","28698","37750","30701","236314","5593","20208","12697","236818","143905","236311","236818","236260","37750","237384","26947","235760","5578","195934","Lexical Decision Task","91","87921","101","yes","1024"
