"Log_BG","Log_Freq_HAL","Ortho_N","Stimulus","Type","acc","accuracy","average_response_time","avg_rt","background","bidi","canvas_backend","clock_backend","color_backend","compensation","coordinates","correct","correct_Experimental_intro","correct_Introduction","correct_Practice_intro","correct_experimenter_kb","correct_response","count_End_Of_Experiment","count_End_Of_Practice","count_Experimental_Loop","count_Experimental_intro","count_Fixation","count_Introduction","count_Practice_Loop","count_Practice_intro","count_Stimulus","count_block_break_feedback","count_experimental_sequence","count_experimenter_kb","count_increment_trial_count","count_init_trial_count","count_logger","count_practice_sequence","count_right","count_task","count_wrong","datetime","description","disable_garbage_collection","experiment_file","experiment_path","font_bold","font_family","font_italic","font_size","font_underline","foreground","form_clicks","fullscreen","height","keyboard_backend","live_row","live_row_Experimental_Loop","live_row_Practice_Loop","logfile","mouse_backend","opensesame_codename","opensesame_version","osf_always_upload_data","osf_always_upload_experiment","osf_datanode_id","osf_id","repeat_cycle","response","response_End_Of_Experiment","response_Experimental_intro","response_Introduction","response_Practice_intro","response_block_break_feedback","response_experimenter_kb","response_time","response_time_End_Of_Experiment","response_time_Experimental_intro","response_time_Introduction","response_time_Practice_intro","response_time_block_break_feedback","response_time_experimenter_kb","round_decimals","sampler_backend","sound_buf_size","sound_channels","sound_freq","sound_sample_size","start","subject_nr","subject_parity","time_End_Of_Experiment","time_End_Of_Practice","time_Experimental_Loop","time_Experimental_intro","time_Fixation","time_Introduction","time_Practice_Loop","time_Practice_intro","time_Stimulus","time_block_break_feedback","time_experimental_sequence","time_experimenter_kb","time_increment_trial_count","time_init_trial_count","time_logger","time_practice_sequence","time_right","time_task","time_wrong","title","total_correct","total_response_time","total_responses","uniform_coordinates","width"
"3.2757719","0","5","slea","non-word","80","80","1593.4","1593.4","black","no","legacy","legacy","legacy","0","uniform","1","undefined","undefined","undefined","1","f","0","0","0","0","4","0","0","0","4","NA","0","4","0","0","0","3","4","0","4","Thu Feb 18 11:47:08 2021","The main experiment item","yes","Lexical_Decision_Task.osexp","C:/Users/smith","no","Andale Mono","no","18","no","white","no","yes","576","legacy","0","0","3","C:/Users/smith/subject-5216755.csv","legacy","Lentiform Loewenfeld","3.3.7","yes","yes","600bd7cfb6416f0113b04181","602110864497cf011d9c0822","0","f","NA","j","b","b","NA","f","1143","NA","3218","141","172","NA","1143","2","legacy","1024","2","48000","-16","task","5216755","odd","NA","16368","21589","18369","21627","3894","4212","4039","22128","NA","21625","22128","NA","21589","23273","14348","15842","3883","7834","Lexical Decision Task","4","7967","5","yes","1024"
"3.153001286","8.7","5","palm","word","83.33333333333333","83.33333333333333","1451.5","1451.5","black","no","legacy","legacy","legacy","0","uniform","1","undefined","undefined","undefined","1","j","0","0","0","0","5","0","0","0","5","NA","1","5","1","0","1","3","5","0","5","Thu Feb 18 11:47:08 2021","The main experiment item","yes","Lexical_Decision_Task.osexp","C:/Users/smith","no","Andale Mono","no","18","no","white","no","yes","576","legacy","1","1","3","C:/Users/smith/subject-5216755.csv","legacy","Lentiform Loewenfeld","3.3.7","yes","yes","600bd7cfb6416f0113b04181","602110864497cf011d9c0822","0","j","NA","j","b","b","NA","j","742","NA","3218","141","172","NA","742","2","legacy","1024","2","48000","-16","task","5216755","odd","NA","16368","21589","18369","23863","3894","4212","4039","24365","NA","23861","24366","23784","21589","25110","14348","23284","3883","7834","Lexical Decision Task","5","8709","6","yes","1024"
"2.898725182","0","7","turl","non-word","85.71428571428571","85.71428571428571","1384.4285714285713","1384.4285714285713","black","no","legacy","legacy","legacy","0","uniform","1","undefined","undefined","undefined","1","f","0","0","0","0","6","0","0","0","6","NA","2","6","2","0","2","3","6","0","6","Thu Feb 18 11:47:08 2021","The main experiment item","yes","Lexical_Decision_Task.osexp","C:/Users/smith","no","Andale Mono","no","18","no","white","no","yes","576","legacy","2","2","3","C:/Users/smith/subject-5216755.csv","legacy","Lentiform Loewenfeld","3.3.7","yes","yes","600bd7cfb6416f0113b04181","602110864497cf011d9c0822","0","f","NA","j","b","b","NA","f","982","NA","3218","141","172","NA","982","2","legacy","1024","2","48000","-16","task","5216755","odd","NA","16368","21589","18369","25673","3894","4212","4039","26175","NA","25672","26175","25615","21589","27158","14348","25115","3883","7834","Lexical Decision Task","6","9691","7","yes","1024"
"3.121778632","0","9","sark","non-word","75","75","1426.25","1426.25","black","no","legacy","legacy","legacy","0","uniform","0","undefined","undefined","undefined","0","f","0","0","0","0","7","0","0","0","7","NA","3","7","3","0","3","3","7","0","7","Thu Feb 18 11:47:08 2021","The main experiment item","yes","Lexical_Decision_Task.osexp","C:/Users/smith","no","Andale Mono","no","18","no","white","no","yes","576","legacy","3","3","3","C:/Users/smith/subject-5216755.csv","legacy","Lentiform Loewenfeld","3.3.7","yes","yes","600bd7cfb6416f0113b04181","602110864497cf011d9c0822","0","j","NA","j","b","b","NA","j","1719","NA","3218","141","172","NA","1719","2","legacy","1024","2","48000","-16","task","5216755","odd","NA","16368","21589","18369","27716","3894","4212","4039","28218","NA","27715","28218","27662","21589","29938","14348","27162","3883","7834","Lexical Decision Task","6","11410","8","yes","1024"
"3.431095062","5.74","9","perk","word","77.77777777777777","77.77777777777777","1352.3333333333333","1352.3333333333333","black","no","legacy","legacy","legacy","0","uniform","1","undefined","undefined","undefined","1","j","0","0","0","0","8","0","0","0","8","NA","4","8","4","0","4","3","8","0","8","Thu Feb 18 11:47:08 2021","The main experiment item","yes","Lexical_Decision_Task.osexp","C:/Users/smith","no","Andale Mono","no","18","no","white","no","yes","576","legacy","4","4","3","C:/Users/smith/subject-5216755.csv","legacy","Lentiform Loewenfeld","3.3.7","yes","yes","600bd7cfb6416f0113b04181","602110864497cf011d9c0822","0","j","NA","j","b","b","NA","j","761","NA","3218","141","172","NA","761","2","legacy","1024","2","48000","-16","task","5216755","odd","NA","16368","21589","18369","31501","3894","4212","4039","32002","NA","31500","32002","31443","21589","32765","14348","27162","3883","29943","Lexical Decision Task","7","12171","9","yes","1024"
"2.706148589","0","4","hube","non-word","80","80","1304.2","1304.2","black","no","legacy","legacy","legacy","0","uniform","1","undefined","undefined","undefined","1","f","0","0","0","0","9","0","0","0","9","NA","5","9","5","0","5","3","9","0","9","Thu Feb 18 11:47:08 2021","The main experiment item","yes","Lexical_Decision_Task.osexp","C:/Users/smith","no","Andale Mono","no","18","no","white","no","yes","576","legacy","5","5","3","C:/Users/smith/subject-5216755.csv","legacy","Lentiform Loewenfeld","3.3.7","yes","yes","600bd7cfb6416f0113b04181","602110864497cf011d9c0822","0","f","NA","j","b","b","NA","f","871","NA","3218","141","172","NA","871","2","legacy","1024","2","48000","-16","task","5216755","odd","NA","16368","21589","18369","33330","3894","4212","4039","33831","NA","33328","33831","33270","21589","34703","14348","32770","3883","29943","Lexical Decision Task","8","13042","10","yes","1024"
"3.216517684","10.87","3","film","word","81.81818181818181","81.81818181818181","1252.2727272727273","1252.2727272727273","black","no","legacy","legacy","legacy","0","uniform","1","undefined","undefined","undefined","1","j","0","0","0","0","10","0","0","0","10","NA","6","10","6","0","6","3","10","0","10","Thu Feb 18 11:47:08 2021","The main experiment item","yes","Lexical_Decision_Task.osexp","C:/Users/smith","no","Andale Mono","no","18","no","white","no","yes","576","legacy","6","6","3","C:/Users/smith/subject-5216755.csv","legacy","Lentiform Loewenfeld","3.3.7","yes","yes","600bd7cfb6416f0113b04181","602110864497cf011d9c0822","0","j","NA","j","b","b","NA","j","733","NA","3218","141","172","NA","733","2","legacy","1024","2","48000","-16","task","5216755","odd","NA","16368","21589","18369","35265","3894","4212","4039","35766","NA","35264","35767","35208","21589","36501","14348","34708","3883","29943","Lexical Decision Task","9","13775","11","yes","1024"
"3.168890155","0","6","thet","non-word","83.33333333333333","83.33333333333333","1223.8333333333333","1223.8333333333333","black","no","legacy","legacy","legacy","0","uniform","1","undefined","undefined","undefined","1","f","0","0","0","0","11","0","0","0","11","NA","7","11","7","0","7","3","11","0","11","Thu Feb 18 11:47:08 2021","The main experiment item","yes","Lexical_Decision_Task.osexp","C:/Users/smith","no","Andale Mono","no","18","no","white","no","yes","576","legacy","7","7","3","C:/Users/smith/subject-5216755.csv","legacy","Lentiform Loewenfeld","3.3.7","yes","yes","600bd7cfb6416f0113b04181","602110864497cf011d9c0822","0","f","NA","j","b","b","NA","f","911","NA","3218","141","172","NA","911","2","legacy","1024","2","48000","-16","task","5216755","odd","NA","16368","21589","18369","37058","3894","4212","4039","37559","NA","37057","37559","37006","21589","38471","14348","36505","3883","29943","Lexical Decision Task","10","14686","12","yes","1024"
"3.20871002","7.15","8","cram","word","76.92307692307692","76.92307692307692","1229.923076923077","1229.923076923077","black","no","legacy","legacy","legacy","0","uniform","0","undefined","undefined","undefined","0","j","0","0","0","0","12","0","0","0","12","NA","8","12","8","0","8","3","12","0","12","Thu Feb 18 11:47:08 2021","The main experiment item","yes","Lexical_Decision_Task.osexp","C:/Users/smith","no","Andale Mono","no","18","no","white","no","yes","576","legacy","8","8","3","C:/Users/smith/subject-5216755.csv","legacy","Lentiform Loewenfeld","3.3.7","yes","yes","600bd7cfb6416f0113b04181","602110864497cf011d9c0822","0","f","NA","j","b","b","NA","f","1303","NA","3218","141","172","NA","1303","2","legacy","1024","2","48000","-16","task","5216755","odd","NA","16368","21589","18369","39028","3894","4212","4039","39529","NA","39026","39529","38976","21589","40833","14348","38476","3883","29943","Lexical Decision Task","10","15989","13","yes","1024"
"2.719886232","7.98","2","quiz","word","78.57142857142857","78.57142857142857","1185.142857142857","1185.142857142857","black","no","legacy","legacy","legacy","0","uniform","1","undefined","undefined","undefined","1","j","0","0","0","0","13","0","0","0","13","NA","9","13","9","0","9","3","13","0","13","Thu Feb 18 11:47:08 2021","The main experiment item","yes","Lexical_Decision_Task.osexp","C:/Users/smith","no","Andale Mono","no","18","no","white","no","yes","576","legacy","9","9","3","C:/Users/smith/subject-5216755.csv","legacy","Lentiform Loewenfeld","3.3.7","yes","yes","600bd7cfb6416f0113b04181","602110864497cf011d9c0822","0","j","NA","j","b","b","NA","j","603","NA","3218","141","172","NA","603","2","legacy","1024","2","48000","-16","task","5216755","odd","NA","16368","21589","18369","42397","3894","4212","4039","42899","NA","42395","42899","42337","21589","43504","14348","38476","3883","40837","Lexical Decision Task","11","16592","14","yes","1024"
"2.709837904","6.85","8","skim","word","80","80","1275.6666666666667","1275.6666666666667","black","no","legacy","legacy","legacy","0","uniform","1","undefined","undefined","undefined","1","j","0","0","0","0","14","0","0","0","14","NA","10","14","10","0","10","3","14","0","14","Thu Feb 18 11:47:08 2021","The main experiment item","yes","Lexical_Decision_Task.osexp","C:/Users/smith","no","Andale Mono","no","18","no","white","no","yes","576","legacy","10","10","3","C:/Users/smith/subject-5216755.csv","legacy","Lentiform Loewenfeld","3.3.7","yes","yes","600bd7cfb6416f0113b04181","602110864497cf011d9c0822","0","j","NA","j","b","b","NA","j","2543","NA","3218","141","172","NA","2543","2","legacy","1024","2","48000","-16","task","5216755","odd","NA","16368","21589","18369","44063","3894","4212","4039","44564","NA","44061","44564","44009","21589","47108","14348","43509","3883","40837","Lexical Decision Task","12","19135","15","yes","1024"
"2.981215883","10.66","5","hair","word","81.25","81.25","1234.6875","1234.6875","black","no","legacy","legacy","legacy","0","uniform","1","undefined","undefined","undefined","1","j","0","0","0","0","15","0","0","0","15","NA","11","15","11","0","11","3","15","0","15","Thu Feb 18 11:47:08 2021","The main experiment item","yes","Lexical_Decision_Task.osexp","C:/Users/smith","no","Andale Mono","no","18","no","white","no","yes","576","legacy","11","11","3","C:/Users/smith/subject-5216755.csv","legacy","Lentiform Loewenfeld","3.3.7","yes","yes","600bd7cfb6416f0113b04181","602110864497cf011d9c0822","0","j","NA","j","b","b","NA","j","620","NA","3218","141","172","NA","620","2","legacy","1024","2","48000","-16","task","5216755","odd","NA","16368","21589","18369","47668","3894","4212","4039","48169","NA","47666","48170","47614","21589","48792","14348","47114","3883","40837","Lexical Decision Task","13","19755","16","yes","1024"
"2.771097306","0","9","jold","non-word","82.3529411764706","82.3529411764706","1205.5882352941176","1205.5882352941176","black","no","legacy","legacy","legacy","0","uniform","1","undefined","undefined","undefined","1","f","0","0","0","0","16","0","0","0","16","NA","12","16","12","0","12","3","16","0","16","Thu Feb 18 11:47:08 2021","The main experiment item","yes","Lexical_Decision_Task.osexp","C:/Users/smith","no","Andale Mono","no","18","no","white","no","yes","576","legacy","12","12","3","C:/Users/smith/subject-5216755.csv","legacy","Lentiform Loewenfeld","3.3.7","yes","yes","600bd7cfb6416f0113b04181","602110864497cf011d9c0822","0","f","NA","j","b","b","NA","f","740","NA","3218","141","172","NA","740","2","legacy","1024","2","48000","-16","task","5216755","odd","NA","16368","21589","18369","49355","3894","4212","4039","49857","NA","49354","49857","49297","21589","50598","14348","48797","3883","40837","Lexical Decision Task","14","20495","17","yes","1024"
"3.120025233","0","2","nyst","non-word","83.33333333333333","83.33333333333333","1171.5555555555557","1171.5555555555557","black","no","legacy","legacy","legacy","0","uniform","1","undefined","undefined","undefined","1","f","0","0","0","0","17","0","0","0","17","NA","13","17","13","0","13","3","17","0","17","Thu Feb 18 11:47:08 2021","The main experiment item","yes","Lexical_Decision_Task.osexp","C:/Users/smith","no","Andale Mono","no","18","no","white","no","yes","576","legacy","13","13","3","C:/Users/smith/subject-5216755.csv","legacy","Lentiform Loewenfeld","3.3.7","yes","yes","600bd7cfb6416f0113b04181","602110864497cf011d9c0822","0","f","NA","j","b","b","NA","f","593","NA","3218","141","172","NA","593","2","legacy","1024","2","48000","-16","task","5216755","odd","NA","16368","21589","18369","51161","3894","4212","4039","51662","NA","51159","51662","51103","21589","52256","14348","50603","3883","40837","Lexical Decision Task","15","21088","18","yes","1024"
"3.372543801","9.24","8","coat","word","84.21052631578948","84.21052631578948","1147.3157894736842","1147.3157894736842","black","no","legacy","legacy","legacy","0","uniform","1","undefined","undefined","undefined","1","j","0","0","0","0","18","0","0","0","18","NA","14","18","14","0","14","3","18","0","18","Thu Feb 18 11:47:08 2021","The main experiment item","yes","Lexical_Decision_Task.osexp","C:/Users/smith","no","Andale Mono","no","18","no","white","no","yes","576","legacy","14","14","3","C:/Users/smith/subject-5216755.csv","legacy","Lentiform Loewenfeld","3.3.7","yes","yes","600bd7cfb6416f0113b04181","602110864497cf011d9c0822","0","j","NA","j","b","b","NA","j","711","NA","3218","141","172","NA","711","2","legacy","1024","2","48000","-16","task","5216755","odd","NA","16368","21589","18369","52816","3894","4212","4039","53318","NA","52815","53318","52762","21589","54030","14348","52262","3883","40837","Lexical Decision Task","16","21799","19","yes","1024"
"2.814027728","8.2","4","foam","word","85","85","1123","1123","black","no","legacy","legacy","legacy","0","uniform","1","undefined","undefined","undefined","1","j","0","0","0","0","19","0","0","0","19","NA","15","19","15","0","15","3","19","0","19","Thu Feb 18 11:47:08 2021","The main experiment item","yes","Lexical_Decision_Task.osexp","C:/Users/smith","no","Andale Mono","no","18","no","white","no","yes","576","legacy","15","15","3","C:/Users/smith/subject-5216755.csv","legacy","Lentiform Loewenfeld","3.3.7","yes","yes","600bd7cfb6416f0113b04181","602110864497cf011d9c0822","0","j","NA","j","b","b","NA","j","661","NA","3218","141","172","NA","661","2","legacy","1024","2","48000","-16","task","5216755","odd","NA","16368","21589","18369","54587","3894","4212","4039","55088","NA","54585","55089","54534","21589","55751","14348","54034","3883","40837","Lexical Decision Task","17","22460","20","yes","1024"
"3.119255889","6.63","2","itch","word","85.71428571428571","85.71428571428571","1104.952380952381","1104.952380952381","black","no","legacy","legacy","legacy","0","uniform","1","undefined","undefined","undefined","1","j","0","0","0","0","20","0","0","0","20","NA","16","20","16","0","16","3","20","0","20","Thu Feb 18 11:47:08 2021","The main experiment item","yes","Lexical_Decision_Task.osexp","C:/Users/smith","no","Andale Mono","no","18","no","white","no","yes","576","legacy","16","16","3","C:/Users/smith/subject-5216755.csv","legacy","Lentiform Loewenfeld","3.3.7","yes","yes","600bd7cfb6416f0113b04181","602110864497cf011d9c0822","0","j","NA","j","b","b","NA","j","744","NA","3218","141","172","NA","744","2","legacy","1024","2","48000","-16","task","5216755","odd","NA","16368","21589","18369","56312","3894","4212","4039","56813","NA","56310","56814","56259","21589","57559","14348","55758","3883","40837","Lexical Decision Task","18","23204","21","yes","1024"
"3.261341392","5.08","8","reek","word","86.36363636363636","86.36363636363636","1098.0454545454545","1098.0454545454545","black","no","legacy","legacy","legacy","0","uniform","1","undefined","undefined","undefined","1","j","0","0","0","0","21","0","0","0","21","NA","17","21","17","0","17","3","21","0","21","Thu Feb 18 11:47:08 2021","The main experiment item","yes","Lexical_Decision_Task.osexp","C:/Users/smith","no","Andale Mono","no","18","no","white","no","yes","576","legacy","17","17","3","C:/Users/smith/subject-5216755.csv","legacy","Lentiform Loewenfeld","3.3.7","yes","yes","600bd7cfb6416f0113b04181","602110864497cf011d9c0822","0","j","NA","j","b","b","NA","j","953","NA","3218","141","172","NA","953","2","legacy","1024","2","48000","-16","task","5216755","odd","NA","16368","21589","18369","58120","3894","4212","4039","58621","NA","58118","58621","58064","21589","59575","14348","57564","3883","40837","Lexical Decision Task","19","24157","22","yes","1024"
"2.794720352","0","9","koot","non-word","86.95652173913044","86.95652173913044","1096.7826086956522","1096.7826086956522","black","no","legacy","legacy","legacy","0","uniform","1","undefined","undefined","undefined","1","f","0","0","0","0","22","0","0","0","22","NA","18","22","18","0","18","3","22","0","22","Thu Feb 18 11:47:08 2021","The main experiment item","yes","Lexical_Decision_Task.osexp","C:/Users/smith","no","Andale Mono","no","18","no","white","no","yes","576","legacy","18","18","3","C:/Users/smith/subject-5216755.csv","legacy","Lentiform Loewenfeld","3.3.7","yes","yes","600bd7cfb6416f0113b04181","602110864497cf011d9c0822","0","f","NA","j","b","b","NA","f","1069","NA","3218","141","172","NA","1069","2","legacy","1024","2","48000","-16","task","5216755","odd","NA","16368","21589","18369","60139","3894","4212","4039","60640","NA","60137","60641","60082","21589","61711","14348","59582","3883","40837","Lexical Decision Task","20","25226","23","yes","1024"
"2.69019608","9.01","2","myth","word","87.5","87.5","1086.4583333333333","1086.4583333333333","black","no","legacy","legacy","legacy","0","uniform","1","undefined","undefined","undefined","1","j","0","0","0","0","23","0","0","0","23","NA","19","23","19","0","19","3","23","0","23","Thu Feb 18 11:47:08 2021","The main experiment item","yes","Lexical_Decision_Task.osexp","C:/Users/smith","no","Andale Mono","no","18","no","white","no","yes","576","legacy","19","19","3","C:/Users/smith/subject-5216755.csv","legacy","Lentiform Loewenfeld","3.3.7","yes","yes","600bd7cfb6416f0113b04181","602110864497cf011d9c0822","0","j","NA","j","b","b","NA","j","849","NA","3218","141","172","NA","849","2","legacy","1024","2","48000","-16","task","5216755","odd","NA","16368","21589","18369","62274","3894","4212","4039","62775","NA","62272","62775","62218","21589","63624","14348","61718","3883","40837","Lexical Decision Task","21","26075","24","yes","1024"
"3.230789326","5.38","5","prim","word","84","84","1081.2","1081.2","black","no","legacy","legacy","legacy","0","uniform","0","undefined","undefined","undefined","0","j","0","0","0","0","24","0","0","0","24","NA","20","24","20","0","20","3","24","0","24","Thu Feb 18 11:47:08 2021","The main experiment item","yes","Lexical_Decision_Task.osexp","C:/Users/smith","no","Andale Mono","no","18","no","white","no","yes","576","legacy","20","20","3","C:/Users/smith/subject-5216755.csv","legacy","Lentiform Loewenfeld","3.3.7","yes","yes","600bd7cfb6416f0113b04181","602110864497cf011d9c0822","0","f","NA","j","b","b","NA","f","955","NA","3218","141","172","NA","955","2","legacy","1024","2","48000","-16","task","5216755","odd","NA","16368","21589","18369","64182","3894","4212","4039","64683","NA","64181","64684","64129","21589","65639","14348","63629","3883","40837","Lexical Decision Task","21","27030","25","yes","1024"
"2.895974732","6.65","5","sift","word","80.76923076923077","80.76923076923077","1078.7307692307693","1078.7307692307693","black","no","legacy","legacy","legacy","0","uniform","0","undefined","undefined","undefined","0","j","0","0","0","0","25","0","0","0","25","NA","21","25","21","0","21","3","25","0","25","Thu Feb 18 11:47:08 2021","The main experiment item","yes","Lexical_Decision_Task.osexp","C:/Users/smith","no","Andale Mono","no","18","no","white","no","yes","576","legacy","21","21","3","C:/Users/smith/subject-5216755.csv","legacy","Lentiform Loewenfeld","3.3.7","yes","yes","600bd7cfb6416f0113b04181","602110864497cf011d9c0822","0","f","NA","j","b","b","NA","f","1017","NA","3218","141","172","NA","1017","2","legacy","1024","2","48000","-16","task","5216755","odd","NA","16368","21589","18369","67199","3894","4212","4039","67700","NA","67197","67700","67144","21589","68720","14348","63629","3883","65644","Lexical Decision Task","21","28047","26","yes","1024"
"2.708989954","9.28","9","bowl","word","81.48148148148148","81.48148148148148","1068.111111111111","1068.111111111111","black","no","legacy","legacy","legacy","0","uniform","1","undefined","undefined","undefined","1","j","0","0","0","0","26","0","0","0","26","NA","22","26","22","0","22","3","26","0","26","Thu Feb 18 11:47:08 2021","The main experiment item","yes","Lexical_Decision_Task.osexp","C:/Users/smith","no","Andale Mono","no","18","no","white","no","yes","576","legacy","22","22","3","C:/Users/smith/subject-5216755.csv","legacy","Lentiform Loewenfeld","3.3.7","yes","yes","600bd7cfb6416f0113b04181","602110864497cf011d9c0822","0","j","NA","j","b","b","NA","j","792","NA","3218","141","172","NA","792","2","legacy","1024","2","48000","-16","task","5216755","odd","NA","16368","21589","18369","70282","3894","4212","4039","70783","NA","70281","70783","70225","21589","71576","14348","63629","3883","68725","Lexical Decision Task","22","28839","27","yes","1024"
"3.043885998","0","9","gome","non-word","78.57142857142857","78.57142857142857","1099.8214285714287","1099.8214285714287","black","no","legacy","legacy","legacy","0","uniform","0","undefined","undefined","undefined","0","f","0","0","0","0","27","0","0","0","27","NA","23","27","23","0","23","3","27","0","27","Thu Feb 18 11:47:08 2021","The main experiment item","yes","Lexical_Decision_Task.osexp","C:/Users/smith","no","Andale Mono","no","18","no","white","no","yes","576","legacy","23","23","3","C:/Users/smith/subject-5216755.csv","legacy","Lentiform Loewenfeld","3.3.7","yes","yes","600bd7cfb6416f0113b04181","602110864497cf011d9c0822","0","j","NA","j","b","b","NA","j","1956","NA","3218","141","172","NA","1956","2","legacy","1024","2","48000","-16","task","5216755","odd","NA","16368","21589","18369","72135","3894","4212","4039","72637","NA","72133","72637","72082","21589","74595","14348","71582","3883","68725","Lexical Decision Task","22","30795","28","yes","1024"
"3.366547468","0","6","plat","non-word","79.3103448275862","79.3103448275862","1097.551724137931","1097.551724137931","black","no","legacy","legacy","legacy","0","uniform","1","undefined","undefined","undefined","1","f","0","0","0","0","28","0","0","0","28","NA","24","28","24","0","24","3","28","0","28","Thu Feb 18 11:47:08 2021","The main experiment item","yes","Lexical_Decision_Task.osexp","C:/Users/smith","no","Andale Mono","no","18","no","white","no","yes","576","legacy","24","24","3","C:/Users/smith/subject-5216755.csv","legacy","Lentiform Loewenfeld","3.3.7","yes","yes","600bd7cfb6416f0113b04181","602110864497cf011d9c0822","0","f","NA","j","b","b","NA","f","1034","NA","3218","141","172","NA","1034","2","legacy","1024","2","48000","-16","task","5216755","odd","NA","16368","21589","18369","76162","3894","4212","4039","76663","NA","76160","76663","76102","21589","77699","14348","71582","3883","74602","Lexical Decision Task","23","31829","29","yes","1024"
"3.090140555","5.81","8","pout","word","80","80","1086.5666666666666","1086.5666666666666","black","no","legacy","legacy","legacy","0","uniform","1","undefined","undefined","undefined","1","j","0","0","0","0","29","0","0","0","29","NA","25","29","25","0","25","3","29","0","29","Thu Feb 18 11:47:08 2021","The main experiment item","yes","Lexical_Decision_Task.osexp","C:/Users/smith","no","Andale Mono","no","18","no","white","no","yes","576","legacy","25","25","3","C:/Users/smith/subject-5216755.csv","legacy","Lentiform Loewenfeld","3.3.7","yes","yes","600bd7cfb6416f0113b04181","602110864497cf011d9c0822","0","j","NA","j","b","b","NA","j","768","NA","3218","141","172","NA","768","2","legacy","1024","2","48000","-16","task","5216755","odd","NA","16368","21589","18369","78255","3894","4212","4039","78756","NA","78253","78757","78204","21589","79527","14348","77704","3883","74602","Lexical Decision Task","24","32597","30","yes","1024"
"3.091901331","0","9","nipe","non-word","80.64516129032258","80.64516129032258","1086.3225806451612","1086.3225806451612","black","no","legacy","legacy","legacy","0","uniform","1","undefined","undefined","undefined","1","f","0","0","0","0","30","0","0","0","30","NA","26","30","26","0","26","3","30","0","30","Thu Feb 18 11:47:08 2021","The main experiment item","yes","Lexical_Decision_Task.osexp","C:/Users/smith","no","Andale Mono","no","18","no","white","no","yes","576","legacy","26","26","3","C:/Users/smith/subject-5216755.csv","legacy","Lentiform Loewenfeld","3.3.7","yes","yes","600bd7cfb6416f0113b04181","602110864497cf011d9c0822","0","f","NA","j","b","b","NA","f","1079","NA","3218","141","172","NA","1079","2","legacy","1024","2","48000","-16","task","5216755","odd","NA","16368","21589","18369","80089","3894","4212","4039","80591","NA","80087","80591","80031","21589","81671","14348","79531","3883","74602","Lexical Decision Task","25","33676","31","yes","1024"
"3.028977705","0","7","frow","non-word","78.125","78.125","1092.03125","1092.03125","black","no","legacy","legacy","legacy","0","uniform","0","undefined","undefined","undefined","0","f","0","0","0","0","31","0","0","0","31","NA","27","31","27","0","27","3","31","0","31","Thu Feb 18 11:47:08 2021","The main experiment item","yes","Lexical_Decision_Task.osexp","C:/Users/smith","no","Andale Mono","no","18","no","white","no","yes","576","legacy","27","27","3","C:/Users/smith/subject-5216755.csv","legacy","Lentiform Loewenfeld","3.3.7","yes","yes","600bd7cfb6416f0113b04181","602110864497cf011d9c0822","0","j","NA","j","b","b","NA","j","1269","NA","3218","141","172","NA","1269","2","legacy","1024","2","48000","-16","task","5216755","odd","NA","16368","21589","18369","82231","3894","4212","4039","82732","NA","82229","82732","82175","21589","84001","14348","81675","3883","74602","Lexical Decision Task","25","34945","32","yes","1024"
"3.076883066","0","8","mout","non-word","78.78787878787878","78.78787878787878","1082.878787878788","1082.878787878788","black","no","legacy","legacy","legacy","0","uniform","1","undefined","undefined","undefined","1","f","0","0","0","0","32","0","0","0","32","NA","28","32","28","0","28","3","32","0","32","Thu Feb 18 11:47:08 2021","The main experiment item","yes","Lexical_Decision_Task.osexp","C:/Users/smith","no","Andale Mono","no","18","no","white","no","yes","576","legacy","28","28","3","C:/Users/smith/subject-5216755.csv","legacy","Lentiform Loewenfeld","3.3.7","yes","yes","600bd7cfb6416f0113b04181","602110864497cf011d9c0822","0","f","NA","j","b","b","NA","f","790","NA","3218","141","172","NA","790","2","legacy","1024","2","48000","-16","task","5216755","odd","NA","16368","21589","18369","85565","3894","4212","4039","86066","NA","85564","86066","85505","21589","86857","14348","81675","3883","84005","Lexical Decision Task","26","35735","33","yes","1024"
"3.140404328","10.66","9","deep","word","79.41176470588235","79.41176470588235","1074.2058823529412","1074.2058823529412","black","no","legacy","legacy","legacy","0","uniform","1","undefined","undefined","undefined","1","j","0","0","0","0","33","0","0","0","33","NA","29","33","29","0","29","3","33","0","33","Thu Feb 18 11:47:08 2021","The main experiment item","yes","Lexical_Decision_Task.osexp","C:/Users/smith","no","Andale Mono","no","18","no","white","no","yes","576","legacy","29","29","3","C:/Users/smith/subject-5216755.csv","legacy","Lentiform Loewenfeld","3.3.7","yes","yes","600bd7cfb6416f0113b04181","602110864497cf011d9c0822","0","j","NA","j","b","b","NA","j","788","NA","3218","141","172","NA","788","2","legacy","1024","2","48000","-16","task","5216755","odd","NA","16368","21589","18369","87417","3894","4212","4039","87918","NA","87415","87919","87363","21589","88710","14348","86863","3883","84005","Lexical Decision Task","27","36523","34","yes","1024"
"3.282244367","0","6","fute","non-word","80","80","1065.4","1065.4","black","no","legacy","legacy","legacy","0","uniform","1","undefined","undefined","undefined","1","f","0","0","0","0","34","0","0","0","34","NA","30","34","30","0","30","3","34","0","34","Thu Feb 18 11:47:08 2021","The main experiment item","yes","Lexical_Decision_Task.osexp","C:/Users/smith","no","Andale Mono","no","18","no","white","no","yes","576","legacy","30","30","3","C:/Users/smith/subject-5216755.csv","legacy","Lentiform Loewenfeld","3.3.7","yes","yes","600bd7cfb6416f0113b04181","602110864497cf011d9c0822","0","f","NA","j","b","b","NA","f","766","NA","3218","141","172","NA","766","2","legacy","1024","2","48000","-16","task","5216755","odd","NA","16368","21589","18369","89272","3894","4212","4039","89773","NA","89270","89773","89216","21589","90540","14348","88716","3883","84005","Lexical Decision Task","28","37289","35","yes","1024"
"3.066077331","0","7","vorn","non-word","80.55555555555556","80.55555555555556","1058.5277777777778","1058.5277777777778","black","no","legacy","legacy","legacy","0","uniform","1","undefined","undefined","undefined","1","f","0","0","0","0","35","0","0","0","35","NA","31","35","31","0","31","3","35","0","35","Thu Feb 18 11:47:08 2021","The main experiment item","yes","Lexical_Decision_Task.osexp","C:/Users/smith","no","Andale Mono","no","18","no","white","no","yes","576","legacy","31","31","3","C:/Users/smith/subject-5216755.csv","legacy","Lentiform Loewenfeld","3.3.7","yes","yes","600bd7cfb6416f0113b04181","602110864497cf011d9c0822","0","f","NA","j","b","b","NA","f","818","NA","3218","141","172","NA","818","2","legacy","1024","2","48000","-16","task","5216755","odd","NA","16368","21589","18369","91099","3894","4212","4039","91600","NA","91097","91600","91046","21589","92419","14348","90546","3883","84005","Lexical Decision Task","29","38107","36","yes","1024"
"3.208978517","10.33","4","fish","word","81.08108108108108","81.08108108108108","1045.3513513513512","1045.3513513513512","black","no","legacy","legacy","legacy","0","uniform","1","undefined","undefined","undefined","1","j","0","0","0","0","36","0","0","0","36","NA","32","36","32","0","32","3","36","0","36","Thu Feb 18 11:47:08 2021","The main experiment item","yes","Lexical_Decision_Task.osexp","C:/Users/smith","no","Andale Mono","no","18","no","white","no","yes","576","legacy","32","32","3","C:/Users/smith/subject-5216755.csv","legacy","Lentiform Loewenfeld","3.3.7","yes","yes","600bd7cfb6416f0113b04181","602110864497cf011d9c0822","0","j","NA","j","b","b","NA","j","571","NA","3218","141","172","NA","571","2","legacy","1024","2","48000","-16","task","5216755","odd","NA","16368","21589","18369","92980","3894","4212","4039","93481","NA","92978","93481","92924","21589","94053","14348","92424","3883","84005","Lexical Decision Task","30","38678","37","yes","1024"
"2.698100546","0","9","mulk","non-word","81.57894736842105","81.57894736842105","1039.9736842105262","1039.9736842105262","black","no","legacy","legacy","legacy","0","uniform","1","undefined","undefined","undefined","1","f","0","0","0","0","37","0","0","0","37","NA","33","37","33","0","33","3","37","0","37","Thu Feb 18 11:47:08 2021","The main experiment item","yes","Lexical_Decision_Task.osexp","C:/Users/smith","no","Andale Mono","no","18","no","white","no","yes","576","legacy","33","33","3","C:/Users/smith/subject-5216755.csv","legacy","Lentiform Loewenfeld","3.3.7","yes","yes","600bd7cfb6416f0113b04181","602110864497cf011d9c0822","0","f","NA","j","b","b","NA","f","841","NA","3218","141","172","NA","841","2","legacy","1024","2","48000","-16","task","5216755","odd","NA","16368","21589","18369","94618","3894","4212","4039","95119","NA","94616","95121","94558","21589","95963","14348","94058","3883","84005","Lexical Decision Task","31","39519","38","yes","1024"
"2.696644658","5.78","2","yolk","word","82.05128205128206","82.05128205128206","1037.025641025641","1037.025641025641","black","no","legacy","legacy","legacy","0","uniform","1","undefined","undefined","undefined","1","j","0","0","0","0","38","0","0","0","38","NA","34","38","34","0","34","3","38","0","38","Thu Feb 18 11:47:08 2021","The main experiment item","yes","Lexical_Decision_Task.osexp","C:/Users/smith","no","Andale Mono","no","18","no","white","no","yes","576","legacy","34","34","3","C:/Users/smith/subject-5216755.csv","legacy","Lentiform Loewenfeld","3.3.7","yes","yes","600bd7cfb6416f0113b04181","602110864497cf011d9c0822","0","j","NA","j","b","b","NA","j","925","NA","3218","141","172","NA","925","2","legacy","1024","2","48000","-16","task","5216755","odd","NA","16368","21589","18369","96527","3894","4212","4039","97029","NA","96525","97029","96468","21589","97956","14348","95968","3883","84005","Lexical Decision Task","32","40444","39","yes","1024"
"3.037294994","8.64","7","roof","word","82.5","82.5","1033.075","1033.075","black","no","legacy","legacy","legacy","0","uniform","1","undefined","undefined","undefined","1","j","0","0","0","0","39","0","0","0","39","NA","35","39","35","0","35","3","39","0","39","Thu Feb 18 11:47:08 2021","The main experiment item","yes","Lexical_Decision_Task.osexp","C:/Users/smith","no","Andale Mono","no","18","no","white","no","yes","576","legacy","35","35","3","C:/Users/smith/subject-5216755.csv","legacy","Lentiform Loewenfeld","3.3.7","yes","yes","600bd7cfb6416f0113b04181","602110864497cf011d9c0822","0","j","NA","j","b","b","NA","j","879","NA","3218","141","172","NA","879","2","legacy","1024","2","48000","-16","task","5216755","odd","NA","16368","21589","18369","98512","3894","4212","4039","99014","NA","98510","99014","98460","21589","99895","14348","97960","3883","84005","Lexical Decision Task","33","41323","40","yes","1024"
"3.529815197","0","3","lerm","non-word","82.92682926829268","82.92682926829268","1024.7073170731708","1024.7073170731708","black","no","legacy","legacy","legacy","0","uniform","1","undefined","undefined","undefined","1","f","0","0","0","0","40","0","0","0","40","NA","36","40","36","0","36","3","40","0","40","Thu Feb 18 11:47:08 2021","The main experiment item","yes","Lexical_Decision_Task.osexp","C:/Users/smith","no","Andale Mono","no","18","no","white","no","yes","576","legacy","36","36","3","C:/Users/smith/subject-5216755.csv","legacy","Lentiform Loewenfeld","3.3.7","yes","yes","600bd7cfb6416f0113b04181","602110864497cf011d9c0822","0","f","NA","j","b","b","NA","f","690","NA","3218","141","172","NA","690","2","legacy","1024","2","48000","-16","task","5216755","odd","NA","16368","21589","18369","100452","3894","4212","4039","100954","NA","100450","100954","100400","21589","101647","14348","99900","3883","84005","Lexical Decision Task","34","42013","41","yes","1024"
"2.64476673","0","5","moft","non-word","83.33333333333333","83.33333333333333","1016.5238095238095","1016.5238095238095","black","no","legacy","legacy","legacy","0","uniform","1","undefined","undefined","undefined","1","f","0","0","0","0","41","0","0","0","41","NA","37","41","37","0","37","3","41","0","41","Thu Feb 18 11:47:08 2021","The main experiment item","yes","Lexical_Decision_Task.osexp","C:/Users/smith","no","Andale Mono","no","18","no","white","no","yes","576","legacy","37","37","3","C:/Users/smith/subject-5216755.csv","legacy","Lentiform Loewenfeld","3.3.7","yes","yes","600bd7cfb6416f0113b04181","602110864497cf011d9c0822","0","f","NA","j","b","b","NA","f","681","NA","3218","141","172","NA","681","2","legacy","1024","2","48000","-16","task","5216755","odd","NA","16368","21589","18369","102206","3894","4212","4039","102709","NA","102205","102709","102151","21589","103393","14348","101651","3883","84005","Lexical Decision Task","35","42694","42","yes","1024"
"2.807758206","6.25","4","hurl","word","83.72093023255815","83.72093023255815","1013","1013","black","no","legacy","legacy","legacy","0","uniform","1","undefined","undefined","undefined","1","j","0","0","0","0","42","0","0","0","42","NA","38","42","38","0","38","3","42","0","42","Thu Feb 18 11:47:08 2021","The main experiment item","yes","Lexical_Decision_Task.osexp","C:/Users/smith","no","Andale Mono","no","18","no","white","no","yes","576","legacy","38","38","3","C:/Users/smith/subject-5216755.csv","legacy","Lentiform Loewenfeld","3.3.7","yes","yes","600bd7cfb6416f0113b04181","602110864497cf011d9c0822","0","j","NA","j","b","b","NA","j","865","NA","3218","141","172","NA","865","2","legacy","1024","2","48000","-16","task","5216755","odd","NA","16368","21589","18369","103950","3894","4212","4039","104452","NA","103948","104452","103898","21589","105318","14348","103398","3883","84005","Lexical Decision Task","36","43559","43","yes","1024"
"3.225825991","0","7","talm","non-word","84.0909090909091","84.0909090909091","1006.5227272727273","1006.5227272727273","black","no","legacy","legacy","legacy","0","uniform","1","undefined","undefined","undefined","1","f","0","0","0","0","43","0","0","0","43","NA","39","43","39","0","39","3","43","0","43","Thu Feb 18 11:47:08 2021","The main experiment item","yes","Lexical_Decision_Task.osexp","C:/Users/smith","no","Andale Mono","no","18","no","white","no","yes","576","legacy","39","39","3","C:/Users/smith/subject-5216755.csv","legacy","Lentiform Loewenfeld","3.3.7","yes","yes","600bd7cfb6416f0113b04181","602110864497cf011d9c0822","0","f","NA","j","b","b","NA","f","728","NA","3218","141","172","NA","728","2","legacy","1024","2","48000","-16","task","5216755","odd","NA","16368","21589","18369","105878","3894","4212","4039","106379","NA","105875","106379","105822","21589","107111","14348","105322","3883","84005","Lexical Decision Task","37","44287","44","yes","1024"
"2.899638141","0","3","hapt","non-word","84.44444444444444","84.44444444444444","1003.8666666666667","1003.8666666666667","black","no","legacy","legacy","legacy","0","uniform","1","undefined","undefined","undefined","1","f","0","0","0","0","44","0","0","0","44","NA","40","44","40","0","40","3","44","0","44","Thu Feb 18 11:47:08 2021","The main experiment item","yes","Lexical_Decision_Task.osexp","C:/Users/smith","no","Andale Mono","no","18","no","white","no","yes","576","legacy","40","40","3","C:/Users/smith/subject-5216755.csv","legacy","Lentiform Loewenfeld","3.3.7","yes","yes","600bd7cfb6416f0113b04181","602110864497cf011d9c0822","0","f","NA","j","b","b","NA","f","887","NA","3218","141","172","NA","887","2","legacy","1024","2","48000","-16","task","5216755","odd","NA","16368","21589","18369","107670","3894","4212","4039","108172","NA","107669","108172","107618","21589","109061","14348","107118","3883","84005","Lexical Decision Task","38","45174","45","yes","1024"
"3.197740804","6.74","3","ache","word","84.78260869565217","84.78260869565217","1001.2608695652174","1001.2608695652174","black","no","legacy","legacy","legacy","0","uniform","1","undefined","undefined","undefined","1","j","0","0","0","0","45","0","0","0","45","NA","41","45","41","0","41","3","45","0","45","Thu Feb 18 11:47:08 2021","The main experiment item","yes","Lexical_Decision_Task.osexp","C:/Users/smith","no","Andale Mono","no","18","no","white","no","yes","576","legacy","41","41","3","C:/Users/smith/subject-5216755.csv","legacy","Lentiform Loewenfeld","3.3.7","yes","yes","600bd7cfb6416f0113b04181","602110864497cf011d9c0822","0","j","NA","j","b","b","NA","j","884","NA","3218","141","172","NA","884","2","legacy","1024","2","48000","-16","task","5216755","odd","NA","16368","21589","18369","109638","3894","4212","4039","110138","NA","109637","110139","109566","21589","111024","14348","109066","3883","84005","Lexical Decision Task","39","46058","46","yes","1024"
"3.302475237","0","7","leel","non-word","85.1063829787234","85.1063829787234","1005","1005","black","no","legacy","legacy","legacy","0","uniform","1","undefined","undefined","undefined","1","f","0","0","0","0","46","0","0","0","46","NA","42","46","42","0","42","3","46","0","46","Thu Feb 18 11:47:08 2021","The main experiment item","yes","Lexical_Decision_Task.osexp","C:/Users/smith","no","Andale Mono","no","18","no","white","no","yes","576","legacy","42","42","3","C:/Users/smith/subject-5216755.csv","legacy","Lentiform Loewenfeld","3.3.7","yes","yes","600bd7cfb6416f0113b04181","602110864497cf011d9c0822","0","f","NA","j","b","b","NA","f","1177","NA","3218","141","172","NA","1177","2","legacy","1024","2","48000","-16","task","5216755","odd","NA","16368","21589","18369","111587","3894","4212","4039","112088","NA","111585","112088","111530","21589","113267","14348","111030","3883","84005","Lexical Decision Task","40","47235","47","yes","1024"
"3.149629599","0","2","cleb","non-word","85.41666666666667","85.41666666666667","1006.875","1006.875","black","no","legacy","legacy","legacy","0","uniform","1","undefined","undefined","undefined","1","f","0","0","0","0","47","0","0","0","47","NA","43","47","43","0","43","3","47","0","47","Thu Feb 18 11:47:08 2021","The main experiment item","yes","Lexical_Decision_Task.osexp","C:/Users/smith","no","Andale Mono","no","18","no","white","no","yes","576","legacy","43","43","3","C:/Users/smith/subject-5216755.csv","legacy","Lentiform Loewenfeld","3.3.7","yes","yes","600bd7cfb6416f0113b04181","602110864497cf011d9c0822","0","f","NA","j","b","b","NA","f","1095","NA","3218","141","172","NA","1095","2","legacy","1024","2","48000","-16","task","5216755","odd","NA","16368","21589","18369","113830","3894","4212","4039","114331","NA","113827","114331","113773","21589","115428","14348","113273","3883","84005","Lexical Decision Task","41","48330","48","yes","1024"
"2.803231716","5.26","3","kiln","word","83.6734693877551","83.6734693877551","998.734693877551","998.734693877551","black","no","legacy","legacy","legacy","0","uniform","0","undefined","undefined","undefined","0","j","0","0","0","0","48","0","0","0","48","NA","44","48","44","0","44","3","48","0","48","Thu Feb 18 11:47:08 2021","The main experiment item","yes","Lexical_Decision_Task.osexp","C:/Users/smith","no","Andale Mono","no","18","no","white","no","yes","576","legacy","44","44","3","C:/Users/smith/subject-5216755.csv","legacy","Lentiform Loewenfeld","3.3.7","yes","yes","600bd7cfb6416f0113b04181","602110864497cf011d9c0822","0","f","NA","j","b","b","NA","f","608","NA","3218","141","172","NA","608","2","legacy","1024","2","48000","-16","task","5216755","odd","NA","16368","21589","18369","115983","3894","4212","4039","116484","NA","115982","116484","115932","21589","117093","14348","115432","3883","84005","Lexical Decision Task","41","48938","49","yes","1024"
"3.1430148","7.92","8","bald","word","84","84","993.68","993.68","black","no","legacy","legacy","legacy","0","uniform","1","undefined","undefined","undefined","1","j","0","0","0","0","49","0","0","0","49","NA","45","49","45","0","45","3","49","0","49","Thu Feb 18 11:47:08 2021","The main experiment item","yes","Lexical_Decision_Task.osexp","C:/Users/smith","no","Andale Mono","no","18","no","white","no","yes","576","legacy","45","45","3","C:/Users/smith/subject-5216755.csv","legacy","Lentiform Loewenfeld","3.3.7","yes","yes","600bd7cfb6416f0113b04181","602110864497cf011d9c0822","0","j","NA","j","b","b","NA","j","746","NA","3218","141","172","NA","746","2","legacy","1024","2","48000","-16","task","5216755","odd","NA","16368","21589","18369","118657","3894","4212","4039","119159","NA","118655","119159","118599","21589","119906","14348","115432","3883","117099","Lexical Decision Task","42","49684","50","yes","1024"
"3.094121596","0","8","fode","non-word","84.31372549019608","84.31372549019608","992.1764705882352","992.1764705882352","black","no","legacy","legacy","legacy","0","uniform","1","undefined","undefined","undefined","1","f","0","0","0","0","50","0","0","0","50","NA","46","50","46","0","46","3","50","0","50","Thu Feb 18 11:47:08 2021","The main experiment item","yes","Lexical_Decision_Task.osexp","C:/Users/smith","no","Andale Mono","no","18","no","white","no","yes","576","legacy","46","46","3","C:/Users/smith/subject-5216755.csv","legacy","Lentiform Loewenfeld","3.3.7","yes","yes","600bd7cfb6416f0113b04181","602110864497cf011d9c0822","0","f","NA","j","b","b","NA","f","917","NA","3218","141","172","NA","917","2","legacy","1024","2","48000","-16","task","5216755","odd","NA","16368","21589","18369","120467","3894","4212","4039","120968","NA","120465","120969","120411","21589","121888","14348","119911","3883","117099","Lexical Decision Task","43","50601","51","yes","1024"
"2.842815106","7.86","8","lump","word","84.61538461538461","84.61538461538461","992.7307692307693","992.7307692307693","black","no","legacy","legacy","legacy","0","uniform","1","undefined","undefined","undefined","1","j","0","0","0","0","51","0","0","0","51","NA","47","51","47","0","47","3","51","0","51","Thu Feb 18 11:47:08 2021","The main experiment item","yes","Lexical_Decision_Task.osexp","C:/Users/smith","no","Andale Mono","no","18","no","white","no","yes","576","legacy","47","47","3","C:/Users/smith/subject-5216755.csv","legacy","Lentiform Loewenfeld","3.3.7","yes","yes","600bd7cfb6416f0113b04181","602110864497cf011d9c0822","0","j","NA","j","b","b","NA","j","1021","NA","3218","141","172","NA","1021","2","legacy","1024","2","48000","-16","task","5216755","odd","NA","16368","21589","18369","122446","3894","4212","4039","122947","NA","122444","122948","122392","21589","123970","14348","121892","3883","117099","Lexical Decision Task","44","51622","52","yes","1024"
"3.492014979","0","9","yine","non-word","84.90566037735849","84.90566037735849","988.4528301886793","988.4528301886793","black","no","legacy","legacy","legacy","0","uniform","1","undefined","undefined","undefined","1","f","0","0","0","0","52","0","0","0","52","NA","48","52","48","0","48","3","52","0","52","Thu Feb 18 11:47:08 2021","The main experiment item","yes","Lexical_Decision_Task.osexp","C:/Users/smith","no","Andale Mono","no","18","no","white","no","yes","576","legacy","48","48","3","C:/Users/smith/subject-5216755.csv","legacy","Lentiform Loewenfeld","3.3.7","yes","yes","600bd7cfb6416f0113b04181","602110864497cf011d9c0822","0","f","NA","j","b","b","NA","f","766","NA","3218","141","172","NA","766","2","legacy","1024","2","48000","-16","task","5216755","odd","NA","16368","21589","18369","124529","3894","4212","4039","125031","NA","124527","125031","124475","21589","125799","14348","123975","3883","117099","Lexical Decision Task","45","52388","53","yes","1024"
"2.966923697","5.4","2","fume","word","85.18518518518519","85.18518518518519","986.5","986.5","black","no","legacy","legacy","legacy","0","uniform","1","undefined","undefined","undefined","1","j","0","0","0","0","53","0","0","0","53","NA","49","53","49","0","49","3","53","0","53","Thu Feb 18 11:47:08 2021","The main experiment item","yes","Lexical_Decision_Task.osexp","C:/Users/smith","no","Andale Mono","no","18","no","white","no","yes","576","legacy","49","49","3","C:/Users/smith/subject-5216755.csv","legacy","Lentiform Loewenfeld","3.3.7","yes","yes","600bd7cfb6416f0113b04181","602110864497cf011d9c0822","0","j","NA","j","b","b","NA","j","883","NA","3218","141","172","NA","883","2","legacy","1024","2","48000","-16","task","5216755","odd","NA","16368","21589","18369","126358","3894","4212","4039","126859","NA","126356","126859","126305","21589","127744","14348","125805","3883","117099","Lexical Decision Task","46","53271","54","yes","1024"
"2.594027722","9.08","8","skip","word","85.45454545454545","85.45454545454545","981.9090909090909","981.9090909090909","black","no","legacy","legacy","legacy","0","uniform","1","undefined","undefined","undefined","1","j","0","0","0","0","54","0","0","0","54","0","50","54","50","0","50","3","54","0","54","Thu Feb 18 11:47:08 2021","The main experiment item","yes","Lexical_Decision_Task.osexp","C:/Users/smith","no","Andale Mono","no","18","no","white","no","yes","576","legacy","50","50","3","C:/Users/smith/subject-5216755.csv","legacy","Lentiform Loewenfeld","3.3.7","yes","yes","600bd7cfb6416f0113b04181","602110864497cf011d9c0822","0","j","NA","j","b","b","f","j","734","NA","3218","141","172","12628","734","2","legacy","1024","2","48000","-16","task","5216755","odd","NA","16368","21589","18369","140967","3894","4212","4039","141468","128284","140965","141468","128250","21589","142203","14348","127750","3883","117099","Lexical Decision Task","47","54005","55","yes","1024"
"3.159867847","5.98","5","brim","word","85.71428571428571","85.71428571428571","976.4642857142857","976.4642857142857","black","no","legacy","legacy","legacy","0","uniform","1","undefined","undefined","undefined","1","j","0","0","0","0","55","0","0","0","55","0","51","55","51","0","51","3","55","0","55","Thu Feb 18 11:47:08 2021","The main experiment item","yes","Lexical_Decision_Task.osexp","C:/Users/smith","no","Andale Mono","no","18","no","white","no","yes","576","legacy","51","51","3","C:/Users/smith/subject-5216755.csv","legacy","Lentiform Loewenfeld","3.3.7","yes","yes","600bd7cfb6416f0113b04181","602110864497cf011d9c0822","0","j","NA","j","b","b","f","j","677","NA","3218","141","172","12628","677","2","legacy","1024","2","48000","-16","task","5216755","odd","NA","16368","21589","18369","142761","3894","4212","4039","143262","128284","142760","143262","142708","21589","143941","14348","142208","3883","117099","Lexical Decision Task","48","54682","56","yes","1024"
"3.067193647","6.73","6","raft","word","85.96491228070175","85.96491228070175","976.1052631578947","976.1052631578947","black","no","legacy","legacy","legacy","0","uniform","1","undefined","undefined","undefined","1","j","0","0","0","0","56","0","0","0","56","0","52","56","52","0","52","3","56","0","56","Thu Feb 18 11:47:08 2021","The main experiment item","yes","Lexical_Decision_Task.osexp","C:/Users/smith","no","Andale Mono","no","18","no","white","no","yes","576","legacy","52","52","3","C:/Users/smith/subject-5216755.csv","legacy","Lentiform Loewenfeld","3.3.7","yes","yes","600bd7cfb6416f0113b04181","602110864497cf011d9c0822","0","j","NA","j","b","b","f","j","956","NA","3218","141","172","12628","956","2","legacy","1024","2","48000","-16","task","5216755","odd","NA","16368","21589","18369","144500","3894","4212","4039","145002","128284","144499","145002","144447","21589","145959","14348","143947","3883","117099","Lexical Decision Task","49","55638","57","yes","1024"
"3.153104174","10.89","6","door","word","86.20689655172414","86.20689655172414","969.4310344827586","969.4310344827586","black","no","legacy","legacy","legacy","0","uniform","1","undefined","undefined","undefined","1","j","0","0","0","0","57","0","0","0","57","0","53","57","53","0","53","3","57","0","57","Thu Feb 18 11:47:08 2021","The main experiment item","yes","Lexical_Decision_Task.osexp","C:/Users/smith","no","Andale Mono","no","18","no","white","no","yes","576","legacy","53","53","3","C:/Users/smith/subject-5216755.csv","legacy","Lentiform Loewenfeld","3.3.7","yes","yes","600bd7cfb6416f0113b04181","602110864497cf011d9c0822","0","j","NA","j","b","b","f","j","589","NA","3218","141","172","12628","589","2","legacy","1024","2","48000","-16","task","5216755","odd","NA","16368","21589","18369","146516","3894","4212","4039","147018","128284","146515","147018","146465","21589","147608","14348","145965","3883","117099","Lexical Decision Task","50","56227","58","yes","1024"
"3.347850856","10.51","2","rich","word","86.44067796610169","86.44067796610169","966.5254237288135","966.5254237288135","black","no","legacy","legacy","legacy","0","uniform","1","undefined","undefined","undefined","1","j","0","0","0","0","58","0","0","0","58","0","54","58","54","0","54","3","58","0","58","Thu Feb 18 11:47:08 2021","The main experiment item","yes","Lexical_Decision_Task.osexp","C:/Users/smith","no","Andale Mono","no","18","no","white","no","yes","576","legacy","54","54","3","C:/Users/smith/subject-5216755.csv","legacy","Lentiform Loewenfeld","3.3.7","yes","yes","600bd7cfb6416f0113b04181","602110864497cf011d9c0822","0","j","NA","j","b","b","f","j","798","NA","3218","141","172","12628","798","2","legacy","1024","2","48000","-16","task","5216755","odd","NA","16368","21589","18369","148164","3894","4212","4039","148666","128284","148163","148666","148113","21589","149466","14348","147612","3883","117099","Lexical Decision Task","51","57025","59","yes","1024"
"3.14849993","10.75","7","hour","word","86.66666666666667","86.66666666666667","959.9666666666667","959.9666666666667","black","no","legacy","legacy","legacy","0","uniform","1","undefined","undefined","undefined","1","j","0","0","0","0","59","0","0","0","59","0","55","59","55","0","55","3","59","0","59","Thu Feb 18 11:47:08 2021","The main experiment item","yes","Lexical_Decision_Task.osexp","C:/Users/smith","no","Andale Mono","no","18","no","white","no","yes","576","legacy","55","55","3","C:/Users/smith/subject-5216755.csv","legacy","Lentiform Loewenfeld","3.3.7","yes","yes","600bd7cfb6416f0113b04181","602110864497cf011d9c0822","0","j","NA","j","b","b","f","j","573","NA","3218","141","172","12628","573","2","legacy","1024","2","48000","-16","task","5216755","odd","NA","16368","21589","18369","150028","3894","4212","4039","150529","128284","150027","150529","149971","21589","151104","14348","149471","3883","117099","Lexical Decision Task","52","57598","60","yes","1024"
"2.793790385","5.67","9","swab","word","86.88524590163935","86.88524590163935","955.4918032786885","955.4918032786885","black","no","legacy","legacy","legacy","0","uniform","1","undefined","undefined","undefined","1","j","0","0","0","0","60","0","0","0","60","0","56","60","56","0","56","3","60","0","60","Thu Feb 18 11:47:08 2021","The main experiment item","yes","Lexical_Decision_Task.osexp","C:/Users/smith","no","Andale Mono","no","18","no","white","no","yes","576","legacy","56","56","3","C:/Users/smith/subject-5216755.csv","legacy","Lentiform Loewenfeld","3.3.7","yes","yes","600bd7cfb6416f0113b04181","602110864497cf011d9c0822","0","j","NA","j","b","b","f","j","687","NA","3218","141","172","12628","687","2","legacy","1024","2","48000","-16","task","5216755","odd","NA","16368","21589","18369","151671","3894","4212","4039","152172","128284","151669","152172","151609","21589","152862","14348","151109","3883","117099","Lexical Decision Task","53","58285","61","yes","1024"
"2.698387659","6.66","7","skid","word","87.09677419354838","87.09677419354838","952.9677419354839","952.9677419354839","black","no","legacy","legacy","legacy","0","uniform","1","undefined","undefined","undefined","1","j","0","0","0","0","61","0","0","0","61","0","57","61","57","0","57","3","61","0","61","Thu Feb 18 11:47:08 2021","The main experiment item","yes","Lexical_Decision_Task.osexp","C:/Users/smith","no","Andale Mono","no","18","no","white","no","yes","576","legacy","57","57","3","C:/Users/smith/subject-5216755.csv","legacy","Lentiform Loewenfeld","3.3.7","yes","yes","600bd7cfb6416f0113b04181","602110864497cf011d9c0822","0","j","NA","j","b","b","f","j","799","NA","3218","141","172","12628","799","2","legacy","1024","2","48000","-16","task","5216755","odd","NA","16368","21589","18369","153419","3894","4212","4039","153920","128284","153418","153920","153367","21589","154721","14348","152867","3883","117099","Lexical Decision Task","54","59084","62","yes","1024"
"3.481012421","8.34","5","teen","word","87.3015873015873","87.3015873015873","947.015873015873","947.015873015873","black","no","legacy","legacy","legacy","0","uniform","1","undefined","undefined","undefined","1","j","0","0","0","0","62","0","0","0","62","0","58","62","58","0","58","3","62","0","62","Thu Feb 18 11:47:08 2021","The main experiment item","yes","Lexical_Decision_Task.osexp","C:/Users/smith","no","Andale Mono","no","18","no","white","no","yes","576","legacy","58","58","3","C:/Users/smith/subject-5216755.csv","legacy","Lentiform Loewenfeld","3.3.7","yes","yes","600bd7cfb6416f0113b04181","602110864497cf011d9c0822","0","j","NA","j","b","b","f","j","578","NA","3218","141","172","12628","578","2","legacy","1024","2","48000","-16","task","5216755","odd","NA","16368","21589","18369","155280","3894","4212","4039","155782","128284","155279","155782","155228","21589","156361","14348","154728","3883","117099","Lexical Decision Task","55","59662","63","yes","1024"
"2.839268497","0","8","maft","non-word","87.5","87.5","943.84375","943.84375","black","no","legacy","legacy","legacy","0","uniform","1","undefined","undefined","undefined","1","f","0","0","0","0","63","0","0","0","63","0","59","63","59","0","59","3","63","0","63","Thu Feb 18 11:47:08 2021","The main experiment item","yes","Lexical_Decision_Task.osexp","C:/Users/smith","no","Andale Mono","no","18","no","white","no","yes","576","legacy","59","59","3","C:/Users/smith/subject-5216755.csv","legacy","Lentiform Loewenfeld","3.3.7","yes","yes","600bd7cfb6416f0113b04181","602110864497cf011d9c0822","0","f","NA","j","b","b","f","f","744","NA","3218","141","172","12628","744","2","legacy","1024","2","48000","-16","task","5216755","odd","NA","16368","21589","18369","156917","3894","4212","4039","157419","128284","156915","157419","156866","21589","158164","14348","156366","3883","117099","Lexical Decision Task","56","60406","64","yes","1024"
"2.952953801","0","8","clax","non-word","87.6923076923077","87.6923076923077","939.3384615384615","939.3384615384615","black","no","legacy","legacy","legacy","0","uniform","1","undefined","undefined","undefined","1","f","0","0","0","0","64","0","0","0","64","0","60","64","60","0","60","3","64","0","64","Thu Feb 18 11:47:08 2021","The main experiment item","yes","Lexical_Decision_Task.osexp","C:/Users/smith","no","Andale Mono","no","18","no","white","no","yes","576","legacy","60","60","3","C:/Users/smith/subject-5216755.csv","legacy","Lentiform Loewenfeld","3.3.7","yes","yes","600bd7cfb6416f0113b04181","602110864497cf011d9c0822","0","f","NA","j","b","b","f","f","651","NA","3218","141","172","12628","651","2","legacy","1024","2","48000","-16","task","5216755","odd","NA","16368","21589","18369","158728","3894","4212","4039","159229","128284","158725","159229","158670","21589","159881","14348","158170","3883","117099","Lexical Decision Task","57","61057","65","yes","1024"
"2.576725172","0","8","gowl","non-word","87.87878787878788","87.87878787878788","938.6363636363636","938.6363636363636","black","no","legacy","legacy","legacy","0","uniform","1","undefined","undefined","undefined","1","f","0","0","0","0","65","0","0","0","65","0","61","65","61","0","61","3","65","0","65","Thu Feb 18 11:47:08 2021","The main experiment item","yes","Lexical_Decision_Task.osexp","C:/Users/smith","no","Andale Mono","no","18","no","white","no","yes","576","legacy","61","61","3","C:/Users/smith/subject-5216755.csv","legacy","Lentiform Loewenfeld","3.3.7","yes","yes","600bd7cfb6416f0113b04181","602110864497cf011d9c0822","0","f","NA","j","b","b","f","f","893","NA","3218","141","172","12628","893","2","legacy","1024","2","48000","-16","task","5216755","odd","NA","16368","21589","18369","160437","3894","4212","4039","160938","128284","160435","160938","160386","21589","161833","14348","159886","3883","117099","Lexical Decision Task","58","61950","66","yes","1024"
"2.799799878","0","4","ciff","non-word","86.56716417910448","86.56716417910448","939.5223880597015","939.5223880597015","black","no","legacy","legacy","legacy","0","uniform","0","undefined","undefined","undefined","0","f","0","0","0","0","66","0","0","0","66","0","62","66","62","0","62","3","66","0","66","Thu Feb 18 11:47:08 2021","The main experiment item","yes","Lexical_Decision_Task.osexp","C:/Users/smith","no","Andale Mono","no","18","no","white","no","yes","576","legacy","62","62","3","C:/Users/smith/subject-5216755.csv","legacy","Lentiform Loewenfeld","3.3.7","yes","yes","600bd7cfb6416f0113b04181","602110864497cf011d9c0822","0","j","NA","j","b","b","f","j","998","NA","3218","141","172","12628","998","2","legacy","1024","2","48000","-16","task","5216755","odd","NA","16368","21589","18369","162390","3894","4212","4039","162892","128284","162388","162892","162338","21589","163891","14348","161838","3883","117099","Lexical Decision Task","58","62948","67","yes","1024"
"2.858136002","0","4","phip","non-word","86.76470588235294","86.76470588235294","941.6323529411765","941.6323529411765","black","no","legacy","legacy","legacy","0","uniform","1","undefined","undefined","undefined","1","f","0","0","0","0","67","0","0","0","67","0","63","67","63","0","63","3","67","0","67","Thu Feb 18 11:47:08 2021","The main experiment item","yes","Lexical_Decision_Task.osexp","C:/Users/smith","no","Andale Mono","no","18","no","white","no","yes","576","legacy","63","63","3","C:/Users/smith/subject-5216755.csv","legacy","Lentiform Loewenfeld","3.3.7","yes","yes","600bd7cfb6416f0113b04181","602110864497cf011d9c0822","0","f","NA","j","b","b","f","f","1083","NA","3218","141","172","12628","1083","2","legacy","1024","2","48000","-16","task","5216755","odd","NA","16368","21589","18369","165454","3894","4212","4039","165956","128284","165451","165956","165397","21589","167040","14348","161838","3883","163897","Lexical Decision Task","59","64031","68","yes","1024"
"3.105055783","0","2","norp","non-word","86.95652173913044","86.95652173913044","937.1594202898551","937.1594202898551","black","no","legacy","legacy","legacy","0","uniform","1","undefined","undefined","undefined","1","f","0","0","0","0","68","0","0","0","68","0","64","68","64","0","64","3","68","0","68","Thu Feb 18 11:47:08 2021","The main experiment item","yes","Lexical_Decision_Task.osexp","C:/Users/smith","no","Andale Mono","no","18","no","white","no","yes","576","legacy","64","64","3","C:/Users/smith/subject-5216755.csv","legacy","Lentiform Loewenfeld","3.3.7","yes","yes","600bd7cfb6416f0113b04181","602110864497cf011d9c0822","0","f","NA","j","b","b","f","f","633","NA","3218","141","172","12628","633","2","legacy","1024","2","48000","-16","task","5216755","odd","NA","16368","21589","18369","167599","3894","4212","4039","168101","128284","167598","168101","167547","21589","168736","14348","167046","3883","163897","Lexical Decision Task","60","64664","69","yes","1024"
"3.531734309","0","6","lerd","non-word","87.14285714285714","87.14285714285714","931.9857142857143","931.9857142857143","black","no","legacy","legacy","legacy","0","uniform","1","undefined","undefined","undefined","1","f","0","0","0","0","69","0","0","0","69","0","65","69","65","0","65","3","69","0","69","Thu Feb 18 11:47:08 2021","The main experiment item","yes","Lexical_Decision_Task.osexp","C:/Users/smith","no","Andale Mono","no","18","no","white","no","yes","576","legacy","65","65","3","C:/Users/smith/subject-5216755.csv","legacy","Lentiform Loewenfeld","3.3.7","yes","yes","600bd7cfb6416f0113b04181","602110864497cf011d9c0822","0","f","NA","j","b","b","f","f","575","NA","3218","141","172","12628","575","2","legacy","1024","2","48000","-16","task","5216755","odd","NA","16368","21589","18369","169297","3894","4212","4039","169800","128284","169295","169800","169241","21589","170377","14348","168741","3883","163897","Lexical Decision Task","61","65239","70","yes","1024"
"3.382617311","0","4","pret","non-word","87.32394366197182","87.32394366197182","927.5211267605633","927.5211267605633","black","no","legacy","legacy","legacy","0","uniform","1","undefined","undefined","undefined","1","f","0","0","0","0","70","0","0","0","70","0","66","70","66","0","66","3","70","0","70","Thu Feb 18 11:47:08 2021","The main experiment item","yes","Lexical_Decision_Task.osexp","C:/Users/smith","no","Andale Mono","no","18","no","white","no","yes","576","legacy","66","66","3","C:/Users/smith/subject-5216755.csv","legacy","Lentiform Loewenfeld","3.3.7","yes","yes","600bd7cfb6416f0113b04181","602110864497cf011d9c0822","0","f","NA","j","b","b","f","f","615","NA","3218","141","172","12628","615","2","legacy","1024","2","48000","-16","task","5216755","odd","NA","16368","21589","18369","170939","3894","4212","4039","171440","128284","170937","171440","170882","21589","172057","14348","170382","3883","163897","Lexical Decision Task","62","65854","71","yes","1024"
"2.893578687","8.69","3","surf","word","87.5","87.5","929.0138888888889","929.0138888888889","black","no","legacy","legacy","legacy","0","uniform","1","undefined","undefined","undefined","1","j","0","0","0","0","71","0","0","0","71","0","67","71","67","0","67","3","71","0","71","Thu Feb 18 11:47:08 2021","The main experiment item","yes","Lexical_Decision_Task.osexp","C:/Users/smith","no","Andale Mono","no","18","no","white","no","yes","576","legacy","67","67","3","C:/Users/smith/subject-5216755.csv","legacy","Lentiform Loewenfeld","3.3.7","yes","yes","600bd7cfb6416f0113b04181","602110864497cf011d9c0822","0","j","NA","j","b","b","f","j","1035","NA","3218","141","172","12628","1035","2","legacy","1024","2","48000","-16","task","5216755","odd","NA","16368","21589","18369","172619","3894","4212","4039","173120","128284","172617","173120","172563","21589","174157","14348","172063","3883","163897","Lexical Decision Task","63","66889","72","yes","1024"
"2.990042563","6.64","9","plow","word","87.67123287671232","87.67123287671232","925.945205479452","925.945205479452","black","no","legacy","legacy","legacy","0","uniform","1","undefined","undefined","undefined","1","j","0","0","0","0","72","0","0","0","72","0","68","72","68","0","68","3","72","0","72","Thu Feb 18 11:47:08 2021","The main experiment item","yes","Lexical_Decision_Task.osexp","C:/Users/smith","no","Andale Mono","no","18","no","white","no","yes","576","legacy","68","68","3","C:/Users/smith/subject-5216755.csv","legacy","Lentiform Loewenfeld","3.3.7","yes","yes","600bd7cfb6416f0113b04181","602110864497cf011d9c0822","0","j","NA","j","b","b","f","j","705","NA","3218","141","172","12628","705","2","legacy","1024","2","48000","-16","task","5216755","odd","NA","16368","21589","18369","174714","3894","4212","4039","175215","128284","174712","175216","174662","21589","175922","14348","174162","3883","163897","Lexical Decision Task","64","67594","73","yes","1024"
"2.782472624","10.55","2","huge","word","87.83783783783784","87.83783783783784","920.7297297297297","920.7297297297297","black","no","legacy","legacy","legacy","0","uniform","1","undefined","undefined","undefined","1","j","0","0","0","0","73","0","0","0","73","0","69","73","69","0","69","3","73","0","73","Thu Feb 18 11:47:08 2021","The main experiment item","yes","Lexical_Decision_Task.osexp","C:/Users/smith","no","Andale Mono","no","18","no","white","no","yes","576","legacy","69","69","3","C:/Users/smith/subject-5216755.csv","legacy","Lentiform Loewenfeld","3.3.7","yes","yes","600bd7cfb6416f0113b04181","602110864497cf011d9c0822","0","j","NA","j","b","b","f","j","540","NA","3218","141","172","12628","540","2","legacy","1024","2","48000","-16","task","5216755","odd","NA","16368","21589","18369","176494","3894","4212","4039","176997","128284","176493","176997","176428","21589","177540","14348","175928","3883","163897","Lexical Decision Task","65","68134","74","yes","1024"
"2.924968096","0","4","phim","non-word","88","88","917.1466666666666","917.1466666666666","black","no","legacy","legacy","legacy","0","uniform","1","undefined","undefined","undefined","1","f","0","0","0","0","74","0","0","0","74","0","70","74","70","0","70","3","74","0","74","Thu Feb 18 11:47:08 2021","The main experiment item","yes","Lexical_Decision_Task.osexp","C:/Users/smith","no","Andale Mono","no","18","no","white","no","yes","576","legacy","70","70","3","C:/Users/smith/subject-5216755.csv","legacy","Lentiform Loewenfeld","3.3.7","yes","yes","600bd7cfb6416f0113b04181","602110864497cf011d9c0822","0","f","NA","j","b","b","f","f","652","NA","3218","141","172","12628","652","2","legacy","1024","2","48000","-16","task","5216755","odd","NA","16368","21589","18369","178096","3894","4212","4039","178597","128284","178094","178597","178044","21589","179249","14348","177544","3883","163897","Lexical Decision Task","66","68786","75","yes","1024"
"2.821076612","0","4","lult","non-word","88.15789473684211","88.15789473684211","914.8026315789474","914.8026315789474","black","no","legacy","legacy","legacy","0","uniform","1","undefined","undefined","undefined","1","f","0","0","0","0","75","0","0","0","75","0","71","75","71","0","71","3","75","0","75","Thu Feb 18 11:47:08 2021","The main experiment item","yes","Lexical_Decision_Task.osexp","C:/Users/smith","no","Andale Mono","no","18","no","white","no","yes","576","legacy","71","71","3","C:/Users/smith/subject-5216755.csv","legacy","Lentiform Loewenfeld","3.3.7","yes","yes","600bd7cfb6416f0113b04181","602110864497cf011d9c0822","0","f","NA","j","b","b","f","f","739","NA","3218","141","172","12628","739","2","legacy","1024","2","48000","-16","task","5216755","odd","NA","16368","21589","18369","179809","3894","4212","4039","180310","128284","179807","180310","179756","21589","181052","14348","179255","3883","163897","Lexical Decision Task","67","69525","76","yes","1024"
"3.003891166","8.05","2","frog","word","88.31168831168831","88.31168831168831","911.1428571428571","911.1428571428571","black","no","legacy","legacy","legacy","0","uniform","1","undefined","undefined","undefined","1","j","0","0","0","0","76","0","0","0","76","0","72","76","72","0","72","3","76","0","76","Thu Feb 18 11:47:08 2021","The main experiment item","yes","Lexical_Decision_Task.osexp","C:/Users/smith","no","Andale Mono","no","18","no","white","no","yes","576","legacy","72","72","3","C:/Users/smith/subject-5216755.csv","legacy","Lentiform Loewenfeld","3.3.7","yes","yes","600bd7cfb6416f0113b04181","602110864497cf011d9c0822","0","j","NA","j","b","b","f","j","633","NA","3218","141","172","12628","633","2","legacy","1024","2","48000","-16","task","5216755","odd","NA","16368","21589","18369","181608","3894","4212","4039","182110","128284","181607","182110","181558","21589","182744","14348","181057","3883","163897","Lexical Decision Task","68","70158","77","yes","1024"
"3.16326079","0","5","parg","non-word","88.46153846153847","88.46153846153847","908.3589743589744","908.3589743589744","black","no","legacy","legacy","legacy","0","uniform","1","undefined","undefined","undefined","1","f","0","0","0","0","77","0","0","0","77","0","73","77","73","0","73","3","77","0","77","Thu Feb 18 11:47:08 2021","The main experiment item","yes","Lexical_Decision_Task.osexp","C:/Users/smith","no","Andale Mono","no","18","no","white","no","yes","576","legacy","73","73","3","C:/Users/smith/subject-5216755.csv","legacy","Lentiform Loewenfeld","3.3.7","yes","yes","600bd7cfb6416f0113b04181","602110864497cf011d9c0822","0","f","NA","j","b","b","f","f","694","NA","3218","141","172","12628","694","2","legacy","1024","2","48000","-16","task","5216755","odd","NA","16368","21589","18369","183300","3894","4212","4039","183801","128284","183299","183801","183248","21589","184497","14348","182748","3883","163897","Lexical Decision Task","69","70852","78","yes","1024"
"3.077974404","10.41","8","tool","word","88.60759493670886","88.60759493670886","905.0379746835443","905.0379746835443","black","no","legacy","legacy","legacy","0","uniform","1","undefined","undefined","undefined","1","j","0","0","0","0","78","0","0","0","78","0","74","78","74","0","74","3","78","0","78","Thu Feb 18 11:47:08 2021","The main experiment item","yes","Lexical_Decision_Task.osexp","C:/Users/smith","no","Andale Mono","no","18","no","white","no","yes","576","legacy","74","74","3","C:/Users/smith/subject-5216755.csv","legacy","Lentiform Loewenfeld","3.3.7","yes","yes","600bd7cfb6416f0113b04181","602110864497cf011d9c0822","0","j","NA","j","b","b","f","j","646","NA","3218","141","172","12628","646","2","legacy","1024","2","48000","-16","task","5216755","odd","NA","16368","21589","18369","185052","3894","4212","4039","185554","128284","185050","185554","185001","21589","186202","14348","184501","3883","163897","Lexical Decision Task","70","71498","79","yes","1024"
"3.064581521","5.51","6","cask","word","87.5","87.5","903.1","903.1","black","no","legacy","legacy","legacy","0","uniform","0","undefined","undefined","undefined","0","j","0","0","0","0","79","0","0","0","79","0","75","79","75","0","75","3","79","0","79","Thu Feb 18 11:47:08 2021","The main experiment item","yes","Lexical_Decision_Task.osexp","C:/Users/smith","no","Andale Mono","no","18","no","white","no","yes","576","legacy","75","75","3","C:/Users/smith/subject-5216755.csv","legacy","Lentiform Loewenfeld","3.3.7","yes","yes","600bd7cfb6416f0113b04181","602110864497cf011d9c0822","0","f","NA","j","b","b","f","f","750","NA","3218","141","172","12628","750","2","legacy","1024","2","48000","-16","task","5216755","odd","NA","16368","21589","18369","186764","3894","4212","4039","187266","128284","186762","187266","186707","21589","188017","14348","186207","3883","163897","Lexical Decision Task","70","72248","80","yes","1024"
"3.010582609","0","2","drod","non-word","87.65432098765432","87.65432098765432","902.3703703703703","902.3703703703703","black","no","legacy","legacy","legacy","0","uniform","1","undefined","undefined","undefined","1","f","0","0","0","0","80","0","0","0","80","0","76","80","76","0","76","3","80","0","80","Thu Feb 18 11:47:08 2021","The main experiment item","yes","Lexical_Decision_Task.osexp","C:/Users/smith","no","Andale Mono","no","18","no","white","no","yes","576","legacy","76","76","3","C:/Users/smith/subject-5216755.csv","legacy","Lentiform Loewenfeld","3.3.7","yes","yes","600bd7cfb6416f0113b04181","602110864497cf011d9c0822","0","f","NA","j","b","b","f","f","844","NA","3218","141","172","12628","844","2","legacy","1024","2","48000","-16","task","5216755","odd","NA","16368","21589","18369","189576","3894","4212","4039","190077","128284","189575","190078","189522","21589","190924","14348","186207","3883","188022","Lexical Decision Task","71","73092","81","yes","1024"
"2.937852093","0","7","bamp","non-word","87.8048780487805","87.8048780487805","910.1463414634146","910.1463414634146","black","no","legacy","legacy","legacy","0","uniform","1","undefined","undefined","undefined","1","f","0","0","0","0","81","0","0","0","81","0","77","81","77","0","77","3","81","0","81","Thu Feb 18 11:47:08 2021","The main experiment item","yes","Lexical_Decision_Task.osexp","C:/Users/smith","no","Andale Mono","no","18","no","white","no","yes","576","legacy","77","77","3","C:/Users/smith/subject-5216755.csv","legacy","Lentiform Loewenfeld","3.3.7","yes","yes","600bd7cfb6416f0113b04181","602110864497cf011d9c0822","0","f","NA","j","b","b","f","f","1540","NA","3218","141","172","12628","1540","2","legacy","1024","2","48000","-16","task","5216755","odd","NA","16368","21589","18369","191483","3894","4212","4039","191984","128284","191482","191984","191428","21589","193527","14348","190928","3883","188022","Lexical Decision Task","72","74632","82","yes","1024"
"3.067070856","9.39","3","loud","word","87.95180722891567","87.95180722891567","906.9036144578313","906.9036144578313","black","no","legacy","legacy","legacy","0","uniform","1","undefined","undefined","undefined","1","j","0","0","0","0","82","0","0","0","82","0","78","82","78","0","78","3","82","0","82","Thu Feb 18 11:47:08 2021","The main experiment item","yes","Lexical_Decision_Task.osexp","C:/Users/smith","no","Andale Mono","no","18","no","white","no","yes","576","legacy","78","78","3","C:/Users/smith/subject-5216755.csv","legacy","Lentiform Loewenfeld","3.3.7","yes","yes","600bd7cfb6416f0113b04181","602110864497cf011d9c0822","0","j","NA","j","b","b","f","j","641","NA","3218","141","172","12628","641","2","legacy","1024","2","48000","-16","task","5216755","odd","NA","16368","21589","18369","194084","3894","4212","4039","194586","128284","194083","194586","194031","21589","195229","14348","193531","3883","188022","Lexical Decision Task","73","75273","83","yes","1024"
"3.068433376","8.09","2","bulb","word","88.0952380952381","88.0952380952381","905.6071428571429","905.6071428571429","black","no","legacy","legacy","legacy","0","uniform","1","undefined","undefined","undefined","1","j","0","0","0","0","83","0","0","0","83","0","79","83","79","0","79","3","83","0","83","Thu Feb 18 11:47:08 2021","The main experiment item","yes","Lexical_Decision_Task.osexp","C:/Users/smith","no","Andale Mono","no","18","no","white","no","yes","576","legacy","79","79","3","C:/Users/smith/subject-5216755.csv","legacy","Lentiform Loewenfeld","3.3.7","yes","yes","600bd7cfb6416f0113b04181","602110864497cf011d9c0822","0","j","NA","j","b","b","f","j","798","NA","3218","141","172","12628","798","2","legacy","1024","2","48000","-16","task","5216755","odd","NA","16368","21589","18369","195789","3894","4212","4039","196291","128284","195787","196291","195734","21589","197092","14348","195234","3883","188022","Lexical Decision Task","74","76071","84","yes","1024"
"3.209246849","0","7","slem","non-word","87.05882352941177","87.05882352941177","902.6235294117647","902.6235294117647","black","no","legacy","legacy","legacy","0","uniform","0","undefined","undefined","undefined","0","f","0","0","0","0","84","0","0","0","84","0","80","84","80","0","80","3","84","0","84","Thu Feb 18 11:47:08 2021","The main experiment item","yes","Lexical_Decision_Task.osexp","C:/Users/smith","no","Andale Mono","no","18","no","white","no","yes","576","legacy","80","80","3","C:/Users/smith/subject-5216755.csv","legacy","Lentiform Loewenfeld","3.3.7","yes","yes","600bd7cfb6416f0113b04181","602110864497cf011d9c0822","0","j","NA","j","b","b","f","j","652","NA","3218","141","172","12628","652","2","legacy","1024","2","48000","-16","task","5216755","odd","NA","16368","21589","18369","197649","3894","4212","4039","198150","128284","197648","198151","197597","21589","198806","14348","197097","3883","188022","Lexical Decision Task","74","76723","85","yes","1024"
"2.695770526","7.34","6","pawn","word","87.20930232558139","87.20930232558139","906.0813953488372","906.0813953488372","black","no","legacy","legacy","legacy","0","uniform","1","undefined","undefined","undefined","1","j","0","0","0","0","85","0","0","0","85","0","81","85","81","0","81","3","85","0","85","Thu Feb 18 11:47:08 2021","The main experiment item","yes","Lexical_Decision_Task.osexp","C:/Users/smith","no","Andale Mono","no","18","no","white","no","yes","576","legacy","81","81","3","C:/Users/smith/subject-5216755.csv","legacy","Lentiform Loewenfeld","3.3.7","yes","yes","600bd7cfb6416f0113b04181","602110864497cf011d9c0822","0","j","NA","j","b","b","f","j","1200","NA","3218","141","172","12628","1200","2","legacy","1024","2","48000","-16","task","5216755","odd","NA","16368","21589","18369","200363","3894","4212","4039","200866","128284","200362","200866","200311","21589","202068","14348","197097","3883","198811","Lexical Decision Task","75","77923","86","yes","1024"
"2.784379519","0","2","snaf","non-word","87.35632183908046","87.35632183908046","906.3908045977012","906.3908045977012","black","no","legacy","legacy","legacy","0","uniform","1","undefined","undefined","undefined","1","f","0","0","0","0","86","0","0","0","86","0","82","86","82","0","82","3","86","0","86","Thu Feb 18 11:47:08 2021","The main experiment item","yes","Lexical_Decision_Task.osexp","C:/Users/smith","no","Andale Mono","no","18","no","white","no","yes","576","legacy","82","82","3","C:/Users/smith/subject-5216755.csv","legacy","Lentiform Loewenfeld","3.3.7","yes","yes","600bd7cfb6416f0113b04181","602110864497cf011d9c0822","0","f","NA","j","b","b","f","f","933","NA","3218","141","172","12628","933","2","legacy","1024","2","48000","-16","task","5216755","odd","NA","16368","21589","18369","202625","3894","4212","4039","203127","128284","202624","203127","202573","21589","204062","14348","202073","3883","198811","Lexical Decision Task","76","78856","87","yes","1024"
"3.440331212","7.35","6","stew","word","87.5","87.5","905.1590909090909","905.1590909090909","black","no","legacy","legacy","legacy","0","uniform","1","undefined","undefined","undefined","1","j","0","0","0","0","87","0","0","0","87","0","83","87","83","0","83","3","87","0","87","Thu Feb 18 11:47:08 2021","The main experiment item","yes","Lexical_Decision_Task.osexp","C:/Users/smith","no","Andale Mono","no","18","no","white","no","yes","576","legacy","83","83","3","C:/Users/smith/subject-5216755.csv","legacy","Lentiform Loewenfeld","3.3.7","yes","yes","600bd7cfb6416f0113b04181","602110864497cf011d9c0822","0","j","NA","j","b","b","f","j","798","NA","3218","141","172","12628","798","2","legacy","1024","2","48000","-16","task","5216755","odd","NA","16368","21589","18369","204618","3894","4212","4039","205119","128284","204616","205119","204568","21589","205919","14348","204068","3883","198811","Lexical Decision Task","77","79654","88","yes","1024"
"2.8162413","0","5","nusk","non-word","87.64044943820225","87.64044943820225","902.7078651685393","902.7078651685393","black","no","legacy","legacy","legacy","0","uniform","1","undefined","undefined","undefined","1","f","0","0","0","0","88","0","0","0","88","0","84","88","84","0","84","3","88","0","88","Thu Feb 18 11:47:08 2021","The main experiment item","yes","Lexical_Decision_Task.osexp","C:/Users/smith","no","Andale Mono","no","18","no","white","no","yes","576","legacy","84","84","3","C:/Users/smith/subject-5216755.csv","legacy","Lentiform Loewenfeld","3.3.7","yes","yes","600bd7cfb6416f0113b04181","602110864497cf011d9c0822","0","f","NA","j","b","b","f","f","687","NA","3218","141","172","12628","687","2","legacy","1024","2","48000","-16","task","5216755","odd","NA","16368","21589","18369","206486","3894","4212","4039","206989","128284","206485","206989","206425","21589","207677","14348","205925","3883","198811","Lexical Decision Task","78","80341","89","yes","1024"
"2.703007489","8.37","3","pulp","word","86.66666666666667","86.66666666666667","901.1666666666666","901.1666666666666","black","no","legacy","legacy","legacy","0","uniform","0","undefined","undefined","undefined","0","j","0","0","0","0","89","0","0","0","89","0","85","89","85","0","85","3","89","0","89","Thu Feb 18 11:47:08 2021","The main experiment item","yes","Lexical_Decision_Task.osexp","C:/Users/smith","no","Andale Mono","no","18","no","white","no","yes","576","legacy","85","85","3","C:/Users/smith/subject-5216755.csv","legacy","Lentiform Loewenfeld","3.3.7","yes","yes","600bd7cfb6416f0113b04181","602110864497cf011d9c0822","0","f","NA","j","b","b","f","f","764","NA","3218","141","172","12628","764","2","legacy","1024","2","48000","-16","task","5216755","odd","NA","16368","21589","18369","208235","3894","4212","4039","208736","128284","208234","208736","208183","21589","209502","14348","207683","3883","198811","Lexical Decision Task","78","81105","90","yes","1024"
"3.102203805","7.21","3","drip","word","86.81318681318682","86.81318681318682","899.010989010989","899.010989010989","black","no","legacy","legacy","legacy","0","uniform","1","undefined","undefined","undefined","1","j","0","0","0","0","90","0","0","0","90","0","86","90","86","0","86","3","90","0","90","Thu Feb 18 11:47:08 2021","The main experiment item","yes","Lexical_Decision_Task.osexp","C:/Users/smith","no","Andale Mono","no","18","no","white","no","yes","576","legacy","86","86","3","C:/Users/smith/subject-5216755.csv","legacy","Lentiform Loewenfeld","3.3.7","yes","yes","600bd7cfb6416f0113b04181","602110864497cf011d9c0822","0","j","NA","j","b","b","f","j","705","NA","3218","141","172","12628","705","2","legacy","1024","2","48000","-16","task","5216755","odd","NA","16368","21589","18369","211064","3894","4212","4039","211566","128284","211062","211566","211008","21589","212272","14348","207683","3883","209508","Lexical Decision Task","79","81810","91","yes","1024"
"2.95456409","0","4","taud","non-word","86.95652173913044","86.95652173913044","904.6630434782609","904.6630434782609","black","no","legacy","legacy","legacy","0","uniform","1","undefined","undefined","undefined","1","f","0","0","0","0","91","0","0","0","91","0","87","91","87","0","87","3","91","0","91","Thu Feb 18 11:47:08 2021","The main experiment item","yes","Lexical_Decision_Task.osexp","C:/Users/smith","no","Andale Mono","no","18","no","white","no","yes","576","legacy","87","87","3","C:/Users/smith/subject-5216755.csv","legacy","Lentiform Loewenfeld","3.3.7","yes","yes","600bd7cfb6416f0113b04181","602110864497cf011d9c0822","0","f","NA","j","b","b","f","f","1419","NA","3218","141","172","12628","1419","2","legacy","1024","2","48000","-16","task","5216755","odd","NA","16368","21589","18369","212832","3894","4212","4039","213333","128284","212831","213333","212778","21589","214757","14348","212278","3883","209508","Lexical Decision Task","80","83229","92","yes","1024"
"2.6599162","0","2","saff","non-word","87.09677419354838","87.09677419354838","905.0645161290323","905.0645161290323","black","no","legacy","legacy","legacy","0","uniform","1","undefined","undefined","undefined","1","f","0","0","0","0","92","0","0","0","92","0","88","92","88","0","88","3","92","0","92","Thu Feb 18 11:47:08 2021","The main experiment item","yes","Lexical_Decision_Task.osexp","C:/Users/smith","no","Andale Mono","no","18","no","white","no","yes","576","legacy","88","88","3","C:/Users/smith/subject-5216755.csv","legacy","Lentiform Loewenfeld","3.3.7","yes","yes","600bd7cfb6416f0113b04181","602110864497cf011d9c0822","0","f","NA","j","b","b","f","f","942","NA","3218","141","172","12628","942","2","legacy","1024","2","48000","-16","task","5216755","odd","NA","16368","21589","18369","215315","3894","4212","4039","215817","128284","215313","215817","215262","21589","216760","14348","214762","3883","209508","Lexical Decision Task","81","84171","93","yes","1024"
"2.868644438","10.52","4","town","word","87.23404255319149","87.23404255319149","901.7872340425532","901.7872340425532","black","no","legacy","legacy","legacy","0","uniform","1","undefined","undefined","undefined","1","j","0","0","0","0","93","0","0","0","93","0","89","93","89","0","89","3","93","0","93","Thu Feb 18 11:47:08 2021","The main experiment item","yes","Lexical_Decision_Task.osexp","C:/Users/smith","no","Andale Mono","no","18","no","white","no","yes","576","legacy","89","89","3","C:/Users/smith/subject-5216755.csv","legacy","Lentiform Loewenfeld","3.3.7","yes","yes","600bd7cfb6416f0113b04181","602110864497cf011d9c0822","0","j","NA","j","b","b","f","j","597","NA","3218","141","172","12628","597","2","legacy","1024","2","48000","-16","task","5216755","odd","NA","16368","21589","18369","217319","3894","4212","4039","217820","128284","217318","217820","217265","21589","218419","14348","216765","3883","209508","Lexical Decision Task","82","84768","94","yes","1024"
"2.953276337","6.32","4","thaw","word","86.3157894736842","86.3157894736842","901.3894736842105","901.3894736842105","black","no","legacy","legacy","legacy","0","uniform","0","undefined","undefined","undefined","0","j","0","0","0","0","94","0","0","0","94","0","90","94","90","0","90","3","94","0","94","Thu Feb 18 11:47:08 2021","The main experiment item","yes","Lexical_Decision_Task.osexp","C:/Users/smith","no","Andale Mono","no","18","no","white","no","yes","576","legacy","90","90","3","C:/Users/smith/subject-5216755.csv","legacy","Lentiform Loewenfeld","3.3.7","yes","yes","600bd7cfb6416f0113b04181","602110864497cf011d9c0822","0","f","NA","j","b","b","f","f","864","NA","3218","141","172","12628","864","2","legacy","1024","2","48000","-16","task","5216755","odd","NA","16368","21589","18369","218979","3894","4212","4039","219480","128284","218978","219480","218924","21589","220345","14348","218424","3883","209508","Lexical Decision Task","82","85632","95","yes","1024"
"2.839898939","8.99","6","soap","word","86.45833333333333","86.45833333333333","898.75","898.75","black","no","legacy","legacy","legacy","0","uniform","1","undefined","undefined","undefined","1","j","0","0","0","0","95","0","0","0","95","0","91","95","91","0","91","3","95","0","95","Thu Feb 18 11:47:08 2021","The main experiment item","yes","Lexical_Decision_Task.osexp","C:/Users/smith","no","Andale Mono","no","18","no","white","no","yes","576","legacy","91","91","3","C:/Users/smith/subject-5216755.csv","legacy","Lentiform Loewenfeld","3.3.7","yes","yes","600bd7cfb6416f0113b04181","602110864497cf011d9c0822","0","j","NA","j","b","b","f","j","648","NA","3218","141","172","12628","648","2","legacy","1024","2","48000","-16","task","5216755","odd","NA","16368","21589","18369","221910","3894","4212","4039","222411","128284","221908","222411","221850","21589","223061","14348","218424","3883","220350","Lexical Decision Task","83","86280","96","yes","1024"
"3.194328374","9.42","6","harm","word","86.5979381443299","86.5979381443299","895.4020618556701","895.4020618556701","black","no","legacy","legacy","legacy","0","uniform","1","undefined","undefined","undefined","1","j","0","0","0","0","96","0","0","0","96","0","92","96","92","0","92","3","96","0","96","Thu Feb 18 11:47:08 2021","The main experiment item","yes","Lexical_Decision_Task.osexp","C:/Users/smith","no","Andale Mono","no","18","no","white","no","yes","576","legacy","92","92","3","C:/Users/smith/subject-5216755.csv","legacy","Lentiform Loewenfeld","3.3.7","yes","yes","600bd7cfb6416f0113b04181","602110864497cf011d9c0822","0","j","NA","j","b","b","f","j","574","NA","3218","141","172","12628","574","2","legacy","1024","2","48000","-16","task","5216755","odd","NA","16368","21589","18369","223618","3894","4212","4039","224120","128284","223617","224120","223565","21589","224696","14348","223065","3883","220350","Lexical Decision Task","84","86854","97","yes","1024"
"3.378276681","6.39","8","bran","word","86.73469387755102","86.73469387755102","894.1020408163265","894.1020408163265","black","no","legacy","legacy","legacy","0","uniform","1","undefined","undefined","undefined","1","j","0","0","0","0","97","0","0","0","97","0","93","97","93","0","93","3","97","0","97","Thu Feb 18 11:47:08 2021","The main experiment item","yes","Lexical_Decision_Task.osexp","C:/Users/smith","no","Andale Mono","no","18","no","white","no","yes","576","legacy","93","93","3","C:/Users/smith/subject-5216755.csv","legacy","Lentiform Loewenfeld","3.3.7","yes","yes","600bd7cfb6416f0113b04181","602110864497cf011d9c0822","0","j","NA","j","b","b","f","j","768","NA","3218","141","172","12628","768","2","legacy","1024","2","48000","-16","task","5216755","odd","NA","16368","21589","18369","225252","3894","4212","4039","225753","128284","225251","225753","225201","21589","226524","14348","224701","3883","220350","Lexical Decision Task","85","87622","98","yes","1024"
"2.979548375","8.71","4","soup","word","86.86868686868686","86.86868686868686","889.8888888888889","889.8888888888889","black","no","legacy","legacy","legacy","0","uniform","1","undefined","undefined","undefined","1","j","0","0","0","0","98","0","0","0","98","0","94","98","94","0","94","3","98","0","98","Thu Feb 18 11:47:08 2021","The main experiment item","yes","Lexical_Decision_Task.osexp","C:/Users/smith","no","Andale Mono","no","18","no","white","no","yes","576","legacy","94","94","3","C:/Users/smith/subject-5216755.csv","legacy","Lentiform Loewenfeld","3.3.7","yes","yes","600bd7cfb6416f0113b04181","602110864497cf011d9c0822","0","j","NA","j","b","b","f","j","477","NA","3218","141","172","12628","477","2","legacy","1024","2","48000","-16","task","5216755","odd","NA","16368","21589","18369","227085","3894","4212","4039","227587","128284","227084","227588","227030","21589","228067","14348","226530","3883","220350","Lexical Decision Task","86","88099","99","yes","1024"
"3.174641193","0","3","ramb","non-word","87","87","897.17","897.17","black","no","legacy","legacy","legacy","0","uniform","1","undefined","undefined","undefined","1","f","0","0","0","0","99","0","0","0","99","0","95","99","95","0","95","3","99","0","99","Thu Feb 18 11:47:08 2021","The main experiment item","yes","Lexical_Decision_Task.osexp","C:/Users/smith","no","Andale Mono","no","18","no","white","no","yes","576","legacy","95","95","3","C:/Users/smith/subject-5216755.csv","legacy","Lentiform Loewenfeld","3.3.7","yes","yes","600bd7cfb6416f0113b04181","602110864497cf011d9c0822","0","f","NA","j","b","b","f","f","1618","NA","3218","141","172","12628","1618","2","legacy","1024","2","48000","-16","task","5216755","odd","NA","16368","21589","18369","228631","3894","4212","4039","229132","128284","228629","229133","228573","21589","230752","14348","228073","3883","220350","Lexical Decision Task","87","89717","100","yes","1024"
"2.80048796","0","8","pife","non-word","87.12871287128714","87.12871287128714","896.3960396039604","896.3960396039604","black","no","legacy","legacy","legacy","0","uniform","1","undefined","undefined","undefined","1","f","0","0","0","0","100","0","0","0","100","0","96","100","96","0","96","3","100","0","100","Thu Feb 18 11:47:08 2021","The main experiment item","yes","Lexical_Decision_Task.osexp","C:/Users/smith","no","Andale Mono","no","18","no","white","no","yes","576","legacy","96","96","3","C:/Users/smith/subject-5216755.csv","legacy","Lentiform Loewenfeld","3.3.7","yes","yes","600bd7cfb6416f0113b04181","602110864497cf011d9c0822","0","f","NA","j","b","b","f","f","819","NA","3218","141","172","12628","819","2","legacy","1024","2","48000","-16","task","5216755","odd","NA","16368","21589","18369","231309","3894","4212","4039","231811","128284","231308","231811","231257","21589","232632","14348","230757","3883","220350","Lexical Decision Task","88","90536","101","yes","1024"
"3.29439347","8.6","9","wand","word","87.25490196078431","87.25490196078431","896.1372549019608","896.1372549019608","black","no","legacy","legacy","legacy","0","uniform","1","undefined","undefined","undefined","1","j","0","0","0","0","101","0","0","0","101","0","97","101","97","0","97","3","101","0","101","Thu Feb 18 11:47:08 2021","The main experiment item","yes","Lexical_Decision_Task.osexp","C:/Users/smith","no","Andale Mono","no","18","no","white","no","yes","576","legacy","97","97","3","C:/Users/smith/subject-5216755.csv","legacy","Lentiform Loewenfeld","3.3.7","yes","yes","600bd7cfb6416f0113b04181","602110864497cf011d9c0822","0","j","NA","j","b","b","f","j","870","NA","3218","141","172","12628","870","2","legacy","1024","2","48000","-16","task","5216755","odd","NA","16368","21589","18369","233194","3894","4212","4039","233696","128284","233192","233696","233137","21589","234567","14348","232637","3883","220350","Lexical Decision Task","89","91406","102","yes","1024"
"3.20996159","0","4","clee","non-word","87.37864077669903","87.37864077669903","894.3786407766991","894.3786407766991","black","no","legacy","legacy","legacy","0","uniform","1","undefined","undefined","undefined","1","f","0","0","0","0","102","0","0","0","102","0","98","102","98","0","98","3","102","0","102","Thu Feb 18 11:47:08 2021","The main experiment item","yes","Lexical_Decision_Task.osexp","C:/Users/smith","no","Andale Mono","no","18","no","white","no","yes","576","legacy","98","98","3","C:/Users/smith/subject-5216755.csv","legacy","Lentiform Loewenfeld","3.3.7","yes","yes","600bd7cfb6416f0113b04181","602110864497cf011d9c0822","0","f","NA","j","b","b","f","f","715","NA","3218","141","172","12628","715","2","legacy","1024","2","48000","-16","task","5216755","odd","NA","16368","21589","18369","235134","3894","4212","4039","235635","128284","235133","235635","235073","21589","236352","14348","234573","3883","220350","Lexical Decision Task","90","92121","103","yes","1024"
"3.705778213","0","6","stin","non-word","87.5","87.5","893.1923076923077","893.1923076923077","black","no","legacy","legacy","legacy","0","uniform","1","undefined","undefined","undefined","1","f","0","0","0","0","103","0","0","0","103","0","99","103","99","0","99","3","103","0","103","Thu Feb 18 11:47:08 2021","The main experiment item","yes","Lexical_Decision_Task.osexp","C:/Users/smith","no","Andale Mono","no","18","no","white","no","yes","576","legacy","99","99","3","C:/Users/smith/subject-5216755.csv","legacy","Lentiform Loewenfeld","3.3.7","yes","yes","600bd7cfb6416f0113b04181","602110864497cf011d9c0822","0","f","NA","j","b","b","f","f","771","NA","3218","141","172","12628","771","2","legacy","1024","2","48000","-16","task","5216755","odd","NA","16368","21589","18369","236910","3894","4212","4039","237411","128284","236909","237411","236857","21589","238184","14348","236357","3883","220350","Lexical Decision Task","91","92892","104","yes","1024"
