"Log_BG","Log_Freq_HAL","Ortho_N","Stimulus","Type","acc","accuracy","average_response_time","avg_rt","background","bidi","canvas_backend","clock_backend","color_backend","compensation","coordinates","correct","correct_Experimental_intro","correct_Introduction","correct_Practice_intro","correct_experimenter_kb","correct_response","count_End_Of_Experiment","count_End_Of_Practice","count_Experimental_Loop","count_Experimental_intro","count_Fixation","count_Introduction","count_Practice_Loop","count_Practice_intro","count_Stimulus","count_block_break_feedback","count_experimental_sequence","count_experimenter_kb","count_increment_trial_count","count_init_trial_count","count_logger","count_practice_sequence","count_right","count_task","count_wrong","datetime","description","disable_garbage_collection","experiment_file","experiment_path","font_bold","font_family","font_italic","font_size","font_underline","foreground","form_clicks","fullscreen","height","keyboard_backend","live_row","live_row_Experimental_Loop","live_row_Practice_Loop","logfile","mouse_backend","opensesame_codename","opensesame_version","osf_always_upload_data","osf_always_upload_experiment","osf_datanode_id","osf_id","repeat_cycle","response","response_End_Of_Experiment","response_Experimental_intro","response_Introduction","response_Practice_intro","response_block_break_feedback","response_experimenter_kb","response_time","response_time_End_Of_Experiment","response_time_Experimental_intro","response_time_Introduction","response_time_Practice_intro","response_time_block_break_feedback","response_time_experimenter_kb","round_decimals","sampler_backend","sound_buf_size","sound_channels","sound_freq","sound_sample_size","start","subject_nr","subject_parity","time_End_Of_Experiment","time_End_Of_Practice","time_Experimental_Loop","time_Experimental_intro","time_Fixation","time_Introduction","time_Practice_Loop","time_Practice_intro","time_Stimulus","time_block_break_feedback","time_experimental_sequence","time_experimenter_kb","time_increment_trial_count","time_init_trial_count","time_logger","time_practice_sequence","time_right","time_task","time_wrong","title","total_correct","total_response_time","total_responses","uniform_coordinates","width"
"2.821076612","0","4","lult","non-word","40","40","1843.8","1843.8","black","no","legacy","legacy","legacy","0","uniform","0","undefined","undefined","undefined","0","f","0","0","0","0","4","0","0","0","4","NA","0","4","0","0","0","3","4","0","4","Thu Feb 18 09:55:19 2021","The main experiment item","yes","Lexical_Decision_Task.osexp","C:/Users/User","no","Andale Mono","no","18","no","white","no","yes","576","legacy","0","0","3","C:/Users/User/subject-5206705.csv","legacy","Lentiform Loewenfeld","3.3.7","yes","yes","600bd7cfb6416f0113b04181","602110864497cf011d9c0822","0","j","NA","j","space","space","NA","j","1506","NA","4344","9578","7560","NA","1506","2","legacy","1024","2","48000","-16","task","5206705","odd","NA","37142","43491","39147","43536","5697","22837","15277","44038","NA","43535","44040","NA","43491","45546","35249","36588","5688","33588","Lexical Decision Task","2","9219","5","yes","1024"
"2.713490543","0","3","feps","non-word","33.333333333333336","33.333333333333336","2036.5","2036.5","black","no","legacy","legacy","legacy","0","uniform","0","undefined","undefined","undefined","0","f","0","0","0","0","5","0","0","0","5","NA","1","5","1","0","1","3","5","0","5","Thu Feb 18 09:55:19 2021","The main experiment item","yes","Lexical_Decision_Task.osexp","C:/Users/User","no","Andale Mono","no","18","no","white","no","yes","576","legacy","1","1","3","C:/Users/User/subject-5206705.csv","legacy","Lentiform Loewenfeld","3.3.7","yes","yes","600bd7cfb6416f0113b04181","602110864497cf011d9c0822","0","None","NA","j","space","space","NA","None","3000","NA","4344","9578","7560","NA","3000","2","legacy","1024","2","48000","-16","task","5206705","odd","NA","37142","43491","39147","47236","5697","22837","15277","47739","NA","47234","47740","47056","43491","50740","35249","36588","5688","45556","Lexical Decision Task","2","12219","6","yes","1024"
"2.705007959","6.01","4","wept","word","42.857142857142854","42.857142857142854","1927","1927","black","no","legacy","legacy","legacy","0","uniform","1","undefined","undefined","undefined","1","j","0","0","0","0","6","0","0","0","6","NA","2","6","2","0","2","3","6","0","6","Thu Feb 18 09:55:19 2021","The main experiment item","yes","Lexical_Decision_Task.osexp","C:/Users/User","no","Andale Mono","no","18","no","white","no","yes","576","legacy","2","2","3","C:/Users/User/subject-5206705.csv","legacy","Lentiform Loewenfeld","3.3.7","yes","yes","600bd7cfb6416f0113b04181","602110864497cf011d9c0822","0","j","NA","j","space","space","NA","j","1270","NA","4344","9578","7560","NA","1270","2","legacy","1024","2","48000","-16","task","5206705","odd","NA","37142","43491","39147","52349","5697","22837","15277","52852","NA","52347","52852","52247","43491","54122","35249","36588","5688","50746","Lexical Decision Task","3","13489","7","yes","1024"
"3.037294994","8.64","7","roof","word","50","50","1758.125","1758.125","black","no","legacy","legacy","legacy","0","uniform","1","undefined","undefined","undefined","1","j","0","0","0","0","7","0","0","0","7","NA","3","7","3","0","3","3","7","0","7","Thu Feb 18 09:55:19 2021","The main experiment item","yes","Lexical_Decision_Task.osexp","C:/Users/User","no","Andale Mono","no","18","no","white","no","yes","576","legacy","3","3","3","C:/Users/User/subject-5206705.csv","legacy","Lentiform Loewenfeld","3.3.7","yes","yes","600bd7cfb6416f0113b04181","602110864497cf011d9c0822","0","j","NA","j","space","space","NA","j","576","NA","4344","9578","7560","NA","576","2","legacy","1024","2","48000","-16","task","5206705","odd","NA","37142","43491","39147","54756","5697","22837","15277","55259","NA","54754","55260","54627","43491","55836","35249","54127","5688","50746","Lexical Decision Task","4","14065","8","yes","1024"
"3.492014979","0","9","yine","non-word","44.44444444444444","44.44444444444444","1717.7777777777778","1717.7777777777778","black","no","legacy","legacy","legacy","0","uniform","0","undefined","undefined","undefined","0","f","0","0","0","0","8","0","0","0","8","NA","4","8","4","0","4","3","8","0","8","Thu Feb 18 09:55:19 2021","The main experiment item","yes","Lexical_Decision_Task.osexp","C:/Users/User","no","Andale Mono","no","18","no","white","no","yes","576","legacy","4","4","3","C:/Users/User/subject-5206705.csv","legacy","Lentiform Loewenfeld","3.3.7","yes","yes","600bd7cfb6416f0113b04181","602110864497cf011d9c0822","0","j","NA","j","space","space","NA","j","1395","NA","4344","9578","7560","NA","1395","2","legacy","1024","2","48000","-16","task","5206705","odd","NA","37142","43491","39147","56506","5697","22837","15277","57009","NA","56504","57009","56341","43491","58404","35249","55841","5688","50746","Lexical Decision Task","4","15460","9","yes","1024"
"3.261341392","5.08","8","reek","word","50","50","1633.6","1633.6","black","no","legacy","legacy","legacy","0","uniform","1","undefined","undefined","undefined","1","j","0","0","0","0","9","0","0","0","9","NA","5","9","5","0","5","3","9","0","9","Thu Feb 18 09:55:19 2021","The main experiment item","yes","Lexical_Decision_Task.osexp","C:/Users/User","no","Andale Mono","no","18","no","white","no","yes","576","legacy","5","5","3","C:/Users/User/subject-5206705.csv","legacy","Lentiform Loewenfeld","3.3.7","yes","yes","600bd7cfb6416f0113b04181","602110864497cf011d9c0822","0","j","NA","j","space","space","NA","j","876","NA","4344","9578","7560","NA","876","2","legacy","1024","2","48000","-16","task","5206705","odd","NA","37142","43491","39147","60082","5697","22837","15277","60585","NA","60080","60586","59910","43491","61463","35249","55841","5688","58410","Lexical Decision Task","5","16336","10","yes","1024"
"3.168890155","0","6","thet","non-word","45.45454545454545","45.45454545454545","1549.3636363636363","1549.3636363636363","black","no","legacy","legacy","legacy","0","uniform","0","undefined","undefined","undefined","0","f","0","0","0","0","10","0","0","0","10","NA","6","10","6","0","6","3","10","0","10","Thu Feb 18 09:55:19 2021","The main experiment item","yes","Lexical_Decision_Task.osexp","C:/Users/User","no","Andale Mono","no","18","no","white","no","yes","576","legacy","6","6","3","C:/Users/User/subject-5206705.csv","legacy","Lentiform Loewenfeld","3.3.7","yes","yes","600bd7cfb6416f0113b04181","602110864497cf011d9c0822","0","j","NA","j","space","space","NA","j","707","NA","4344","9578","7560","NA","707","2","legacy","1024","2","48000","-16","task","5206705","odd","NA","37142","43491","39147","62120","5697","22837","15277","62623","NA","62118","62623","61968","43491","63330","35249","61468","5688","58410","Lexical Decision Task","5","17043","11","yes","1024"
"3.443783828","7.65","3","verb","word","50","50","1473.5833333333333","1473.5833333333333","black","no","legacy","legacy","legacy","0","uniform","1","undefined","undefined","undefined","1","j","0","0","0","0","11","0","0","0","11","NA","7","11","7","0","7","3","11","0","11","Thu Feb 18 09:55:19 2021","The main experiment item","yes","Lexical_Decision_Task.osexp","C:/Users/User","no","Andale Mono","no","18","no","white","no","yes","576","legacy","7","7","3","C:/Users/User/subject-5206705.csv","legacy","Lentiform Loewenfeld","3.3.7","yes","yes","600bd7cfb6416f0113b04181","602110864497cf011d9c0822","0","j","NA","j","space","space","NA","j","640","NA","4344","9578","7560","NA","640","2","legacy","1024","2","48000","-16","task","5206705","odd","NA","37142","43491","39147","64992","5697","22837","15277","65495","NA","64989","65495","64835","43491","66136","35249","61468","5688","63335","Lexical Decision Task","6","17683","12","yes","1024"
"2.814027728","8.2","4","foam","word","53.84615384615385","53.84615384615385","1420.076923076923","1420.076923076923","black","no","legacy","legacy","legacy","0","uniform","1","undefined","undefined","undefined","1","j","0","0","0","0","12","0","0","0","12","NA","8","12","8","0","8","3","12","0","12","Thu Feb 18 09:55:19 2021","The main experiment item","yes","Lexical_Decision_Task.osexp","C:/Users/User","no","Andale Mono","no","18","no","white","no","yes","576","legacy","8","8","3","C:/Users/User/subject-5206705.csv","legacy","Lentiform Loewenfeld","3.3.7","yes","yes","600bd7cfb6416f0113b04181","602110864497cf011d9c0822","0","j","NA","j","space","space","NA","j","778","NA","4344","9578","7560","NA","778","2","legacy","1024","2","48000","-16","task","5206705","odd","NA","37142","43491","39147","66768","5697","22837","15277","67271","NA","66766","67272","66641","43491","68050","35249","66141","5688","63335","Lexical Decision Task","7","18461","13","yes","1024"
"2.95456409","0","4","taud","non-word","50","50","1508.0714285714287","1508.0714285714287","black","no","legacy","legacy","legacy","0","uniform","0","undefined","undefined","undefined","0","f","0","0","0","0","13","0","0","0","13","NA","9","13","9","0","9","3","13","0","13","Thu Feb 18 09:55:19 2021","The main experiment item","yes","Lexical_Decision_Task.osexp","C:/Users/User","no","Andale Mono","no","18","no","white","no","yes","576","legacy","9","9","3","C:/Users/User/subject-5206705.csv","legacy","Lentiform Loewenfeld","3.3.7","yes","yes","600bd7cfb6416f0113b04181","602110864497cf011d9c0822","0","j","NA","j","space","space","NA","j","2652","NA","4344","9578","7560","NA","2652","2","legacy","1024","2","48000","-16","task","5206705","odd","NA","37142","43491","39147","68708","5697","22837","15277","69211","NA","68706","69212","68555","43491","71864","35249","68055","5688","63335","Lexical Decision Task","7","21113","14","yes","1024"
"3.209246849","0","7","slem","non-word","53.333333333333336","53.333333333333336","1565.8666666666666","1565.8666666666666","black","no","legacy","legacy","legacy","0","uniform","1","undefined","undefined","undefined","1","f","0","0","0","0","14","0","0","0","14","NA","10","14","10","0","10","3","14","0","14","Thu Feb 18 09:55:19 2021","The main experiment item","yes","Lexical_Decision_Task.osexp","C:/Users/User","no","Andale Mono","no","18","no","white","no","yes","576","legacy","10","10","3","C:/Users/User/subject-5206705.csv","legacy","Lentiform Loewenfeld","3.3.7","yes","yes","600bd7cfb6416f0113b04181","602110864497cf011d9c0822","0","f","NA","j","space","space","NA","f","2375","NA","4344","9578","7560","NA","2375","2","legacy","1024","2","48000","-16","task","5206705","odd","NA","37142","43491","39147","73520","5697","22837","15277","74023","NA","73518","74023","73370","43491","76398","35249","68055","5688","71870","Lexical Decision Task","8","23488","15","yes","1024"
"2.594027722","9.08","8","skip","word","56.25","56.25","1505.5","1505.5","black","no","legacy","legacy","legacy","0","uniform","1","undefined","undefined","undefined","1","j","0","0","0","0","15","0","0","0","15","NA","11","15","11","0","11","3","15","0","15","Thu Feb 18 09:55:19 2021","The main experiment item","yes","Lexical_Decision_Task.osexp","C:/Users/User","no","Andale Mono","no","18","no","white","no","yes","576","legacy","11","11","3","C:/Users/User/subject-5206705.csv","legacy","Lentiform Loewenfeld","3.3.7","yes","yes","600bd7cfb6416f0113b04181","602110864497cf011d9c0822","0","j","NA","j","space","space","NA","j","600","NA","4344","9578","7560","NA","600","2","legacy","1024","2","48000","-16","task","5206705","odd","NA","37142","43491","39147","77054","5697","22837","15277","77557","NA","77052","77557","76904","43491","78157","35249","76404","5688","71870","Lexical Decision Task","9","24088","16","yes","1024"
"3.353210739","0","9","reet","non-word","52.94117647058823","52.94117647058823","1450.5294117647059","1450.5294117647059","black","no","legacy","legacy","legacy","0","uniform","0","undefined","undefined","undefined","0","f","0","0","0","0","16","0","0","0","16","NA","12","16","12","0","12","3","16","0","16","Thu Feb 18 09:55:19 2021","The main experiment item","yes","Lexical_Decision_Task.osexp","C:/Users/User","no","Andale Mono","no","18","no","white","no","yes","576","legacy","12","12","3","C:/Users/User/subject-5206705.csv","legacy","Lentiform Loewenfeld","3.3.7","yes","yes","600bd7cfb6416f0113b04181","602110864497cf011d9c0822","0","j","NA","j","space","space","NA","j","571","NA","4344","9578","7560","NA","571","2","legacy","1024","2","48000","-16","task","5206705","odd","NA","37142","43491","39147","78796","5697","22837","15277","79299","NA","78794","79299","78664","43491","79870","35249","78163","5688","71870","Lexical Decision Task","9","24659","17","yes","1024"
"3.132473155","0","4","glim","non-word","50","50","1404.8333333333333","1404.8333333333333","black","no","legacy","legacy","legacy","0","uniform","0","undefined","undefined","undefined","0","f","0","0","0","0","17","0","0","0","17","NA","13","17","13","0","13","3","17","0","17","Thu Feb 18 09:55:19 2021","The main experiment item","yes","Lexical_Decision_Task.osexp","C:/Users/User","no","Andale Mono","no","18","no","white","no","yes","576","legacy","13","13","3","C:/Users/User/subject-5206705.csv","legacy","Lentiform Loewenfeld","3.3.7","yes","yes","600bd7cfb6416f0113b04181","602110864497cf011d9c0822","0","j","NA","j","space","space","NA","j","628","NA","4344","9578","7560","NA","628","2","legacy","1024","2","48000","-16","task","5206705","odd","NA","37142","43491","39147","81550","5697","22837","15277","82053","NA","81547","82053","81378","43491","82681","35249","78163","5688","79877","Lexical Decision Task","9","25287","18","yes","1024"
"3.043885998","0","9","gome","non-word","52.63157894736842","52.63157894736842","1427.842105263158","1427.842105263158","black","no","legacy","legacy","legacy","0","uniform","1","undefined","undefined","undefined","1","f","0","0","0","0","18","0","0","0","18","NA","14","18","14","0","14","3","18","0","18","Thu Feb 18 09:55:19 2021","The main experiment item","yes","Lexical_Decision_Task.osexp","C:/Users/User","no","Andale Mono","no","18","no","white","no","yes","576","legacy","14","14","3","C:/Users/User/subject-5206705.csv","legacy","Lentiform Loewenfeld","3.3.7","yes","yes","600bd7cfb6416f0113b04181","602110864497cf011d9c0822","0","f","NA","j","space","space","NA","f","1842","NA","4344","9578","7560","NA","1842","2","legacy","1024","2","48000","-16","task","5206705","odd","NA","37142","43491","39147","84272","5697","22837","15277","84776","NA","84271","84776","84189","43491","86619","35249","78163","5688","82688","Lexical Decision Task","10","27129","19","yes","1024"
"3.257359335","8","6","brew","word","55","55","1389.8","1389.8","black","no","legacy","legacy","legacy","0","uniform","1","undefined","undefined","undefined","1","j","0","0","0","0","19","0","0","0","19","NA","15","19","15","0","15","3","19","0","19","Thu Feb 18 09:55:19 2021","The main experiment item","yes","Lexical_Decision_Task.osexp","C:/Users/User","no","Andale Mono","no","18","no","white","no","yes","576","legacy","15","15","3","C:/Users/User/subject-5206705.csv","legacy","Lentiform Loewenfeld","3.3.7","yes","yes","600bd7cfb6416f0113b04181","602110864497cf011d9c0822","0","j","NA","j","space","space","NA","j","667","NA","4344","9578","7560","NA","667","2","legacy","1024","2","48000","-16","task","5206705","odd","NA","37142","43491","39147","87271","5697","22837","15277","87773","NA","87268","87773","87124","43491","88440","35249","86624","5688","82688","Lexical Decision Task","11","27796","20","yes","1024"
"3.153104174","10.89","6","door","word","57.142857142857146","57.142857142857146","1348.7619047619048","1348.7619047619048","black","no","legacy","legacy","legacy","0","uniform","1","undefined","undefined","undefined","1","j","0","0","0","0","20","0","0","0","20","NA","16","20","16","0","16","3","20","0","20","Thu Feb 18 09:55:19 2021","The main experiment item","yes","Lexical_Decision_Task.osexp","C:/Users/User","no","Andale Mono","no","18","no","white","no","yes","576","legacy","16","16","3","C:/Users/User/subject-5206705.csv","legacy","Lentiform Loewenfeld","3.3.7","yes","yes","600bd7cfb6416f0113b04181","602110864497cf011d9c0822","0","j","NA","j","space","space","NA","j","528","NA","4344","9578","7560","NA","528","2","legacy","1024","2","48000","-16","task","5206705","odd","NA","37142","43491","39147","89078","5697","22837","15277","89581","NA","89076","89581","88948","43491","90110","35249","88447","5688","82688","Lexical Decision Task","12","28324","21","yes","1024"
"3.010582609","0","2","drod","non-word","59.09090909090909","59.09090909090909","1343.6818181818182","1343.6818181818182","black","no","legacy","legacy","legacy","0","uniform","1","undefined","undefined","undefined","1","f","0","0","0","0","21","0","0","0","21","NA","17","21","17","0","17","3","21","0","21","Thu Feb 18 09:55:19 2021","The main experiment item","yes","Lexical_Decision_Task.osexp","C:/Users/User","no","Andale Mono","no","18","no","white","no","yes","576","legacy","17","17","3","C:/Users/User/subject-5206705.csv","legacy","Lentiform Loewenfeld","3.3.7","yes","yes","600bd7cfb6416f0113b04181","602110864497cf011d9c0822","0","f","NA","j","space","space","NA","f","1237","NA","4344","9578","7560","NA","1237","2","legacy","1024","2","48000","-16","task","5206705","odd","NA","37142","43491","39147","90781","5697","22837","15277","91285","NA","90779","91286","90615","43491","92524","35249","90115","5688","82688","Lexical Decision Task","13","29561","22","yes","1024"
"2.576725172","0","8","gowl","non-word","60.869565217391305","60.869565217391305","1338.5217391304348","1338.5217391304348","black","no","legacy","legacy","legacy","0","uniform","1","undefined","undefined","undefined","1","f","0","0","0","0","22","0","0","0","22","NA","18","22","18","0","18","3","22","0","22","Thu Feb 18 09:55:19 2021","The main experiment item","yes","Lexical_Decision_Task.osexp","C:/Users/User","no","Andale Mono","no","18","no","white","no","yes","576","legacy","18","18","3","C:/Users/User/subject-5206705.csv","legacy","Lentiform Loewenfeld","3.3.7","yes","yes","600bd7cfb6416f0113b04181","602110864497cf011d9c0822","0","f","NA","j","space","space","NA","f","1225","NA","4344","9578","7560","NA","1225","2","legacy","1024","2","48000","-16","task","5206705","odd","NA","37142","43491","39147","93160","5697","22837","15277","93663","NA","93158","93663","93031","43491","94889","35249","92531","5688","82688","Lexical Decision Task","14","30786","23","yes","1024"
"2.706148589","0","4","hube","non-word","58.333333333333336","58.333333333333336","1340.7083333333333","1340.7083333333333","black","no","legacy","legacy","legacy","0","uniform","0","undefined","undefined","undefined","0","f","0","0","0","0","23","0","0","0","23","NA","19","23","19","0","19","3","23","0","23","Thu Feb 18 09:55:19 2021","The main experiment item","yes","Lexical_Decision_Task.osexp","C:/Users/User","no","Andale Mono","no","18","no","white","no","yes","576","legacy","19","19","3","C:/Users/User/subject-5206705.csv","legacy","Lentiform Loewenfeld","3.3.7","yes","yes","600bd7cfb6416f0113b04181","602110864497cf011d9c0822","0","j","NA","j","space","space","NA","j","1391","NA","4344","9578","7560","NA","1391","2","legacy","1024","2","48000","-16","task","5206705","odd","NA","37142","43491","39147","95523","5697","22837","15277","96026","NA","95521","96027","95395","43491","97418","35249","94895","5688","82688","Lexical Decision Task","14","32177","24","yes","1024"
"3.119255889","6.63","2","itch","word","60","60","1312.76","1312.76","black","no","legacy","legacy","legacy","0","uniform","1","undefined","undefined","undefined","1","j","0","0","0","0","24","0","0","0","24","NA","20","24","20","0","20","3","24","0","24","Thu Feb 18 09:55:19 2021","The main experiment item","yes","Lexical_Decision_Task.osexp","C:/Users/User","no","Andale Mono","no","18","no","white","no","yes","576","legacy","20","20","3","C:/Users/User/subject-5206705.csv","legacy","Lentiform Loewenfeld","3.3.7","yes","yes","600bd7cfb6416f0113b04181","602110864497cf011d9c0822","0","j","NA","j","space","space","NA","j","642","NA","4344","9578","7560","NA","642","2","legacy","1024","2","48000","-16","task","5206705","odd","NA","37142","43491","39147","99109","5697","22837","15277","99613","NA","99106","99614","98923","43491","100257","35249","94895","5688","97423","Lexical Decision Task","15","32819","25","yes","1024"
"2.746890964","9.67","3","plug","word","57.69230769230769","57.69230769230769","1286.576923076923","1286.576923076923","black","no","legacy","legacy","legacy","0","uniform","0","undefined","undefined","undefined","0","j","0","0","0","0","25","0","0","0","25","NA","21","25","21","0","21","3","25","0","25","Thu Feb 18 09:55:19 2021","The main experiment item","yes","Lexical_Decision_Task.osexp","C:/Users/User","no","Andale Mono","no","18","no","white","no","yes","576","legacy","21","21","3","C:/Users/User/subject-5206705.csv","legacy","Lentiform Loewenfeld","3.3.7","yes","yes","600bd7cfb6416f0113b04181","602110864497cf011d9c0822","0","f","NA","j","space","space","NA","f","632","NA","4344","9578","7560","NA","632","2","legacy","1024","2","48000","-16","task","5206705","odd","NA","37142","43491","39147","100924","5697","22837","15277","101428","NA","100922","101428","100764","43491","102060","35249","100264","5688","97423","Lexical Decision Task","15","33451","26","yes","1024"
"3.064581521","5.51","6","cask","word","59.25925925925926","59.25925925925926","1259.4074074074074","1259.4074074074074","black","no","legacy","legacy","legacy","0","uniform","1","undefined","undefined","undefined","1","j","0","0","0","0","26","0","0","0","26","NA","22","26","22","0","22","3","26","0","26","Thu Feb 18 09:55:19 2021","The main experiment item","yes","Lexical_Decision_Task.osexp","C:/Users/User","no","Andale Mono","no","18","no","white","no","yes","576","legacy","22","22","3","C:/Users/User/subject-5206705.csv","legacy","Lentiform Loewenfeld","3.3.7","yes","yes","600bd7cfb6416f0113b04181","602110864497cf011d9c0822","0","j","NA","j","space","space","NA","j","553","NA","4344","9578","7560","NA","553","2","legacy","1024","2","48000","-16","task","5206705","odd","NA","37142","43491","39147","103743","5697","22837","15277","104247","NA","103738","104247","103568","43491","104800","35249","100264","5688","102068","Lexical Decision Task","16","34004","27","yes","1024"
"3.259832699","0","9","flar","non-word","57.142857142857146","57.142857142857146","1246.642857142857","1246.642857142857","black","no","legacy","legacy","legacy","0","uniform","0","undefined","undefined","undefined","0","f","0","0","0","0","27","0","0","0","27","NA","23","27","23","0","23","3","27","0","27","Thu Feb 18 09:55:19 2021","The main experiment item","yes","Lexical_Decision_Task.osexp","C:/Users/User","no","Andale Mono","no","18","no","white","no","yes","576","legacy","23","23","3","C:/Users/User/subject-5206705.csv","legacy","Lentiform Loewenfeld","3.3.7","yes","yes","600bd7cfb6416f0113b04181","602110864497cf011d9c0822","0","j","NA","j","space","space","NA","j","902","NA","4344","9578","7560","NA","902","2","legacy","1024","2","48000","-16","task","5206705","odd","NA","37142","43491","39147","105462","5697","22837","15277","105966","NA","105460","105966","105305","43491","106868","35249","104805","5688","102068","Lexical Decision Task","16","34906","28","yes","1024"
"3.120135028","0","3","vals","non-word","58.62068965517241","58.62068965517241","1237.1724137931035","1237.1724137931035","black","no","legacy","legacy","legacy","0","uniform","1","undefined","undefined","undefined","1","f","0","0","0","0","28","0","0","0","28","NA","24","28","24","0","24","3","28","0","28","Thu Feb 18 09:55:19 2021","The main experiment item","yes","Lexical_Decision_Task.osexp","C:/Users/User","no","Andale Mono","no","18","no","white","no","yes","576","legacy","24","24","3","C:/Users/User/subject-5206705.csv","legacy","Lentiform Loewenfeld","3.3.7","yes","yes","600bd7cfb6416f0113b04181","602110864497cf011d9c0822","0","f","NA","j","space","space","NA","f","972","NA","4344","9578","7560","NA","972","2","legacy","1024","2","48000","-16","task","5206705","odd","NA","37142","43491","39147","108506","5697","22837","15277","109010","NA","108504","109010","108373","43491","109983","35249","104805","5688","106873","Lexical Decision Task","17","35878","29","yes","1024"
"2.920123326","7.43","4","duel","word","60","60","1227.1333333333334","1227.1333333333334","black","no","legacy","legacy","legacy","0","uniform","1","undefined","undefined","undefined","1","j","0","0","0","0","29","0","0","0","29","NA","25","29","25","0","25","3","29","0","29","Thu Feb 18 09:55:19 2021","The main experiment item","yes","Lexical_Decision_Task.osexp","C:/Users/User","no","Andale Mono","no","18","no","white","no","yes","576","legacy","25","25","3","C:/Users/User/subject-5206705.csv","legacy","Lentiform Loewenfeld","3.3.7","yes","yes","600bd7cfb6416f0113b04181","602110864497cf011d9c0822","0","j","NA","j","space","space","NA","j","936","NA","4344","9578","7560","NA","936","2","legacy","1024","2","48000","-16","task","5206705","odd","NA","37142","43491","39147","110620","5697","22837","15277","111123","NA","110618","111123","110491","43491","112060","35249","109991","5688","106873","Lexical Decision Task","18","36814","30","yes","1024"
"3.156347201","0","8","lasp","non-word","61.29032258064516","61.29032258064516","1254.6774193548388","1254.6774193548388","black","no","legacy","legacy","legacy","0","uniform","1","undefined","undefined","undefined","1","f","0","0","0","0","30","0","0","0","30","NA","26","30","26","0","26","3","30","0","30","Thu Feb 18 09:55:19 2021","The main experiment item","yes","Lexical_Decision_Task.osexp","C:/Users/User","no","Andale Mono","no","18","no","white","no","yes","576","legacy","26","26","3","C:/Users/User/subject-5206705.csv","legacy","Lentiform Loewenfeld","3.3.7","yes","yes","600bd7cfb6416f0113b04181","602110864497cf011d9c0822","0","f","NA","j","space","space","NA","f","2081","NA","4344","9578","7560","NA","2081","2","legacy","1024","2","48000","-16","task","5206705","odd","NA","37142","43491","39147","112697","5697","22837","15277","113200","NA","112694","113200","112569","43491","115282","35249","112069","5688","106873","Lexical Decision Task","19","38895","31","yes","1024"
"3.121778632","0","9","sark","non-word","62.5","62.5","1285.5","1285.5","black","no","legacy","legacy","legacy","0","uniform","1","undefined","undefined","undefined","1","f","0","0","0","0","31","0","0","0","31","NA","27","31","27","0","27","3","31","0","31","Thu Feb 18 09:55:19 2021","The main experiment item","yes","Lexical_Decision_Task.osexp","C:/Users/User","no","Andale Mono","no","18","no","white","no","yes","576","legacy","27","27","3","C:/Users/User/subject-5206705.csv","legacy","Lentiform Loewenfeld","3.3.7","yes","yes","600bd7cfb6416f0113b04181","602110864497cf011d9c0822","0","f","NA","j","space","space","NA","f","2241","NA","4344","9578","7560","NA","2241","2","legacy","1024","2","48000","-16","task","5206705","odd","NA","37142","43491","39147","115917","5697","22837","15277","116420","NA","115915","116421","115788","43491","118662","35249","115287","5688","106873","Lexical Decision Task","20","41136","32","yes","1024"
"3.378276681","6.39","8","bran","word","60.60606060606061","60.60606060606061","1337.4545454545455","1337.4545454545455","black","no","legacy","legacy","legacy","0","uniform","0","undefined","undefined","undefined","0","j","0","0","0","0","32","0","0","0","32","NA","28","32","28","0","28","3","32","0","32","Thu Feb 18 09:55:19 2021","The main experiment item","yes","Lexical_Decision_Task.osexp","C:/Users/User","no","Andale Mono","no","18","no","white","no","yes","576","legacy","28","28","3","C:/Users/User/subject-5206705.csv","legacy","Lentiform Loewenfeld","3.3.7","yes","yes","600bd7cfb6416f0113b04181","602110864497cf011d9c0822","0","None","NA","j","space","space","NA","None","3000","NA","4344","9578","7560","NA","3000","2","legacy","1024","2","48000","-16","task","5206705","odd","NA","37142","43491","39147","119304","5697","22837","15277","119806","NA","119302","119806","119168","43491","122806","35249","118668","5688","106873","Lexical Decision Task","20","44136","33","yes","1024"
"3.067070856","9.39","3","loud","word","61.76470588235294","61.76470588235294","1316.1470588235295","1316.1470588235295","black","no","legacy","legacy","legacy","0","uniform","1","undefined","undefined","undefined","1","j","0","0","0","0","33","0","0","0","33","NA","29","33","29","0","29","3","33","0","33","Thu Feb 18 09:55:19 2021","The main experiment item","yes","Lexical_Decision_Task.osexp","C:/Users/User","no","Andale Mono","no","18","no","white","no","yes","576","legacy","29","29","3","C:/Users/User/subject-5206705.csv","legacy","Lentiform Loewenfeld","3.3.7","yes","yes","600bd7cfb6416f0113b04181","602110864497cf011d9c0822","0","j","NA","j","space","space","NA","j","613","NA","4344","9578","7560","NA","613","2","legacy","1024","2","48000","-16","task","5206705","odd","NA","37142","43491","39147","124445","5697","22837","15277","124948","NA","124443","124948","124312","43491","125561","35249","118668","5688","122812","Lexical Decision Task","21","44749","34","yes","1024"
"3.031812271","6.52","3","gulp","word","62.857142857142854","62.857142857142854","1298","1298","black","no","legacy","legacy","legacy","0","uniform","1","undefined","undefined","undefined","1","j","0","0","0","0","34","0","0","0","34","NA","30","34","30","0","30","3","34","0","34","Thu Feb 18 09:55:19 2021","The main experiment item","yes","Lexical_Decision_Task.osexp","C:/Users/User","no","Andale Mono","no","18","no","white","no","yes","576","legacy","30","30","3","C:/Users/User/subject-5206705.csv","legacy","Lentiform Loewenfeld","3.3.7","yes","yes","600bd7cfb6416f0113b04181","602110864497cf011d9c0822","0","j","NA","j","space","space","NA","j","681","NA","4344","9578","7560","NA","681","2","legacy","1024","2","48000","-16","task","5206705","odd","NA","37142","43491","39147","126228","5697","22837","15277","126731","NA","126226","126731","126068","43491","127412","35249","125568","5688","122812","Lexical Decision Task","22","45430","35","yes","1024"
"3.159867847","5.98","5","brim","word","61.111111111111114","61.111111111111114","1292.0833333333333","1292.0833333333333","black","no","legacy","legacy","legacy","0","uniform","0","undefined","undefined","undefined","0","j","0","0","0","0","35","0","0","0","35","NA","31","35","31","0","31","3","35","0","35","Thu Feb 18 09:55:19 2021","The main experiment item","yes","Lexical_Decision_Task.osexp","C:/Users/User","no","Andale Mono","no","18","no","white","no","yes","576","legacy","31","31","3","C:/Users/User/subject-5206705.csv","legacy","Lentiform Loewenfeld","3.3.7","yes","yes","600bd7cfb6416f0113b04181","602110864497cf011d9c0822","0","f","NA","j","space","space","NA","f","1085","NA","4344","9578","7560","NA","1085","2","legacy","1024","2","48000","-16","task","5206705","odd","NA","37142","43491","39147","128051","5697","22837","15277","128554","NA","128049","128554","127920","43491","129640","35249","127420","5688","122812","Lexical Decision Task","22","46515","36","yes","1024"
"3.082307743","9.68","8","camp","word","62.16216216216216","62.16216216216216","1280.4054054054054","1280.4054054054054","black","no","legacy","legacy","legacy","0","uniform","1","undefined","undefined","undefined","1","j","0","0","0","0","36","0","0","0","36","NA","32","36","32","0","32","3","36","0","36","Thu Feb 18 09:55:19 2021","The main experiment item","yes","Lexical_Decision_Task.osexp","C:/Users/User","no","Andale Mono","no","18","no","white","no","yes","576","legacy","32","32","3","C:/Users/User/subject-5206705.csv","legacy","Lentiform Loewenfeld","3.3.7","yes","yes","600bd7cfb6416f0113b04181","602110864497cf011d9c0822","0","j","NA","j","space","space","NA","j","860","NA","4344","9578","7560","NA","860","2","legacy","1024","2","48000","-16","task","5206705","odd","NA","37142","43491","39147","131316","5697","22837","15277","131819","NA","131312","131820","131146","43491","132680","35249","127420","5688","129646","Lexical Decision Task","23","47375","37","yes","1024"
"2.793790385","5.67","9","swab","word","63.1578947368421","63.1578947368421","1270.7894736842106","1270.7894736842106","black","no","legacy","legacy","legacy","0","uniform","1","undefined","undefined","undefined","1","j","0","0","0","0","37","0","0","0","37","NA","33","37","33","0","33","3","37","0","37","Thu Feb 18 09:55:19 2021","The main experiment item","yes","Lexical_Decision_Task.osexp","C:/Users/User","no","Andale Mono","no","18","no","white","no","yes","576","legacy","33","33","3","C:/Users/User/subject-5206705.csv","legacy","Lentiform Loewenfeld","3.3.7","yes","yes","600bd7cfb6416f0113b04181","602110864497cf011d9c0822","0","j","NA","j","space","space","NA","j","915","NA","4344","9578","7560","NA","915","2","legacy","1024","2","48000","-16","task","5206705","odd","NA","37142","43491","39147","133359","5697","22837","15277","133862","NA","133355","133862","133188","43491","134778","35249","132688","5688","129646","Lexical Decision Task","24","48290","38","yes","1024"
"2.845304797","0","6","buct","non-word","64.1025641025641","64.1025641025641","1262.8461538461538","1262.8461538461538","black","no","legacy","legacy","legacy","0","uniform","1","undefined","undefined","undefined","1","f","0","0","0","0","38","0","0","0","38","NA","34","38","34","0","34","3","38","0","38","Thu Feb 18 09:55:19 2021","The main experiment item","yes","Lexical_Decision_Task.osexp","C:/Users/User","no","Andale Mono","no","18","no","white","no","yes","576","legacy","34","34","3","C:/Users/User/subject-5206705.csv","legacy","Lentiform Loewenfeld","3.3.7","yes","yes","600bd7cfb6416f0113b04181","602110864497cf011d9c0822","0","f","NA","j","space","space","NA","f","961","NA","4344","9578","7560","NA","961","2","legacy","1024","2","48000","-16","task","5206705","odd","NA","37142","43491","39147","135448","5697","22837","15277","135951","NA","135447","135951","135284","43491","136912","35249","134784","5688","129646","Lexical Decision Task","25","49251","39","yes","1024"
"2.695481676","0","7","goke","non-word","65","65","1249.725","1249.725","black","no","legacy","legacy","legacy","0","uniform","1","undefined","undefined","undefined","1","f","0","0","0","0","39","0","0","0","39","NA","35","39","35","0","35","3","39","0","39","Thu Feb 18 09:55:19 2021","The main experiment item","yes","Lexical_Decision_Task.osexp","C:/Users/User","no","Andale Mono","no","18","no","white","no","yes","576","legacy","35","35","3","C:/Users/User/subject-5206705.csv","legacy","Lentiform Loewenfeld","3.3.7","yes","yes","600bd7cfb6416f0113b04181","602110864497cf011d9c0822","0","f","NA","j","space","space","NA","f","738","NA","4344","9578","7560","NA","738","2","legacy","1024","2","48000","-16","task","5206705","odd","NA","37142","43491","39147","137545","5697","22837","15277","138049","NA","137543","138049","137418","43491","138788","35249","136918","5688","129646","Lexical Decision Task","26","49989","40","yes","1024"
"2.64476673","0","5","moft","non-word","65.85365853658537","65.85365853658537","1243.7073170731708","1243.7073170731708","black","no","legacy","legacy","legacy","0","uniform","1","undefined","undefined","undefined","1","f","0","0","0","0","40","0","0","0","40","NA","36","40","36","0","36","3","40","0","40","Thu Feb 18 09:55:19 2021","The main experiment item","yes","Lexical_Decision_Task.osexp","C:/Users/User","no","Andale Mono","no","18","no","white","no","yes","576","legacy","36","36","3","C:/Users/User/subject-5206705.csv","legacy","Lentiform Loewenfeld","3.3.7","yes","yes","600bd7cfb6416f0113b04181","602110864497cf011d9c0822","0","f","NA","j","space","space","NA","f","1003","NA","4344","9578","7560","NA","1003","2","legacy","1024","2","48000","-16","task","5206705","odd","NA","37142","43491","39147","139427","5697","22837","15277","139930","NA","139425","139930","139296","43491","140933","35249","138796","5688","129646","Lexical Decision Task","27","50992","41","yes","1024"
"3.066077331","0","7","vorn","non-word","66.66666666666667","66.66666666666667","1243.452380952381","1243.452380952381","black","no","legacy","legacy","legacy","0","uniform","1","undefined","undefined","undefined","1","f","0","0","0","0","41","0","0","0","41","NA","37","41","37","0","37","3","41","0","41","Thu Feb 18 09:55:19 2021","The main experiment item","yes","Lexical_Decision_Task.osexp","C:/Users/User","no","Andale Mono","no","18","no","white","no","yes","576","legacy","37","37","3","C:/Users/User/subject-5206705.csv","legacy","Lentiform Loewenfeld","3.3.7","yes","yes","600bd7cfb6416f0113b04181","602110864497cf011d9c0822","0","f","NA","j","space","space","NA","f","1233","NA","4344","9578","7560","NA","1233","2","legacy","1024","2","48000","-16","task","5206705","odd","NA","37142","43491","39147","141599","5697","22837","15277","142103","NA","141597","142103","141440","43491","143336","35249","140940","5688","129646","Lexical Decision Task","28","52225","42","yes","1024"
"2.873320602","0","4","lurg","non-word","67.44186046511628","67.44186046511628","1245.4186046511627","1245.4186046511627","black","no","legacy","legacy","legacy","0","uniform","1","undefined","undefined","undefined","1","f","0","0","0","0","42","0","0","0","42","NA","38","42","38","0","38","3","42","0","42","Thu Feb 18 09:55:19 2021","The main experiment item","yes","Lexical_Decision_Task.osexp","C:/Users/User","no","Andale Mono","no","18","no","white","no","yes","576","legacy","38","38","3","C:/Users/User/subject-5206705.csv","legacy","Lentiform Loewenfeld","3.3.7","yes","yes","600bd7cfb6416f0113b04181","602110864497cf011d9c0822","0","f","NA","j","space","space","NA","f","1328","NA","4344","9578","7560","NA","1328","2","legacy","1024","2","48000","-16","task","5206705","odd","NA","37142","43491","39147","143972","5697","22837","15277","144476","NA","143970","144476","143842","43491","145805","35249","143342","5688","129646","Lexical Decision Task","29","53553","43","yes","1024"
"2.714888338","0","3","brug","non-word","65.9090909090909","65.9090909090909","1235.7954545454545","1235.7954545454545","black","no","legacy","legacy","legacy","0","uniform","0","undefined","undefined","undefined","0","f","0","0","0","0","43","0","0","0","43","NA","39","43","39","0","39","3","43","0","43","Thu Feb 18 09:55:19 2021","The main experiment item","yes","Lexical_Decision_Task.osexp","C:/Users/User","no","Andale Mono","no","18","no","white","no","yes","576","legacy","39","39","3","C:/Users/User/subject-5206705.csv","legacy","Lentiform Loewenfeld","3.3.7","yes","yes","600bd7cfb6416f0113b04181","602110864497cf011d9c0822","0","j","NA","j","space","space","NA","j","822","NA","4344","9578","7560","NA","822","2","legacy","1024","2","48000","-16","task","5206705","odd","NA","37142","43491","39147","146442","5697","22837","15277","146945","NA","146440","146946","146313","43491","147769","35249","145812","5688","129646","Lexical Decision Task","29","54375","44","yes","1024"
"2.696356389","0","1","pizz","non-word","66.66666666666667","66.66666666666667","1228.0222222222221","1228.0222222222221","black","no","legacy","legacy","legacy","0","uniform","1","undefined","undefined","undefined","1","f","0","0","0","0","44","0","0","0","44","NA","40","44","40","0","40","3","44","0","44","Thu Feb 18 09:55:19 2021","The main experiment item","yes","Lexical_Decision_Task.osexp","C:/Users/User","no","Andale Mono","no","18","no","white","no","yes","576","legacy","40","40","3","C:/Users/User/subject-5206705.csv","legacy","Lentiform Loewenfeld","3.3.7","yes","yes","600bd7cfb6416f0113b04181","602110864497cf011d9c0822","0","f","NA","j","space","space","NA","f","886","NA","4344","9578","7560","NA","886","2","legacy","1024","2","48000","-16","task","5206705","odd","NA","37142","43491","39147","149415","5697","22837","15277","149918","NA","149413","149919","149276","43491","150805","35249","145812","5688","147776","Lexical Decision Task","30","55261","45","yes","1024"
"2.972819734","0","4","scew","non-word","65.21739130434783","65.21739130434783","1217.1521739130435","1217.1521739130435","black","no","legacy","legacy","legacy","0","uniform","0","undefined","undefined","undefined","0","f","0","0","0","0","45","0","0","0","45","NA","41","45","41","0","41","3","45","0","45","Thu Feb 18 09:55:19 2021","The main experiment item","yes","Lexical_Decision_Task.osexp","C:/Users/User","no","Andale Mono","no","18","no","white","no","yes","576","legacy","41","41","3","C:/Users/User/subject-5206705.csv","legacy","Lentiform Loewenfeld","3.3.7","yes","yes","600bd7cfb6416f0113b04181","602110864497cf011d9c0822","0","j","NA","j","space","space","NA","j","728","NA","4344","9578","7560","NA","728","2","legacy","1024","2","48000","-16","task","5206705","odd","NA","37142","43491","39147","151461","5697","22837","15277","151965","NA","151459","151966","151313","43491","152694","35249","150813","5688","147776","Lexical Decision Task","30","55989","46","yes","1024"
"3.174641193","0","3","ramb","non-word","65.95744680851064","65.95744680851064","1220.404255319149","1220.404255319149","black","no","legacy","legacy","legacy","0","uniform","1","undefined","undefined","undefined","1","f","0","0","0","0","46","0","0","0","46","NA","42","46","42","0","42","3","46","0","46","Thu Feb 18 09:55:19 2021","The main experiment item","yes","Lexical_Decision_Task.osexp","C:/Users/User","no","Andale Mono","no","18","no","white","no","yes","576","legacy","42","42","3","C:/Users/User/subject-5206705.csv","legacy","Lentiform Loewenfeld","3.3.7","yes","yes","600bd7cfb6416f0113b04181","602110864497cf011d9c0822","0","f","NA","j","space","space","NA","f","1370","NA","4344","9578","7560","NA","1370","2","legacy","1024","2","48000","-16","task","5206705","odd","NA","37142","43491","39147","154369","5697","22837","15277","154872","NA","154365","154872","154201","43491","156242","35249","150813","5688","152700","Lexical Decision Task","31","57359","47","yes","1024"
"3.031408464","0","7","drow","non-word","66.66666666666667","66.66666666666667","1216.8125","1216.8125","black","no","legacy","legacy","legacy","0","uniform","1","undefined","undefined","undefined","1","f","0","0","0","0","47","0","0","0","47","NA","43","47","43","0","43","3","47","0","47","Thu Feb 18 09:55:19 2021","The main experiment item","yes","Lexical_Decision_Task.osexp","C:/Users/User","no","Andale Mono","no","18","no","white","no","yes","576","legacy","43","43","3","C:/Users/User/subject-5206705.csv","legacy","Lentiform Loewenfeld","3.3.7","yes","yes","600bd7cfb6416f0113b04181","602110864497cf011d9c0822","0","f","NA","j","space","space","NA","f","1048","NA","4344","9578","7560","NA","1048","2","legacy","1024","2","48000","-16","task","5206705","odd","NA","37142","43491","39147","156899","5697","22837","15277","157402","NA","156897","157402","156747","43491","158450","35249","156247","5688","152700","Lexical Decision Task","32","58407","48","yes","1024"
"2.68604012","0","4","pumb","non-word","67.34693877551021","67.34693877551021","1236.8775510204082","1236.8775510204082","black","no","legacy","legacy","legacy","0","uniform","1","undefined","undefined","undefined","1","f","0","0","0","0","48","0","0","0","48","NA","44","48","44","0","44","3","48","0","48","Thu Feb 18 09:55:19 2021","The main experiment item","yes","Lexical_Decision_Task.osexp","C:/Users/User","no","Andale Mono","no","18","no","white","no","yes","576","legacy","44","44","3","C:/Users/User/subject-5206705.csv","legacy","Lentiform Loewenfeld","3.3.7","yes","yes","600bd7cfb6416f0113b04181","602110864497cf011d9c0822","0","f","NA","j","space","space","NA","f","2200","NA","4344","9578","7560","NA","2200","2","legacy","1024","2","48000","-16","task","5206705","odd","NA","37142","43491","39147","159084","5697","22837","15277","159588","NA","159082","159589","158956","43491","161789","35249","158456","5688","152700","Lexical Decision Task","33","60607","49","yes","1024"
"2.924968096","0","4","phim","non-word","68","68","1232.64","1232.64","black","no","legacy","legacy","legacy","0","uniform","1","undefined","undefined","undefined","1","f","0","0","0","0","49","0","0","0","49","NA","45","49","45","0","45","3","49","0","49","Thu Feb 18 09:55:19 2021","The main experiment item","yes","Lexical_Decision_Task.osexp","C:/Users/User","no","Andale Mono","no","18","no","white","no","yes","576","legacy","45","45","3","C:/Users/User/subject-5206705.csv","legacy","Lentiform Loewenfeld","3.3.7","yes","yes","600bd7cfb6416f0113b04181","602110864497cf011d9c0822","0","f","NA","j","space","space","NA","f","1025","NA","4344","9578","7560","NA","1025","2","legacy","1024","2","48000","-16","task","5206705","odd","NA","37142","43491","39147","162442","5697","22837","15277","162946","NA","162439","162946","162296","43491","163972","35249","161796","5688","152700","Lexical Decision Task","34","61632","50","yes","1024"
"3.049218023","7.4","9","robe","word","68.62745098039215","68.62745098039215","1225.6274509803923","1225.6274509803923","black","no","legacy","legacy","legacy","0","uniform","1","undefined","undefined","undefined","1","j","0","0","0","0","50","0","0","0","50","NA","46","50","46","0","46","3","50","0","50","Thu Feb 18 09:55:19 2021","The main experiment item","yes","Lexical_Decision_Task.osexp","C:/Users/User","no","Andale Mono","no","18","no","white","no","yes","576","legacy","46","46","3","C:/Users/User/subject-5206705.csv","legacy","Lentiform Loewenfeld","3.3.7","yes","yes","600bd7cfb6416f0113b04181","602110864497cf011d9c0822","0","j","NA","j","space","space","NA","j","875","NA","4344","9578","7560","NA","875","2","legacy","1024","2","48000","-16","task","5206705","odd","NA","37142","43491","39147","164608","5697","22837","15277","165110","NA","164606","165111","164477","43491","165986","35249","163977","5688","152700","Lexical Decision Task","35","62507","51","yes","1024"
"2.668385917","5.48","4","twig","word","69.23076923076923","69.23076923076923","1216.673076923077","1216.673076923077","black","no","legacy","legacy","legacy","0","uniform","1","undefined","undefined","undefined","1","j","0","0","0","0","51","0","0","0","51","NA","47","51","47","0","47","3","51","0","51","Thu Feb 18 09:55:19 2021","The main experiment item","yes","Lexical_Decision_Task.osexp","C:/Users/User","no","Andale Mono","no","18","no","white","no","yes","576","legacy","47","47","3","C:/Users/User/subject-5206705.csv","legacy","Lentiform Loewenfeld","3.3.7","yes","yes","600bd7cfb6416f0113b04181","602110864497cf011d9c0822","0","j","NA","j","space","space","NA","j","760","NA","4344","9578","7560","NA","760","2","legacy","1024","2","48000","-16","task","5206705","odd","NA","37142","43491","39147","166626","5697","22837","15277","167129","NA","166624","167130","166493","43491","167892","35249","165993","5688","152700","Lexical Decision Task","36","63267","52","yes","1024"
"2.953276337","6.32","4","thaw","word","69.81132075471699","69.81132075471699","1209.6037735849056","1209.6037735849056","black","no","legacy","legacy","legacy","0","uniform","1","undefined","undefined","undefined","1","j","0","0","0","0","52","0","0","0","52","NA","48","52","48","0","48","3","52","0","52","Thu Feb 18 09:55:19 2021","The main experiment item","yes","Lexical_Decision_Task.osexp","C:/Users/User","no","Andale Mono","no","18","no","white","no","yes","576","legacy","48","48","3","C:/Users/User/subject-5206705.csv","legacy","Lentiform Loewenfeld","3.3.7","yes","yes","600bd7cfb6416f0113b04181","602110864497cf011d9c0822","0","j","NA","j","space","space","NA","j","842","NA","4344","9578","7560","NA","842","2","legacy","1024","2","48000","-16","task","5206705","odd","NA","37142","43491","39147","168534","5697","22837","15277","169038","NA","168533","169038","168400","43491","169881","35249","167900","5688","152700","Lexical Decision Task","37","64109","53","yes","1024"
"3.16326079","0","5","parg","non-word","70.37037037037037","70.37037037037037","1199.5","1199.5","black","no","legacy","legacy","legacy","0","uniform","1","undefined","undefined","undefined","1","f","0","0","0","0","53","0","0","0","53","NA","49","53","49","0","49","3","53","0","53","Thu Feb 18 09:55:19 2021","The main experiment item","yes","Lexical_Decision_Task.osexp","C:/Users/User","no","Andale Mono","no","18","no","white","no","yes","576","legacy","49","49","3","C:/Users/User/subject-5206705.csv","legacy","Lentiform Loewenfeld","3.3.7","yes","yes","600bd7cfb6416f0113b04181","602110864497cf011d9c0822","0","f","NA","j","space","space","NA","f","664","NA","4344","9578","7560","NA","664","2","legacy","1024","2","48000","-16","task","5206705","odd","NA","37142","43491","39147","170538","5697","22837","15277","171042","NA","170536","171042","170386","43491","171707","35249","169886","5688","152700","Lexical Decision Task","38","64773","54","yes","1024"
"2.996511672","0","7","hoil","non-word","70.9090909090909","70.9090909090909","1193.490909090909","1193.490909090909","black","no","legacy","legacy","legacy","0","uniform","1","undefined","undefined","undefined","1","f","0","0","0","0","54","0","0","0","54","0","50","54","50","0","50","3","54","0","54","Thu Feb 18 09:55:19 2021","The main experiment item","yes","Lexical_Decision_Task.osexp","C:/Users/User","no","Andale Mono","no","18","no","white","no","yes","576","legacy","50","50","3","C:/Users/User/subject-5206705.csv","legacy","Lentiform Loewenfeld","3.3.7","yes","yes","600bd7cfb6416f0113b04181","602110864497cf011d9c0822","0","f","NA","j","space","space","j","f","869","NA","4344","9578","7560","4604","869","2","legacy","1024","2","48000","-16","task","5206705","odd","NA","37142","43491","39147","177047","5697","22837","15277","177550","172350","177045","177550","172214","43491","178420","35249","171714","5688","152700","Lexical Decision Task","39","65642","55","yes","1024"
"2.695770526","7.34","6","pawn","word","69.64285714285714","69.64285714285714","1196.8392857142858","1196.8392857142858","black","no","legacy","legacy","legacy","0","uniform","0","undefined","undefined","undefined","0","j","0","0","0","0","55","0","0","0","55","0","51","55","51","0","51","3","55","0","55","Thu Feb 18 09:55:19 2021","The main experiment item","yes","Lexical_Decision_Task.osexp","C:/Users/User","no","Andale Mono","no","18","no","white","no","yes","576","legacy","51","51","3","C:/Users/User/subject-5206705.csv","legacy","Lentiform Loewenfeld","3.3.7","yes","yes","600bd7cfb6416f0113b04181","602110864497cf011d9c0822","0","f","NA","j","space","space","j","f","1381","NA","4344","9578","7560","4604","1381","2","legacy","1024","2","48000","-16","task","5206705","odd","NA","37142","43491","39147","179053","5697","22837","15277","179556","172350","179052","179556","178926","43491","180937","35249","178426","5688","152700","Lexical Decision Task","39","67023","56","yes","1024"
"2.979548375","8.71","4","soup","word","70.17543859649123","70.17543859649123","1185.2456140350878","1185.2456140350878","black","no","legacy","legacy","legacy","0","uniform","1","undefined","undefined","undefined","1","j","0","0","0","0","56","0","0","0","56","0","52","56","52","0","52","3","56","0","56","Thu Feb 18 09:55:19 2021","The main experiment item","yes","Lexical_Decision_Task.osexp","C:/Users/User","no","Andale Mono","no","18","no","white","no","yes","576","legacy","52","52","3","C:/Users/User/subject-5206705.csv","legacy","Lentiform Loewenfeld","3.3.7","yes","yes","600bd7cfb6416f0113b04181","602110864497cf011d9c0822","0","j","NA","j","space","space","j","j","536","NA","4344","9578","7560","4604","536","2","legacy","1024","2","48000","-16","task","5206705","odd","NA","37142","43491","39147","182574","5697","22837","15277","183079","172350","182572","183079","182443","43491","183616","35249","178426","5688","180943","Lexical Decision Task","40","67559","57","yes","1024"
"2.899638141","0","3","hapt","non-word","70.6896551724138","70.6896551724138","1178.6896551724137","1178.6896551724137","black","no","legacy","legacy","legacy","0","uniform","1","undefined","undefined","undefined","1","f","0","0","0","0","57","0","0","0","57","0","53","57","53","0","53","3","57","0","57","Thu Feb 18 09:55:19 2021","The main experiment item","yes","Lexical_Decision_Task.osexp","C:/Users/User","no","Andale Mono","no","18","no","white","no","yes","576","legacy","53","53","3","C:/Users/User/subject-5206705.csv","legacy","Lentiform Loewenfeld","3.3.7","yes","yes","600bd7cfb6416f0113b04181","602110864497cf011d9c0822","0","f","NA","j","space","space","j","f","805","NA","4344","9578","7560","4604","805","2","legacy","1024","2","48000","-16","task","5206705","odd","NA","37142","43491","39147","184253","5697","22837","15277","184757","172350","184251","184757","184123","43491","185563","35249","183623","5688","180943","Lexical Decision Task","41","68364","58","yes","1024"
"3.20996159","0","4","clee","non-word","69.49152542372882","69.49152542372882","1171.1525423728813","1171.1525423728813","black","no","legacy","legacy","legacy","0","uniform","0","undefined","undefined","undefined","0","f","0","0","0","0","58","0","0","0","58","0","54","58","54","0","54","3","58","0","58","Thu Feb 18 09:55:19 2021","The main experiment item","yes","Lexical_Decision_Task.osexp","C:/Users/User","no","Andale Mono","no","18","no","white","no","yes","576","legacy","54","54","3","C:/Users/User/subject-5206705.csv","legacy","Lentiform Loewenfeld","3.3.7","yes","yes","600bd7cfb6416f0113b04181","602110864497cf011d9c0822","0","j","NA","j","space","space","j","j","734","NA","4344","9578","7560","4604","734","2","legacy","1024","2","48000","-16","task","5206705","odd","NA","37142","43491","39147","186199","5697","22837","15277","186703","172350","186197","186703","186068","43491","187438","35249","185567","5688","180943","Lexical Decision Task","41","69098","59","yes","1024"
"3.481012421","8.34","5","teen","word","68.33333333333333","68.33333333333333","1172.3333333333333","1172.3333333333333","black","no","legacy","legacy","legacy","0","uniform","0","undefined","undefined","undefined","0","j","0","0","0","0","59","0","0","0","59","0","55","59","55","0","55","3","59","0","59","Thu Feb 18 09:55:19 2021","The main experiment item","yes","Lexical_Decision_Task.osexp","C:/Users/User","no","Andale Mono","no","18","no","white","no","yes","576","legacy","55","55","3","C:/Users/User/subject-5206705.csv","legacy","Lentiform Loewenfeld","3.3.7","yes","yes","600bd7cfb6416f0113b04181","602110864497cf011d9c0822","0","f","NA","j","space","space","j","f","1242","NA","4344","9578","7560","4604","1242","2","legacy","1024","2","48000","-16","task","5206705","odd","NA","37142","43491","39147","189080","5697","22837","15277","189583","172350","189078","189584","188944","43491","190826","35249","185567","5688","187444","Lexical Decision Task","41","70340","60","yes","1024"
"2.709837904","6.85","8","skim","word","68.85245901639344","68.85245901639344","1163.9016393442623","1163.9016393442623","black","no","legacy","legacy","legacy","0","uniform","1","undefined","undefined","undefined","1","j","0","0","0","0","60","0","0","0","60","0","56","60","56","0","56","3","60","0","60","Thu Feb 18 09:55:19 2021","The main experiment item","yes","Lexical_Decision_Task.osexp","C:/Users/User","no","Andale Mono","no","18","no","white","no","yes","576","legacy","56","56","3","C:/Users/User/subject-5206705.csv","legacy","Lentiform Loewenfeld","3.3.7","yes","yes","600bd7cfb6416f0113b04181","602110864497cf011d9c0822","0","j","NA","j","space","space","j","j","658","NA","4344","9578","7560","4604","658","2","legacy","1024","2","48000","-16","task","5206705","odd","NA","37142","43491","39147","192503","5697","22837","15277","193006","172350","192501","193006","192332","43491","193664","35249","185567","5688","190832","Lexical Decision Task","42","70998","61","yes","1024"
"2.86332286","6.71","2","feud","word","69.35483870967742","69.35483870967742","1160.774193548387","1160.774193548387","black","no","legacy","legacy","legacy","0","uniform","1","undefined","undefined","undefined","1","j","0","0","0","0","61","0","0","0","61","0","57","61","57","0","57","3","61","0","61","Thu Feb 18 09:55:19 2021","The main experiment item","yes","Lexical_Decision_Task.osexp","C:/Users/User","no","Andale Mono","no","18","no","white","no","yes","576","legacy","57","57","3","C:/Users/User/subject-5206705.csv","legacy","Lentiform Loewenfeld","3.3.7","yes","yes","600bd7cfb6416f0113b04181","602110864497cf011d9c0822","0","j","NA","j","space","space","j","j","970","NA","4344","9578","7560","4604","970","2","legacy","1024","2","48000","-16","task","5206705","odd","NA","37142","43491","39147","194299","5697","22837","15277","194802","172350","194297","194803","194170","43491","195774","35249","193670","5688","190832","Lexical Decision Task","43","71968","62","yes","1024"
"3.028977705","0","7","frow","non-word","68.25396825396825","68.25396825396825","1153.063492063492","1153.063492063492","black","no","legacy","legacy","legacy","0","uniform","0","undefined","undefined","undefined","0","f","0","0","0","0","62","0","0","0","62","0","58","62","58","0","58","3","62","0","62","Thu Feb 18 09:55:19 2021","The main experiment item","yes","Lexical_Decision_Task.osexp","C:/Users/User","no","Andale Mono","no","18","no","white","no","yes","576","legacy","58","58","3","C:/Users/User/subject-5206705.csv","legacy","Lentiform Loewenfeld","3.3.7","yes","yes","600bd7cfb6416f0113b04181","602110864497cf011d9c0822","0","j","NA","j","space","space","j","j","675","NA","4344","9578","7560","4604","675","2","legacy","1024","2","48000","-16","task","5206705","odd","NA","37142","43491","39147","196426","5697","22837","15277","196930","172350","196424","196931","196282","43491","197607","35249","195781","5688","190832","Lexical Decision Task","43","72643","63","yes","1024"
"3.003891166","8.05","2","frog","word","68.75","68.75","1143.78125","1143.78125","black","no","legacy","legacy","legacy","0","uniform","1","undefined","undefined","undefined","1","j","0","0","0","0","63","0","0","0","63","0","59","63","59","0","59","3","63","0","63","Thu Feb 18 09:55:19 2021","The main experiment item","yes","Lexical_Decision_Task.osexp","C:/Users/User","no","Andale Mono","no","18","no","white","no","yes","576","legacy","59","59","3","C:/Users/User/subject-5206705.csv","legacy","Lentiform Loewenfeld","3.3.7","yes","yes","600bd7cfb6416f0113b04181","602110864497cf011d9c0822","0","j","NA","j","space","space","j","j","559","NA","4344","9578","7560","4604","559","2","legacy","1024","2","48000","-16","task","5206705","odd","NA","37142","43491","39147","199252","5697","22837","15277","199755","172350","199250","199756","199114","43491","200316","35249","195781","5688","197614","Lexical Decision Task","44","73202","64","yes","1024"
"3.134602053","0","8","jart","non-word","69.23076923076923","69.23076923076923","1143.6153846153845","1143.6153846153845","black","no","legacy","legacy","legacy","0","uniform","1","undefined","undefined","undefined","1","f","0","0","0","0","64","0","0","0","64","0","60","64","60","0","60","3","64","0","64","Thu Feb 18 09:55:19 2021","The main experiment item","yes","Lexical_Decision_Task.osexp","C:/Users/User","no","Andale Mono","no","18","no","white","no","yes","576","legacy","60","60","3","C:/Users/User/subject-5206705.csv","legacy","Lentiform Loewenfeld","3.3.7","yes","yes","600bd7cfb6416f0113b04181","602110864497cf011d9c0822","0","f","NA","j","space","space","j","f","1133","NA","4344","9578","7560","4604","1133","2","legacy","1024","2","48000","-16","task","5206705","odd","NA","37142","43491","39147","200996","5697","22837","15277","201499","172350","200993","201500","200821","43491","202633","35249","200321","5688","197614","Lexical Decision Task","45","74335","65","yes","1024"
"3.397302518","7.01","2","knit","word","69.6969696969697","69.6969696969697","1140.6666666666667","1140.6666666666667","black","no","legacy","legacy","legacy","0","uniform","1","undefined","undefined","undefined","1","j","0","0","0","0","65","0","0","0","65","0","61","65","61","0","61","3","65","0","65","Thu Feb 18 09:55:19 2021","The main experiment item","yes","Lexical_Decision_Task.osexp","C:/Users/User","no","Andale Mono","no","18","no","white","no","yes","576","legacy","61","61","3","C:/Users/User/subject-5206705.csv","legacy","Lentiform Loewenfeld","3.3.7","yes","yes","600bd7cfb6416f0113b04181","602110864497cf011d9c0822","0","j","NA","j","space","space","j","j","949","NA","4344","9578","7560","4604","949","2","legacy","1024","2","48000","-16","task","5206705","odd","NA","37142","43491","39147","203268","5697","22837","15277","203771","172350","203266","203771","203139","43491","204721","35249","202639","5688","197614","Lexical Decision Task","46","75284","66","yes","1024"
"2.728085817","10.02","9","bike","word","70.14925373134328","70.14925373134328","1131.8507462686566","1131.8507462686566","black","no","legacy","legacy","legacy","0","uniform","1","undefined","undefined","undefined","1","j","0","0","0","0","66","0","0","0","66","0","62","66","62","0","62","3","66","0","66","Thu Feb 18 09:55:19 2021","The main experiment item","yes","Lexical_Decision_Task.osexp","C:/Users/User","no","Andale Mono","no","18","no","white","no","yes","576","legacy","62","62","3","C:/Users/User/subject-5206705.csv","legacy","Lentiform Loewenfeld","3.3.7","yes","yes","600bd7cfb6416f0113b04181","602110864497cf011d9c0822","0","j","NA","j","space","space","j","j","550","NA","4344","9578","7560","4604","550","2","legacy","1024","2","48000","-16","task","5206705","odd","NA","37142","43491","39147","205374","5697","22837","15277","205878","172350","205371","205878","205226","43491","206428","35249","204726","5688","197614","Lexical Decision Task","47","75834","67","yes","1024"
"2.819763221","0","2","durp","non-word","70.58823529411765","70.58823529411765","1131.3382352941176","1131.3382352941176","black","no","legacy","legacy","legacy","0","uniform","1","undefined","undefined","undefined","1","f","0","0","0","0","67","0","0","0","67","0","63","67","63","0","63","3","67","0","67","Thu Feb 18 09:55:19 2021","The main experiment item","yes","Lexical_Decision_Task.osexp","C:/Users/User","no","Andale Mono","no","18","no","white","no","yes","576","legacy","63","63","3","C:/Users/User/subject-5206705.csv","legacy","Lentiform Loewenfeld","3.3.7","yes","yes","600bd7cfb6416f0113b04181","602110864497cf011d9c0822","0","f","NA","j","space","space","j","f","1097","NA","4344","9578","7560","4604","1097","2","legacy","1024","2","48000","-16","task","5206705","odd","NA","37142","43491","39147","207069","5697","22837","15277","207572","172350","207067","207572","206934","43491","208670","35249","206434","5688","197614","Lexical Decision Task","48","76931","68","yes","1024"
"3.102203805","7.21","3","drip","word","71.01449275362319","71.01449275362319","1124.5072463768115","1124.5072463768115","black","no","legacy","legacy","legacy","0","uniform","1","undefined","undefined","undefined","1","j","0","0","0","0","68","0","0","0","68","0","64","68","64","0","64","3","68","0","68","Thu Feb 18 09:55:19 2021","The main experiment item","yes","Lexical_Decision_Task.osexp","C:/Users/User","no","Andale Mono","no","18","no","white","no","yes","576","legacy","64","64","3","C:/Users/User/subject-5206705.csv","legacy","Lentiform Loewenfeld","3.3.7","yes","yes","600bd7cfb6416f0113b04181","602110864497cf011d9c0822","0","j","NA","j","space","space","j","j","660","NA","4344","9578","7560","4604","660","2","legacy","1024","2","48000","-16","task","5206705","odd","NA","37142","43491","39147","209345","5697","22837","15277","209849","172350","209341","209849","209175","43491","210510","35249","208675","5688","197614","Lexical Decision Task","49","77591","69","yes","1024"
"3.374137706","10.21","4","tree","word","71.42857142857143","71.42857142857143","1116.7714285714285","1116.7714285714285","black","no","legacy","legacy","legacy","0","uniform","1","undefined","undefined","undefined","1","j","0","0","0","0","69","0","0","0","69","0","65","69","65","0","65","3","69","0","69","Thu Feb 18 09:55:19 2021","The main experiment item","yes","Lexical_Decision_Task.osexp","C:/Users/User","no","Andale Mono","no","18","no","white","no","yes","576","legacy","65","65","3","C:/Users/User/subject-5206705.csv","legacy","Lentiform Loewenfeld","3.3.7","yes","yes","600bd7cfb6416f0113b04181","602110864497cf011d9c0822","0","j","NA","j","space","space","j","j","583","NA","4344","9578","7560","4604","583","2","legacy","1024","2","48000","-16","task","5206705","odd","NA","37142","43491","39147","211150","5697","22837","15277","211653","172350","211149","211654","211019","43491","212238","35249","210519","5688","197614","Lexical Decision Task","50","78174","70","yes","1024"
"2.744553742","0","2","nawk","non-word","71.83098591549296","71.83098591549296","1113.5915492957747","1113.5915492957747","black","no","legacy","legacy","legacy","0","uniform","1","undefined","undefined","undefined","1","f","0","0","0","0","70","0","0","0","70","0","66","70","66","0","66","3","70","0","70","Thu Feb 18 09:55:19 2021","The main experiment item","yes","Lexical_Decision_Task.osexp","C:/Users/User","no","Andale Mono","no","18","no","white","no","yes","576","legacy","66","66","3","C:/Users/User/subject-5206705.csv","legacy","Lentiform Loewenfeld","3.3.7","yes","yes","600bd7cfb6416f0113b04181","602110864497cf011d9c0822","0","f","NA","j","space","space","j","f","891","NA","4344","9578","7560","4604","891","2","legacy","1024","2","48000","-16","task","5206705","odd","NA","37142","43491","39147","212877","5697","22837","15277","213380","172350","212876","213380","212745","43491","214272","35249","212245","5688","197614","Lexical Decision Task","51","79065","71","yes","1024"
"2.907588697","8.91","9","mood","word","72.22222222222223","72.22222222222223","1105.5","1105.5","black","no","legacy","legacy","legacy","0","uniform","1","undefined","undefined","undefined","1","j","0","0","0","0","71","0","0","0","71","0","67","71","67","0","67","3","71","0","71","Thu Feb 18 09:55:19 2021","The main experiment item","yes","Lexical_Decision_Task.osexp","C:/Users/User","no","Andale Mono","no","18","no","white","no","yes","576","legacy","67","67","3","C:/Users/User/subject-5206705.csv","legacy","Lentiform Loewenfeld","3.3.7","yes","yes","600bd7cfb6416f0113b04181","602110864497cf011d9c0822","0","j","NA","j","space","space","j","j","531","NA","4344","9578","7560","4604","531","2","legacy","1024","2","48000","-16","task","5206705","odd","NA","37142","43491","39147","214915","5697","22837","15277","215419","172350","214914","215419","214779","43491","215951","35249","214279","5688","197614","Lexical Decision Task","52","79596","72","yes","1024"
"2.966923697","5.4","2","fume","word","72.6027397260274","72.6027397260274","1100.4246575342465","1100.4246575342465","black","no","legacy","legacy","legacy","0","uniform","1","undefined","undefined","undefined","1","j","0","0","0","0","72","0","0","0","72","0","68","72","68","0","68","3","72","0","72","Thu Feb 18 09:55:19 2021","The main experiment item","yes","Lexical_Decision_Task.osexp","C:/Users/User","no","Andale Mono","no","18","no","white","no","yes","576","legacy","68","68","3","C:/Users/User/subject-5206705.csv","legacy","Lentiform Loewenfeld","3.3.7","yes","yes","600bd7cfb6416f0113b04181","602110864497cf011d9c0822","0","j","NA","j","space","space","j","j","735","NA","4344","9578","7560","4604","735","2","legacy","1024","2","48000","-16","task","5206705","odd","NA","37142","43491","39147","216584","5697","22837","15277","217089","172350","216583","217089","216457","43491","217824","35249","215957","5688","197614","Lexical Decision Task","53","80331","73","yes","1024"
"3.307211407","6.07","7","honk","word","72.97297297297297","72.97297297297297","1102.0405405405406","1102.0405405405406","black","no","legacy","legacy","legacy","0","uniform","1","undefined","undefined","undefined","1","j","0","0","0","0","73","0","0","0","73","0","69","73","69","0","69","3","73","0","73","Thu Feb 18 09:55:19 2021","The main experiment item","yes","Lexical_Decision_Task.osexp","C:/Users/User","no","Andale Mono","no","18","no","white","no","yes","576","legacy","69","69","3","C:/Users/User/subject-5206705.csv","legacy","Lentiform Loewenfeld","3.3.7","yes","yes","600bd7cfb6416f0113b04181","602110864497cf011d9c0822","0","j","NA","j","space","space","j","j","1220","NA","4344","9578","7560","4604","1220","2","legacy","1024","2","48000","-16","task","5206705","odd","NA","37142","43491","39147","218486","5697","22837","15277","218989","172350","218484","218989","218330","43491","220210","35249","217830","5688","197614","Lexical Decision Task","54","81551","74","yes","1024"
"2.9737419","7.69","7","claw","word","73.33333333333333","73.33333333333333","1095.9866666666667","1095.9866666666667","black","no","legacy","legacy","legacy","0","uniform","1","undefined","undefined","undefined","1","j","0","0","0","0","74","0","0","0","74","0","70","74","70","0","70","3","74","0","74","Thu Feb 18 09:55:19 2021","The main experiment item","yes","Lexical_Decision_Task.osexp","C:/Users/User","no","Andale Mono","no","18","no","white","no","yes","576","legacy","70","70","3","C:/Users/User/subject-5206705.csv","legacy","Lentiform Loewenfeld","3.3.7","yes","yes","600bd7cfb6416f0113b04181","602110864497cf011d9c0822","0","j","NA","j","space","space","j","j","648","NA","4344","9578","7560","4604","648","2","legacy","1024","2","48000","-16","task","5206705","odd","NA","37142","43491","39147","220846","5697","22837","15277","221349","172350","220844","221349","220716","43491","221997","35249","220216","5688","197614","Lexical Decision Task","55","82199","75","yes","1024"
"2.812467698","0","7","hafe","non-word","73.6842105263158","73.6842105263158","1090.6052631578948","1090.6052631578948","black","no","legacy","legacy","legacy","0","uniform","1","undefined","undefined","undefined","1","f","0","0","0","0","75","0","0","0","75","0","71","75","71","0","71","3","75","0","75","Thu Feb 18 09:55:19 2021","The main experiment item","yes","Lexical_Decision_Task.osexp","C:/Users/User","no","Andale Mono","no","18","no","white","no","yes","576","legacy","71","71","3","C:/Users/User/subject-5206705.csv","legacy","Lentiform Loewenfeld","3.3.7","yes","yes","600bd7cfb6416f0113b04181","602110864497cf011d9c0822","0","f","NA","j","space","space","j","f","687","NA","4344","9578","7560","4604","687","2","legacy","1024","2","48000","-16","task","5206705","odd","NA","37142","43491","39147","222633","5697","22837","15277","223136","172350","222632","223136","222503","43491","223823","35249","222002","5688","197614","Lexical Decision Task","56","82886","76","yes","1024"
"3.274543461","7.46","7","scar","word","74.02597402597402","74.02597402597402","1084.8831168831168","1084.8831168831168","black","no","legacy","legacy","legacy","0","uniform","1","undefined","undefined","undefined","1","j","0","0","0","0","76","0","0","0","76","0","72","76","72","0","72","3","76","0","76","Thu Feb 18 09:55:19 2021","The main experiment item","yes","Lexical_Decision_Task.osexp","C:/Users/User","no","Andale Mono","no","18","no","white","no","yes","576","legacy","72","72","3","C:/Users/User/subject-5206705.csv","legacy","Lentiform Loewenfeld","3.3.7","yes","yes","600bd7cfb6416f0113b04181","602110864497cf011d9c0822","0","j","NA","j","space","space","j","j","650","NA","4344","9578","7560","4604","650","2","legacy","1024","2","48000","-16","task","5206705","odd","NA","37142","43491","39147","224473","5697","22837","15277","224976","172350","224471","224977","224330","43491","225628","35249","223830","5688","197614","Lexical Decision Task","57","83536","77","yes","1024"
"2.80048796","0","8","pife","non-word","74.35897435897436","74.35897435897436","1081.551282051282","1081.551282051282","black","no","legacy","legacy","legacy","0","uniform","1","undefined","undefined","undefined","1","f","0","0","0","0","77","0","0","0","77","0","73","77","73","0","73","3","77","0","77","Thu Feb 18 09:55:19 2021","The main experiment item","yes","Lexical_Decision_Task.osexp","C:/Users/User","no","Andale Mono","no","18","no","white","no","yes","576","legacy","73","73","3","C:/Users/User/subject-5206705.csv","legacy","Lentiform Loewenfeld","3.3.7","yes","yes","600bd7cfb6416f0113b04181","602110864497cf011d9c0822","0","f","NA","j","space","space","j","f","825","NA","4344","9578","7560","4604","825","2","legacy","1024","2","48000","-16","task","5206705","odd","NA","37142","43491","39147","226289","5697","22837","15277","226792","172350","226286","226792","226134","43491","227617","35249","225633","5688","197614","Lexical Decision Task","58","84361","78","yes","1024"
"2.971428938","9.86","7","spot","word","74.68354430379746","74.68354430379746","1075.0886075949368","1075.0886075949368","black","no","legacy","legacy","legacy","0","uniform","1","undefined","undefined","undefined","1","j","0","0","0","0","78","0","0","0","78","0","74","78","74","0","74","3","78","0","78","Thu Feb 18 09:55:19 2021","The main experiment item","yes","Lexical_Decision_Task.osexp","C:/Users/User","no","Andale Mono","no","18","no","white","no","yes","576","legacy","74","74","3","C:/Users/User/subject-5206705.csv","legacy","Lentiform Loewenfeld","3.3.7","yes","yes","600bd7cfb6416f0113b04181","602110864497cf011d9c0822","0","j","NA","j","space","space","j","j","571","NA","4344","9578","7560","4604","571","2","legacy","1024","2","48000","-16","task","5206705","odd","NA","37142","43491","39147","228270","5697","22837","15277","228774","172350","228268","228774","228123","43491","229346","35249","227623","5688","197614","Lexical Decision Task","59","84932","79","yes","1024"
"3.303771854","0","9","dath","non-word","75","75","1072.35","1072.35","black","no","legacy","legacy","legacy","0","uniform","1","undefined","undefined","undefined","1","f","0","0","0","0","79","0","0","0","79","0","75","79","75","0","75","3","79","0","79","Thu Feb 18 09:55:19 2021","The main experiment item","yes","Lexical_Decision_Task.osexp","C:/Users/User","no","Andale Mono","no","18","no","white","no","yes","576","legacy","75","75","3","C:/Users/User/subject-5206705.csv","legacy","Lentiform Loewenfeld","3.3.7","yes","yes","600bd7cfb6416f0113b04181","602110864497cf011d9c0822","0","f","NA","j","space","space","j","f","856","NA","4344","9578","7560","4604","856","2","legacy","1024","2","48000","-16","task","5206705","odd","NA","37142","43491","39147","230004","5697","22837","15277","230507","172350","230001","230507","229853","43491","231363","35249","229352","5688","197614","Lexical Decision Task","60","85788","80","yes","1024"
"3.274157849","0","8","leet","non-word","75.30864197530865","75.30864197530865","1068.8271604938273","1068.8271604938273","black","no","legacy","legacy","legacy","0","uniform","1","undefined","undefined","undefined","1","f","0","0","0","0","80","0","0","0","80","0","76","80","76","0","76","3","80","0","80","Thu Feb 18 09:55:19 2021","The main experiment item","yes","Lexical_Decision_Task.osexp","C:/Users/User","no","Andale Mono","no","18","no","white","no","yes","576","legacy","76","76","3","C:/Users/User/subject-5206705.csv","legacy","Lentiform Loewenfeld","3.3.7","yes","yes","600bd7cfb6416f0113b04181","602110864497cf011d9c0822","0","f","NA","j","space","space","j","f","787","NA","4344","9578","7560","4604","787","2","legacy","1024","2","48000","-16","task","5206705","odd","NA","37142","43491","39147","232022","5697","22837","15277","232526","172350","232020","232526","231868","43491","233313","35249","231368","5688","197614","Lexical Decision Task","61","86575","81","yes","1024"
"3.195807436","0","6","stup","non-word","75.60975609756098","75.60975609756098","1071.1341463414635","1071.1341463414635","black","no","legacy","legacy","legacy","0","uniform","1","undefined","undefined","undefined","1","f","0","0","0","0","81","0","0","0","81","0","77","81","77","0","77","3","81","0","81","Thu Feb 18 09:55:19 2021","The main experiment item","yes","Lexical_Decision_Task.osexp","C:/Users/User","no","Andale Mono","no","18","no","white","no","yes","576","legacy","77","77","3","C:/Users/User/subject-5206705.csv","legacy","Lentiform Loewenfeld","3.3.7","yes","yes","600bd7cfb6416f0113b04181","602110864497cf011d9c0822","0","f","NA","j","space","space","j","f","1258","NA","4344","9578","7560","4604","1258","2","legacy","1024","2","48000","-16","task","5206705","odd","NA","37142","43491","39147","233992","5697","22837","15277","234495","172350","233989","234495","233821","43491","235753","35249","233320","5688","197614","Lexical Decision Task","62","87833","82","yes","1024"
"2.895974732","6.65","5","sift","word","74.6987951807229","74.6987951807229","1078.2289156626507","1078.2289156626507","black","no","legacy","legacy","legacy","0","uniform","0","undefined","undefined","undefined","0","j","0","0","0","0","82","0","0","0","82","0","78","82","78","0","78","3","82","0","82","Thu Feb 18 09:55:19 2021","The main experiment item","yes","Lexical_Decision_Task.osexp","C:/Users/User","no","Andale Mono","no","18","no","white","no","yes","576","legacy","78","78","3","C:/Users/User/subject-5206705.csv","legacy","Lentiform Loewenfeld","3.3.7","yes","yes","600bd7cfb6416f0113b04181","602110864497cf011d9c0822","0","f","NA","j","space","space","j","f","1660","NA","4344","9578","7560","4604","1660","2","legacy","1024","2","48000","-16","task","5206705","odd","NA","37142","43491","39147","236403","5697","22837","15277","236906","172350","236401","236907","236259","43491","238567","35249","235759","5688","197614","Lexical Decision Task","62","89493","83","yes","1024"
"2.990042563","6.64","9","plow","word","75","75","1087.202380952381","1087.202380952381","black","no","legacy","legacy","legacy","0","uniform","1","undefined","undefined","undefined","1","j","0","0","0","0","83","0","0","0","83","0","79","83","79","0","79","3","83","0","83","Thu Feb 18 09:55:19 2021","The main experiment item","yes","Lexical_Decision_Task.osexp","C:/Users/User","no","Andale Mono","no","18","no","white","no","yes","576","legacy","79","79","3","C:/Users/User/subject-5206705.csv","legacy","Lentiform Loewenfeld","3.3.7","yes","yes","600bd7cfb6416f0113b04181","602110864497cf011d9c0822","0","j","NA","j","space","space","j","j","1832","NA","4344","9578","7560","4604","1832","2","legacy","1024","2","48000","-16","task","5206705","odd","NA","37142","43491","39147","240207","5697","22837","15277","240710","172350","240205","240711","240073","43491","242544","35249","235759","5688","238573","Lexical Decision Task","63","91325","84","yes","1024"
"3.094121596","0","8","fode","non-word","75.29411764705883","75.29411764705883","1083.729411764706","1083.729411764706","black","no","legacy","legacy","legacy","0","uniform","1","undefined","undefined","undefined","1","f","0","0","0","0","84","0","0","0","84","0","80","84","80","0","80","3","84","0","84","Thu Feb 18 09:55:19 2021","The main experiment item","yes","Lexical_Decision_Task.osexp","C:/Users/User","no","Andale Mono","no","18","no","white","no","yes","576","legacy","80","80","3","C:/Users/User/subject-5206705.csv","legacy","Lentiform Loewenfeld","3.3.7","yes","yes","600bd7cfb6416f0113b04181","602110864497cf011d9c0822","0","f","NA","j","space","space","j","f","792","NA","4344","9578","7560","4604","792","2","legacy","1024","2","48000","-16","task","5206705","odd","NA","37142","43491","39147","243185","5697","22837","15277","243688","172350","243182","243688","243050","43491","244481","35249","242550","5688","238573","Lexical Decision Task","64","92117","85","yes","1024"
"3.133964479","0","8","graw","non-word","75.5813953488372","75.5813953488372","1088.3720930232557","1088.3720930232557","black","no","legacy","legacy","legacy","0","uniform","1","undefined","undefined","undefined","1","f","0","0","0","0","85","0","0","0","85","0","81","85","81","0","81","3","85","0","85","Thu Feb 18 09:55:19 2021","The main experiment item","yes","Lexical_Decision_Task.osexp","C:/Users/User","no","Andale Mono","no","18","no","white","no","yes","576","legacy","81","81","3","C:/Users/User/subject-5206705.csv","legacy","Lentiform Loewenfeld","3.3.7","yes","yes","600bd7cfb6416f0113b04181","602110864497cf011d9c0822","0","f","NA","j","space","space","j","f","1483","NA","4344","9578","7560","4604","1483","2","legacy","1024","2","48000","-16","task","5206705","odd","NA","37142","43491","39147","245140","5697","22837","15277","245643","172350","245138","245644","244987","43491","247128","35249","244487","5688","238573","Lexical Decision Task","65","93600","86","yes","1024"
"3.131833513","7.66","4","limb","word","75.86206896551724","75.86206896551724","1082.8045977011495","1082.8045977011495","black","no","legacy","legacy","legacy","0","uniform","1","undefined","undefined","undefined","1","j","0","0","0","0","86","0","0","0","86","0","82","86","82","0","82","3","86","0","86","Thu Feb 18 09:55:19 2021","The main experiment item","yes","Lexical_Decision_Task.osexp","C:/Users/User","no","Andale Mono","no","18","no","white","no","yes","576","legacy","82","82","3","C:/Users/User/subject-5206705.csv","legacy","Lentiform Loewenfeld","3.3.7","yes","yes","600bd7cfb6416f0113b04181","602110864497cf011d9c0822","0","j","NA","j","space","space","j","j","604","NA","4344","9578","7560","4604","604","2","legacy","1024","2","48000","-16","task","5206705","odd","NA","37142","43491","39147","247782","5697","22837","15277","248285","172350","247780","248286","247636","43491","248891","35249","247136","5688","238573","Lexical Decision Task","66","94204","87","yes","1024"
"3.197740804","6.74","3","ache","word","76.13636363636364","76.13636363636364","1078.6136363636363","1078.6136363636363","black","no","legacy","legacy","legacy","0","uniform","1","undefined","undefined","undefined","1","j","0","0","0","0","87","0","0","0","87","0","83","87","83","0","83","3","87","0","87","Thu Feb 18 09:55:19 2021","The main experiment item","yes","Lexical_Decision_Task.osexp","C:/Users/User","no","Andale Mono","no","18","no","white","no","yes","576","legacy","83","83","3","C:/Users/User/subject-5206705.csv","legacy","Lentiform Loewenfeld","3.3.7","yes","yes","600bd7cfb6416f0113b04181","602110864497cf011d9c0822","0","j","NA","j","space","space","j","j","714","NA","4344","9578","7560","4604","714","2","legacy","1024","2","48000","-16","task","5206705","odd","NA","37142","43491","39147","249561","5697","22837","15277","250064","172350","249559","250064","249398","43491","250778","35249","248898","5688","238573","Lexical Decision Task","67","94918","88","yes","1024"
"2.693726949","5.08","3","swig","word","75.28089887640449","75.28089887640449","1078.7752808988764","1078.7752808988764","black","no","legacy","legacy","legacy","0","uniform","0","undefined","undefined","undefined","0","j","0","0","0","0","88","0","0","0","88","0","84","88","84","0","84","3","88","0","88","Thu Feb 18 09:55:19 2021","The main experiment item","yes","Lexical_Decision_Task.osexp","C:/Users/User","no","Andale Mono","no","18","no","white","no","yes","576","legacy","84","84","3","C:/Users/User/subject-5206705.csv","legacy","Lentiform Loewenfeld","3.3.7","yes","yes","600bd7cfb6416f0113b04181","602110864497cf011d9c0822","0","f","NA","j","space","space","j","f","1093","NA","4344","9578","7560","4604","1093","2","legacy","1024","2","48000","-16","task","5206705","odd","NA","37142","43491","39147","251444","5697","22837","15277","251947","172350","251442","251948","251283","43491","253042","35249","250783","5688","238573","Lexical Decision Task","67","96011","89","yes","1024"
"3.039414119","0","9","meep","non-word","75.55555555555556","75.55555555555556","1076.5111111111112","1076.5111111111112","black","no","legacy","legacy","legacy","0","uniform","1","undefined","undefined","undefined","1","f","0","0","0","0","89","0","0","0","89","0","85","89","85","0","85","3","89","0","89","Thu Feb 18 09:55:19 2021","The main experiment item","yes","Lexical_Decision_Task.osexp","C:/Users/User","no","Andale Mono","no","18","no","white","no","yes","576","legacy","85","85","3","C:/Users/User/subject-5206705.csv","legacy","Lentiform Loewenfeld","3.3.7","yes","yes","600bd7cfb6416f0113b04181","602110864497cf011d9c0822","0","f","NA","j","space","space","j","f","875","NA","4344","9578","7560","4604","875","2","legacy","1024","2","48000","-16","task","5206705","odd","NA","37142","43491","39147","254706","5697","22837","15277","255209","172350","254704","255209","254547","43491","256086","35249","250783","5688","253047","Lexical Decision Task","68","96886","90","yes","1024"
"3.363486562","6.93","9","lush","word","75.82417582417582","75.82417582417582","1071.5494505494505","1071.5494505494505","black","no","legacy","legacy","legacy","0","uniform","1","undefined","undefined","undefined","1","j","0","0","0","0","90","0","0","0","90","0","86","90","86","0","86","3","90","0","90","Thu Feb 18 09:55:19 2021","The main experiment item","yes","Lexical_Decision_Task.osexp","C:/Users/User","no","Andale Mono","no","18","no","white","no","yes","576","legacy","86","86","3","C:/Users/User/subject-5206705.csv","legacy","Lentiform Loewenfeld","3.3.7","yes","yes","600bd7cfb6416f0113b04181","602110864497cf011d9c0822","0","j","NA","j","space","space","j","j","625","NA","4344","9578","7560","4604","625","2","legacy","1024","2","48000","-16","task","5206705","odd","NA","37142","43491","39147","256725","5697","22837","15277","257229","172350","256723","257229","256592","43491","257856","35249","256092","5688","253047","Lexical Decision Task","69","97511","91","yes","1024"
"2.981215883","10.66","5","hair","word","76.08695652173913","76.08695652173913","1065.2934782608695","1065.2934782608695","black","no","legacy","legacy","legacy","0","uniform","1","undefined","undefined","undefined","1","j","0","0","0","0","91","0","0","0","91","0","87","91","87","0","87","3","91","0","91","Thu Feb 18 09:55:19 2021","The main experiment item","yes","Lexical_Decision_Task.osexp","C:/Users/User","no","Andale Mono","no","18","no","white","no","yes","576","legacy","87","87","3","C:/Users/User/subject-5206705.csv","legacy","Lentiform Loewenfeld","3.3.7","yes","yes","600bd7cfb6416f0113b04181","602110864497cf011d9c0822","0","j","NA","j","space","space","j","j","496","NA","4344","9578","7560","4604","496","2","legacy","1024","2","48000","-16","task","5206705","odd","NA","37142","43491","39147","258516","5697","22837","15277","259019","172350","258514","259019","258362","43491","259518","35249","257862","5688","253047","Lexical Decision Task","70","98007","92","yes","1024"
"2.838639236","0","4","furg","non-word","76.34408602150538","76.34408602150538","1061.5698924731182","1061.5698924731182","black","no","legacy","legacy","legacy","0","uniform","1","undefined","undefined","undefined","1","f","0","0","0","0","92","0","0","0","92","0","88","92","88","0","88","3","92","0","92","Thu Feb 18 09:55:19 2021","The main experiment item","yes","Lexical_Decision_Task.osexp","C:/Users/User","no","Andale Mono","no","18","no","white","no","yes","576","legacy","88","88","3","C:/Users/User/subject-5206705.csv","legacy","Lentiform Loewenfeld","3.3.7","yes","yes","600bd7cfb6416f0113b04181","602110864497cf011d9c0822","0","f","NA","j","space","space","j","f","719","NA","4344","9578","7560","4604","719","2","legacy","1024","2","48000","-16","task","5206705","odd","NA","37142","43491","39147","260185","5697","22837","15277","260689","172350","260182","260689","260038","43491","261409","35249","259538","5688","253047","Lexical Decision Task","71","98726","93","yes","1024"
"2.972357144","0","5","dasp","non-word","76.59574468085107","76.59574468085107","1061.2446808510638","1061.2446808510638","black","no","legacy","legacy","legacy","0","uniform","1","undefined","undefined","undefined","1","f","0","0","0","0","93","0","0","0","93","0","89","93","89","0","89","3","93","0","93","Thu Feb 18 09:55:19 2021","The main experiment item","yes","Lexical_Decision_Task.osexp","C:/Users/User","no","Andale Mono","no","18","no","white","no","yes","576","legacy","89","89","3","C:/Users/User/subject-5206705.csv","legacy","Lentiform Loewenfeld","3.3.7","yes","yes","600bd7cfb6416f0113b04181","602110864497cf011d9c0822","0","f","NA","j","space","space","j","f","1031","NA","4344","9578","7560","4604","1031","2","legacy","1024","2","48000","-16","task","5206705","odd","NA","37142","43491","39147","262042","5697","22837","15277","262546","172350","262040","262546","261914","43491","263578","35249","261414","5688","253047","Lexical Decision Task","72","99757","94","yes","1024"
"2.842815106","7.86","8","lump","word","76.84210526315789","76.84210526315789","1059.8736842105263","1059.8736842105263","black","no","legacy","legacy","legacy","0","uniform","1","undefined","undefined","undefined","1","j","0","0","0","0","94","0","0","0","94","0","90","94","90","0","90","3","94","0","94","Thu Feb 18 09:55:19 2021","The main experiment item","yes","Lexical_Decision_Task.osexp","C:/Users/User","no","Andale Mono","no","18","no","white","no","yes","576","legacy","90","90","3","C:/Users/User/subject-5206705.csv","legacy","Lentiform Loewenfeld","3.3.7","yes","yes","600bd7cfb6416f0113b04181","602110864497cf011d9c0822","0","j","NA","j","space","space","j","j","931","NA","4344","9578","7560","4604","931","2","legacy","1024","2","48000","-16","task","5206705","odd","NA","37142","43491","39147","264215","5697","22837","15277","264718","172350","264213","264718","264083","43491","265650","35249","263583","5688","253047","Lexical Decision Task","73","100688","95","yes","1024"
"2.719886232","7.98","2","quiz","word","77.08333333333333","77.08333333333333","1054.96875","1054.96875","black","no","legacy","legacy","legacy","0","uniform","1","undefined","undefined","undefined","1","j","0","0","0","0","95","0","0","0","95","0","91","95","91","0","91","3","95","0","95","Thu Feb 18 09:55:19 2021","The main experiment item","yes","Lexical_Decision_Task.osexp","C:/Users/User","no","Andale Mono","no","18","no","white","no","yes","576","legacy","91","91","3","C:/Users/User/subject-5206705.csv","legacy","Lentiform Loewenfeld","3.3.7","yes","yes","600bd7cfb6416f0113b04181","602110864497cf011d9c0822","0","j","NA","j","space","space","j","j","589","NA","4344","9578","7560","4604","589","2","legacy","1024","2","48000","-16","task","5206705","odd","NA","37142","43491","39147","266285","5697","22837","15277","266789","172350","266283","266789","266156","43491","267379","35249","265656","5688","253047","Lexical Decision Task","74","101277","96","yes","1024"
"3.081107167","0","6","chot","non-word","77.31958762886597","77.31958762886597","1051.319587628866","1051.319587628866","black","no","legacy","legacy","legacy","0","uniform","1","undefined","undefined","undefined","1","f","0","0","0","0","96","0","0","0","96","0","92","96","92","0","92","3","96","0","96","Thu Feb 18 09:55:19 2021","The main experiment item","yes","Lexical_Decision_Task.osexp","C:/Users/User","no","Andale Mono","no","18","no","white","no","yes","576","legacy","92","92","3","C:/Users/User/subject-5206705.csv","legacy","Lentiform Loewenfeld","3.3.7","yes","yes","600bd7cfb6416f0113b04181","602110864497cf011d9c0822","0","f","NA","j","space","space","j","f","701","NA","4344","9578","7560","4604","701","2","legacy","1024","2","48000","-16","task","5206705","odd","NA","37142","43491","39147","268036","5697","22837","15277","268539","172350","268034","268540","267885","43491","269243","35249","267385","5688","253047","Lexical Decision Task","75","101978","97","yes","1024"
"3.168400243","9.12","6","horn","word","77.55102040816327","77.55102040816327","1046.969387755102","1046.969387755102","black","no","legacy","legacy","legacy","0","uniform","1","undefined","undefined","undefined","1","j","0","0","0","0","97","0","0","0","97","0","93","97","93","0","93","3","97","0","97","Thu Feb 18 09:55:19 2021","The main experiment item","yes","Lexical_Decision_Task.osexp","C:/Users/User","no","Andale Mono","no","18","no","white","no","yes","576","legacy","93","93","3","C:/Users/User/subject-5206705.csv","legacy","Lentiform Loewenfeld","3.3.7","yes","yes","600bd7cfb6416f0113b04181","602110864497cf011d9c0822","0","j","NA","j","space","space","j","j","625","NA","4344","9578","7560","4604","625","2","legacy","1024","2","48000","-16","task","5206705","odd","NA","37142","43491","39147","269904","5697","22837","15277","270408","172350","269901","270408","269752","43491","271035","35249","269252","5688","253047","Lexical Decision Task","76","102603","98","yes","1024"
"2.897810299","0","5","glur","non-word","77.77777777777777","77.77777777777777","1047.2929292929293","1047.2929292929293","black","no","legacy","legacy","legacy","0","uniform","1","undefined","undefined","undefined","1","f","0","0","0","0","98","0","0","0","98","0","94","98","94","0","94","3","98","0","98","Thu Feb 18 09:55:19 2021","The main experiment item","yes","Lexical_Decision_Task.osexp","C:/Users/User","no","Andale Mono","no","18","no","white","no","yes","576","legacy","94","94","3","C:/Users/User/subject-5206705.csv","legacy","Lentiform Loewenfeld","3.3.7","yes","yes","600bd7cfb6416f0113b04181","602110864497cf011d9c0822","0","f","NA","j","space","space","j","f","1079","NA","4344","9578","7560","4604","1079","2","legacy","1024","2","48000","-16","task","5206705","odd","NA","37142","43491","39147","271672","5697","22837","15277","272176","172350","271670","272176","271544","43491","273257","35249","271043","5688","253047","Lexical Decision Task","77","103682","99","yes","1024"
"3.208172527","10.27","7","deck","word","78","78","1043.48","1043.48","black","no","legacy","legacy","legacy","0","uniform","1","undefined","undefined","undefined","1","j","0","0","0","0","99","0","0","0","99","0","95","99","95","0","95","3","99","0","99","Thu Feb 18 09:55:19 2021","The main experiment item","yes","Lexical_Decision_Task.osexp","C:/Users/User","no","Andale Mono","no","18","no","white","no","yes","576","legacy","95","95","3","C:/Users/User/subject-5206705.csv","legacy","Lentiform Loewenfeld","3.3.7","yes","yes","600bd7cfb6416f0113b04181","602110864497cf011d9c0822","0","j","NA","j","space","space","j","j","666","NA","4344","9578","7560","4604","666","2","legacy","1024","2","48000","-16","task","5206705","odd","NA","37142","43491","39147","273890","5697","22837","15277","274393","172350","273888","274393","273762","43491","275060","35249","273262","5688","253047","Lexical Decision Task","78","104348","100","yes","1024"
"2.839898939","8.99","6","soap","word","78.21782178217822","78.21782178217822","1038.6831683168316","1038.6831683168316","black","no","legacy","legacy","legacy","0","uniform","1","undefined","undefined","undefined","1","j","0","0","0","0","100","0","0","0","100","0","96","100","96","0","96","3","100","0","100","Thu Feb 18 09:55:19 2021","The main experiment item","yes","Lexical_Decision_Task.osexp","C:/Users/User","no","Andale Mono","no","18","no","white","no","yes","576","legacy","96","96","3","C:/Users/User/subject-5206705.csv","legacy","Lentiform Loewenfeld","3.3.7","yes","yes","600bd7cfb6416f0113b04181","602110864497cf011d9c0822","0","j","NA","j","space","space","j","j","559","NA","4344","9578","7560","4604","559","2","legacy","1024","2","48000","-16","task","5206705","odd","NA","37142","43491","39147","275696","5697","22837","15277","276199","172350","275694","276199","275566","43491","276760","35249","275065","5688","253047","Lexical Decision Task","79","104907","101","yes","1024"
"2.794720352","0","9","koot","non-word","78.43137254901961","78.43137254901961","1034.3823529411766","1034.3823529411766","black","no","legacy","legacy","legacy","0","uniform","1","undefined","undefined","undefined","1","f","0","0","0","0","101","0","0","0","101","0","97","101","97","0","97","3","101","0","101","Thu Feb 18 09:55:19 2021","The main experiment item","yes","Lexical_Decision_Task.osexp","C:/Users/User","no","Andale Mono","no","18","no","white","no","yes","576","legacy","97","97","3","C:/Users/User/subject-5206705.csv","legacy","Lentiform Loewenfeld","3.3.7","yes","yes","600bd7cfb6416f0113b04181","602110864497cf011d9c0822","0","f","NA","j","space","space","j","f","600","NA","4344","9578","7560","4604","600","2","legacy","1024","2","48000","-16","task","5206705","odd","NA","37142","43491","39147","277395","5697","22837","15277","277899","172350","277393","277899","277267","43491","278501","35249","276767","5688","253047","Lexical Decision Task","80","105507","102","yes","1024"
"3.090140555","5.81","8","pout","word","78.64077669902913","78.64077669902913","1029.7475728155339","1029.7475728155339","black","no","legacy","legacy","legacy","0","uniform","1","undefined","undefined","undefined","1","j","0","0","0","0","102","0","0","0","102","0","98","102","98","0","98","3","102","0","102","Thu Feb 18 09:55:19 2021","The main experiment item","yes","Lexical_Decision_Task.osexp","C:/Users/User","no","Andale Mono","no","18","no","white","no","yes","576","legacy","98","98","3","C:/Users/User/subject-5206705.csv","legacy","Lentiform Loewenfeld","3.3.7","yes","yes","600bd7cfb6416f0113b04181","602110864497cf011d9c0822","0","j","NA","j","space","space","j","j","557","NA","4344","9578","7560","4604","557","2","legacy","1024","2","48000","-16","task","5206705","odd","NA","37142","43491","39147","279146","5697","22837","15277","279649","172350","279144","279649","279010","43491","280207","35249","278510","5688","253047","Lexical Decision Task","81","106064","103","yes","1024"
