"Log_BG","Log_Freq_HAL","Ortho_N","Stimulus","Type","acc","accuracy","average_response_time","avg_rt","background","bidi","canvas_backend","clock_backend","color_backend","compensation","coordinates","correct","correct_Experimental_intro","correct_Introduction","correct_Practice_intro","correct_experimenter_kb","correct_response","count_End_Of_Experiment","count_End_Of_Practice","count_Experimental_Loop","count_Experimental_intro","count_Fixation","count_Introduction","count_Practice_Loop","count_Practice_intro","count_Stimulus","count_block_break_feedback","count_experimental_sequence","count_experimenter_kb","count_increment_trial_count","count_init_trial_count","count_logger","count_practice_sequence","count_right","count_task","count_wrong","datetime","description","disable_garbage_collection","experiment_file","experiment_path","font_bold","font_family","font_italic","font_size","font_underline","foreground","form_clicks","fullscreen","height","keyboard_backend","live_row","live_row_Experimental_Loop","live_row_Practice_Loop","logfile","mouse_backend","opensesame_codename","opensesame_version","osf_always_upload_data","osf_always_upload_experiment","osf_datanode_id","osf_id","repeat_cycle","response","response_End_Of_Experiment","response_Experimental_intro","response_Introduction","response_Practice_intro","response_block_break_feedback","response_experimenter_kb","response_time","response_time_End_Of_Experiment","response_time_Experimental_intro","response_time_Introduction","response_time_Practice_intro","response_time_block_break_feedback","response_time_experimenter_kb","round_decimals","sampler_backend","sound_buf_size","sound_channels","sound_freq","sound_sample_size","start","subject_nr","subject_parity","time_End_Of_Experiment","time_End_Of_Practice","time_Experimental_Loop","time_Experimental_intro","time_Fixation","time_Introduction","time_Practice_Loop","time_Practice_intro","time_Stimulus","time_block_break_feedback","time_experimental_sequence","time_experimenter_kb","time_increment_trial_count","time_init_trial_count","time_logger","time_practice_sequence","time_right","time_task","time_wrong","title","total_correct","total_response_time","total_responses","uniform_coordinates","width"
"3.077974404","10.41","8","tool","word","100","100","896.4","896.4","black","no","legacy","legacy","legacy","0","uniform","1","undefined","undefined","undefined","1","j","0","0","0","0","4","0","0","0","4","NA","0","4","0","0","0","3","4","0","4","Thu Feb 18 13:48:10 2021","The main experiment item","yes","Lexical_Decision_Task.osexp","C:/Users/swill/Documents/University/Course/Year 2/Semester 2/Research Methods 2021","no","Andale Mono","no","18","no","white","no","yes","576","legacy","0","0","3","C:/Users/swill/Documents/University/Course/Year 2/Semester 2/Research Methods 2021/subject-5214321.csv","legacy","Lentiform Loewenfeld","3.3.7","yes","yes","600bd7cfb6416f0113b04181","602110864497cf011d9c0822","0","j","NA","space","space","space","NA","j","730","NA","3645","19294","14666","NA","730","2","legacy","1024","2","48000","-16","task","5214321","odd","NA","50498","56150","52504","56236","7898","41863","27197","56742","NA","56232","56743","NA","56150","57474","48625","49904","7889","NA","Lexical Decision Task","5","4482","5","yes","1024"
"2.793790385","5.67","9","swab","word","100","100","868.1666666666666","868.1666666666666","black","no","legacy","legacy","legacy","0","uniform","1","undefined","undefined","undefined","1","j","0","0","0","0","5","0","0","0","5","NA","1","5","1","0","1","3","5","0","5","Thu Feb 18 13:48:10 2021","The main experiment item","yes","Lexical_Decision_Task.osexp","C:/Users/swill/Documents/University/Course/Year 2/Semester 2/Research Methods 2021","no","Andale Mono","no","18","no","white","no","yes","576","legacy","1","1","3","C:/Users/swill/Documents/University/Course/Year 2/Semester 2/Research Methods 2021/subject-5214321.csv","legacy","Lentiform Loewenfeld","3.3.7","yes","yes","600bd7cfb6416f0113b04181","602110864497cf011d9c0822","0","j","NA","space","space","space","NA","j","727","NA","3645","19294","14666","NA","727","2","legacy","1024","2","48000","-16","task","5214321","odd","NA","50498","56150","52504","58150","7898","41863","27197","58657","NA","58147","58657","57990","56150","59385","48625","57490","7889","NA","Lexical Decision Task","6","5209","6","yes","1024"
"3.031408464","0","7","drow","non-word","100","100","902.2857142857143","902.2857142857143","black","no","legacy","legacy","legacy","0","uniform","1","undefined","undefined","undefined","1","f","0","0","0","0","6","0","0","0","6","NA","2","6","2","0","2","3","6","0","6","Thu Feb 18 13:48:10 2021","The main experiment item","yes","Lexical_Decision_Task.osexp","C:/Users/swill/Documents/University/Course/Year 2/Semester 2/Research Methods 2021","no","Andale Mono","no","18","no","white","no","yes","576","legacy","2","2","3","C:/Users/swill/Documents/University/Course/Year 2/Semester 2/Research Methods 2021/subject-5214321.csv","legacy","Lentiform Loewenfeld","3.3.7","yes","yes","600bd7cfb6416f0113b04181","602110864497cf011d9c0822","0","f","NA","space","space","space","NA","f","1107","NA","3645","19294","14666","NA","1107","2","legacy","1024","2","48000","-16","task","5214321","odd","NA","50498","56150","52504","60190","7898","41863","27197","60700","NA","60183","60700","59894","56150","61808","48625","59394","7889","NA","Lexical Decision Task","7","6316","7","yes","1024"
"2.845304797","0","6","buct","non-word","100","100","880.875","880.875","black","no","legacy","legacy","legacy","0","uniform","1","undefined","undefined","undefined","1","f","0","0","0","0","7","0","0","0","7","NA","3","7","3","0","3","3","7","0","7","Thu Feb 18 13:48:10 2021","The main experiment item","yes","Lexical_Decision_Task.osexp","C:/Users/swill/Documents/University/Course/Year 2/Semester 2/Research Methods 2021","no","Andale Mono","no","18","no","white","no","yes","576","legacy","3","3","3","C:/Users/swill/Documents/University/Course/Year 2/Semester 2/Research Methods 2021/subject-5214321.csv","legacy","Lentiform Loewenfeld","3.3.7","yes","yes","600bd7cfb6416f0113b04181","602110864497cf011d9c0822","0","f","NA","space","space","space","NA","f","731","NA","3645","19294","14666","NA","731","2","legacy","1024","2","48000","-16","task","5214321","odd","NA","50498","56150","52504","62481","7898","41863","27197","62985","NA","62478","62985","62315","56150","63717","48625","61815","7889","NA","Lexical Decision Task","8","7047","8","yes","1024"
"2.95456409","0","4","taud","non-word","100","100","975","975","black","no","legacy","legacy","legacy","0","uniform","1","undefined","undefined","undefined","1","f","0","0","0","0","8","0","0","0","8","NA","4","8","4","0","4","3","8","0","8","Thu Feb 18 13:48:10 2021","The main experiment item","yes","Lexical_Decision_Task.osexp","C:/Users/swill/Documents/University/Course/Year 2/Semester 2/Research Methods 2021","no","Andale Mono","no","18","no","white","no","yes","576","legacy","4","4","3","C:/Users/swill/Documents/University/Course/Year 2/Semester 2/Research Methods 2021/subject-5214321.csv","legacy","Lentiform Loewenfeld","3.3.7","yes","yes","600bd7cfb6416f0113b04181","602110864497cf011d9c0822","0","f","NA","space","space","space","NA","f","1728","NA","3645","19294","14666","NA","1728","2","legacy","1024","2","48000","-16","task","5214321","odd","NA","50498","56150","52504","64414","7898","41863","27197","64922","NA","64410","64922","64224","56150","66651","48625","63724","7889","NA","Lexical Decision Task","9","8775","9","yes","1024"
"2.980306438","0","7","slun","non-word","100","100","947","947","black","no","legacy","legacy","legacy","0","uniform","1","undefined","undefined","undefined","1","f","0","0","0","0","9","0","0","0","9","NA","5","9","5","0","5","3","9","0","9","Thu Feb 18 13:48:10 2021","The main experiment item","yes","Lexical_Decision_Task.osexp","C:/Users/swill/Documents/University/Course/Year 2/Semester 2/Research Methods 2021","no","Andale Mono","no","18","no","white","no","yes","576","legacy","5","5","3","C:/Users/swill/Documents/University/Course/Year 2/Semester 2/Research Methods 2021/subject-5214321.csv","legacy","Lentiform Loewenfeld","3.3.7","yes","yes","600bd7cfb6416f0113b04181","602110864497cf011d9c0822","0","f","NA","space","space","space","NA","f","695","NA","3645","19294","14666","NA","695","2","legacy","1024","2","48000","-16","task","5214321","odd","NA","50498","56150","52504","67345","7898","41863","27197","67850","NA","67341","67851","67161","56150","68547","48625","66660","7889","NA","Lexical Decision Task","10","9470","10","yes","1024"
"3.010582609","0","2","drod","non-word","100","100","931.0909090909091","931.0909090909091","black","no","legacy","legacy","legacy","0","uniform","1","undefined","undefined","undefined","1","f","0","0","0","0","10","0","0","0","10","NA","6","10","6","0","6","3","10","0","10","Thu Feb 18 13:48:10 2021","The main experiment item","yes","Lexical_Decision_Task.osexp","C:/Users/swill/Documents/University/Course/Year 2/Semester 2/Research Methods 2021","no","Andale Mono","no","18","no","white","no","yes","576","legacy","6","6","3","C:/Users/swill/Documents/University/Course/Year 2/Semester 2/Research Methods 2021/subject-5214321.csv","legacy","Lentiform Loewenfeld","3.3.7","yes","yes","600bd7cfb6416f0113b04181","602110864497cf011d9c0822","0","f","NA","space","space","space","NA","f","772","NA","3645","19294","14666","NA","772","2","legacy","1024","2","48000","-16","task","5214321","odd","NA","50498","56150","52504","69265","7898","41863","27197","69772","NA","69261","69772","69056","56150","70545","48625","68555","7889","NA","Lexical Decision Task","11","10242","11","yes","1024"
"2.7084209","0","8","vump","non-word","100","100","913.9166666666666","913.9166666666666","black","no","legacy","legacy","legacy","0","uniform","1","undefined","undefined","undefined","1","f","0","0","0","0","11","0","0","0","11","NA","7","11","7","0","7","3","11","0","11","Thu Feb 18 13:48:10 2021","The main experiment item","yes","Lexical_Decision_Task.osexp","C:/Users/swill/Documents/University/Course/Year 2/Semester 2/Research Methods 2021","no","Andale Mono","no","18","no","white","no","yes","576","legacy","7","7","3","C:/Users/swill/Documents/University/Course/Year 2/Semester 2/Research Methods 2021/subject-5214321.csv","legacy","Lentiform Loewenfeld","3.3.7","yes","yes","600bd7cfb6416f0113b04181","602110864497cf011d9c0822","0","f","NA","space","space","space","NA","f","725","NA","3645","19294","14666","NA","725","2","legacy","1024","2","48000","-16","task","5214321","odd","NA","50498","56150","52504","71199","7898","41863","27197","71706","NA","71196","71706","71053","56150","72431","48625","70552","7889","NA","Lexical Decision Task","12","10967","12","yes","1024"
"2.971428938","9.86","7","spot","word","100","100","880.7692307692307","880.7692307692307","black","no","legacy","legacy","legacy","0","uniform","1","undefined","undefined","undefined","1","j","0","0","0","0","12","0","0","0","12","NA","8","12","8","0","8","3","12","0","12","Thu Feb 18 13:48:10 2021","The main experiment item","yes","Lexical_Decision_Task.osexp","C:/Users/swill/Documents/University/Course/Year 2/Semester 2/Research Methods 2021","no","Andale Mono","no","18","no","white","no","yes","576","legacy","8","8","3","C:/Users/swill/Documents/University/Course/Year 2/Semester 2/Research Methods 2021/subject-5214321.csv","legacy","Lentiform Loewenfeld","3.3.7","yes","yes","600bd7cfb6416f0113b04181","602110864497cf011d9c0822","0","j","NA","space","space","space","NA","j","483","NA","3645","19294","14666","NA","483","2","legacy","1024","2","48000","-16","task","5214321","odd","NA","50498","56150","52504","73072","7898","41863","27197","73579","NA","73069","73579","72939","56150","74063","48625","72439","7889","NA","Lexical Decision Task","13","11450","13","yes","1024"
"3.397302518","7.01","2","knit","word","100","100","863.7857142857143","863.7857142857143","black","no","legacy","legacy","legacy","0","uniform","1","undefined","undefined","undefined","1","j","0","0","0","0","13","0","0","0","13","NA","9","13","9","0","9","3","13","0","13","Thu Feb 18 13:48:10 2021","The main experiment item","yes","Lexical_Decision_Task.osexp","C:/Users/swill/Documents/University/Course/Year 2/Semester 2/Research Methods 2021","no","Andale Mono","no","18","no","white","no","yes","576","legacy","9","9","3","C:/Users/swill/Documents/University/Course/Year 2/Semester 2/Research Methods 2021/subject-5214321.csv","legacy","Lentiform Loewenfeld","3.3.7","yes","yes","600bd7cfb6416f0113b04181","602110864497cf011d9c0822","0","j","NA","space","space","space","NA","j","643","NA","3645","19294","14666","NA","643","2","legacy","1024","2","48000","-16","task","5214321","odd","NA","50498","56150","52504","74731","7898","41863","27197","75238","NA","74727","75239","74570","56150","75883","48625","74070","7889","NA","Lexical Decision Task","14","12093","14","yes","1024"
"2.698387659","6.66","7","skid","word","100","100","853.5333333333333","853.5333333333333","black","no","legacy","legacy","legacy","0","uniform","1","undefined","undefined","undefined","1","j","0","0","0","0","14","0","0","0","14","NA","10","14","10","0","10","3","14","0","14","Thu Feb 18 13:48:10 2021","The main experiment item","yes","Lexical_Decision_Task.osexp","C:/Users/swill/Documents/University/Course/Year 2/Semester 2/Research Methods 2021","no","Andale Mono","no","18","no","white","no","yes","576","legacy","10","10","3","C:/Users/swill/Documents/University/Course/Year 2/Semester 2/Research Methods 2021/subject-5214321.csv","legacy","Lentiform Loewenfeld","3.3.7","yes","yes","600bd7cfb6416f0113b04181","602110864497cf011d9c0822","0","j","NA","space","space","space","NA","j","710","NA","3645","19294","14666","NA","710","2","legacy","1024","2","48000","-16","task","5214321","odd","NA","50498","56150","52504","76532","7898","41863","27197","77040","NA","76529","77041","76391","56150","77752","48625","75891","7889","NA","Lexical Decision Task","15","12803","15","yes","1024"
"3.259832699","0","9","flar","non-word","100","100","848.6875","848.6875","black","no","legacy","legacy","legacy","0","uniform","1","undefined","undefined","undefined","1","f","0","0","0","0","15","0","0","0","15","NA","11","15","11","0","11","3","15","0","15","Thu Feb 18 13:48:10 2021","The main experiment item","yes","Lexical_Decision_Task.osexp","C:/Users/swill/Documents/University/Course/Year 2/Semester 2/Research Methods 2021","no","Andale Mono","no","18","no","white","no","yes","576","legacy","11","11","3","C:/Users/swill/Documents/University/Course/Year 2/Semester 2/Research Methods 2021/subject-5214321.csv","legacy","Lentiform Loewenfeld","3.3.7","yes","yes","600bd7cfb6416f0113b04181","602110864497cf011d9c0822","0","f","NA","space","space","space","NA","f","776","NA","3645","19294","14666","NA","776","2","legacy","1024","2","48000","-16","task","5214321","odd","NA","50498","56150","52504","78398","7898","41863","27197","78906","NA","78395","78906","78259","56150","79683","48625","77759","7889","NA","Lexical Decision Task","16","13579","16","yes","1024"
"2.708989954","9.28","9","bowl","word","100","100","828.8823529411765","828.8823529411765","black","no","legacy","legacy","legacy","0","uniform","1","undefined","undefined","undefined","1","j","0","0","0","0","16","0","0","0","16","NA","12","16","12","0","12","3","16","0","16","Thu Feb 18 13:48:10 2021","The main experiment item","yes","Lexical_Decision_Task.osexp","C:/Users/swill/Documents/University/Course/Year 2/Semester 2/Research Methods 2021","no","Andale Mono","no","18","no","white","no","yes","576","legacy","12","12","3","C:/Users/swill/Documents/University/Course/Year 2/Semester 2/Research Methods 2021/subject-5214321.csv","legacy","Lentiform Loewenfeld","3.3.7","yes","yes","600bd7cfb6416f0113b04181","602110864497cf011d9c0822","0","j","NA","space","space","space","NA","j","512","NA","3645","19294","14666","NA","512","2","legacy","1024","2","48000","-16","task","5214321","odd","NA","50498","56150","52504","80367","7898","41863","27197","80873","NA","80363","80874","80190","56150","81387","48625","79690","7889","NA","Lexical Decision Task","17","14091","17","yes","1024"
"3.14849993","10.75","7","hour","word","100","100","813.7222222222222","813.7222222222222","black","no","legacy","legacy","legacy","0","uniform","1","undefined","undefined","undefined","1","j","0","0","0","0","17","0","0","0","17","NA","13","17","13","0","13","3","17","0","17","Thu Feb 18 13:48:10 2021","The main experiment item","yes","Lexical_Decision_Task.osexp","C:/Users/swill/Documents/University/Course/Year 2/Semester 2/Research Methods 2021","no","Andale Mono","no","18","no","white","no","yes","576","legacy","13","13","3","C:/Users/swill/Documents/University/Course/Year 2/Semester 2/Research Methods 2021/subject-5214321.csv","legacy","Lentiform Loewenfeld","3.3.7","yes","yes","600bd7cfb6416f0113b04181","602110864497cf011d9c0822","0","j","NA","space","space","space","NA","j","556","NA","3645","19294","14666","NA","556","2","legacy","1024","2","48000","-16","task","5214321","odd","NA","50498","56150","52504","82066","7898","41863","27197","82572","NA","82062","82572","81895","56150","83130","48625","81395","7889","NA","Lexical Decision Task","18","14647","18","yes","1024"
"3.1430148","7.92","8","bald","word","100","100","803.2105263157895","803.2105263157895","black","no","legacy","legacy","legacy","0","uniform","1","undefined","undefined","undefined","1","j","0","0","0","0","18","0","0","0","18","NA","14","18","14","0","14","3","18","0","18","Thu Feb 18 13:48:10 2021","The main experiment item","yes","Lexical_Decision_Task.osexp","C:/Users/swill/Documents/University/Course/Year 2/Semester 2/Research Methods 2021","no","Andale Mono","no","18","no","white","no","yes","576","legacy","14","14","3","C:/Users/swill/Documents/University/Course/Year 2/Semester 2/Research Methods 2021/subject-5214321.csv","legacy","Lentiform Loewenfeld","3.3.7","yes","yes","600bd7cfb6416f0113b04181","602110864497cf011d9c0822","0","j","NA","space","space","space","NA","j","614","NA","3645","19294","14666","NA","614","2","legacy","1024","2","48000","-16","task","5214321","odd","NA","50498","56150","52504","83808","7898","41863","27197","84315","NA","83805","84316","83640","56150","84931","48625","83139","7889","NA","Lexical Decision Task","19","15261","19","yes","1024"
"3.481012421","8.34","5","teen","word","100","100","790.45","790.45","black","no","legacy","legacy","legacy","0","uniform","1","undefined","undefined","undefined","1","j","0","0","0","0","19","0","0","0","19","NA","15","19","15","0","15","3","19","0","19","Thu Feb 18 13:48:10 2021","The main experiment item","yes","Lexical_Decision_Task.osexp","C:/Users/swill/Documents/University/Course/Year 2/Semester 2/Research Methods 2021","no","Andale Mono","no","18","no","white","no","yes","576","legacy","15","15","3","C:/Users/swill/Documents/University/Course/Year 2/Semester 2/Research Methods 2021/subject-5214321.csv","legacy","Lentiform Loewenfeld","3.3.7","yes","yes","600bd7cfb6416f0113b04181","602110864497cf011d9c0822","0","j","NA","space","space","space","NA","j","548","NA","3645","19294","14666","NA","548","2","legacy","1024","2","48000","-16","task","5214321","odd","NA","50498","56150","52504","85584","7898","41863","27197","86090","NA","85580","86091","85438","56150","86640","48625","84938","7889","NA","Lexical Decision Task","20","15809","20","yes","1024"
"3.303771854","0","9","dath","non-word","100","100","789.4761904761905","789.4761904761905","black","no","legacy","legacy","legacy","0","uniform","1","undefined","undefined","undefined","1","f","0","0","0","0","20","0","0","0","20","NA","16","20","16","0","16","3","20","0","20","Thu Feb 18 13:48:10 2021","The main experiment item","yes","Lexical_Decision_Task.osexp","C:/Users/swill/Documents/University/Course/Year 2/Semester 2/Research Methods 2021","no","Andale Mono","no","18","no","white","no","yes","576","legacy","16","16","3","C:/Users/swill/Documents/University/Course/Year 2/Semester 2/Research Methods 2021/subject-5214321.csv","legacy","Lentiform Loewenfeld","3.3.7","yes","yes","600bd7cfb6416f0113b04181","602110864497cf011d9c0822","0","f","NA","space","space","space","NA","f","770","NA","3645","19294","14666","NA","770","2","legacy","1024","2","48000","-16","task","5214321","odd","NA","50498","56150","52504","87284","7898","41863","27197","87791","NA","87281","87791","87147","56150","88562","48625","86647","7889","NA","Lexical Decision Task","21","16579","21","yes","1024"
"3.316948329","0","1","besc","non-word","100","100","785.0909090909091","785.0909090909091","black","no","legacy","legacy","legacy","0","uniform","1","undefined","undefined","undefined","1","f","0","0","0","0","21","0","0","0","21","NA","17","21","17","0","17","3","21","0","21","Thu Feb 18 13:48:10 2021","The main experiment item","yes","Lexical_Decision_Task.osexp","C:/Users/swill/Documents/University/Course/Year 2/Semester 2/Research Methods 2021","no","Andale Mono","no","18","no","white","no","yes","576","legacy","17","17","3","C:/Users/swill/Documents/University/Course/Year 2/Semester 2/Research Methods 2021/subject-5214321.csv","legacy","Lentiform Loewenfeld","3.3.7","yes","yes","600bd7cfb6416f0113b04181","602110864497cf011d9c0822","0","f","NA","space","space","space","NA","f","693","NA","3645","19294","14666","NA","693","2","legacy","1024","2","48000","-16","task","5214321","odd","NA","50498","56150","52504","89208","7898","41863","27197","89714","NA","89205","89715","89070","56150","90409","48625","88570","7889","NA","Lexical Decision Task","22","17272","22","yes","1024"
"3.16326079","0","5","parg","non-word","100","100","783.3478260869565","783.3478260869565","black","no","legacy","legacy","legacy","0","uniform","1","undefined","undefined","undefined","1","f","0","0","0","0","22","0","0","0","22","NA","18","22","18","0","18","3","22","0","22","Thu Feb 18 13:48:10 2021","The main experiment item","yes","Lexical_Decision_Task.osexp","C:/Users/swill/Documents/University/Course/Year 2/Semester 2/Research Methods 2021","no","Andale Mono","no","18","no","white","no","yes","576","legacy","18","18","3","C:/Users/swill/Documents/University/Course/Year 2/Semester 2/Research Methods 2021/subject-5214321.csv","legacy","Lentiform Loewenfeld","3.3.7","yes","yes","600bd7cfb6416f0113b04181","602110864497cf011d9c0822","0","f","NA","space","space","space","NA","f","745","NA","3645","19294","14666","NA","745","2","legacy","1024","2","48000","-16","task","5214321","odd","NA","50498","56150","52504","91201","7898","41863","27197","91710","NA","91195","91710","90916","56150","92456","48625","90416","7889","NA","Lexical Decision Task","23","18017","23","yes","1024"
"2.873320602","0","4","lurg","non-word","100","100","775","775","black","no","legacy","legacy","legacy","0","uniform","1","undefined","undefined","undefined","1","f","0","0","0","0","23","0","0","0","23","NA","19","23","19","0","19","3","23","0","23","Thu Feb 18 13:48:10 2021","The main experiment item","yes","Lexical_Decision_Task.osexp","C:/Users/swill/Documents/University/Course/Year 2/Semester 2/Research Methods 2021","no","Andale Mono","no","18","no","white","no","yes","576","legacy","19","19","3","C:/Users/swill/Documents/University/Course/Year 2/Semester 2/Research Methods 2021/subject-5214321.csv","legacy","Lentiform Loewenfeld","3.3.7","yes","yes","600bd7cfb6416f0113b04181","602110864497cf011d9c0822","0","f","NA","space","space","space","NA","f","583","NA","3645","19294","14666","NA","583","2","legacy","1024","2","48000","-16","task","5214321","odd","NA","50498","56150","52504","93105","7898","41863","27197","93612","NA","93102","93612","92965","56150","94196","48625","92464","7889","NA","Lexical Decision Task","24","18600","24","yes","1024"
"3.067070856","9.39","3","loud","word","100","100","767.92","767.92","black","no","legacy","legacy","legacy","0","uniform","1","undefined","undefined","undefined","1","j","0","0","0","0","24","0","0","0","24","NA","20","24","20","0","20","3","24","0","24","Thu Feb 18 13:48:10 2021","The main experiment item","yes","Lexical_Decision_Task.osexp","C:/Users/swill/Documents/University/Course/Year 2/Semester 2/Research Methods 2021","no","Andale Mono","no","18","no","white","no","yes","576","legacy","20","20","3","C:/Users/swill/Documents/University/Course/Year 2/Semester 2/Research Methods 2021/subject-5214321.csv","legacy","Lentiform Loewenfeld","3.3.7","yes","yes","600bd7cfb6416f0113b04181","602110864497cf011d9c0822","0","j","NA","space","space","space","NA","j","598","NA","3645","19294","14666","NA","598","2","legacy","1024","2","48000","-16","task","5214321","odd","NA","50498","56150","52504","94862","7898","41863","27197","95369","NA","94859","95369","94705","56150","95968","48625","94204","7889","NA","Lexical Decision Task","25","19198","25","yes","1024"
"3.492014979","0","9","yine","non-word","100","100","761.6923076923077","761.6923076923077","black","no","legacy","legacy","legacy","0","uniform","1","undefined","undefined","undefined","1","f","0","0","0","0","25","0","0","0","25","NA","21","25","21","0","21","3","25","0","25","Thu Feb 18 13:48:10 2021","The main experiment item","yes","Lexical_Decision_Task.osexp","C:/Users/swill/Documents/University/Course/Year 2/Semester 2/Research Methods 2021","no","Andale Mono","no","18","no","white","no","yes","576","legacy","21","21","3","C:/Users/swill/Documents/University/Course/Year 2/Semester 2/Research Methods 2021/subject-5214321.csv","legacy","Lentiform Loewenfeld","3.3.7","yes","yes","600bd7cfb6416f0113b04181","602110864497cf011d9c0822","0","f","NA","space","space","space","NA","f","606","NA","3645","19294","14666","NA","606","2","legacy","1024","2","48000","-16","task","5214321","odd","NA","50498","56150","52504","96618","7898","41863","27197","97125","NA","96614","97126","96476","56150","97733","48625","95976","7889","NA","Lexical Decision Task","26","19804","26","yes","1024"
"2.858136002","0","4","phip","non-word","100","100","770.5185185185185","770.5185185185185","black","no","legacy","legacy","legacy","0","uniform","1","undefined","undefined","undefined","1","f","0","0","0","0","26","0","0","0","26","NA","22","26","22","0","22","3","26","0","26","Thu Feb 18 13:48:10 2021","The main experiment item","yes","Lexical_Decision_Task.osexp","C:/Users/swill/Documents/University/Course/Year 2/Semester 2/Research Methods 2021","no","Andale Mono","no","18","no","white","no","yes","576","legacy","22","22","3","C:/Users/swill/Documents/University/Course/Year 2/Semester 2/Research Methods 2021/subject-5214321.csv","legacy","Lentiform Loewenfeld","3.3.7","yes","yes","600bd7cfb6416f0113b04181","602110864497cf011d9c0822","0","f","NA","space","space","space","NA","f","1000","NA","3645","19294","14666","NA","1000","2","legacy","1024","2","48000","-16","task","5214321","odd","NA","50498","56150","52504","98425","7898","41863","27197","98932","NA","98421","98932","98242","56150","99933","48625","97742","7889","NA","Lexical Decision Task","27","20804","27","yes","1024"
"3.20871002","7.15","8","cram","word","100","100","765.8928571428571","765.8928571428571","black","no","legacy","legacy","legacy","0","uniform","1","undefined","undefined","undefined","1","j","0","0","0","0","27","0","0","0","27","NA","23","27","23","0","23","3","27","0","27","Thu Feb 18 13:48:10 2021","The main experiment item","yes","Lexical_Decision_Task.osexp","C:/Users/swill/Documents/University/Course/Year 2/Semester 2/Research Methods 2021","no","Andale Mono","no","18","no","white","no","yes","576","legacy","23","23","3","C:/Users/swill/Documents/University/Course/Year 2/Semester 2/Research Methods 2021/subject-5214321.csv","legacy","Lentiform Loewenfeld","3.3.7","yes","yes","600bd7cfb6416f0113b04181","602110864497cf011d9c0822","0","j","NA","space","space","space","NA","j","641","NA","3645","19294","14666","NA","641","2","legacy","1024","2","48000","-16","task","5214321","odd","NA","50498","56150","52504","100579","7898","41863","27197","101087","NA","100575","101087","100442","56150","101729","48625","99942","7889","NA","Lexical Decision Task","28","21445","28","yes","1024"
"3.29439347","8.6","9","wand","word","100","100","772.7241379310345","772.7241379310345","black","no","legacy","legacy","legacy","0","uniform","1","undefined","undefined","undefined","1","j","0","0","0","0","28","0","0","0","28","NA","24","28","24","0","24","3","28","0","28","Thu Feb 18 13:48:10 2021","The main experiment item","yes","Lexical_Decision_Task.osexp","C:/Users/swill/Documents/University/Course/Year 2/Semester 2/Research Methods 2021","no","Andale Mono","no","18","no","white","no","yes","576","legacy","24","24","3","C:/Users/swill/Documents/University/Course/Year 2/Semester 2/Research Methods 2021/subject-5214321.csv","legacy","Lentiform Loewenfeld","3.3.7","yes","yes","600bd7cfb6416f0113b04181","602110864497cf011d9c0822","0","j","NA","space","space","space","NA","j","964","NA","3645","19294","14666","NA","964","2","legacy","1024","2","48000","-16","task","5214321","odd","NA","50498","56150","52504","102407","7898","41863","27197","102914","NA","102403","102915","102238","56150","103881","48625","101737","7889","NA","Lexical Decision Task","29","22409","29","yes","1024"
"2.952953801","0","8","clax","non-word","100","100","769.1","769.1","black","no","legacy","legacy","legacy","0","uniform","1","undefined","undefined","undefined","1","f","0","0","0","0","29","0","0","0","29","NA","25","29","25","0","25","3","29","0","29","Thu Feb 18 13:48:10 2021","The main experiment item","yes","Lexical_Decision_Task.osexp","C:/Users/swill/Documents/University/Course/Year 2/Semester 2/Research Methods 2021","no","Andale Mono","no","18","no","white","no","yes","576","legacy","25","25","3","C:/Users/swill/Documents/University/Course/Year 2/Semester 2/Research Methods 2021/subject-5214321.csv","legacy","Lentiform Loewenfeld","3.3.7","yes","yes","600bd7cfb6416f0113b04181","602110864497cf011d9c0822","0","f","NA","space","space","space","NA","f","664","NA","3645","19294","14666","NA","664","2","legacy","1024","2","48000","-16","task","5214321","odd","NA","50498","56150","52504","104534","7898","41863","27197","105041","NA","104530","105041","104389","56150","105707","48625","103889","7889","NA","Lexical Decision Task","30","23073","30","yes","1024"
"2.983324025","9.56","2","debt","word","100","100","777.8064516129032","777.8064516129032","black","no","legacy","legacy","legacy","0","uniform","1","undefined","undefined","undefined","1","j","0","0","0","0","30","0","0","0","30","NA","26","30","26","0","26","3","30","0","30","Thu Feb 18 13:48:10 2021","The main experiment item","yes","Lexical_Decision_Task.osexp","C:/Users/swill/Documents/University/Course/Year 2/Semester 2/Research Methods 2021","no","Andale Mono","no","18","no","white","no","yes","576","legacy","26","26","3","C:/Users/swill/Documents/University/Course/Year 2/Semester 2/Research Methods 2021/subject-5214321.csv","legacy","Lentiform Loewenfeld","3.3.7","yes","yes","600bd7cfb6416f0113b04181","602110864497cf011d9c0822","0","j","NA","space","space","space","NA","j","1039","NA","3645","19294","14666","NA","1039","2","legacy","1024","2","48000","-16","task","5214321","odd","NA","50498","56150","52504","106368","7898","41863","27197","106874","NA","106365","106875","106227","56150","107915","48625","105727","7889","NA","Lexical Decision Task","31","24112","31","yes","1024"
"3.153001286","8.7","5","palm","word","100","100","770.125","770.125","black","no","legacy","legacy","legacy","0","uniform","1","undefined","undefined","undefined","1","j","0","0","0","0","31","0","0","0","31","NA","27","31","27","0","27","3","31","0","31","Thu Feb 18 13:48:10 2021","The main experiment item","yes","Lexical_Decision_Task.osexp","C:/Users/swill/Documents/University/Course/Year 2/Semester 2/Research Methods 2021","no","Andale Mono","no","18","no","white","no","yes","576","legacy","27","27","3","C:/Users/swill/Documents/University/Course/Year 2/Semester 2/Research Methods 2021/subject-5214321.csv","legacy","Lentiform Loewenfeld","3.3.7","yes","yes","600bd7cfb6416f0113b04181","602110864497cf011d9c0822","0","j","NA","space","space","space","NA","j","532","NA","3645","19294","14666","NA","532","2","legacy","1024","2","48000","-16","task","5214321","odd","NA","50498","56150","52504","108572","7898","41863","27197","109076","NA","108569","109076","108424","56150","109609","48625","107923","7889","NA","Lexical Decision Task","32","24644","32","yes","1024"
"3.230789326","5.38","5","prim","word","96.96969696969697","96.96969696969697","776.2424242424242","776.2424242424242","black","no","legacy","legacy","legacy","0","uniform","0","undefined","undefined","undefined","0","j","0","0","0","0","32","0","0","0","32","NA","28","32","28","0","28","3","32","0","32","Thu Feb 18 13:48:10 2021","The main experiment item","yes","Lexical_Decision_Task.osexp","C:/Users/swill/Documents/University/Course/Year 2/Semester 2/Research Methods 2021","no","Andale Mono","no","18","no","white","no","yes","576","legacy","28","28","3","C:/Users/swill/Documents/University/Course/Year 2/Semester 2/Research Methods 2021/subject-5214321.csv","legacy","Lentiform Loewenfeld","3.3.7","yes","yes","600bd7cfb6416f0113b04181","602110864497cf011d9c0822","0","f","NA","space","space","space","NA","f","972","NA","3645","19294","14666","NA","972","2","legacy","1024","2","48000","-16","task","5214321","odd","NA","50498","56150","52504","110449","7898","41863","27197","110959","NA","110441","110959","110117","56150","111932","48625","109617","7889","NA","Lexical Decision Task","32","25616","33","yes","1024"
"2.809559715","8.44","4","volt","word","97.05882352941177","97.05882352941177","782.1470588235294","782.1470588235294","black","no","legacy","legacy","legacy","0","uniform","1","undefined","undefined","undefined","1","j","0","0","0","0","33","0","0","0","33","NA","29","33","29","0","29","3","33","0","33","Thu Feb 18 13:48:10 2021","The main experiment item","yes","Lexical_Decision_Task.osexp","C:/Users/swill/Documents/University/Course/Year 2/Semester 2/Research Methods 2021","no","Andale Mono","no","18","no","white","no","yes","576","legacy","29","29","3","C:/Users/swill/Documents/University/Course/Year 2/Semester 2/Research Methods 2021/subject-5214321.csv","legacy","Lentiform Loewenfeld","3.3.7","yes","yes","600bd7cfb6416f0113b04181","602110864497cf011d9c0822","0","j","NA","space","space","space","NA","j","977","NA","3645","19294","14666","NA","977","2","legacy","1024","2","48000","-16","task","5214321","odd","NA","50498","56150","52504","113605","7898","41863","27197","114110","NA","113600","114111","113440","56150","115089","48625","109617","7889","111940","Lexical Decision Task","33","26593","34","yes","1024"
"2.616654026","9.37","5","gift","word","97.14285714285714","97.14285714285714","776.7714285714286","776.7714285714286","black","no","legacy","legacy","legacy","0","uniform","1","undefined","undefined","undefined","1","j","0","0","0","0","34","0","0","0","34","NA","30","34","30","0","30","3","34","0","34","Thu Feb 18 13:48:10 2021","The main experiment item","yes","Lexical_Decision_Task.osexp","C:/Users/swill/Documents/University/Course/Year 2/Semester 2/Research Methods 2021","no","Andale Mono","no","18","no","white","no","yes","576","legacy","30","30","3","C:/Users/swill/Documents/University/Course/Year 2/Semester 2/Research Methods 2021/subject-5214321.csv","legacy","Lentiform Loewenfeld","3.3.7","yes","yes","600bd7cfb6416f0113b04181","602110864497cf011d9c0822","0","j","NA","space","space","space","NA","j","594","NA","3645","19294","14666","NA","594","2","legacy","1024","2","48000","-16","task","5214321","odd","NA","50498","56150","52504","115763","7898","41863","27197","116271","NA","115760","116271","115598","56150","116866","48625","115098","7889","111940","Lexical Decision Task","34","27187","35","yes","1024"
"2.966923697","5.4","2","fume","word","97.22222222222223","97.22222222222223","780.4722222222222","780.4722222222222","black","no","legacy","legacy","legacy","0","uniform","1","undefined","undefined","undefined","1","j","0","0","0","0","35","0","0","0","35","NA","31","35","31","0","31","3","35","0","35","Thu Feb 18 13:48:10 2021","The main experiment item","yes","Lexical_Decision_Task.osexp","C:/Users/swill/Documents/University/Course/Year 2/Semester 2/Research Methods 2021","no","Andale Mono","no","18","no","white","no","yes","576","legacy","31","31","3","C:/Users/swill/Documents/University/Course/Year 2/Semester 2/Research Methods 2021/subject-5214321.csv","legacy","Lentiform Loewenfeld","3.3.7","yes","yes","600bd7cfb6416f0113b04181","602110864497cf011d9c0822","0","j","NA","space","space","space","NA","j","910","NA","3645","19294","14666","NA","910","2","legacy","1024","2","48000","-16","task","5214321","odd","NA","50498","56150","52504","117520","7898","41863","27197","118028","NA","117517","118028","117375","56150","118939","48625","116875","7889","111940","Lexical Decision Task","35","28097","36","yes","1024"
"3.100255637","0","6","brax","non-word","97.29729729729729","97.29729729729729","778.9459459459459","778.9459459459459","black","no","legacy","legacy","legacy","0","uniform","1","undefined","undefined","undefined","1","f","0","0","0","0","36","0","0","0","36","NA","32","36","32","0","32","3","36","0","36","Thu Feb 18 13:48:10 2021","The main experiment item","yes","Lexical_Decision_Task.osexp","C:/Users/swill/Documents/University/Course/Year 2/Semester 2/Research Methods 2021","no","Andale Mono","no","18","no","white","no","yes","576","legacy","32","32","3","C:/Users/swill/Documents/University/Course/Year 2/Semester 2/Research Methods 2021/subject-5214321.csv","legacy","Lentiform Loewenfeld","3.3.7","yes","yes","600bd7cfb6416f0113b04181","602110864497cf011d9c0822","0","f","NA","space","space","space","NA","f","724","NA","3645","19294","14666","NA","724","2","legacy","1024","2","48000","-16","task","5214321","odd","NA","50498","56150","52504","119610","7898","41863","27197","120117","NA","119607","120117","119448","56150","120843","48625","118947","7889","111940","Lexical Decision Task","36","28821","37","yes","1024"
"2.594027722","9.08","8","skip","word","97.36842105263158","97.36842105263158","774.7368421052631","774.7368421052631","black","no","legacy","legacy","legacy","0","uniform","1","undefined","undefined","undefined","1","j","0","0","0","0","37","0","0","0","37","NA","33","37","33","0","33","3","37","0","37","Thu Feb 18 13:48:10 2021","The main experiment item","yes","Lexical_Decision_Task.osexp","C:/Users/swill/Documents/University/Course/Year 2/Semester 2/Research Methods 2021","no","Andale Mono","no","18","no","white","no","yes","576","legacy","33","33","3","C:/Users/swill/Documents/University/Course/Year 2/Semester 2/Research Methods 2021/subject-5214321.csv","legacy","Lentiform Loewenfeld","3.3.7","yes","yes","600bd7cfb6416f0113b04181","602110864497cf011d9c0822","0","j","NA","space","space","space","NA","j","619","NA","3645","19294","14666","NA","619","2","legacy","1024","2","48000","-16","task","5214321","odd","NA","50498","56150","52504","121571","7898","41863","27197","122078","NA","121567","122079","121351","56150","122699","48625","120851","7889","111940","Lexical Decision Task","37","29440","38","yes","1024"
"3.225825991","0","7","talm","non-word","97.43589743589743","97.43589743589743","782.1794871794872","782.1794871794872","black","no","legacy","legacy","legacy","0","uniform","1","undefined","undefined","undefined","1","f","0","0","0","0","38","0","0","0","38","NA","34","38","34","0","34","3","38","0","38","Thu Feb 18 13:48:10 2021","The main experiment item","yes","Lexical_Decision_Task.osexp","C:/Users/swill/Documents/University/Course/Year 2/Semester 2/Research Methods 2021","no","Andale Mono","no","18","no","white","no","yes","576","legacy","34","34","3","C:/Users/swill/Documents/University/Course/Year 2/Semester 2/Research Methods 2021/subject-5214321.csv","legacy","Lentiform Loewenfeld","3.3.7","yes","yes","600bd7cfb6416f0113b04181","602110864497cf011d9c0822","0","f","NA","space","space","space","NA","f","1065","NA","3645","19294","14666","NA","1065","2","legacy","1024","2","48000","-16","task","5214321","odd","NA","50498","56150","52504","123364","7898","41863","27197","123870","NA","123361","123870","123208","56150","124936","48625","122708","7889","111940","Lexical Decision Task","38","30505","39","yes","1024"
"2.664328519","0","4","plux","non-word","97.5","97.5","783.825","783.825","black","no","legacy","legacy","legacy","0","uniform","1","undefined","undefined","undefined","1","f","0","0","0","0","39","0","0","0","39","NA","35","39","35","0","35","3","39","0","39","Thu Feb 18 13:48:10 2021","The main experiment item","yes","Lexical_Decision_Task.osexp","C:/Users/swill/Documents/University/Course/Year 2/Semester 2/Research Methods 2021","no","Andale Mono","no","18","no","white","no","yes","576","legacy","35","35","3","C:/Users/swill/Documents/University/Course/Year 2/Semester 2/Research Methods 2021/subject-5214321.csv","legacy","Lentiform Loewenfeld","3.3.7","yes","yes","600bd7cfb6416f0113b04181","602110864497cf011d9c0822","0","f","NA","space","space","space","NA","f","848","NA","3645","19294","14666","NA","848","2","legacy","1024","2","48000","-16","task","5214321","odd","NA","50498","56150","52504","125589","7898","41863","27197","126096","NA","125585","126096","125444","56150","126946","48625","124943","7889","111940","Lexical Decision Task","39","31353","40","yes","1024"
"2.709837904","6.85","8","skim","word","97.5609756097561","97.5609756097561","795.7317073170732","795.7317073170732","black","no","legacy","legacy","legacy","0","uniform","1","undefined","undefined","undefined","1","j","0","0","0","0","40","0","0","0","40","NA","36","40","36","0","36","3","40","0","40","Thu Feb 18 13:48:10 2021","The main experiment item","yes","Lexical_Decision_Task.osexp","C:/Users/swill/Documents/University/Course/Year 2/Semester 2/Research Methods 2021","no","Andale Mono","no","18","no","white","no","yes","576","legacy","36","36","3","C:/Users/swill/Documents/University/Course/Year 2/Semester 2/Research Methods 2021/subject-5214321.csv","legacy","Lentiform Loewenfeld","3.3.7","yes","yes","600bd7cfb6416f0113b04181","602110864497cf011d9c0822","0","j","NA","space","space","space","NA","j","1272","NA","3645","19294","14666","NA","1272","2","legacy","1024","2","48000","-16","task","5214321","odd","NA","50498","56150","52504","127754","7898","41863","27197","128262","NA","127750","128263","127453","56150","129536","48625","126953","7889","111940","Lexical Decision Task","40","32625","41","yes","1024"
"2.64476673","0","5","moft","non-word","97.61904761904762","97.61904761904762","799.1428571428571","799.1428571428571","black","no","legacy","legacy","legacy","0","uniform","1","undefined","undefined","undefined","1","f","0","0","0","0","41","0","0","0","41","NA","37","41","37","0","37","3","41","0","41","Thu Feb 18 13:48:10 2021","The main experiment item","yes","Lexical_Decision_Task.osexp","C:/Users/swill/Documents/University/Course/Year 2/Semester 2/Research Methods 2021","no","Andale Mono","no","18","no","white","no","yes","576","legacy","37","37","3","C:/Users/swill/Documents/University/Course/Year 2/Semester 2/Research Methods 2021/subject-5214321.csv","legacy","Lentiform Loewenfeld","3.3.7","yes","yes","600bd7cfb6416f0113b04181","602110864497cf011d9c0822","0","f","NA","space","space","space","NA","f","939","NA","3645","19294","14666","NA","939","2","legacy","1024","2","48000","-16","task","5214321","odd","NA","50498","56150","52504","130188","7898","41863","27197","130694","NA","130184","130695","130048","56150","131635","48625","129548","7889","111940","Lexical Decision Task","41","33564","42","yes","1024"
"3.209246849","0","7","slem","non-word","97.67441860465117","97.67441860465117","799.4186046511628","799.4186046511628","black","no","legacy","legacy","legacy","0","uniform","1","undefined","undefined","undefined","1","f","0","0","0","0","42","0","0","0","42","NA","38","42","38","0","38","3","42","0","42","Thu Feb 18 13:48:10 2021","The main experiment item","yes","Lexical_Decision_Task.osexp","C:/Users/swill/Documents/University/Course/Year 2/Semester 2/Research Methods 2021","no","Andale Mono","no","18","no","white","no","yes","576","legacy","38","38","3","C:/Users/swill/Documents/University/Course/Year 2/Semester 2/Research Methods 2021/subject-5214321.csv","legacy","Lentiform Loewenfeld","3.3.7","yes","yes","600bd7cfb6416f0113b04181","602110864497cf011d9c0822","0","f","NA","space","space","space","NA","f","811","NA","3645","19294","14666","NA","811","2","legacy","1024","2","48000","-16","task","5214321","odd","NA","50498","56150","52504","132300","7898","41863","27197","132807","NA","132296","132807","132143","56150","133620","48625","131643","7889","111940","Lexical Decision Task","42","34375","43","yes","1024"
"2.839268497","0","8","maft","non-word","97.72727272727273","97.72727272727273","797.7954545454545","797.7954545454545","black","no","legacy","legacy","legacy","0","uniform","1","undefined","undefined","undefined","1","f","0","0","0","0","43","0","0","0","43","NA","39","43","39","0","39","3","43","0","43","Thu Feb 18 13:48:10 2021","The main experiment item","yes","Lexical_Decision_Task.osexp","C:/Users/swill/Documents/University/Course/Year 2/Semester 2/Research Methods 2021","no","Andale Mono","no","18","no","white","no","yes","576","legacy","39","39","3","C:/Users/swill/Documents/University/Course/Year 2/Semester 2/Research Methods 2021/subject-5214321.csv","legacy","Lentiform Loewenfeld","3.3.7","yes","yes","600bd7cfb6416f0113b04181","602110864497cf011d9c0822","0","f","NA","space","space","space","NA","f","728","NA","3645","19294","14666","NA","728","2","legacy","1024","2","48000","-16","task","5214321","odd","NA","50498","56150","52504","134281","7898","41863","27197","134789","NA","134278","134789","134128","56150","135518","48625","133628","7889","111940","Lexical Decision Task","43","35103","44","yes","1024"
"3.064581521","5.51","6","cask","word","95.55555555555556","95.55555555555556","828.6222222222223","828.6222222222223","black","no","legacy","legacy","legacy","0","uniform","0","undefined","undefined","undefined","0","j","0","0","0","0","44","0","0","0","44","NA","40","44","40","0","40","3","44","0","44","Thu Feb 18 13:48:10 2021","The main experiment item","yes","Lexical_Decision_Task.osexp","C:/Users/swill/Documents/University/Course/Year 2/Semester 2/Research Methods 2021","no","Andale Mono","no","18","no","white","no","yes","576","legacy","40","40","3","C:/Users/swill/Documents/University/Course/Year 2/Semester 2/Research Methods 2021/subject-5214321.csv","legacy","Lentiform Loewenfeld","3.3.7","yes","yes","600bd7cfb6416f0113b04181","602110864497cf011d9c0822","0","f","NA","space","space","space","NA","f","2185","NA","3645","19294","14666","NA","2185","2","legacy","1024","2","48000","-16","task","5214321","odd","NA","50498","56150","52504","136177","7898","41863","27197","136683","NA","136173","136683","136026","56150","138869","48625","135526","7889","111940","Lexical Decision Task","43","37288","45","yes","1024"
"2.728085817","10.02","9","bike","word","95.65217391304348","95.65217391304348","823.5434782608696","823.5434782608696","black","no","legacy","legacy","legacy","0","uniform","1","undefined","undefined","undefined","1","j","0","0","0","0","45","0","0","0","45","NA","41","45","41","0","41","3","45","0","45","Thu Feb 18 13:48:10 2021","The main experiment item","yes","Lexical_Decision_Task.osexp","C:/Users/swill/Documents/University/Course/Year 2/Semester 2/Research Methods 2021","no","Andale Mono","no","18","no","white","no","yes","576","legacy","41","41","3","C:/Users/swill/Documents/University/Course/Year 2/Semester 2/Research Methods 2021/subject-5214321.csv","legacy","Lentiform Loewenfeld","3.3.7","yes","yes","600bd7cfb6416f0113b04181","602110864497cf011d9c0822","0","j","NA","space","space","space","NA","j","595","NA","3645","19294","14666","NA","595","2","legacy","1024","2","48000","-16","task","5214321","odd","NA","50498","56150","52504","140536","7898","41863","27197","141042","NA","140532","141042","140379","56150","141638","48625","135526","7889","138879","Lexical Decision Task","44","37883","46","yes","1024"
"3.252447662","9.67","9","boat","word","95.74468085106383","95.74468085106383","824.7021276595744","824.7021276595744","black","no","legacy","legacy","legacy","0","uniform","1","undefined","undefined","undefined","1","j","0","0","0","0","46","0","0","0","46","NA","42","46","42","0","42","3","46","0","46","Thu Feb 18 13:48:10 2021","The main experiment item","yes","Lexical_Decision_Task.osexp","C:/Users/swill/Documents/University/Course/Year 2/Semester 2/Research Methods 2021","no","Andale Mono","no","18","no","white","no","yes","576","legacy","42","42","3","C:/Users/swill/Documents/University/Course/Year 2/Semester 2/Research Methods 2021/subject-5214321.csv","legacy","Lentiform Loewenfeld","3.3.7","yes","yes","600bd7cfb6416f0113b04181","602110864497cf011d9c0822","0","j","NA","space","space","space","NA","j","878","NA","3645","19294","14666","NA","878","2","legacy","1024","2","48000","-16","task","5214321","odd","NA","50498","56150","52504","142297","7898","41863","27197","142805","NA","142293","142806","142146","56150","143686","48625","141645","7889","138879","Lexical Decision Task","45","38761","47","yes","1024"
"2.67699827","0","6","hulf","non-word","95.83333333333333","95.83333333333333","829.7916666666666","829.7916666666666","black","no","legacy","legacy","legacy","0","uniform","1","undefined","undefined","undefined","1","f","0","0","0","0","47","0","0","0","47","NA","43","47","43","0","43","3","47","0","47","Thu Feb 18 13:48:10 2021","The main experiment item","yes","Lexical_Decision_Task.osexp","C:/Users/swill/Documents/University/Course/Year 2/Semester 2/Research Methods 2021","no","Andale Mono","no","18","no","white","no","yes","576","legacy","43","43","3","C:/Users/swill/Documents/University/Course/Year 2/Semester 2/Research Methods 2021/subject-5214321.csv","legacy","Lentiform Loewenfeld","3.3.7","yes","yes","600bd7cfb6416f0113b04181","602110864497cf011d9c0822","0","f","NA","space","space","space","NA","f","1069","NA","3645","19294","14666","NA","1069","2","legacy","1024","2","48000","-16","task","5214321","odd","NA","50498","56150","52504","144356","7898","41863","27197","144866","NA","144352","144867","144194","56150","145937","48625","143694","7889","138879","Lexical Decision Task","46","39830","48","yes","1024"
"2.972819734","0","4","scew","non-word","95.91836734693878","95.91836734693878","855.7551020408164","855.7551020408164","black","no","legacy","legacy","legacy","0","uniform","1","undefined","undefined","undefined","1","f","0","0","0","0","48","0","0","0","48","NA","44","48","44","0","44","3","48","0","48","Thu Feb 18 13:48:10 2021","The main experiment item","yes","Lexical_Decision_Task.osexp","C:/Users/swill/Documents/University/Course/Year 2/Semester 2/Research Methods 2021","no","Andale Mono","no","18","no","white","no","yes","576","legacy","44","44","3","C:/Users/swill/Documents/University/Course/Year 2/Semester 2/Research Methods 2021/subject-5214321.csv","legacy","Lentiform Loewenfeld","3.3.7","yes","yes","600bd7cfb6416f0113b04181","602110864497cf011d9c0822","0","f","NA","space","space","space","NA","f","2102","NA","3645","19294","14666","NA","2102","2","legacy","1024","2","48000","-16","task","5214321","odd","NA","50498","56150","52504","146591","7898","41863","27197","147098","NA","146588","147099","146445","56150","149202","48625","145945","7889","138879","Lexical Decision Task","47","41932","49","yes","1024"
"3.153104174","10.89","6","door","word","96","96","851.8","851.8","black","no","legacy","legacy","legacy","0","uniform","1","undefined","undefined","undefined","1","j","0","0","0","0","49","0","0","0","49","NA","45","49","45","0","45","3","49","0","49","Thu Feb 18 13:48:10 2021","The main experiment item","yes","Lexical_Decision_Task.osexp","C:/Users/swill/Documents/University/Course/Year 2/Semester 2/Research Methods 2021","no","Andale Mono","no","18","no","white","no","yes","576","legacy","45","45","3","C:/Users/swill/Documents/University/Course/Year 2/Semester 2/Research Methods 2021/subject-5214321.csv","legacy","Lentiform Loewenfeld","3.3.7","yes","yes","600bd7cfb6416f0113b04181","602110864497cf011d9c0822","0","j","NA","space","space","space","NA","j","658","NA","3645","19294","14666","NA","658","2","legacy","1024","2","48000","-16","task","5214321","odd","NA","50498","56150","52504","149873","7898","41863","27197","150380","NA","149869","150380","149710","56150","151039","48625","149210","7889","138879","Lexical Decision Task","48","42590","50","yes","1024"
"3.366547468","0","6","plat","non-word","96.07843137254902","96.07843137254902","853.1960784313726","853.1960784313726","black","no","legacy","legacy","legacy","0","uniform","1","undefined","undefined","undefined","1","f","0","0","0","0","50","0","0","0","50","NA","46","50","46","0","46","3","50","0","50","Thu Feb 18 13:48:10 2021","The main experiment item","yes","Lexical_Decision_Task.osexp","C:/Users/swill/Documents/University/Course/Year 2/Semester 2/Research Methods 2021","no","Andale Mono","no","18","no","white","no","yes","576","legacy","46","46","3","C:/Users/swill/Documents/University/Course/Year 2/Semester 2/Research Methods 2021/subject-5214321.csv","legacy","Lentiform Loewenfeld","3.3.7","yes","yes","600bd7cfb6416f0113b04181","602110864497cf011d9c0822","0","f","NA","space","space","space","NA","f","923","NA","3645","19294","14666","NA","923","2","legacy","1024","2","48000","-16","task","5214321","odd","NA","50498","56150","52504","151764","7898","41863","27197","152270","NA","151760","152270","151547","56150","153195","48625","151047","7889","138879","Lexical Decision Task","49","43513","51","yes","1024"
"2.696644658","5.78","2","yolk","word","96.15384615384616","96.15384615384616","858.75","858.75","black","no","legacy","legacy","legacy","0","uniform","1","undefined","undefined","undefined","1","j","0","0","0","0","51","0","0","0","51","NA","47","51","47","0","47","3","51","0","51","Thu Feb 18 13:48:10 2021","The main experiment item","yes","Lexical_Decision_Task.osexp","C:/Users/swill/Documents/University/Course/Year 2/Semester 2/Research Methods 2021","no","Andale Mono","no","18","no","white","no","yes","576","legacy","47","47","3","C:/Users/swill/Documents/University/Course/Year 2/Semester 2/Research Methods 2021/subject-5214321.csv","legacy","Lentiform Loewenfeld","3.3.7","yes","yes","600bd7cfb6416f0113b04181","602110864497cf011d9c0822","0","j","NA","space","space","space","NA","j","1142","NA","3645","19294","14666","NA","1142","2","legacy","1024","2","48000","-16","task","5214321","odd","NA","50498","56150","52504","153915","7898","41863","27197","154422","NA","153912","154422","153703","56150","155566","48625","153202","7889","138879","Lexical Decision Task","50","44655","52","yes","1024"
"2.990042563","6.64","9","plow","word","96.22641509433963","96.22641509433963","861.1509433962265","861.1509433962265","black","no","legacy","legacy","legacy","0","uniform","1","undefined","undefined","undefined","1","j","0","0","0","0","52","0","0","0","52","NA","48","52","48","0","48","3","52","0","52","Thu Feb 18 13:48:10 2021","The main experiment item","yes","Lexical_Decision_Task.osexp","C:/Users/swill/Documents/University/Course/Year 2/Semester 2/Research Methods 2021","no","Andale Mono","no","18","no","white","no","yes","576","legacy","48","48","3","C:/Users/swill/Documents/University/Course/Year 2/Semester 2/Research Methods 2021/subject-5214321.csv","legacy","Lentiform Loewenfeld","3.3.7","yes","yes","600bd7cfb6416f0113b04181","602110864497cf011d9c0822","0","j","NA","space","space","space","NA","j","986","NA","3645","19294","14666","NA","986","2","legacy","1024","2","48000","-16","task","5214321","odd","NA","50498","56150","52504","156219","7898","41863","27197","156727","NA","156216","156728","156073","56150","157715","48625","155573","7889","138879","Lexical Decision Task","51","45641","53","yes","1024"
"2.713490543","0","3","feps","non-word","96.29629629629629","96.29629629629629","858.5925925925926","858.5925925925926","black","no","legacy","legacy","legacy","0","uniform","1","undefined","undefined","undefined","1","f","0","0","0","0","53","0","0","0","53","NA","49","53","49","0","49","3","53","0","53","Thu Feb 18 13:48:10 2021","The main experiment item","yes","Lexical_Decision_Task.osexp","C:/Users/swill/Documents/University/Course/Year 2/Semester 2/Research Methods 2021","no","Andale Mono","no","18","no","white","no","yes","576","legacy","49","49","3","C:/Users/swill/Documents/University/Course/Year 2/Semester 2/Research Methods 2021/subject-5214321.csv","legacy","Lentiform Loewenfeld","3.3.7","yes","yes","600bd7cfb6416f0113b04181","602110864497cf011d9c0822","0","f","NA","space","space","space","NA","f","723","NA","3645","19294","14666","NA","723","2","legacy","1024","2","48000","-16","task","5214321","odd","NA","50498","56150","52504","158360","7898","41863","27197","158866","NA","158357","158867","158224","56150","159591","48625","157724","7889","138879","Lexical Decision Task","52","46364","54","yes","1024"
"3.261341392","5.08","8","reek","word","94.54545454545455","94.54545454545455","862.1090909090909","862.1090909090909","black","no","legacy","legacy","legacy","0","uniform","0","undefined","undefined","undefined","0","j","0","0","0","0","54","0","0","0","54","0","50","54","50","0","50","3","54","0","54","Thu Feb 18 13:48:10 2021","The main experiment item","yes","Lexical_Decision_Task.osexp","C:/Users/swill/Documents/University/Course/Year 2/Semester 2/Research Methods 2021","no","Andale Mono","no","18","no","white","no","yes","576","legacy","50","50","3","C:/Users/swill/Documents/University/Course/Year 2/Semester 2/Research Methods 2021/subject-5214321.csv","legacy","Lentiform Loewenfeld","3.3.7","yes","yes","600bd7cfb6416f0113b04181","602110864497cf011d9c0822","0","f","NA","space","space","space","space","f","1052","NA","3645","19294","14666","13226","1052","2","legacy","1024","2","48000","-16","task","5214321","odd","NA","50498","56150","52504","173669","7898","41863","27197","174177","160313","173666","174178","160099","56150","175231","48625","159599","7889","138879","Lexical Decision Task","52","47416","55","yes","1024"
"3.090140555","5.81","8","pout","word","94.64285714285714","94.64285714285714","859.3928571428571","859.3928571428571","black","no","legacy","legacy","legacy","0","uniform","1","undefined","undefined","undefined","1","j","0","0","0","0","55","0","0","0","55","0","51","55","51","0","51","3","55","0","55","Thu Feb 18 13:48:10 2021","The main experiment item","yes","Lexical_Decision_Task.osexp","C:/Users/swill/Documents/University/Course/Year 2/Semester 2/Research Methods 2021","no","Andale Mono","no","18","no","white","no","yes","576","legacy","51","51","3","C:/Users/swill/Documents/University/Course/Year 2/Semester 2/Research Methods 2021/subject-5214321.csv","legacy","Lentiform Loewenfeld","3.3.7","yes","yes","600bd7cfb6416f0113b04181","602110864497cf011d9c0822","0","j","NA","space","space","space","space","j","710","NA","3645","19294","14666","13226","710","2","legacy","1024","2","48000","-16","task","5214321","odd","NA","50498","56150","52504","176893","7898","41863","27197","177400","160313","176889","177400","176740","56150","178111","48625","159599","7889","175240","Lexical Decision Task","53","48126","56","yes","1024"
"2.771097306","0","9","jold","non-word","94.73684210526316","94.73684210526316","859.5438596491229","859.5438596491229","black","no","legacy","legacy","legacy","0","uniform","1","undefined","undefined","undefined","1","f","0","0","0","0","56","0","0","0","56","0","52","56","52","0","52","3","56","0","56","Thu Feb 18 13:48:10 2021","The main experiment item","yes","Lexical_Decision_Task.osexp","C:/Users/swill/Documents/University/Course/Year 2/Semester 2/Research Methods 2021","no","Andale Mono","no","18","no","white","no","yes","576","legacy","52","52","3","C:/Users/swill/Documents/University/Course/Year 2/Semester 2/Research Methods 2021/subject-5214321.csv","legacy","Lentiform Loewenfeld","3.3.7","yes","yes","600bd7cfb6416f0113b04181","602110864497cf011d9c0822","0","f","NA","space","space","space","space","f","868","NA","3645","19294","14666","13226","868","2","legacy","1024","2","48000","-16","task","5214321","odd","NA","50498","56150","52504","178760","7898","41863","27197","179267","160313","178756","179268","178620","56150","180137","48625","178120","7889","175240","Lexical Decision Task","54","48994","57","yes","1024"
"2.807758206","6.25","4","hurl","word","93.10344827586206","93.10344827586206","855.448275862069","855.448275862069","black","no","legacy","legacy","legacy","0","uniform","0","undefined","undefined","undefined","0","j","0","0","0","0","57","0","0","0","57","0","53","57","53","0","53","3","57","0","57","Thu Feb 18 13:48:10 2021","The main experiment item","yes","Lexical_Decision_Task.osexp","C:/Users/swill/Documents/University/Course/Year 2/Semester 2/Research Methods 2021","no","Andale Mono","no","18","no","white","no","yes","576","legacy","53","53","3","C:/Users/swill/Documents/University/Course/Year 2/Semester 2/Research Methods 2021/subject-5214321.csv","legacy","Lentiform Loewenfeld","3.3.7","yes","yes","600bd7cfb6416f0113b04181","602110864497cf011d9c0822","0","f","NA","space","space","space","space","f","622","NA","3645","19294","14666","13226","622","2","legacy","1024","2","48000","-16","task","5214321","odd","NA","50498","56150","52504","180809","7898","41863","27197","181316","160313","180806","181316","180646","56150","181940","48625","180145","7889","175240","Lexical Decision Task","54","49616","58","yes","1024"
"3.372543801","9.24","8","coat","word","93.22033898305085","93.22033898305085","851.8983050847457","851.8983050847457","black","no","legacy","legacy","legacy","0","uniform","1","undefined","undefined","undefined","1","j","0","0","0","0","58","0","0","0","58","0","54","58","54","0","54","3","58","0","58","Thu Feb 18 13:48:10 2021","The main experiment item","yes","Lexical_Decision_Task.osexp","C:/Users/swill/Documents/University/Course/Year 2/Semester 2/Research Methods 2021","no","Andale Mono","no","18","no","white","no","yes","576","legacy","54","54","3","C:/Users/swill/Documents/University/Course/Year 2/Semester 2/Research Methods 2021/subject-5214321.csv","legacy","Lentiform Loewenfeld","3.3.7","yes","yes","600bd7cfb6416f0113b04181","602110864497cf011d9c0822","0","j","NA","space","space","space","space","j","646","NA","3645","19294","14666","13226","646","2","legacy","1024","2","48000","-16","task","5214321","odd","NA","50498","56150","52504","183596","7898","41863","27197","184099","160313","183592","184099","183448","56150","184746","48625","180145","7889","181948","Lexical Decision Task","55","50262","59","yes","1024"
"3.257359335","8","6","brew","word","93.33333333333333","93.33333333333333","847.5166666666667","847.5166666666667","black","no","legacy","legacy","legacy","0","uniform","1","undefined","undefined","undefined","1","j","0","0","0","0","59","0","0","0","59","0","55","59","55","0","55","3","59","0","59","Thu Feb 18 13:48:10 2021","The main experiment item","yes","Lexical_Decision_Task.osexp","C:/Users/swill/Documents/University/Course/Year 2/Semester 2/Research Methods 2021","no","Andale Mono","no","18","no","white","no","yes","576","legacy","55","55","3","C:/Users/swill/Documents/University/Course/Year 2/Semester 2/Research Methods 2021/subject-5214321.csv","legacy","Lentiform Loewenfeld","3.3.7","yes","yes","600bd7cfb6416f0113b04181","602110864497cf011d9c0822","0","j","NA","space","space","space","space","j","589","NA","3645","19294","14666","13226","589","2","legacy","1024","2","48000","-16","task","5214321","odd","NA","50498","56150","52504","185409","7898","41863","27197","185916","160313","185406","185917","185254","56150","186507","48625","184754","7889","181948","Lexical Decision Task","56","50851","60","yes","1024"
"3.216517684","10.87","3","film","word","93.44262295081967","93.44262295081967","842.344262295082","842.344262295082","black","no","legacy","legacy","legacy","0","uniform","1","undefined","undefined","undefined","1","j","0","0","0","0","60","0","0","0","60","0","56","60","56","0","56","3","60","0","60","Thu Feb 18 13:48:10 2021","The main experiment item","yes","Lexical_Decision_Task.osexp","C:/Users/swill/Documents/University/Course/Year 2/Semester 2/Research Methods 2021","no","Andale Mono","no","18","no","white","no","yes","576","legacy","56","56","3","C:/Users/swill/Documents/University/Course/Year 2/Semester 2/Research Methods 2021/subject-5214321.csv","legacy","Lentiform Loewenfeld","3.3.7","yes","yes","600bd7cfb6416f0113b04181","602110864497cf011d9c0822","0","j","NA","space","space","space","space","j","532","NA","3645","19294","14666","13226","532","2","legacy","1024","2","48000","-16","task","5214321","odd","NA","50498","56150","52504","187176","7898","41863","27197","187683","160313","187173","187685","187016","56150","188219","48625","186516","7889","181948","Lexical Decision Task","57","51383","61","yes","1024"
"3.119255889","6.63","2","itch","word","93.54838709677419","93.54838709677419","838.3870967741935","838.3870967741935","black","no","legacy","legacy","legacy","0","uniform","1","undefined","undefined","undefined","1","j","0","0","0","0","61","0","0","0","61","0","57","61","57","0","57","3","61","0","61","Thu Feb 18 13:48:10 2021","The main experiment item","yes","Lexical_Decision_Task.osexp","C:/Users/swill/Documents/University/Course/Year 2/Semester 2/Research Methods 2021","no","Andale Mono","no","18","no","white","no","yes","576","legacy","57","57","3","C:/Users/swill/Documents/University/Course/Year 2/Semester 2/Research Methods 2021/subject-5214321.csv","legacy","Lentiform Loewenfeld","3.3.7","yes","yes","600bd7cfb6416f0113b04181","602110864497cf011d9c0822","0","j","NA","space","space","space","space","j","597","NA","3645","19294","14666","13226","597","2","legacy","1024","2","48000","-16","task","5214321","odd","NA","50498","56150","52504","188867","7898","41863","27197","189371","160313","188864","189371","188727","56150","189970","48625","188227","7889","181948","Lexical Decision Task","58","51980","62","yes","1024"
"2.838639236","0","4","furg","non-word","93.65079365079364","93.65079365079364","844.3015873015873","844.3015873015873","black","no","legacy","legacy","legacy","0","uniform","1","undefined","undefined","undefined","1","f","0","0","0","0","62","0","0","0","62","0","58","62","58","0","58","3","62","0","62","Thu Feb 18 13:48:10 2021","The main experiment item","yes","Lexical_Decision_Task.osexp","C:/Users/swill/Documents/University/Course/Year 2/Semester 2/Research Methods 2021","no","Andale Mono","no","18","no","white","no","yes","576","legacy","58","58","3","C:/Users/swill/Documents/University/Course/Year 2/Semester 2/Research Methods 2021/subject-5214321.csv","legacy","Lentiform Loewenfeld","3.3.7","yes","yes","600bd7cfb6416f0113b04181","602110864497cf011d9c0822","0","f","NA","space","space","space","space","f","1211","NA","3645","19294","14666","13226","1211","2","legacy","1024","2","48000","-16","task","5214321","odd","NA","50498","56150","52504","190645","7898","41863","27197","191151","160313","190641","191151","190477","56150","192364","48625","189977","7889","181948","Lexical Decision Task","59","53191","63","yes","1024"
"3.20996159","0","4","clee","non-word","93.75","93.75","845.453125","845.453125","black","no","legacy","legacy","legacy","0","uniform","1","undefined","undefined","undefined","1","f","0","0","0","0","63","0","0","0","63","0","59","63","59","0","59","3","63","0","63","Thu Feb 18 13:48:10 2021","The main experiment item","yes","Lexical_Decision_Task.osexp","C:/Users/swill/Documents/University/Course/Year 2/Semester 2/Research Methods 2021","no","Andale Mono","no","18","no","white","no","yes","576","legacy","59","59","3","C:/Users/swill/Documents/University/Course/Year 2/Semester 2/Research Methods 2021/subject-5214321.csv","legacy","Lentiform Loewenfeld","3.3.7","yes","yes","600bd7cfb6416f0113b04181","602110864497cf011d9c0822","0","f","NA","space","space","space","space","f","918","NA","3645","19294","14666","13226","918","2","legacy","1024","2","48000","-16","task","5214321","odd","NA","50498","56150","52504","193013","7898","41863","27197","193520","160313","193010","193521","192874","56150","194441","48625","192374","7889","181948","Lexical Decision Task","60","54109","64","yes","1024"
"2.937852093","0","7","bamp","non-word","93.84615384615384","93.84615384615384","848.6461538461539","848.6461538461539","black","no","legacy","legacy","legacy","0","uniform","1","undefined","undefined","undefined","1","f","0","0","0","0","64","0","0","0","64","0","60","64","60","0","60","3","64","0","64","Thu Feb 18 13:48:10 2021","The main experiment item","yes","Lexical_Decision_Task.osexp","C:/Users/swill/Documents/University/Course/Year 2/Semester 2/Research Methods 2021","no","Andale Mono","no","18","no","white","no","yes","576","legacy","60","60","3","C:/Users/swill/Documents/University/Course/Year 2/Semester 2/Research Methods 2021/subject-5214321.csv","legacy","Lentiform Loewenfeld","3.3.7","yes","yes","600bd7cfb6416f0113b04181","602110864497cf011d9c0822","0","f","NA","space","space","space","space","f","1053","NA","3645","19294","14666","13226","1053","2","legacy","1024","2","48000","-16","task","5214321","odd","NA","50498","56150","52504","195088","7898","41863","27197","195595","160313","195084","195595","194950","56150","196650","48625","194450","7889","181948","Lexical Decision Task","61","55162","65","yes","1024"
"3.105055783","0","2","norp","non-word","93.93939393939394","93.93939393939394","847.1212121212121","847.1212121212121","black","no","legacy","legacy","legacy","0","uniform","1","undefined","undefined","undefined","1","f","0","0","0","0","65","0","0","0","65","0","61","65","61","0","61","3","65","0","65","Thu Feb 18 13:48:10 2021","The main experiment item","yes","Lexical_Decision_Task.osexp","C:/Users/swill/Documents/University/Course/Year 2/Semester 2/Research Methods 2021","no","Andale Mono","no","18","no","white","no","yes","576","legacy","61","61","3","C:/Users/swill/Documents/University/Course/Year 2/Semester 2/Research Methods 2021/subject-5214321.csv","legacy","Lentiform Loewenfeld","3.3.7","yes","yes","600bd7cfb6416f0113b04181","602110864497cf011d9c0822","0","f","NA","space","space","space","space","f","748","NA","3645","19294","14666","13226","748","2","legacy","1024","2","48000","-16","task","5214321","odd","NA","50498","56150","52504","197300","7898","41863","27197","197808","160313","197296","197808","197159","56150","198558","48625","196659","7889","181948","Lexical Decision Task","62","55910","66","yes","1024"
"2.706148589","0","4","hube","non-word","94.02985074626865","94.02985074626865","849.8507462686567","849.8507462686567","black","no","legacy","legacy","legacy","0","uniform","1","undefined","undefined","undefined","1","f","0","0","0","0","66","0","0","0","66","0","62","66","62","0","62","3","66","0","66","Thu Feb 18 13:48:10 2021","The main experiment item","yes","Lexical_Decision_Task.osexp","C:/Users/swill/Documents/University/Course/Year 2/Semester 2/Research Methods 2021","no","Andale Mono","no","18","no","white","no","yes","576","legacy","62","62","3","C:/Users/swill/Documents/University/Course/Year 2/Semester 2/Research Methods 2021/subject-5214321.csv","legacy","Lentiform Loewenfeld","3.3.7","yes","yes","600bd7cfb6416f0113b04181","602110864497cf011d9c0822","0","f","NA","space","space","space","space","f","1030","NA","3645","19294","14666","13226","1030","2","legacy","1024","2","48000","-16","task","5214321","odd","NA","50498","56150","52504","199212","7898","41863","27197","199719","160313","199209","199720","199066","56150","200751","48625","198566","7889","181948","Lexical Decision Task","63","56940","67","yes","1024"
"2.953276337","6.32","4","thaw","word","94.11764705882354","94.11764705882354","848.1911764705883","848.1911764705883","black","no","legacy","legacy","legacy","0","uniform","1","undefined","undefined","undefined","1","j","0","0","0","0","67","0","0","0","67","0","63","67","63","0","63","3","67","0","67","Thu Feb 18 13:48:10 2021","The main experiment item","yes","Lexical_Decision_Task.osexp","C:/Users/swill/Documents/University/Course/Year 2/Semester 2/Research Methods 2021","no","Andale Mono","no","18","no","white","no","yes","576","legacy","63","63","3","C:/Users/swill/Documents/University/Course/Year 2/Semester 2/Research Methods 2021/subject-5214321.csv","legacy","Lentiform Loewenfeld","3.3.7","yes","yes","600bd7cfb6416f0113b04181","602110864497cf011d9c0822","0","j","NA","space","space","space","space","j","737","NA","3645","19294","14666","13226","737","2","legacy","1024","2","48000","-16","task","5214321","odd","NA","50498","56150","52504","201419","7898","41863","27197","201926","160313","201416","201926","201260","56150","202665","48625","200759","7889","181948","Lexical Decision Task","64","57677","68","yes","1024"
"2.814027728","8.2","4","foam","word","94.20289855072464","94.20289855072464","843.9420289855072","843.9420289855072","black","no","legacy","legacy","legacy","0","uniform","1","undefined","undefined","undefined","1","j","0","0","0","0","68","0","0","0","68","0","64","68","64","0","64","3","68","0","68","Thu Feb 18 13:48:10 2021","The main experiment item","yes","Lexical_Decision_Task.osexp","C:/Users/swill/Documents/University/Course/Year 2/Semester 2/Research Methods 2021","no","Andale Mono","no","18","no","white","no","yes","576","legacy","64","64","3","C:/Users/swill/Documents/University/Course/Year 2/Semester 2/Research Methods 2021/subject-5214321.csv","legacy","Lentiform Loewenfeld","3.3.7","yes","yes","600bd7cfb6416f0113b04181","602110864497cf011d9c0822","0","j","NA","space","space","space","space","j","555","NA","3645","19294","14666","13226","555","2","legacy","1024","2","48000","-16","task","5214321","odd","NA","50498","56150","52504","203318","7898","41863","27197","203826","160313","203314","203827","203173","56150","204383","48625","202673","7889","181948","Lexical Decision Task","65","58232","69","yes","1024"
"3.031812271","6.52","3","gulp","word","94.28571428571429","94.28571428571429","841.7714285714286","841.7714285714286","black","no","legacy","legacy","legacy","0","uniform","1","undefined","undefined","undefined","1","j","0","0","0","0","69","0","0","0","69","0","65","69","65","0","65","3","69","0","69","Thu Feb 18 13:48:10 2021","The main experiment item","yes","Lexical_Decision_Task.osexp","C:/Users/swill/Documents/University/Course/Year 2/Semester 2/Research Methods 2021","no","Andale Mono","no","18","no","white","no","yes","576","legacy","65","65","3","C:/Users/swill/Documents/University/Course/Year 2/Semester 2/Research Methods 2021/subject-5214321.csv","legacy","Lentiform Loewenfeld","3.3.7","yes","yes","600bd7cfb6416f0113b04181","602110864497cf011d9c0822","0","j","NA","space","space","space","space","j","692","NA","3645","19294","14666","13226","692","2","legacy","1024","2","48000","-16","task","5214321","odd","NA","50498","56150","52504","205064","7898","41863","27197","205571","160313","205061","205572","204891","56150","206266","48625","204390","7889","181948","Lexical Decision Task","66","58924","70","yes","1024"
"2.813801082","5.47","7","nook","word","94.36619718309859","94.36619718309859","838.6056338028169","838.6056338028169","black","no","legacy","legacy","legacy","0","uniform","1","undefined","undefined","undefined","1","j","0","0","0","0","70","0","0","0","70","0","66","70","66","0","66","3","70","0","70","Thu Feb 18 13:48:10 2021","The main experiment item","yes","Lexical_Decision_Task.osexp","C:/Users/swill/Documents/University/Course/Year 2/Semester 2/Research Methods 2021","no","Andale Mono","no","18","no","white","no","yes","576","legacy","66","66","3","C:/Users/swill/Documents/University/Course/Year 2/Semester 2/Research Methods 2021/subject-5214321.csv","legacy","Lentiform Loewenfeld","3.3.7","yes","yes","600bd7cfb6416f0113b04181","602110864497cf011d9c0822","0","j","NA","space","space","space","space","j","617","NA","3645","19294","14666","13226","617","2","legacy","1024","2","48000","-16","task","5214321","odd","NA","50498","56150","52504","206950","7898","41863","27197","207458","160313","206947","207458","206773","56150","208076","48625","206273","7889","181948","Lexical Decision Task","67","59541","71","yes","1024"
"3.282244367","0","6","fute","non-word","94.44444444444444","94.44444444444444","845.1805555555555","845.1805555555555","black","no","legacy","legacy","legacy","0","uniform","1","undefined","undefined","undefined","1","f","0","0","0","0","71","0","0","0","71","0","67","71","67","0","67","3","71","0","71","Thu Feb 18 13:48:10 2021","The main experiment item","yes","Lexical_Decision_Task.osexp","C:/Users/swill/Documents/University/Course/Year 2/Semester 2/Research Methods 2021","no","Andale Mono","no","18","no","white","no","yes","576","legacy","67","67","3","C:/Users/swill/Documents/University/Course/Year 2/Semester 2/Research Methods 2021/subject-5214321.csv","legacy","Lentiform Loewenfeld","3.3.7","yes","yes","600bd7cfb6416f0113b04181","602110864497cf011d9c0822","0","f","NA","space","space","space","space","f","1312","NA","3645","19294","14666","13226","1312","2","legacy","1024","2","48000","-16","task","5214321","odd","NA","50498","56150","52504","208741","7898","41863","27197","209247","160313","208738","209248","208584","56150","210562","48625","208084","7889","181948","Lexical Decision Task","68","60853","72","yes","1024"
"2.920123326","7.43","4","duel","word","94.52054794520548","94.52054794520548","842.4657534246576","842.4657534246576","black","no","legacy","legacy","legacy","0","uniform","1","undefined","undefined","undefined","1","j","0","0","0","0","72","0","0","0","72","0","68","72","68","0","68","3","72","0","72","Thu Feb 18 13:48:10 2021","The main experiment item","yes","Lexical_Decision_Task.osexp","C:/Users/swill/Documents/University/Course/Year 2/Semester 2/Research Methods 2021","no","Andale Mono","no","18","no","white","no","yes","576","legacy","68","68","3","C:/Users/swill/Documents/University/Course/Year 2/Semester 2/Research Methods 2021/subject-5214321.csv","legacy","Lentiform Loewenfeld","3.3.7","yes","yes","600bd7cfb6416f0113b04181","602110864497cf011d9c0822","0","j","NA","space","space","space","space","j","647","NA","3645","19294","14666","13226","647","2","legacy","1024","2","48000","-16","task","5214321","odd","NA","50498","56150","52504","211213","7898","41863","27197","211721","160313","211209","211721","211071","56150","212369","48625","210571","7889","181948","Lexical Decision Task","69","61500","73","yes","1024"
"3.311895072","0","9","gung","non-word","94.5945945945946","94.5945945945946","853.5540540540541","853.5540540540541","black","no","legacy","legacy","legacy","0","uniform","1","undefined","undefined","undefined","1","f","0","0","0","0","73","0","0","0","73","0","69","73","69","0","69","3","73","0","73","Thu Feb 18 13:48:10 2021","The main experiment item","yes","Lexical_Decision_Task.osexp","C:/Users/swill/Documents/University/Course/Year 2/Semester 2/Research Methods 2021","no","Andale Mono","no","18","no","white","no","yes","576","legacy","69","69","3","C:/Users/swill/Documents/University/Course/Year 2/Semester 2/Research Methods 2021/subject-5214321.csv","legacy","Lentiform Loewenfeld","3.3.7","yes","yes","600bd7cfb6416f0113b04181","602110864497cf011d9c0822","0","f","NA","space","space","space","space","f","1663","NA","3645","19294","14666","13226","1663","2","legacy","1024","2","48000","-16","task","5214321","odd","NA","50498","56150","52504","213068","7898","41863","27197","213575","160313","213065","213576","212878","56150","215241","48625","212377","7889","181948","Lexical Decision Task","70","63163","74","yes","1024"
"3.037294994","8.64","7","roof","word","94.66666666666667","94.66666666666667","850.16","850.16","black","no","legacy","legacy","legacy","0","uniform","1","undefined","undefined","undefined","1","j","0","0","0","0","74","0","0","0","74","0","70","74","70","0","70","3","74","0","74","Thu Feb 18 13:48:10 2021","The main experiment item","yes","Lexical_Decision_Task.osexp","C:/Users/swill/Documents/University/Course/Year 2/Semester 2/Research Methods 2021","no","Andale Mono","no","18","no","white","no","yes","576","legacy","70","70","3","C:/Users/swill/Documents/University/Course/Year 2/Semester 2/Research Methods 2021/subject-5214321.csv","legacy","Lentiform Loewenfeld","3.3.7","yes","yes","600bd7cfb6416f0113b04181","602110864497cf011d9c0822","0","j","NA","space","space","space","space","j","599","NA","3645","19294","14666","13226","599","2","legacy","1024","2","48000","-16","task","5214321","odd","NA","50498","56150","52504","215890","7898","41863","27197","216393","160313","215887","216394","215749","56150","216995","48625","215249","7889","181948","Lexical Decision Task","71","63762","75","yes","1024"
"3.120135028","0","3","vals","non-word","94.73684210526316","94.73684210526316","847.6052631578947","847.6052631578947","black","no","legacy","legacy","legacy","0","uniform","1","undefined","undefined","undefined","1","f","0","0","0","0","75","0","0","0","75","0","71","75","71","0","71","3","75","0","75","Thu Feb 18 13:48:10 2021","The main experiment item","yes","Lexical_Decision_Task.osexp","C:/Users/swill/Documents/University/Course/Year 2/Semester 2/Research Methods 2021","no","Andale Mono","no","18","no","white","no","yes","576","legacy","71","71","3","C:/Users/swill/Documents/University/Course/Year 2/Semester 2/Research Methods 2021/subject-5214321.csv","legacy","Lentiform Loewenfeld","3.3.7","yes","yes","600bd7cfb6416f0113b04181","602110864497cf011d9c0822","0","f","NA","space","space","space","space","f","656","NA","3645","19294","14666","13226","656","2","legacy","1024","2","48000","-16","task","5214321","odd","NA","50498","56150","52504","217657","7898","41863","27197","218166","160313","217653","218167","217505","56150","218825","48625","217004","7889","181948","Lexical Decision Task","72","64418","76","yes","1024"
"3.474361976","5.24","6","veer","word","93.50649350649351","93.50649350649351","847.7922077922078","847.7922077922078","black","no","legacy","legacy","legacy","0","uniform","0","undefined","undefined","undefined","0","j","0","0","0","0","76","0","0","0","76","0","72","76","72","0","72","3","76","0","76","Thu Feb 18 13:48:10 2021","The main experiment item","yes","Lexical_Decision_Task.osexp","C:/Users/swill/Documents/University/Course/Year 2/Semester 2/Research Methods 2021","no","Andale Mono","no","18","no","white","no","yes","576","legacy","72","72","3","C:/Users/swill/Documents/University/Course/Year 2/Semester 2/Research Methods 2021/subject-5214321.csv","legacy","Lentiform Loewenfeld","3.3.7","yes","yes","600bd7cfb6416f0113b04181","602110864497cf011d9c0822","0","f","NA","space","space","space","space","f","862","NA","3645","19294","14666","13226","862","2","legacy","1024","2","48000","-16","task","5214321","odd","NA","50498","56150","52504","219469","7898","41863","27197","219975","160313","219466","219975","219335","56150","220838","48625","218834","7889","181948","Lexical Decision Task","72","65280","77","yes","1024"
"3.248054965","7.86","5","glow","word","93.58974358974359","93.58974358974359","846.1410256410256","846.1410256410256","black","no","legacy","legacy","legacy","0","uniform","1","undefined","undefined","undefined","1","j","0","0","0","0","77","0","0","0","77","0","73","77","73","0","73","3","77","0","77","Thu Feb 18 13:48:10 2021","The main experiment item","yes","Lexical_Decision_Task.osexp","C:/Users/swill/Documents/University/Course/Year 2/Semester 2/Research Methods 2021","no","Andale Mono","no","18","no","white","no","yes","576","legacy","73","73","3","C:/Users/swill/Documents/University/Course/Year 2/Semester 2/Research Methods 2021/subject-5214321.csv","legacy","Lentiform Loewenfeld","3.3.7","yes","yes","600bd7cfb6416f0113b04181","602110864497cf011d9c0822","0","j","NA","space","space","space","space","j","719","NA","3645","19294","14666","13226","719","2","legacy","1024","2","48000","-16","task","5214321","odd","NA","50498","56150","52504","222521","7898","41863","27197","223027","160313","222517","223028","222346","56150","223749","48625","218834","7889","220846","Lexical Decision Task","73","65999","78","yes","1024"
"2.703007489","8.37","3","pulp","word","93.67088607594937","93.67088607594937","842.4683544303797","842.4683544303797","black","no","legacy","legacy","legacy","0","uniform","1","undefined","undefined","undefined","1","j","0","0","0","0","78","0","0","0","78","0","74","78","74","0","74","3","78","0","78","Thu Feb 18 13:48:10 2021","The main experiment item","yes","Lexical_Decision_Task.osexp","C:/Users/swill/Documents/University/Course/Year 2/Semester 2/Research Methods 2021","no","Andale Mono","no","18","no","white","no","yes","576","legacy","74","74","3","C:/Users/swill/Documents/University/Course/Year 2/Semester 2/Research Methods 2021/subject-5214321.csv","legacy","Lentiform Loewenfeld","3.3.7","yes","yes","600bd7cfb6416f0113b04181","602110864497cf011d9c0822","0","j","NA","space","space","space","space","j","556","NA","3645","19294","14666","13226","556","2","legacy","1024","2","48000","-16","task","5214321","odd","NA","50498","56150","52504","224561","7898","41863","27197","225069","160313","224558","225069","224257","56150","225627","48625","223757","7889","220846","Lexical Decision Task","74","66555","79","yes","1024"
"2.981215883","10.66","5","hair","word","93.75","93.75","837.8125","837.8125","black","no","legacy","legacy","legacy","0","uniform","1","undefined","undefined","undefined","1","j","0","0","0","0","79","0","0","0","79","0","75","79","75","0","75","3","79","0","79","Thu Feb 18 13:48:10 2021","The main experiment item","yes","Lexical_Decision_Task.osexp","C:/Users/swill/Documents/University/Course/Year 2/Semester 2/Research Methods 2021","no","Andale Mono","no","18","no","white","no","yes","576","legacy","75","75","3","C:/Users/swill/Documents/University/Course/Year 2/Semester 2/Research Methods 2021/subject-5214321.csv","legacy","Lentiform Loewenfeld","3.3.7","yes","yes","600bd7cfb6416f0113b04181","602110864497cf011d9c0822","0","j","NA","space","space","space","space","j","470","NA","3645","19294","14666","13226","470","2","legacy","1024","2","48000","-16","task","5214321","odd","NA","50498","56150","52504","226325","7898","41863","27197","226832","160313","226321","226832","226135","56150","227303","48625","225635","7889","220846","Lexical Decision Task","75","67025","80","yes","1024"
"2.755364069","7.72","2","hoax","word","93.82716049382717","93.82716049382717","836.4691358024692","836.4691358024692","black","no","legacy","legacy","legacy","0","uniform","1","undefined","undefined","undefined","1","j","0","0","0","0","80","0","0","0","80","0","76","80","76","0","76","3","80","0","80","Thu Feb 18 13:48:10 2021","The main experiment item","yes","Lexical_Decision_Task.osexp","C:/Users/swill/Documents/University/Course/Year 2/Semester 2/Research Methods 2021","no","Andale Mono","no","18","no","white","no","yes","576","legacy","76","76","3","C:/Users/swill/Documents/University/Course/Year 2/Semester 2/Research Methods 2021/subject-5214321.csv","legacy","Lentiform Loewenfeld","3.3.7","yes","yes","600bd7cfb6416f0113b04181","602110864497cf011d9c0822","0","j","NA","space","space","space","space","j","729","NA","3645","19294","14666","13226","729","2","legacy","1024","2","48000","-16","task","5214321","odd","NA","50498","56150","52504","227944","7898","41863","27197","228448","160313","227941","228448","227812","56150","229179","48625","227312","7889","220846","Lexical Decision Task","76","67754","81","yes","1024"
"2.784379519","0","2","snaf","non-word","93.90243902439025","93.90243902439025","837.3414634146342","837.3414634146342","black","no","legacy","legacy","legacy","0","uniform","1","undefined","undefined","undefined","1","f","0","0","0","0","81","0","0","0","81","0","77","81","77","0","77","3","81","0","81","Thu Feb 18 13:48:10 2021","The main experiment item","yes","Lexical_Decision_Task.osexp","C:/Users/swill/Documents/University/Course/Year 2/Semester 2/Research Methods 2021","no","Andale Mono","no","18","no","white","no","yes","576","legacy","77","77","3","C:/Users/swill/Documents/University/Course/Year 2/Semester 2/Research Methods 2021/subject-5214321.csv","legacy","Lentiform Loewenfeld","3.3.7","yes","yes","600bd7cfb6416f0113b04181","602110864497cf011d9c0822","0","f","NA","space","space","space","space","f","908","NA","3645","19294","14666","13226","908","2","legacy","1024","2","48000","-16","task","5214321","odd","NA","50498","56150","52504","229923","7898","41863","27197","230430","160313","229920","230431","229689","56150","231341","48625","229189","7889","220846","Lexical Decision Task","77","68662","82","yes","1024"
"2.868644438","10.52","4","town","word","93.97590361445783","93.97590361445783","839.156626506024","839.156626506024","black","no","legacy","legacy","legacy","0","uniform","1","undefined","undefined","undefined","1","j","0","0","0","0","82","0","0","0","82","0","78","82","78","0","78","3","82","0","82","Thu Feb 18 13:48:10 2021","The main experiment item","yes","Lexical_Decision_Task.osexp","C:/Users/swill/Documents/University/Course/Year 2/Semester 2/Research Methods 2021","no","Andale Mono","no","18","no","white","no","yes","576","legacy","78","78","3","C:/Users/swill/Documents/University/Course/Year 2/Semester 2/Research Methods 2021/subject-5214321.csv","legacy","Lentiform Loewenfeld","3.3.7","yes","yes","600bd7cfb6416f0113b04181","602110864497cf011d9c0822","0","j","NA","space","space","space","space","j","988","NA","3645","19294","14666","13226","988","2","legacy","1024","2","48000","-16","task","5214321","odd","NA","50498","56150","52504","231981","7898","41863","27197","232488","160313","231977","232489","231848","56150","233479","48625","231348","7889","220846","Lexical Decision Task","78","69650","83","yes","1024"
"2.839898939","8.99","6","soap","word","94.04761904761905","94.04761904761905","837.6785714285714","837.6785714285714","black","no","legacy","legacy","legacy","0","uniform","1","undefined","undefined","undefined","1","j","0","0","0","0","83","0","0","0","83","0","79","83","79","0","79","3","83","0","83","Thu Feb 18 13:48:10 2021","The main experiment item","yes","Lexical_Decision_Task.osexp","C:/Users/swill/Documents/University/Course/Year 2/Semester 2/Research Methods 2021","no","Andale Mono","no","18","no","white","no","yes","576","legacy","79","79","3","C:/Users/swill/Documents/University/Course/Year 2/Semester 2/Research Methods 2021/subject-5214321.csv","legacy","Lentiform Loewenfeld","3.3.7","yes","yes","600bd7cfb6416f0113b04181","602110864497cf011d9c0822","0","j","NA","space","space","space","space","j","715","NA","3645","19294","14666","13226","715","2","legacy","1024","2","48000","-16","task","5214321","odd","NA","50498","56150","52504","234145","7898","41863","27197","234650","160313","234141","234651","233987","56150","235368","48625","233487","7889","220846","Lexical Decision Task","79","70365","84","yes","1024"
"2.576725172","0","8","gowl","non-word","94.11764705882354","94.11764705882354","839.2470588235294","839.2470588235294","black","no","legacy","legacy","legacy","0","uniform","1","undefined","undefined","undefined","1","f","0","0","0","0","84","0","0","0","84","0","80","84","80","0","80","3","84","0","84","Thu Feb 18 13:48:10 2021","The main experiment item","yes","Lexical_Decision_Task.osexp","C:/Users/swill/Documents/University/Course/Year 2/Semester 2/Research Methods 2021","no","Andale Mono","no","18","no","white","no","yes","576","legacy","80","80","3","C:/Users/swill/Documents/University/Course/Year 2/Semester 2/Research Methods 2021/subject-5214321.csv","legacy","Lentiform Loewenfeld","3.3.7","yes","yes","600bd7cfb6416f0113b04181","602110864497cf011d9c0822","0","f","NA","space","space","space","space","f","971","NA","3645","19294","14666","13226","971","2","legacy","1024","2","48000","-16","task","5214321","odd","NA","50498","56150","52504","236067","7898","41863","27197","236574","160313","236064","236574","235875","56150","237547","48625","235375","7889","220846","Lexical Decision Task","80","71336","85","yes","1024"
"2.843025032","0","9","pusk","non-word","94.18604651162791","94.18604651162791","839.0581395348837","839.0581395348837","black","no","legacy","legacy","legacy","0","uniform","1","undefined","undefined","undefined","1","f","0","0","0","0","85","0","0","0","85","0","81","85","81","0","81","3","85","0","85","Thu Feb 18 13:48:10 2021","The main experiment item","yes","Lexical_Decision_Task.osexp","C:/Users/swill/Documents/University/Course/Year 2/Semester 2/Research Methods 2021","no","Andale Mono","no","18","no","white","no","yes","576","legacy","81","81","3","C:/Users/swill/Documents/University/Course/Year 2/Semester 2/Research Methods 2021/subject-5214321.csv","legacy","Lentiform Loewenfeld","3.3.7","yes","yes","600bd7cfb6416f0113b04181","602110864497cf011d9c0822","0","f","NA","space","space","space","space","f","823","NA","3645","19294","14666","13226","823","2","legacy","1024","2","48000","-16","task","5214321","odd","NA","50498","56150","52504","238302","7898","41863","27197","238809","160313","238298","238809","238055","56150","239634","48625","237555","7889","220846","Lexical Decision Task","81","72159","86","yes","1024"
"3.274543461","7.46","7","scar","word","94.25287356321839","94.25287356321839","838.4022988505748","838.4022988505748","black","no","legacy","legacy","legacy","0","uniform","1","undefined","undefined","undefined","1","j","0","0","0","0","86","0","0","0","86","0","82","86","82","0","82","3","86","0","86","Thu Feb 18 13:48:10 2021","The main experiment item","yes","Lexical_Decision_Task.osexp","C:/Users/swill/Documents/University/Course/Year 2/Semester 2/Research Methods 2021","no","Andale Mono","no","18","no","white","no","yes","576","legacy","82","82","3","C:/Users/swill/Documents/University/Course/Year 2/Semester 2/Research Methods 2021/subject-5214321.csv","legacy","Lentiform Loewenfeld","3.3.7","yes","yes","600bd7cfb6416f0113b04181","602110864497cf011d9c0822","0","j","NA","space","space","space","space","j","782","NA","3645","19294","14666","13226","782","2","legacy","1024","2","48000","-16","task","5214321","odd","NA","50498","56150","52504","240269","7898","41863","27197","240776","160313","240266","240776","240142","56150","241560","48625","239642","7889","220846","Lexical Decision Task","82","72941","87","yes","1024"
"3.168890155","0","6","thet","non-word","94.31818181818181","94.31818181818181","836.2045454545455","836.2045454545455","black","no","legacy","legacy","legacy","0","uniform","1","undefined","undefined","undefined","1","f","0","0","0","0","87","0","0","0","87","0","83","87","83","0","83","3","87","0","87","Thu Feb 18 13:48:10 2021","The main experiment item","yes","Lexical_Decision_Task.osexp","C:/Users/swill/Documents/University/Course/Year 2/Semester 2/Research Methods 2021","no","Andale Mono","no","18","no","white","no","yes","576","legacy","83","83","3","C:/Users/swill/Documents/University/Course/Year 2/Semester 2/Research Methods 2021/subject-5214321.csv","legacy","Lentiform Loewenfeld","3.3.7","yes","yes","600bd7cfb6416f0113b04181","602110864497cf011d9c0822","0","f","NA","space","space","space","space","f","645","NA","3645","19294","14666","13226","645","2","legacy","1024","2","48000","-16","task","5214321","odd","NA","50498","56150","52504","242256","7898","41863","27197","242766","160313","242253","242766","242067","56150","243414","48625","241567","7889","220846","Lexical Decision Task","83","73586","88","yes","1024"
"3.347850856","10.51","2","rich","word","94.38202247191012","94.38202247191012","833.8651685393259","833.8651685393259","black","no","legacy","legacy","legacy","0","uniform","1","undefined","undefined","undefined","1","j","0","0","0","0","88","0","0","0","88","0","84","88","84","0","84","3","88","0","88","Thu Feb 18 13:48:10 2021","The main experiment item","yes","Lexical_Decision_Task.osexp","C:/Users/swill/Documents/University/Course/Year 2/Semester 2/Research Methods 2021","no","Andale Mono","no","18","no","white","no","yes","576","legacy","84","84","3","C:/Users/swill/Documents/University/Course/Year 2/Semester 2/Research Methods 2021/subject-5214321.csv","legacy","Lentiform Loewenfeld","3.3.7","yes","yes","600bd7cfb6416f0113b04181","602110864497cf011d9c0822","0","j","NA","space","space","space","space","j","628","NA","3645","19294","14666","13226","628","2","legacy","1024","2","48000","-16","task","5214321","odd","NA","50498","56150","52504","244065","7898","41863","27197","244571","160313","244061","244571","243922","56150","245201","48625","243422","7889","220846","Lexical Decision Task","84","74214","89","yes","1024"
"3.165936429","0","7","leps","non-word","94.44444444444444","94.44444444444444","830.7666666666667","830.7666666666667","black","no","legacy","legacy","legacy","0","uniform","1","undefined","undefined","undefined","1","f","0","0","0","0","89","0","0","0","89","0","85","89","85","0","85","3","89","0","89","Thu Feb 18 13:48:10 2021","The main experiment item","yes","Lexical_Decision_Task.osexp","C:/Users/swill/Documents/University/Course/Year 2/Semester 2/Research Methods 2021","no","Andale Mono","no","18","no","white","no","yes","576","legacy","85","85","3","C:/Users/swill/Documents/University/Course/Year 2/Semester 2/Research Methods 2021/subject-5214321.csv","legacy","Lentiform Loewenfeld","3.3.7","yes","yes","600bd7cfb6416f0113b04181","602110864497cf011d9c0822","0","f","NA","space","space","space","space","f","555","NA","3645","19294","14666","13226","555","2","legacy","1024","2","48000","-16","task","5214321","odd","NA","50498","56150","52504","245945","7898","41863","27197","246452","160313","245942","246453","245708","56150","247010","48625","245208","7889","220846","Lexical Decision Task","85","74769","90","yes","1024"
"3.299579929","0","2","flis","non-word","94.50549450549451","94.50549450549451","829.2637362637363","829.2637362637363","black","no","legacy","legacy","legacy","0","uniform","1","undefined","undefined","undefined","1","f","0","0","0","0","90","0","0","0","90","0","86","90","86","0","86","3","90","0","90","Thu Feb 18 13:48:10 2021","The main experiment item","yes","Lexical_Decision_Task.osexp","C:/Users/swill/Documents/University/Course/Year 2/Semester 2/Research Methods 2021","no","Andale Mono","no","18","no","white","no","yes","576","legacy","86","86","3","C:/Users/swill/Documents/University/Course/Year 2/Semester 2/Research Methods 2021/subject-5214321.csv","legacy","Lentiform Loewenfeld","3.3.7","yes","yes","600bd7cfb6416f0113b04181","602110864497cf011d9c0822","0","f","NA","space","space","space","space","f","694","NA","3645","19294","14666","13226","694","2","legacy","1024","2","48000","-16","task","5214321","odd","NA","50498","56150","52504","247690","7898","41863","27197","248193","160313","247687","248193","247519","56150","248889","48625","247019","7889","220846","Lexical Decision Task","86","75463","91","yes","1024"
