"Log_BG","Log_Freq_HAL","Ortho_N","Stimulus","Type","acc","accuracy","average_response_time","avg_rt","background","bidi","canvas_backend","clock_backend","color_backend","compensation","coordinates","correct","correct_Experimental_intro","correct_Introduction","correct_Practice_intro","correct_experimenter_kb","correct_response","count_End_Of_Experiment","count_End_Of_Practice","count_Experimental_Loop","count_Experimental_intro","count_Fixation","count_Introduction","count_Practice_Loop","count_Practice_intro","count_Stimulus","count_block_break_feedback","count_experimental_sequence","count_experimenter_kb","count_increment_trial_count","count_init_trial_count","count_logger","count_practice_sequence","count_right","count_task","count_wrong","datetime","description","disable_garbage_collection","experiment_file","experiment_path","font_bold","font_family","font_italic","font_size","font_underline","foreground","form_clicks","fullscreen","height","keyboard_backend","live_row","live_row_Experimental_Loop","live_row_Practice_Loop","logfile","mouse_backend","opensesame_codename","opensesame_version","osf_always_upload_data","osf_always_upload_experiment","osf_datanode_id","osf_id","repeat_cycle","response","response_End_Of_Experiment","response_Experimental_intro","response_Introduction","response_Practice_intro","response_block_break_feedback","response_experimenter_kb","response_time","response_time_End_Of_Experiment","response_time_Experimental_intro","response_time_Introduction","response_time_Practice_intro","response_time_block_break_feedback","response_time_experimenter_kb","round_decimals","sampler_backend","sound_buf_size","sound_channels","sound_freq","sound_sample_size","start","subject_nr","subject_parity","time_End_Of_Experiment","time_End_Of_Practice","time_Experimental_Loop","time_Experimental_intro","time_Fixation","time_Introduction","time_Practice_Loop","time_Practice_intro","time_Stimulus","time_block_break_feedback","time_experimental_sequence","time_experimenter_kb","time_increment_trial_count","time_init_trial_count","time_logger","time_practice_sequence","time_right","time_task","time_wrong","title","total_correct","total_response_time","total_responses","uniform_coordinates","width"
"3.20871002","7.15","8","cram","word","80","80","1718.2","1718.2","black","no","legacy","legacy","legacy","0","uniform","1","undefined","undefined","undefined","1","j","0","0","0","0","4","0","0","0","4","NA","0","4","0","0","0","3","4","0","4","Wed Feb 17 12:42:22 2021","The main experiment item","yes","Lexical_Decision_Task.osexp","/Users/Holly/Downloads","no","Andale Mono","no","18","no","white","no","yes","576","legacy","0","0","3","/Users/Holly/Downloads/subject-5208215.csv","legacy","Lentiform Loewenfeld","3.3.7","yes","yes","600bd7cfb6416f0113b04181","602110864497cf011d9c0822","0","j","NA","space","","space","NA","j","921","NA","3117","10546","1737","NA","921","2","legacy","1024","2","48000","-16","task","5208215","odd","NA","35630","40751","37633","40776","4111","22734","20996","41280","NA","40774","41280","NA","40751","42202","33608","35107","4022","26070","Lexical Decision Task","4","8591","5","yes","1024"
"2.996511672","0","7","hoil","non-word","83.33333333333333","83.33333333333333","1566.1666666666667","1566.1666666666667","black","no","legacy","legacy","legacy","0","uniform","1","undefined","undefined","undefined","1","f","0","0","0","0","5","0","0","0","5","NA","1","5","1","0","1","3","5","0","5","Wed Feb 17 12:42:22 2021","The main experiment item","yes","Lexical_Decision_Task.osexp","/Users/Holly/Downloads","no","Andale Mono","no","18","no","white","no","yes","576","legacy","1","1","3","/Users/Holly/Downloads/subject-5208215.csv","legacy","Lentiform Loewenfeld","3.3.7","yes","yes","600bd7cfb6416f0113b04181","602110864497cf011d9c0822","0","f","NA","space","","space","NA","f","806","NA","3117","10546","1737","NA","806","2","legacy","1024","2","48000","-16","task","5208215","odd","NA","35630","40751","37633","42757","4111","22734","20996","43259","NA","42753","43260","42708","40751","44067","33608","42208","4022","26070","Lexical Decision Task","5","9397","6","yes","1024"
"2.675164031","8.57","6","glue","word","85.71428571428571","85.71428571428571","1466","1466","black","no","legacy","legacy","legacy","0","uniform","1","undefined","undefined","undefined","1","j","0","0","0","0","6","0","0","0","6","NA","2","6","2","0","2","3","6","0","6","Wed Feb 17 12:42:22 2021","The main experiment item","yes","Lexical_Decision_Task.osexp","/Users/Holly/Downloads","no","Andale Mono","no","18","no","white","no","yes","576","legacy","2","2","3","/Users/Holly/Downloads/subject-5208215.csv","legacy","Lentiform Loewenfeld","3.3.7","yes","yes","600bd7cfb6416f0113b04181","602110864497cf011d9c0822","0","j","NA","space","","space","NA","j","865","NA","3117","10546","1737","NA","865","2","legacy","1024","2","48000","-16","task","5208215","odd","NA","35630","40751","37633","44615","4111","22734","20996","45117","NA","44613","45117","44571","40751","45983","33608","44071","4022","26070","Lexical Decision Task","6","10262","7","yes","1024"
"2.953276337","6.32","4","thaw","word","87.5","87.5","1395","1395","black","no","legacy","legacy","legacy","0","uniform","1","undefined","undefined","undefined","1","j","0","0","0","0","7","0","0","0","7","NA","3","7","3","0","3","3","7","0","7","Wed Feb 17 12:42:22 2021","The main experiment item","yes","Lexical_Decision_Task.osexp","/Users/Holly/Downloads","no","Andale Mono","no","18","no","white","no","yes","576","legacy","3","3","3","/Users/Holly/Downloads/subject-5208215.csv","legacy","Lentiform Loewenfeld","3.3.7","yes","yes","600bd7cfb6416f0113b04181","602110864497cf011d9c0822","0","j","NA","space","","space","NA","j","898","NA","3117","10546","1737","NA","898","2","legacy","1024","2","48000","-16","task","5208215","odd","NA","35630","40751","37633","46533","4111","22734","20996","47035","NA","46529","47035","46487","40751","47934","33608","45987","4022","26070","Lexical Decision Task","7","11160","8","yes","1024"
"3.043885998","0","9","gome","non-word","88.88888888888889","88.88888888888889","1308.7777777777778","1308.7777777777778","black","no","legacy","legacy","legacy","0","uniform","1","undefined","undefined","undefined","1","f","0","0","0","0","8","0","0","0","8","NA","4","8","4","0","4","3","8","0","8","Wed Feb 17 12:42:22 2021","The main experiment item","yes","Lexical_Decision_Task.osexp","/Users/Holly/Downloads","no","Andale Mono","no","18","no","white","no","yes","576","legacy","4","4","3","/Users/Holly/Downloads/subject-5208215.csv","legacy","Lentiform Loewenfeld","3.3.7","yes","yes","600bd7cfb6416f0113b04181","602110864497cf011d9c0822","0","f","NA","space","","space","NA","f","619","NA","3117","10546","1737","NA","619","2","legacy","1024","2","48000","-16","task","5208215","odd","NA","35630","40751","37633","48482","4111","22734","20996","48984","NA","48479","48984","48438","40751","49604","33608","47938","4022","26070","Lexical Decision Task","8","11779","9","yes","1024"
"2.664328519","0","4","plux","non-word","90","90","1277.8","1277.8","black","no","legacy","legacy","legacy","0","uniform","1","undefined","undefined","undefined","1","f","0","0","0","0","9","0","0","0","9","NA","5","9","5","0","5","3","9","0","9","Wed Feb 17 12:42:22 2021","The main experiment item","yes","Lexical_Decision_Task.osexp","/Users/Holly/Downloads","no","Andale Mono","no","18","no","white","no","yes","576","legacy","5","5","3","/Users/Holly/Downloads/subject-5208215.csv","legacy","Lentiform Loewenfeld","3.3.7","yes","yes","600bd7cfb6416f0113b04181","602110864497cf011d9c0822","0","f","NA","space","","space","NA","f","999","NA","3117","10546","1737","NA","999","2","legacy","1024","2","48000","-16","task","5208215","odd","NA","35630","40751","37633","50152","4111","22734","20996","50654","NA","50150","50654","50108","40751","51654","33608","49608","4022","26070","Lexical Decision Task","9","12778","10","yes","1024"
"3.431095062","5.74","9","perk","word","90.9090909090909","90.9090909090909","1249.6363636363637","1249.6363636363637","black","no","legacy","legacy","legacy","0","uniform","1","undefined","undefined","undefined","1","j","0","0","0","0","10","0","0","0","10","NA","6","10","6","0","6","3","10","0","10","Wed Feb 17 12:42:22 2021","The main experiment item","yes","Lexical_Decision_Task.osexp","/Users/Holly/Downloads","no","Andale Mono","no","18","no","white","no","yes","576","legacy","6","6","3","/Users/Holly/Downloads/subject-5208215.csv","legacy","Lentiform Loewenfeld","3.3.7","yes","yes","600bd7cfb6416f0113b04181","602110864497cf011d9c0822","0","j","NA","space","","space","NA","j","968","NA","3117","10546","1737","NA","968","2","legacy","1024","2","48000","-16","task","5208215","odd","NA","35630","40751","37633","52201","4111","22734","20996","52703","NA","52199","52703","52158","40751","53672","33608","51658","4022","26070","Lexical Decision Task","10","13746","11","yes","1024"
"2.972819734","0","4","scew","non-word","91.66666666666667","91.66666666666667","1222.0833333333333","1222.0833333333333","black","no","legacy","legacy","legacy","0","uniform","1","undefined","undefined","undefined","1","f","0","0","0","0","11","0","0","0","11","NA","7","11","7","0","7","3","11","0","11","Wed Feb 17 12:42:22 2021","The main experiment item","yes","Lexical_Decision_Task.osexp","/Users/Holly/Downloads","no","Andale Mono","no","18","no","white","no","yes","576","legacy","7","7","3","/Users/Holly/Downloads/subject-5208215.csv","legacy","Lentiform Loewenfeld","3.3.7","yes","yes","600bd7cfb6416f0113b04181","602110864497cf011d9c0822","0","f","NA","space","","space","NA","f","919","NA","3117","10546","1737","NA","919","2","legacy","1024","2","48000","-16","task","5208215","odd","NA","35630","40751","37633","54219","4111","22734","20996","54721","NA","54217","54721","54176","40751","55641","33608","53676","4022","26070","Lexical Decision Task","11","14665","12","yes","1024"
"2.813801082","5.47","7","nook","word","84.61538461538461","84.61538461538461","1185.6153846153845","1185.6153846153845","black","no","legacy","legacy","legacy","0","uniform","0","undefined","undefined","undefined","0","j","0","0","0","0","12","0","0","0","12","NA","8","12","8","0","8","3","12","0","12","Wed Feb 17 12:42:22 2021","The main experiment item","yes","Lexical_Decision_Task.osexp","/Users/Holly/Downloads","no","Andale Mono","no","18","no","white","no","yes","576","legacy","8","8","3","/Users/Holly/Downloads/subject-5208215.csv","legacy","Lentiform Loewenfeld","3.3.7","yes","yes","600bd7cfb6416f0113b04181","602110864497cf011d9c0822","0","f","NA","space","","space","NA","f","748","NA","3117","10546","1737","NA","748","2","legacy","1024","2","48000","-16","task","5208215","odd","NA","35630","40751","37633","56188","4111","22734","20996","56690","NA","56186","56690","56145","40751","57439","33608","55645","4022","26070","Lexical Decision Task","11","15413","13","yes","1024"
"3.397302518","7.01","2","knit","word","85.71428571428571","85.71428571428571","1141.5","1141.5","black","no","legacy","legacy","legacy","0","uniform","1","undefined","undefined","undefined","1","j","0","0","0","0","13","0","0","0","13","NA","9","13","9","0","9","3","13","0","13","Wed Feb 17 12:42:22 2021","The main experiment item","yes","Lexical_Decision_Task.osexp","/Users/Holly/Downloads","no","Andale Mono","no","18","no","white","no","yes","576","legacy","9","9","3","/Users/Holly/Downloads/subject-5208215.csv","legacy","Lentiform Loewenfeld","3.3.7","yes","yes","600bd7cfb6416f0113b04181","602110864497cf011d9c0822","0","j","NA","space","","space","NA","j","568","NA","3117","10546","1737","NA","568","2","legacy","1024","2","48000","-16","task","5208215","odd","NA","35630","40751","37633","58988","4111","22734","20996","59490","NA","58986","59490","58944","40751","60059","33608","55645","4022","57443","Lexical Decision Task","12","15981","14","yes","1024"
"2.695481676","0","7","goke","non-word","86.66666666666667","86.66666666666667","1109.7333333333333","1109.7333333333333","black","no","legacy","legacy","legacy","0","uniform","1","undefined","undefined","undefined","1","f","0","0","0","0","14","0","0","0","14","NA","10","14","10","0","10","3","14","0","14","Wed Feb 17 12:42:22 2021","The main experiment item","yes","Lexical_Decision_Task.osexp","/Users/Holly/Downloads","no","Andale Mono","no","18","no","white","no","yes","576","legacy","10","10","3","/Users/Holly/Downloads/subject-5208215.csv","legacy","Lentiform Loewenfeld","3.3.7","yes","yes","600bd7cfb6416f0113b04181","602110864497cf011d9c0822","0","f","NA","space","","space","NA","f","665","NA","3117","10546","1737","NA","665","2","legacy","1024","2","48000","-16","task","5208215","odd","NA","35630","40751","37633","60609","4111","22734","20996","61111","NA","60606","61111","60564","40751","61777","33608","60063","4022","57443","Lexical Decision Task","13","16646","15","yes","1024"
"3.039414119","0","9","meep","non-word","81.25","81.25","1091.5625","1091.5625","black","no","legacy","legacy","legacy","0","uniform","0","undefined","undefined","undefined","0","f","0","0","0","0","15","0","0","0","15","NA","11","15","11","0","11","3","15","0","15","Wed Feb 17 12:42:22 2021","The main experiment item","yes","Lexical_Decision_Task.osexp","/Users/Holly/Downloads","no","Andale Mono","no","18","no","white","no","yes","576","legacy","11","11","3","/Users/Holly/Downloads/subject-5208215.csv","legacy","Lentiform Loewenfeld","3.3.7","yes","yes","600bd7cfb6416f0113b04181","602110864497cf011d9c0822","0","j","NA","space","","space","NA","j","819","NA","3117","10546","1737","NA","819","2","legacy","1024","2","48000","-16","task","5208215","odd","NA","35630","40751","37633","62324","4111","22734","20996","62826","NA","62322","62826","62282","40751","63646","33608","61782","4022","57443","Lexical Decision Task","13","17465","16","yes","1024"
"3.372543801","9.24","8","coat","word","82.3529411764706","82.3529411764706","1071.2941176470588","1071.2941176470588","black","no","legacy","legacy","legacy","0","uniform","1","undefined","undefined","undefined","1","j","0","0","0","0","16","0","0","0","16","NA","12","16","12","0","12","3","16","0","16","Wed Feb 17 12:42:22 2021","The main experiment item","yes","Lexical_Decision_Task.osexp","/Users/Holly/Downloads","no","Andale Mono","no","18","no","white","no","yes","576","legacy","12","12","3","/Users/Holly/Downloads/subject-5208215.csv","legacy","Lentiform Loewenfeld","3.3.7","yes","yes","600bd7cfb6416f0113b04181","602110864497cf011d9c0822","0","j","NA","space","","space","NA","j","747","NA","3117","10546","1737","NA","747","2","legacy","1024","2","48000","-16","task","5208215","odd","NA","35630","40751","37633","65197","4111","22734","20996","65698","NA","65194","65699","65150","40751","66447","33608","61782","4022","63650","Lexical Decision Task","14","18212","17","yes","1024"
"2.873320602","0","4","lurg","non-word","83.33333333333333","83.33333333333333","1065","1065","black","no","legacy","legacy","legacy","0","uniform","1","undefined","undefined","undefined","1","f","0","0","0","0","17","0","0","0","17","NA","13","17","13","0","13","3","17","0","17","Wed Feb 17 12:42:22 2021","The main experiment item","yes","Lexical_Decision_Task.osexp","/Users/Holly/Downloads","no","Andale Mono","no","18","no","white","no","yes","576","legacy","13","13","3","/Users/Holly/Downloads/subject-5208215.csv","legacy","Lentiform Loewenfeld","3.3.7","yes","yes","600bd7cfb6416f0113b04181","602110864497cf011d9c0822","0","f","NA","space","","space","NA","f","958","NA","3117","10546","1737","NA","958","2","legacy","1024","2","48000","-16","task","5208215","odd","NA","35630","40751","37633","66998","4111","22734","20996","67501","NA","66995","67501","66954","40751","68460","33608","66454","4022","63650","Lexical Decision Task","15","19170","18","yes","1024"
"2.67699827","0","6","hulf","non-word","84.21052631578948","84.21052631578948","1046.2631578947369","1046.2631578947369","black","no","legacy","legacy","legacy","0","uniform","1","undefined","undefined","undefined","1","f","0","0","0","0","18","0","0","0","18","NA","14","18","14","0","14","3","18","0","18","Wed Feb 17 12:42:22 2021","The main experiment item","yes","Lexical_Decision_Task.osexp","/Users/Holly/Downloads","no","Andale Mono","no","18","no","white","no","yes","576","legacy","14","14","3","/Users/Holly/Downloads/subject-5208215.csv","legacy","Lentiform Loewenfeld","3.3.7","yes","yes","600bd7cfb6416f0113b04181","602110864497cf011d9c0822","0","f","NA","space","","space","NA","f","709","NA","3117","10546","1737","NA","709","2","legacy","1024","2","48000","-16","task","5208215","odd","NA","35630","40751","37633","69007","4111","22734","20996","69509","NA","69005","69509","68964","40751","70219","33608","68464","4022","63650","Lexical Decision Task","16","19879","19","yes","1024"
"3.068433376","8.09","2","bulb","word","85","85","1023.3","1023.3","black","no","legacy","legacy","legacy","0","uniform","1","undefined","undefined","undefined","1","j","0","0","0","0","19","0","0","0","19","NA","15","19","15","0","15","3","19","0","19","Wed Feb 17 12:42:22 2021","The main experiment item","yes","Lexical_Decision_Task.osexp","/Users/Holly/Downloads","no","Andale Mono","no","18","no","white","no","yes","576","legacy","15","15","3","/Users/Holly/Downloads/subject-5208215.csv","legacy","Lentiform Loewenfeld","3.3.7","yes","yes","600bd7cfb6416f0113b04181","602110864497cf011d9c0822","0","j","NA","space","","space","NA","j","587","NA","3117","10546","1737","NA","587","2","legacy","1024","2","48000","-16","task","5208215","odd","NA","35630","40751","37633","70766","4111","22734","20996","71268","NA","70765","71268","70723","40751","71856","33608","70223","4022","63650","Lexical Decision Task","17","20466","20","yes","1024"
"2.812467698","0","7","hafe","non-word","85.71428571428571","85.71428571428571","1018.1428571428571","1018.1428571428571","black","no","legacy","legacy","legacy","0","uniform","1","undefined","undefined","undefined","1","f","0","0","0","0","20","0","0","0","20","NA","16","20","16","0","16","3","20","0","20","Wed Feb 17 12:42:22 2021","The main experiment item","yes","Lexical_Decision_Task.osexp","/Users/Holly/Downloads","no","Andale Mono","no","18","no","white","no","yes","576","legacy","16","16","3","/Users/Holly/Downloads/subject-5208215.csv","legacy","Lentiform Loewenfeld","3.3.7","yes","yes","600bd7cfb6416f0113b04181","602110864497cf011d9c0822","0","f","NA","space","","space","NA","f","915","NA","3117","10546","1737","NA","915","2","legacy","1024","2","48000","-16","task","5208215","odd","NA","35630","40751","37633","72404","4111","22734","20996","72906","NA","72402","72906","72360","40751","73822","33608","71860","4022","63650","Lexical Decision Task","18","21381","21","yes","1024"
"2.7084209","0","8","vump","non-word","86.36363636363636","86.36363636363636","1023","1023","black","no","legacy","legacy","legacy","0","uniform","1","undefined","undefined","undefined","1","f","0","0","0","0","21","0","0","0","21","NA","17","21","17","0","17","3","21","0","21","Wed Feb 17 12:42:22 2021","The main experiment item","yes","Lexical_Decision_Task.osexp","/Users/Holly/Downloads","no","Andale Mono","no","18","no","white","no","yes","576","legacy","17","17","3","/Users/Holly/Downloads/subject-5208215.csv","legacy","Lentiform Loewenfeld","3.3.7","yes","yes","600bd7cfb6416f0113b04181","602110864497cf011d9c0822","0","f","NA","space","","space","NA","f","1125","NA","3117","10546","1737","NA","1125","2","legacy","1024","2","48000","-16","task","5208215","odd","NA","35630","40751","37633","74369","4111","22734","20996","74871","NA","74367","74871","74326","40751","75997","33608","73826","4022","63650","Lexical Decision Task","19","22506","22","yes","1024"
"3.165936429","0","7","leps","non-word","86.95652173913044","86.95652173913044","1011.695652173913","1011.695652173913","black","no","legacy","legacy","legacy","0","uniform","1","undefined","undefined","undefined","1","f","0","0","0","0","22","0","0","0","22","NA","18","22","18","0","18","3","22","0","22","Wed Feb 17 12:42:22 2021","The main experiment item","yes","Lexical_Decision_Task.osexp","/Users/Holly/Downloads","no","Andale Mono","no","18","no","white","no","yes","576","legacy","18","18","3","/Users/Holly/Downloads/subject-5208215.csv","legacy","Lentiform Loewenfeld","3.3.7","yes","yes","600bd7cfb6416f0113b04181","602110864497cf011d9c0822","0","f","NA","space","","space","NA","f","763","NA","3117","10546","1737","NA","763","2","legacy","1024","2","48000","-16","task","5208215","odd","NA","35630","40751","37633","76543","4111","22734","20996","77045","NA","76541","77045","76501","40751","77809","33608","76001","4022","63650","Lexical Decision Task","20","23269","23","yes","1024"
"3.121778632","0","9","sark","non-word","83.33333333333333","83.33333333333333","997.1666666666666","997.1666666666666","black","no","legacy","legacy","legacy","0","uniform","0","undefined","undefined","undefined","0","f","0","0","0","0","23","0","0","0","23","NA","19","23","19","0","19","3","23","0","23","Wed Feb 17 12:42:22 2021","The main experiment item","yes","Lexical_Decision_Task.osexp","/Users/Holly/Downloads","no","Andale Mono","no","18","no","white","no","yes","576","legacy","19","19","3","/Users/Holly/Downloads/subject-5208215.csv","legacy","Lentiform Loewenfeld","3.3.7","yes","yes","600bd7cfb6416f0113b04181","602110864497cf011d9c0822","0","j","NA","space","","space","NA","j","663","NA","3117","10546","1737","NA","663","2","legacy","1024","2","48000","-16","task","5208215","odd","NA","35630","40751","37633","78356","4111","22734","20996","78859","NA","78355","78859","78313","40751","79524","33608","77813","4022","63650","Lexical Decision Task","20","23932","24","yes","1024"
"2.971428938","9.86","7","spot","word","84","84","985.16","985.16","black","no","legacy","legacy","legacy","0","uniform","1","undefined","undefined","undefined","1","j","0","0","0","0","24","0","0","0","24","NA","20","24","20","0","20","3","24","0","24","Wed Feb 17 12:42:22 2021","The main experiment item","yes","Lexical_Decision_Task.osexp","/Users/Holly/Downloads","no","Andale Mono","no","18","no","white","no","yes","576","legacy","20","20","3","/Users/Holly/Downloads/subject-5208215.csv","legacy","Lentiform Loewenfeld","3.3.7","yes","yes","600bd7cfb6416f0113b04181","602110864497cf011d9c0822","0","j","NA","space","","space","NA","j","697","NA","3117","10546","1737","NA","697","2","legacy","1024","2","48000","-16","task","5208215","odd","NA","35630","40751","37633","81071","4111","22734","20996","81573","NA","81069","81573","81027","40751","82272","33608","77813","4022","79527","Lexical Decision Task","21","24629","25","yes","1024"
"2.893578687","8.69","3","surf","word","84.61538461538461","84.61538461538461","976.3076923076923","976.3076923076923","black","no","legacy","legacy","legacy","0","uniform","1","undefined","undefined","undefined","1","j","0","0","0","0","25","0","0","0","25","NA","21","25","21","0","21","3","25","0","25","Wed Feb 17 12:42:22 2021","The main experiment item","yes","Lexical_Decision_Task.osexp","/Users/Holly/Downloads","no","Andale Mono","no","18","no","white","no","yes","576","legacy","21","21","3","/Users/Holly/Downloads/subject-5208215.csv","legacy","Lentiform Loewenfeld","3.3.7","yes","yes","600bd7cfb6416f0113b04181","602110864497cf011d9c0822","0","j","NA","space","","space","NA","j","755","NA","3117","10546","1737","NA","755","2","legacy","1024","2","48000","-16","task","5208215","odd","NA","35630","40751","37633","82819","4111","22734","20996","83321","NA","82817","83321","82776","40751","84077","33608","82276","4022","79527","Lexical Decision Task","22","25384","26","yes","1024"
"3.316948329","0","1","besc","non-word","85.18518518518519","85.18518518518519","981.6666666666666","981.6666666666666","black","no","legacy","legacy","legacy","0","uniform","1","undefined","undefined","undefined","1","f","0","0","0","0","26","0","0","0","26","NA","22","26","22","0","22","3","26","0","26","Wed Feb 17 12:42:22 2021","The main experiment item","yes","Lexical_Decision_Task.osexp","/Users/Holly/Downloads","no","Andale Mono","no","18","no","white","no","yes","576","legacy","22","22","3","/Users/Holly/Downloads/subject-5208215.csv","legacy","Lentiform Loewenfeld","3.3.7","yes","yes","600bd7cfb6416f0113b04181","602110864497cf011d9c0822","0","f","NA","space","","space","NA","f","1121","NA","3117","10546","1737","NA","1121","2","legacy","1024","2","48000","-16","task","5208215","odd","NA","35630","40751","37633","84625","4111","22734","20996","85127","NA","84622","85127","84581","40751","86249","33608","84081","4022","79527","Lexical Decision Task","23","26505","27","yes","1024"
"2.86332286","6.71","2","feud","word","85.71428571428571","85.71428571428571","1021.8928571428571","1021.8928571428571","black","no","legacy","legacy","legacy","0","uniform","1","undefined","undefined","undefined","1","j","0","0","0","0","27","0","0","0","27","NA","23","27","23","0","23","3","27","0","27","Wed Feb 17 12:42:22 2021","The main experiment item","yes","Lexical_Decision_Task.osexp","/Users/Holly/Downloads","no","Andale Mono","no","18","no","white","no","yes","576","legacy","23","23","3","/Users/Holly/Downloads/subject-5208215.csv","legacy","Lentiform Loewenfeld","3.3.7","yes","yes","600bd7cfb6416f0113b04181","602110864497cf011d9c0822","0","j","NA","space","","space","NA","j","2108","NA","3117","10546","1737","NA","2108","2","legacy","1024","2","48000","-16","task","5208215","odd","NA","35630","40751","37633","86797","4111","22734","20996","87300","NA","86795","87300","86754","40751","89409","33608","86254","4022","79527","Lexical Decision Task","24","28613","28","yes","1024"
"2.980911938","7.15","7","hoop","word","86.20689655172414","86.20689655172414","1033.3793103448277","1033.3793103448277","black","no","legacy","legacy","legacy","0","uniform","1","undefined","undefined","undefined","1","j","0","0","0","0","28","0","0","0","28","NA","24","28","24","0","24","3","28","0","28","Wed Feb 17 12:42:22 2021","The main experiment item","yes","Lexical_Decision_Task.osexp","/Users/Holly/Downloads","no","Andale Mono","no","18","no","white","no","yes","576","legacy","24","24","3","/Users/Holly/Downloads/subject-5208215.csv","legacy","Lentiform Loewenfeld","3.3.7","yes","yes","600bd7cfb6416f0113b04181","602110864497cf011d9c0822","0","j","NA","space","","space","NA","j","1355","NA","3117","10546","1737","NA","1355","2","legacy","1024","2","48000","-16","task","5208215","odd","NA","35630","40751","37633","89957","4111","22734","20996","90459","NA","89955","90459","89913","40751","91815","33608","89413","4022","79527","Lexical Decision Task","25","29968","29","yes","1024"
"2.979548375","8.71","4","soup","word","86.66666666666667","86.66666666666667","1027.8666666666666","1027.8666666666666","black","no","legacy","legacy","legacy","0","uniform","1","undefined","undefined","undefined","1","j","0","0","0","0","29","0","0","0","29","NA","25","29","25","0","25","3","29","0","29","Wed Feb 17 12:42:22 2021","The main experiment item","yes","Lexical_Decision_Task.osexp","/Users/Holly/Downloads","no","Andale Mono","no","18","no","white","no","yes","576","legacy","25","25","3","/Users/Holly/Downloads/subject-5208215.csv","legacy","Lentiform Loewenfeld","3.3.7","yes","yes","600bd7cfb6416f0113b04181","602110864497cf011d9c0822","0","j","NA","space","","space","NA","j","868","NA","3117","10546","1737","NA","868","2","legacy","1024","2","48000","-16","task","5208215","odd","NA","35630","40751","37633","92363","4111","22734","20996","92866","NA","92360","92866","92320","40751","93735","33608","91820","4022","79527","Lexical Decision Task","26","30836","30","yes","1024"
"3.366547468","0","6","plat","non-word","83.87096774193549","83.87096774193549","1017.9354838709677","1017.9354838709677","black","no","legacy","legacy","legacy","0","uniform","0","undefined","undefined","undefined","0","f","0","0","0","0","30","0","0","0","30","NA","26","30","26","0","26","3","30","0","30","Wed Feb 17 12:42:22 2021","The main experiment item","yes","Lexical_Decision_Task.osexp","/Users/Holly/Downloads","no","Andale Mono","no","18","no","white","no","yes","576","legacy","26","26","3","/Users/Holly/Downloads/subject-5208215.csv","legacy","Lentiform Loewenfeld","3.3.7","yes","yes","600bd7cfb6416f0113b04181","602110864497cf011d9c0822","0","j","NA","space","","space","NA","j","720","NA","3117","10546","1737","NA","720","2","legacy","1024","2","48000","-16","task","5208215","odd","NA","35630","40751","37633","94286","4111","22734","20996","94788","NA","94284","94788","94239","40751","95509","33608","93739","4022","79527","Lexical Decision Task","26","31556","31","yes","1024"
"3.010582609","0","2","drod","non-word","84.375","84.375","1004.625","1004.625","black","no","legacy","legacy","legacy","0","uniform","1","undefined","undefined","undefined","1","f","0","0","0","0","31","0","0","0","31","NA","27","31","27","0","27","3","31","0","31","Wed Feb 17 12:42:22 2021","The main experiment item","yes","Lexical_Decision_Task.osexp","/Users/Holly/Downloads","no","Andale Mono","no","18","no","white","no","yes","576","legacy","27","27","3","/Users/Holly/Downloads/subject-5208215.csv","legacy","Lentiform Loewenfeld","3.3.7","yes","yes","600bd7cfb6416f0113b04181","602110864497cf011d9c0822","0","f","NA","space","","space","NA","f","592","NA","3117","10546","1737","NA","592","2","legacy","1024","2","48000","-16","task","5208215","odd","NA","35630","40751","37633","97061","4111","22734","20996","97563","NA","97059","97563","97017","40751","98156","33608","93739","4022","95517","Lexical Decision Task","27","32148","32","yes","1024"
"2.75025376","10.2","6","jump","word","84.84848484848484","84.84848484848484","1014.5151515151515","1014.5151515151515","black","no","legacy","legacy","legacy","0","uniform","1","undefined","undefined","undefined","1","j","0","0","0","0","32","0","0","0","32","NA","28","32","28","0","28","3","32","0","32","Wed Feb 17 12:42:22 2021","The main experiment item","yes","Lexical_Decision_Task.osexp","/Users/Holly/Downloads","no","Andale Mono","no","18","no","white","no","yes","576","legacy","28","28","3","/Users/Holly/Downloads/subject-5208215.csv","legacy","Lentiform Loewenfeld","3.3.7","yes","yes","600bd7cfb6416f0113b04181","602110864497cf011d9c0822","0","j","NA","space","","space","NA","j","1331","NA","3117","10546","1737","NA","1331","2","legacy","1024","2","48000","-16","task","5208215","odd","NA","35630","40751","37633","98703","4111","22734","20996","99205","NA","98701","99205","98660","40751","100537","33608","98160","4022","95517","Lexical Decision Task","28","33479","33","yes","1024"
"2.986323777","10.85","8","ship","word","85.29411764705883","85.29411764705883","1032.1176470588234","1032.1176470588234","black","no","legacy","legacy","legacy","0","uniform","1","undefined","undefined","undefined","1","j","0","0","0","0","33","0","0","0","33","NA","29","33","29","0","29","3","33","0","33","Wed Feb 17 12:42:22 2021","The main experiment item","yes","Lexical_Decision_Task.osexp","/Users/Holly/Downloads","no","Andale Mono","no","18","no","white","no","yes","576","legacy","29","29","3","/Users/Holly/Downloads/subject-5208215.csv","legacy","Lentiform Loewenfeld","3.3.7","yes","yes","600bd7cfb6416f0113b04181","602110864497cf011d9c0822","0","j","NA","space","","space","NA","j","1613","NA","3117","10546","1737","NA","1613","2","legacy","1024","2","48000","-16","task","5208215","odd","NA","35630","40751","37633","101082","4111","22734","20996","101584","NA","101080","101584","101041","40751","103198","33608","100541","4022","95517","Lexical Decision Task","29","35092","34","yes","1024"
"2.807758206","6.25","4","hurl","word","85.71428571428571","85.71428571428571","1025.8857142857144","1025.8857142857144","black","no","legacy","legacy","legacy","0","uniform","1","undefined","undefined","undefined","1","j","0","0","0","0","34","0","0","0","34","NA","30","34","30","0","30","3","34","0","34","Wed Feb 17 12:42:22 2021","The main experiment item","yes","Lexical_Decision_Task.osexp","/Users/Holly/Downloads","no","Andale Mono","no","18","no","white","no","yes","576","legacy","30","30","3","/Users/Holly/Downloads/subject-5208215.csv","legacy","Lentiform Loewenfeld","3.3.7","yes","yes","600bd7cfb6416f0113b04181","602110864497cf011d9c0822","0","j","NA","space","","space","NA","j","814","NA","3117","10546","1737","NA","814","2","legacy","1024","2","48000","-16","task","5208215","odd","NA","35630","40751","37633","103746","4111","22734","20996","104248","NA","103743","104248","103702","40751","105063","33608","103202","4022","95517","Lexical Decision Task","30","35906","35","yes","1024"
"3.120025233","0","2","nyst","non-word","83.33333333333333","83.33333333333333","1028.25","1028.25","black","no","legacy","legacy","legacy","0","uniform","0","undefined","undefined","undefined","0","f","0","0","0","0","35","0","0","0","35","NA","31","35","31","0","31","3","35","0","35","Wed Feb 17 12:42:22 2021","The main experiment item","yes","Lexical_Decision_Task.osexp","/Users/Holly/Downloads","no","Andale Mono","no","18","no","white","no","yes","576","legacy","31","31","3","/Users/Holly/Downloads/subject-5208215.csv","legacy","Lentiform Loewenfeld","3.3.7","yes","yes","600bd7cfb6416f0113b04181","602110864497cf011d9c0822","0","j","NA","space","","space","NA","j","1111","NA","3117","10546","1737","NA","1111","2","legacy","1024","2","48000","-16","task","5208215","odd","NA","35630","40751","37633","105609","4111","22734","20996","106111","NA","105607","106111","105566","40751","107224","33608","105066","4022","95517","Lexical Decision Task","30","37017","36","yes","1024"
"3.049218023","7.4","9","robe","word","83.78378378378379","83.78378378378379","1014.2702702702703","1014.2702702702703","black","no","legacy","legacy","legacy","0","uniform","1","undefined","undefined","undefined","1","j","0","0","0","0","36","0","0","0","36","NA","32","36","32","0","32","3","36","0","36","Wed Feb 17 12:42:22 2021","The main experiment item","yes","Lexical_Decision_Task.osexp","/Users/Holly/Downloads","no","Andale Mono","no","18","no","white","no","yes","576","legacy","32","32","3","/Users/Holly/Downloads/subject-5208215.csv","legacy","Lentiform Loewenfeld","3.3.7","yes","yes","600bd7cfb6416f0113b04181","602110864497cf011d9c0822","0","j","NA","space","","space","NA","j","511","NA","3117","10546","1737","NA","511","2","legacy","1024","2","48000","-16","task","5208215","odd","NA","35630","40751","37633","108773","4111","22734","20996","109275","NA","108771","109275","108728","40751","109788","33608","105066","4022","107228","Lexical Decision Task","31","37528","37","yes","1024"
"2.884795364","0","6","flob","non-word","84.21052631578948","84.21052631578948","1003.3421052631579","1003.3421052631579","black","no","legacy","legacy","legacy","0","uniform","1","undefined","undefined","undefined","1","f","0","0","0","0","37","0","0","0","37","NA","33","37","33","0","33","3","37","0","37","Wed Feb 17 12:42:22 2021","The main experiment item","yes","Lexical_Decision_Task.osexp","/Users/Holly/Downloads","no","Andale Mono","no","18","no","white","no","yes","576","legacy","33","33","3","/Users/Holly/Downloads/subject-5208215.csv","legacy","Lentiform Loewenfeld","3.3.7","yes","yes","600bd7cfb6416f0113b04181","602110864497cf011d9c0822","0","f","NA","space","","space","NA","f","599","NA","3117","10546","1737","NA","599","2","legacy","1024","2","48000","-16","task","5208215","odd","NA","35630","40751","37633","110336","4111","22734","20996","110838","NA","110334","110838","110293","40751","111439","33608","109793","4022","107228","Lexical Decision Task","32","38127","38","yes","1024"
"3.159867847","5.98","5","brim","word","84.61538461538461","84.61538461538461","1013.1282051282051","1013.1282051282051","black","no","legacy","legacy","legacy","0","uniform","1","undefined","undefined","undefined","1","j","0","0","0","0","38","0","0","0","38","NA","34","38","34","0","34","3","38","0","38","Wed Feb 17 12:42:22 2021","The main experiment item","yes","Lexical_Decision_Task.osexp","/Users/Holly/Downloads","no","Andale Mono","no","18","no","white","no","yes","576","legacy","34","34","3","/Users/Holly/Downloads/subject-5208215.csv","legacy","Lentiform Loewenfeld","3.3.7","yes","yes","600bd7cfb6416f0113b04181","602110864497cf011d9c0822","0","j","NA","space","","space","NA","j","1385","NA","3117","10546","1737","NA","1385","2","legacy","1024","2","48000","-16","task","5208215","odd","NA","35630","40751","37633","111987","4111","22734","20996","112489","NA","111985","112489","111943","40751","113876","33608","111443","4022","107228","Lexical Decision Task","33","39512","39","yes","1024"
"3.081107167","0","6","chot","non-word","85","85","1005.75","1005.75","black","no","legacy","legacy","legacy","0","uniform","1","undefined","undefined","undefined","1","f","0","0","0","0","39","0","0","0","39","NA","35","39","35","0","35","3","39","0","39","Wed Feb 17 12:42:22 2021","The main experiment item","yes","Lexical_Decision_Task.osexp","/Users/Holly/Downloads","no","Andale Mono","no","18","no","white","no","yes","576","legacy","35","35","3","/Users/Holly/Downloads/subject-5208215.csv","legacy","Lentiform Loewenfeld","3.3.7","yes","yes","600bd7cfb6416f0113b04181","602110864497cf011d9c0822","0","f","NA","space","","space","NA","f","718","NA","3117","10546","1737","NA","718","2","legacy","1024","2","48000","-16","task","5208215","odd","NA","35630","40751","37633","114423","4111","22734","20996","114925","NA","114421","114925","114380","40751","115644","33608","113880","4022","107228","Lexical Decision Task","34","40230","40","yes","1024"
"2.966923697","5.4","2","fume","word","85.36585365853658","85.36585365853658","1005.7317073170732","1005.7317073170732","black","no","legacy","legacy","legacy","0","uniform","1","undefined","undefined","undefined","1","j","0","0","0","0","40","0","0","0","40","NA","36","40","36","0","36","3","40","0","40","Wed Feb 17 12:42:22 2021","The main experiment item","yes","Lexical_Decision_Task.osexp","/Users/Holly/Downloads","no","Andale Mono","no","18","no","white","no","yes","576","legacy","36","36","3","/Users/Holly/Downloads/subject-5208215.csv","legacy","Lentiform Loewenfeld","3.3.7","yes","yes","600bd7cfb6416f0113b04181","602110864497cf011d9c0822","0","j","NA","space","","space","NA","j","1005","NA","3117","10546","1737","NA","1005","2","legacy","1024","2","48000","-16","task","5208215","odd","NA","35630","40751","37633","116195","4111","22734","20996","116697","NA","116192","116697","116149","40751","117703","33608","115649","4022","107228","Lexical Decision Task","35","41235","41","yes","1024"
"2.899092422","7.27","6","snag","word","85.71428571428571","85.71428571428571","1006.547619047619","1006.547619047619","black","no","legacy","legacy","legacy","0","uniform","1","undefined","undefined","undefined","1","j","0","0","0","0","41","0","0","0","41","NA","37","41","37","0","37","3","41","0","41","Wed Feb 17 12:42:22 2021","The main experiment item","yes","Lexical_Decision_Task.osexp","/Users/Holly/Downloads","no","Andale Mono","no","18","no","white","no","yes","576","legacy","37","37","3","/Users/Holly/Downloads/subject-5208215.csv","legacy","Lentiform Loewenfeld","3.3.7","yes","yes","600bd7cfb6416f0113b04181","602110864497cf011d9c0822","0","j","NA","space","","space","NA","j","1040","NA","3117","10546","1737","NA","1040","2","legacy","1024","2","48000","-16","task","5208215","odd","NA","35630","40751","37633","118250","4111","22734","20996","118752","NA","118248","118752","118207","40751","119793","33608","117707","4022","107228","Lexical Decision Task","36","42275","42","yes","1024"
"3.102203805","7.21","3","drip","word","86.04651162790698","86.04651162790698","999.6046511627907","999.6046511627907","black","no","legacy","legacy","legacy","0","uniform","1","undefined","undefined","undefined","1","j","0","0","0","0","42","0","0","0","42","NA","38","42","38","0","38","3","42","0","42","Wed Feb 17 12:42:22 2021","The main experiment item","yes","Lexical_Decision_Task.osexp","/Users/Holly/Downloads","no","Andale Mono","no","18","no","white","no","yes","576","legacy","38","38","3","/Users/Holly/Downloads/subject-5208215.csv","legacy","Lentiform Loewenfeld","3.3.7","yes","yes","600bd7cfb6416f0113b04181","602110864497cf011d9c0822","0","j","NA","space","","space","NA","j","708","NA","3117","10546","1737","NA","708","2","legacy","1024","2","48000","-16","task","5208215","odd","NA","35630","40751","37633","120340","4111","22734","20996","120842","NA","120338","120842","120297","40751","121552","33608","119797","4022","107228","Lexical Decision Task","37","42983","43","yes","1024"
"3.137775856","7.39","5","comb","word","86.36363636363636","86.36363636363636","1021.1590909090909","1021.1590909090909","black","no","legacy","legacy","legacy","0","uniform","1","undefined","undefined","undefined","1","j","0","0","0","0","43","0","0","0","43","NA","39","43","39","0","39","3","43","0","43","Wed Feb 17 12:42:22 2021","The main experiment item","yes","Lexical_Decision_Task.osexp","/Users/Holly/Downloads","no","Andale Mono","no","18","no","white","no","yes","576","legacy","39","39","3","/Users/Holly/Downloads/subject-5208215.csv","legacy","Lentiform Loewenfeld","3.3.7","yes","yes","600bd7cfb6416f0113b04181","602110864497cf011d9c0822","0","j","NA","space","","space","NA","j","1948","NA","3117","10546","1737","NA","1948","2","legacy","1024","2","48000","-16","task","5208215","odd","NA","35630","40751","37633","122099","4111","22734","20996","122601","NA","122097","122601","122056","40751","124550","33608","121556","4022","107228","Lexical Decision Task","38","44931","44","yes","1024"
"3.274157849","0","8","leet","non-word","86.66666666666667","86.66666666666667","1014.9111111111112","1014.9111111111112","black","no","legacy","legacy","legacy","0","uniform","1","undefined","undefined","undefined","1","f","0","0","0","0","44","0","0","0","44","NA","40","44","40","0","40","3","44","0","44","Wed Feb 17 12:42:22 2021","The main experiment item","yes","Lexical_Decision_Task.osexp","/Users/Holly/Downloads","no","Andale Mono","no","18","no","white","no","yes","576","legacy","40","40","3","/Users/Holly/Downloads/subject-5208215.csv","legacy","Lentiform Loewenfeld","3.3.7","yes","yes","600bd7cfb6416f0113b04181","602110864497cf011d9c0822","0","f","NA","space","","space","NA","f","740","NA","3117","10546","1737","NA","740","2","legacy","1024","2","48000","-16","task","5208215","odd","NA","35630","40751","37633","125098","4111","22734","20996","125600","NA","125095","125600","125055","40751","126341","33608","124555","4022","107228","Lexical Decision Task","39","45671","45","yes","1024"
"2.842815106","7.86","8","lump","word","86.95652173913044","86.95652173913044","1008.7826086956521","1008.7826086956521","black","no","legacy","legacy","legacy","0","uniform","1","undefined","undefined","undefined","1","j","0","0","0","0","45","0","0","0","45","NA","41","45","41","0","41","3","45","0","45","Wed Feb 17 12:42:22 2021","The main experiment item","yes","Lexical_Decision_Task.osexp","/Users/Holly/Downloads","no","Andale Mono","no","18","no","white","no","yes","576","legacy","41","41","3","/Users/Holly/Downloads/subject-5208215.csv","legacy","Lentiform Loewenfeld","3.3.7","yes","yes","600bd7cfb6416f0113b04181","602110864497cf011d9c0822","0","j","NA","space","","space","NA","j","733","NA","3117","10546","1737","NA","733","2","legacy","1024","2","48000","-16","task","5208215","odd","NA","35630","40751","37633","126888","4111","22734","20996","127390","NA","126886","127390","126845","40751","128124","33608","126345","4022","107228","Lexical Decision Task","40","46404","46","yes","1024"
"2.981215883","10.66","5","hair","word","87.23404255319149","87.23404255319149","1000.5957446808511","1000.5957446808511","black","no","legacy","legacy","legacy","0","uniform","1","undefined","undefined","undefined","1","j","0","0","0","0","46","0","0","0","46","NA","42","46","42","0","42","3","46","0","46","Wed Feb 17 12:42:22 2021","The main experiment item","yes","Lexical_Decision_Task.osexp","/Users/Holly/Downloads","no","Andale Mono","no","18","no","white","no","yes","576","legacy","42","42","3","/Users/Holly/Downloads/subject-5208215.csv","legacy","Lentiform Loewenfeld","3.3.7","yes","yes","600bd7cfb6416f0113b04181","602110864497cf011d9c0822","0","j","NA","space","","space","NA","j","624","NA","3117","10546","1737","NA","624","2","legacy","1024","2","48000","-16","task","5208215","odd","NA","35630","40751","37633","128672","4111","22734","20996","129174","NA","128669","129174","128628","40751","129799","33608","128128","4022","107228","Lexical Decision Task","41","47028","47","yes","1024"
"2.858136002","0","4","phip","non-word","87.5","87.5","995.9375","995.9375","black","no","legacy","legacy","legacy","0","uniform","1","undefined","undefined","undefined","1","f","0","0","0","0","47","0","0","0","47","NA","43","47","43","0","43","3","47","0","47","Wed Feb 17 12:42:22 2021","The main experiment item","yes","Lexical_Decision_Task.osexp","/Users/Holly/Downloads","no","Andale Mono","no","18","no","white","no","yes","576","legacy","43","43","3","/Users/Holly/Downloads/subject-5208215.csv","legacy","Lentiform Loewenfeld","3.3.7","yes","yes","600bd7cfb6416f0113b04181","602110864497cf011d9c0822","0","f","NA","space","","space","NA","f","777","NA","3117","10546","1737","NA","777","2","legacy","1024","2","48000","-16","task","5208215","odd","NA","35630","40751","37633","130347","4111","22734","20996","130849","NA","130344","130849","130303","40751","131627","33608","129803","4022","107228","Lexical Decision Task","42","47805","48","yes","1024"
"2.746890964","9.67","3","plug","word","87.75510204081633","87.75510204081633","990.8163265306123","990.8163265306123","black","no","legacy","legacy","legacy","0","uniform","1","undefined","undefined","undefined","1","j","0","0","0","0","48","0","0","0","48","NA","44","48","44","0","44","3","48","0","48","Wed Feb 17 12:42:22 2021","The main experiment item","yes","Lexical_Decision_Task.osexp","/Users/Holly/Downloads","no","Andale Mono","no","18","no","white","no","yes","576","legacy","44","44","3","/Users/Holly/Downloads/subject-5208215.csv","legacy","Lentiform Loewenfeld","3.3.7","yes","yes","600bd7cfb6416f0113b04181","602110864497cf011d9c0822","0","j","NA","space","","space","NA","j","745","NA","3117","10546","1737","NA","745","2","legacy","1024","2","48000","-16","task","5208215","odd","NA","35630","40751","37633","132173","4111","22734","20996","132675","NA","132171","132675","132131","40751","133422","33608","131631","4022","107228","Lexical Decision Task","43","48550","49","yes","1024"
"3.374198258","0","8","vist","non-word","86","86","984.64","984.64","black","no","legacy","legacy","legacy","0","uniform","0","undefined","undefined","undefined","0","f","0","0","0","0","49","0","0","0","49","NA","45","49","45","0","45","3","49","0","49","Wed Feb 17 12:42:22 2021","The main experiment item","yes","Lexical_Decision_Task.osexp","/Users/Holly/Downloads","no","Andale Mono","no","18","no","white","no","yes","576","legacy","45","45","3","/Users/Holly/Downloads/subject-5208215.csv","legacy","Lentiform Loewenfeld","3.3.7","yes","yes","600bd7cfb6416f0113b04181","602110864497cf011d9c0822","0","j","NA","space","","space","NA","j","682","NA","3117","10546","1737","NA","682","2","legacy","1024","2","48000","-16","task","5208215","odd","NA","35630","40751","37633","133970","4111","22734","20996","134472","NA","133967","134472","133926","40751","135155","33608","133426","4022","107228","Lexical Decision Task","43","49232","50","yes","1024"
"3.276537627","9.15","5","trap","word","86.27450980392157","86.27450980392157","978.6666666666666","978.6666666666666","black","no","legacy","legacy","legacy","0","uniform","1","undefined","undefined","undefined","1","j","0","0","0","0","50","0","0","0","50","NA","46","50","46","0","46","3","50","0","50","Wed Feb 17 12:42:22 2021","The main experiment item","yes","Lexical_Decision_Task.osexp","/Users/Holly/Downloads","no","Andale Mono","no","18","no","white","no","yes","576","legacy","46","46","3","/Users/Holly/Downloads/subject-5208215.csv","legacy","Lentiform Loewenfeld","3.3.7","yes","yes","600bd7cfb6416f0113b04181","602110864497cf011d9c0822","0","j","NA","space","","space","NA","j","680","NA","3117","10546","1737","NA","680","2","legacy","1024","2","48000","-16","task","5208215","odd","NA","35630","40751","37633","136704","4111","22734","20996","137206","NA","136702","137206","136660","40751","137888","33608","133426","4022","135160","Lexical Decision Task","44","49912","51","yes","1024"
"3.261341392","5.08","8","reek","word","86.53846153846153","86.53846153846153","980.4038461538462","980.4038461538462","black","no","legacy","legacy","legacy","0","uniform","1","undefined","undefined","undefined","1","j","0","0","0","0","51","0","0","0","51","NA","47","51","47","0","47","3","51","0","51","Wed Feb 17 12:42:22 2021","The main experiment item","yes","Lexical_Decision_Task.osexp","/Users/Holly/Downloads","no","Andale Mono","no","18","no","white","no","yes","576","legacy","47","47","3","/Users/Holly/Downloads/subject-5208215.csv","legacy","Lentiform Loewenfeld","3.3.7","yes","yes","600bd7cfb6416f0113b04181","602110864497cf011d9c0822","0","j","NA","space","","space","NA","j","1069","NA","3117","10546","1737","NA","1069","2","legacy","1024","2","48000","-16","task","5208215","odd","NA","35630","40751","37633","138436","4111","22734","20996","138939","NA","138434","138939","138392","40751","140009","33608","137892","4022","135160","Lexical Decision Task","45","50981","52","yes","1024"
"2.875447132","0","9","jelt","non-word","86.79245283018868","86.79245283018868","982.4905660377359","982.4905660377359","black","no","legacy","legacy","legacy","0","uniform","1","undefined","undefined","undefined","1","f","0","0","0","0","52","0","0","0","52","NA","48","52","48","0","48","3","52","0","52","Wed Feb 17 12:42:22 2021","The main experiment item","yes","Lexical_Decision_Task.osexp","/Users/Holly/Downloads","no","Andale Mono","no","18","no","white","no","yes","576","legacy","48","48","3","/Users/Holly/Downloads/subject-5208215.csv","legacy","Lentiform Loewenfeld","3.3.7","yes","yes","600bd7cfb6416f0113b04181","602110864497cf011d9c0822","0","f","NA","space","","space","NA","f","1091","NA","3117","10546","1737","NA","1091","2","legacy","1024","2","48000","-16","task","5208215","odd","NA","35630","40751","37633","140558","4111","22734","20996","141060","NA","140556","141060","140514","40751","142153","33608","140014","4022","135160","Lexical Decision Task","46","52072","53","yes","1024"
"2.695770526","7.34","6","pawn","word","87.03703703703704","87.03703703703704","1009.8148148148148","1009.8148148148148","black","no","legacy","legacy","legacy","0","uniform","1","undefined","undefined","undefined","1","j","0","0","0","0","53","0","0","0","53","NA","49","53","49","0","49","3","53","0","53","Wed Feb 17 12:42:22 2021","The main experiment item","yes","Lexical_Decision_Task.osexp","/Users/Holly/Downloads","no","Andale Mono","no","18","no","white","no","yes","576","legacy","49","49","3","/Users/Holly/Downloads/subject-5208215.csv","legacy","Lentiform Loewenfeld","3.3.7","yes","yes","600bd7cfb6416f0113b04181","602110864497cf011d9c0822","0","j","NA","space","","space","NA","j","2458","NA","3117","10546","1737","NA","2458","2","legacy","1024","2","48000","-16","task","5208215","odd","NA","35630","40751","37633","142700","4111","22734","20996","143202","NA","142698","143202","142657","40751","145661","33608","142157","4022","135160","Lexical Decision Task","47","54530","54","yes","1024"
"2.899638141","0","3","hapt","non-word","87.27272727272727","87.27272727272727","1029.9454545454546","1029.9454545454546","black","no","legacy","legacy","legacy","0","uniform","1","undefined","undefined","undefined","1","f","0","0","0","0","54","0","0","0","54","0","50","54","50","0","50","3","54","0","54","Wed Feb 17 12:42:22 2021","The main experiment item","yes","Lexical_Decision_Task.osexp","/Users/Holly/Downloads","no","Andale Mono","no","18","no","white","no","yes","576","legacy","50","50","3","/Users/Holly/Downloads/subject-5208215.csv","legacy","Lentiform Loewenfeld","3.3.7","yes","yes","600bd7cfb6416f0113b04181","602110864497cf011d9c0822","0","f","NA","space","","space","space","f","2117","NA","3117","10546","1737","3338","2117","2","legacy","1024","2","48000","-16","task","5208215","odd","NA","35630","40751","37633","149575","4111","22734","20996","150079","146187","149573","150079","146165","40751","152197","33608","145665","4022","135160","Lexical Decision Task","48","56647","55","yes","1024"
"2.980306438","0","7","slun","non-word","87.5","87.5","1031.8035714285713","1031.8035714285713","black","no","legacy","legacy","legacy","0","uniform","1","undefined","undefined","undefined","1","f","0","0","0","0","55","0","0","0","55","0","51","55","51","0","51","3","55","0","55","Wed Feb 17 12:42:22 2021","The main experiment item","yes","Lexical_Decision_Task.osexp","/Users/Holly/Downloads","no","Andale Mono","no","18","no","white","no","yes","576","legacy","51","51","3","/Users/Holly/Downloads/subject-5208215.csv","legacy","Lentiform Loewenfeld","3.3.7","yes","yes","600bd7cfb6416f0113b04181","602110864497cf011d9c0822","0","f","NA","space","","space","space","f","1134","NA","3117","10546","1737","3338","1134","2","legacy","1024","2","48000","-16","task","5208215","odd","NA","35630","40751","37633","152745","4111","22734","20996","153247","146187","152743","153247","152702","40751","154382","33608","152202","4022","135160","Lexical Decision Task","49","57781","56","yes","1024"
"3.274543461","7.46","7","scar","word","87.71929824561404","87.71929824561404","1024.5964912280701","1024.5964912280701","black","no","legacy","legacy","legacy","0","uniform","1","undefined","undefined","undefined","1","j","0","0","0","0","56","0","0","0","56","0","52","56","52","0","52","3","56","0","56","Wed Feb 17 12:42:22 2021","The main experiment item","yes","Lexical_Decision_Task.osexp","/Users/Holly/Downloads","no","Andale Mono","no","18","no","white","no","yes","576","legacy","52","52","3","/Users/Holly/Downloads/subject-5208215.csv","legacy","Lentiform Loewenfeld","3.3.7","yes","yes","600bd7cfb6416f0113b04181","602110864497cf011d9c0822","0","j","NA","space","","space","space","j","621","NA","3117","10546","1737","3338","621","2","legacy","1024","2","48000","-16","task","5208215","odd","NA","35630","40751","37633","154931","4111","22734","20996","155433","146187","154929","155433","154888","40751","156055","33608","154388","4022","135160","Lexical Decision Task","50","58402","57","yes","1024"
"2.892836167","10.01","5","soft","word","87.93103448275862","87.93103448275862","1019.0172413793103","1019.0172413793103","black","no","legacy","legacy","legacy","0","uniform","1","undefined","undefined","undefined","1","j","0","0","0","0","57","0","0","0","57","0","53","57","53","0","53","3","57","0","57","Wed Feb 17 12:42:22 2021","The main experiment item","yes","Lexical_Decision_Task.osexp","/Users/Holly/Downloads","no","Andale Mono","no","18","no","white","no","yes","576","legacy","53","53","3","/Users/Holly/Downloads/subject-5208215.csv","legacy","Lentiform Loewenfeld","3.3.7","yes","yes","600bd7cfb6416f0113b04181","602110864497cf011d9c0822","0","j","NA","space","","space","space","j","701","NA","3117","10546","1737","3338","701","2","legacy","1024","2","48000","-16","task","5208215","odd","NA","35630","40751","37633","156604","4111","22734","20996","157106","146187","156601","157106","156560","40751","157808","33608","156060","4022","135160","Lexical Decision Task","51","59103","58","yes","1024"
"3.382617311","0","4","pret","non-word","86.44067796610169","86.44067796610169","1012.9830508474577","1012.9830508474577","black","no","legacy","legacy","legacy","0","uniform","0","undefined","undefined","undefined","0","f","0","0","0","0","58","0","0","0","58","0","54","58","54","0","54","3","58","0","58","Wed Feb 17 12:42:22 2021","The main experiment item","yes","Lexical_Decision_Task.osexp","/Users/Holly/Downloads","no","Andale Mono","no","18","no","white","no","yes","576","legacy","54","54","3","/Users/Holly/Downloads/subject-5208215.csv","legacy","Lentiform Loewenfeld","3.3.7","yes","yes","600bd7cfb6416f0113b04181","602110864497cf011d9c0822","0","j","NA","space","","space","space","j","663","NA","3117","10546","1737","3338","663","2","legacy","1024","2","48000","-16","task","5208215","odd","NA","35630","40751","37633","158356","4111","22734","20996","158857","146187","158353","158857","158312","40751","159521","33608","157812","4022","135160","Lexical Decision Task","51","59766","59","yes","1024"
"3.460446784","0","5","dess","non-word","86.66666666666667","86.66666666666667","1013.9666666666667","1013.9666666666667","black","no","legacy","legacy","legacy","0","uniform","1","undefined","undefined","undefined","1","f","0","0","0","0","59","0","0","0","59","0","55","59","55","0","55","3","59","0","59","Wed Feb 17 12:42:22 2021","The main experiment item","yes","Lexical_Decision_Task.osexp","/Users/Holly/Downloads","no","Andale Mono","no","18","no","white","no","yes","576","legacy","55","55","3","/Users/Holly/Downloads/subject-5208215.csv","legacy","Lentiform Loewenfeld","3.3.7","yes","yes","600bd7cfb6416f0113b04181","602110864497cf011d9c0822","0","f","NA","space","","space","space","f","1072","NA","3117","10546","1737","3338","1072","2","legacy","1024","2","48000","-16","task","5208215","odd","NA","35630","40751","37633","161074","4111","22734","20996","161577","146187","161069","161577","161026","40751","162651","33608","157812","4022","159526","Lexical Decision Task","52","60838","60","yes","1024"
"3.031408464","0","7","drow","non-word","86.88524590163935","86.88524590163935","1019.7049180327868","1019.7049180327868","black","no","legacy","legacy","legacy","0","uniform","1","undefined","undefined","undefined","1","f","0","0","0","0","60","0","0","0","60","0","56","60","56","0","56","3","60","0","60","Wed Feb 17 12:42:22 2021","The main experiment item","yes","Lexical_Decision_Task.osexp","/Users/Holly/Downloads","no","Andale Mono","no","18","no","white","no","yes","576","legacy","56","56","3","/Users/Holly/Downloads/subject-5208215.csv","legacy","Lentiform Loewenfeld","3.3.7","yes","yes","600bd7cfb6416f0113b04181","602110864497cf011d9c0822","0","f","NA","space","","space","space","f","1364","NA","3117","10546","1737","3338","1364","2","legacy","1024","2","48000","-16","task","5208215","odd","NA","35630","40751","37633","163198","4111","22734","20996","163701","146187","163197","163701","163155","40751","165067","33608","162655","4022","159526","Lexical Decision Task","53","62202","61","yes","1024"
"3.077974404","10.41","8","tool","word","87.09677419354838","87.09677419354838","1014.983870967742","1014.983870967742","black","no","legacy","legacy","legacy","0","uniform","1","undefined","undefined","undefined","1","j","0","0","0","0","61","0","0","0","61","0","57","61","57","0","57","3","61","0","61","Wed Feb 17 12:42:22 2021","The main experiment item","yes","Lexical_Decision_Task.osexp","/Users/Holly/Downloads","no","Andale Mono","no","18","no","white","no","yes","576","legacy","57","57","3","/Users/Holly/Downloads/subject-5208215.csv","legacy","Lentiform Loewenfeld","3.3.7","yes","yes","600bd7cfb6416f0113b04181","602110864497cf011d9c0822","0","j","NA","space","","space","space","j","727","NA","3117","10546","1737","3338","727","2","legacy","1024","2","48000","-16","task","5208215","odd","NA","35630","40751","37633","165614","4111","22734","20996","166116","146187","165612","166116","165571","40751","166845","33608","165071","4022","159526","Lexical Decision Task","54","62929","62","yes","1024"
"2.68604012","0","4","pumb","non-word","85.71428571428571","85.71428571428571","1046.4920634920634","1046.4920634920634","black","no","legacy","legacy","legacy","0","uniform","0","undefined","undefined","undefined","0","f","0","0","0","0","62","0","0","0","62","0","58","62","58","0","58","3","62","0","62","Wed Feb 17 12:42:22 2021","The main experiment item","yes","Lexical_Decision_Task.osexp","/Users/Holly/Downloads","no","Andale Mono","no","18","no","white","no","yes","576","legacy","58","58","3","/Users/Holly/Downloads/subject-5208215.csv","legacy","Lentiform Loewenfeld","3.3.7","yes","yes","600bd7cfb6416f0113b04181","602110864497cf011d9c0822","0","None","NA","space","","space","space","None","3000","NA","3117","10546","1737","3338","3000","2","legacy","1024","2","48000","-16","task","5208215","odd","NA","35630","40751","37633","167393","4111","22734","20996","167895","146187","167390","167895","167349","40751","170895","33608","166849","4022","159526","Lexical Decision Task","54","65929","63","yes","1024"
"3.311895072","0","9","gung","non-word","85.9375","85.9375","1042.296875","1042.296875","black","no","legacy","legacy","legacy","0","uniform","1","undefined","undefined","undefined","1","f","0","0","0","0","63","0","0","0","63","0","59","63","59","0","59","3","63","0","63","Wed Feb 17 12:42:22 2021","The main experiment item","yes","Lexical_Decision_Task.osexp","/Users/Holly/Downloads","no","Andale Mono","no","18","no","white","no","yes","576","legacy","59","59","3","/Users/Holly/Downloads/subject-5208215.csv","legacy","Lentiform Loewenfeld","3.3.7","yes","yes","600bd7cfb6416f0113b04181","602110864497cf011d9c0822","0","f","NA","space","","space","space","f","778","NA","3117","10546","1737","3338","778","2","legacy","1024","2","48000","-16","task","5208215","odd","NA","35630","40751","37633","172446","4111","22734","20996","172948","146187","172443","172948","172399","40751","173727","33608","166849","4022","170899","Lexical Decision Task","55","66707","64","yes","1024"
"3.100255637","0","6","brax","non-word","86.15384615384616","86.15384615384616","1047.0615384615385","1047.0615384615385","black","no","legacy","legacy","legacy","0","uniform","1","undefined","undefined","undefined","1","f","0","0","0","0","64","0","0","0","64","0","60","64","60","0","60","3","64","0","64","Wed Feb 17 12:42:22 2021","The main experiment item","yes","Lexical_Decision_Task.osexp","/Users/Holly/Downloads","no","Andale Mono","no","18","no","white","no","yes","576","legacy","60","60","3","/Users/Holly/Downloads/subject-5208215.csv","legacy","Lentiform Loewenfeld","3.3.7","yes","yes","600bd7cfb6416f0113b04181","602110864497cf011d9c0822","0","f","NA","space","","space","space","f","1352","NA","3117","10546","1737","3338","1352","2","legacy","1024","2","48000","-16","task","5208215","odd","NA","35630","40751","37633","174274","4111","22734","20996","174776","146187","174272","174776","174232","40751","176129","33608","173731","4022","170899","Lexical Decision Task","56","68059","65","yes","1024"
"3.22685757","9.99","7","roll","word","86.36363636363636","86.36363636363636","1038.9545454545455","1038.9545454545455","black","no","legacy","legacy","legacy","0","uniform","1","undefined","undefined","undefined","1","j","0","0","0","0","65","0","0","0","65","0","61","65","61","0","61","3","65","0","65","Wed Feb 17 12:42:22 2021","The main experiment item","yes","Lexical_Decision_Task.osexp","/Users/Holly/Downloads","no","Andale Mono","no","18","no","white","no","yes","576","legacy","61","61","3","/Users/Holly/Downloads/subject-5208215.csv","legacy","Lentiform Loewenfeld","3.3.7","yes","yes","600bd7cfb6416f0113b04181","602110864497cf011d9c0822","0","j","NA","space","","space","space","j","512","NA","3117","10546","1737","3338","512","2","legacy","1024","2","48000","-16","task","5208215","odd","NA","35630","40751","37633","176678","4111","22734","20996","177180","146187","176676","177181","176634","40751","177694","33608","176134","4022","170899","Lexical Decision Task","57","68571","66","yes","1024"
"3.2757719","0","5","slea","non-word","86.56716417910448","86.56716417910448","1036.8208955223881","1036.8208955223881","black","no","legacy","legacy","legacy","0","uniform","1","undefined","undefined","undefined","1","f","0","0","0","0","66","0","0","0","66","0","62","66","62","0","62","3","66","0","66","Wed Feb 17 12:42:22 2021","The main experiment item","yes","Lexical_Decision_Task.osexp","/Users/Holly/Downloads","no","Andale Mono","no","18","no","white","no","yes","576","legacy","62","62","3","/Users/Holly/Downloads/subject-5208215.csv","legacy","Lentiform Loewenfeld","3.3.7","yes","yes","600bd7cfb6416f0113b04181","602110864497cf011d9c0822","0","f","NA","space","","space","space","f","896","NA","3117","10546","1737","3338","896","2","legacy","1024","2","48000","-16","task","5208215","odd","NA","35630","40751","37633","178243","4111","22734","20996","178745","146187","178240","178745","178199","40751","179642","33608","177699","4022","170899","Lexical Decision Task","58","69467","67","yes","1024"
"2.895974732","6.65","5","sift","word","86.76470588235294","86.76470588235294","1035.6029411764705","1035.6029411764705","black","no","legacy","legacy","legacy","0","uniform","1","undefined","undefined","undefined","1","j","0","0","0","0","67","0","0","0","67","0","63","67","63","0","63","3","67","0","67","Wed Feb 17 12:42:22 2021","The main experiment item","yes","Lexical_Decision_Task.osexp","/Users/Holly/Downloads","no","Andale Mono","no","18","no","white","no","yes","576","legacy","63","63","3","/Users/Holly/Downloads/subject-5208215.csv","legacy","Lentiform Loewenfeld","3.3.7","yes","yes","600bd7cfb6416f0113b04181","602110864497cf011d9c0822","0","j","NA","space","","space","space","j","954","NA","3117","10546","1737","3338","954","2","legacy","1024","2","48000","-16","task","5208215","odd","NA","35630","40751","37633","180189","4111","22734","20996","180691","146187","180187","180691","180146","40751","181646","33608","179646","4022","170899","Lexical Decision Task","59","70421","68","yes","1024"
"2.64476673","0","5","moft","non-word","86.95652173913044","86.95652173913044","1037.4927536231885","1037.4927536231885","black","no","legacy","legacy","legacy","0","uniform","1","undefined","undefined","undefined","1","f","0","0","0","0","68","0","0","0","68","0","64","68","64","0","64","3","68","0","68","Wed Feb 17 12:42:22 2021","The main experiment item","yes","Lexical_Decision_Task.osexp","/Users/Holly/Downloads","no","Andale Mono","no","18","no","white","no","yes","576","legacy","64","64","3","/Users/Holly/Downloads/subject-5208215.csv","legacy","Lentiform Loewenfeld","3.3.7","yes","yes","600bd7cfb6416f0113b04181","602110864497cf011d9c0822","0","f","NA","space","","space","space","f","1166","NA","3117","10546","1737","3338","1166","2","legacy","1024","2","48000","-16","task","5208215","odd","NA","35630","40751","37633","182193","4111","22734","20996","182695","146187","182191","182696","182150","40751","183863","33608","181650","4022","170899","Lexical Decision Task","60","71587","69","yes","1024"
"2.920123326","7.43","4","duel","word","85.71428571428571","85.71428571428571","1033.5","1033.5","black","no","legacy","legacy","legacy","0","uniform","0","undefined","undefined","undefined","0","j","0","0","0","0","69","0","0","0","69","0","65","69","65","0","65","3","69","0","69","Wed Feb 17 12:42:22 2021","The main experiment item","yes","Lexical_Decision_Task.osexp","/Users/Holly/Downloads","no","Andale Mono","no","18","no","white","no","yes","576","legacy","65","65","3","/Users/Holly/Downloads/subject-5208215.csv","legacy","Lentiform Loewenfeld","3.3.7","yes","yes","600bd7cfb6416f0113b04181","602110864497cf011d9c0822","0","f","NA","space","","space","space","f","758","NA","3117","10546","1737","3338","758","2","legacy","1024","2","48000","-16","task","5208215","odd","NA","35630","40751","37633","184410","4111","22734","20996","184912","146187","184408","184912","184368","40751","185671","33608","183868","4022","170899","Lexical Decision Task","60","72345","70","yes","1024"
"3.299579929","0","2","flis","non-word","85.91549295774648","85.91549295774648","1028.4366197183099","1028.4366197183099","black","no","legacy","legacy","legacy","0","uniform","1","undefined","undefined","undefined","1","f","0","0","0","0","70","0","0","0","70","0","66","70","66","0","66","3","70","0","70","Wed Feb 17 12:42:22 2021","The main experiment item","yes","Lexical_Decision_Task.osexp","/Users/Holly/Downloads","no","Andale Mono","no","18","no","white","no","yes","576","legacy","66","66","3","/Users/Holly/Downloads/subject-5208215.csv","legacy","Lentiform Loewenfeld","3.3.7","yes","yes","600bd7cfb6416f0113b04181","602110864497cf011d9c0822","0","f","NA","space","","space","space","f","674","NA","3117","10546","1737","3338","674","2","legacy","1024","2","48000","-16","task","5208215","odd","NA","35630","40751","37633","187219","4111","22734","20996","187722","146187","187218","187722","187176","40751","188397","33608","183868","4022","185676","Lexical Decision Task","61","73019","71","yes","1024"
"3.495914186","0","4","peng","non-word","86.11111111111111","86.11111111111111","1025.8055555555557","1025.8055555555557","black","no","legacy","legacy","legacy","0","uniform","1","undefined","undefined","undefined","1","f","0","0","0","0","71","0","0","0","71","0","67","71","67","0","67","3","71","0","71","Wed Feb 17 12:42:22 2021","The main experiment item","yes","Lexical_Decision_Task.osexp","/Users/Holly/Downloads","no","Andale Mono","no","18","no","white","no","yes","576","legacy","67","67","3","/Users/Holly/Downloads/subject-5208215.csv","legacy","Lentiform Loewenfeld","3.3.7","yes","yes","600bd7cfb6416f0113b04181","602110864497cf011d9c0822","0","f","NA","space","","space","space","f","839","NA","3117","10546","1737","3338","839","2","legacy","1024","2","48000","-16","task","5208215","odd","NA","35630","40751","37633","188945","4111","22734","20996","189447","146187","188943","189447","188901","40751","190288","33608","188401","4022","185676","Lexical Decision Task","62","73858","72","yes","1024"
"2.990042563","6.64","9","plow","word","84.93150684931507","84.93150684931507","1020.2191780821918","1020.2191780821918","black","no","legacy","legacy","legacy","0","uniform","0","undefined","undefined","undefined","0","j","0","0","0","0","72","0","0","0","72","0","68","72","68","0","68","3","72","0","72","Wed Feb 17 12:42:22 2021","The main experiment item","yes","Lexical_Decision_Task.osexp","/Users/Holly/Downloads","no","Andale Mono","no","18","no","white","no","yes","576","legacy","68","68","3","/Users/Holly/Downloads/subject-5208215.csv","legacy","Lentiform Loewenfeld","3.3.7","yes","yes","600bd7cfb6416f0113b04181","602110864497cf011d9c0822","0","f","NA","space","","space","space","f","618","NA","3117","10546","1737","3338","618","2","legacy","1024","2","48000","-16","task","5208215","odd","NA","35630","40751","37633","190835","4111","22734","20996","191337","146187","190834","191337","190793","40751","191957","33608","190292","4022","185676","Lexical Decision Task","62","74476","73","yes","1024"
"3.1430148","7.92","8","bald","word","85.13513513513513","85.13513513513513","1013.2972972972973","1013.2972972972973","black","no","legacy","legacy","legacy","0","uniform","1","undefined","undefined","undefined","1","j","0","0","0","0","73","0","0","0","73","0","69","73","69","0","69","3","73","0","73","Wed Feb 17 12:42:22 2021","The main experiment item","yes","Lexical_Decision_Task.osexp","/Users/Holly/Downloads","no","Andale Mono","no","18","no","white","no","yes","576","legacy","69","69","3","/Users/Holly/Downloads/subject-5208215.csv","legacy","Lentiform Loewenfeld","3.3.7","yes","yes","600bd7cfb6416f0113b04181","602110864497cf011d9c0822","0","j","NA","space","","space","space","j","508","NA","3117","10546","1737","3338","508","2","legacy","1024","2","48000","-16","task","5208215","odd","NA","35630","40751","37633","193506","4111","22734","20996","194008","146187","193504","194008","193461","40751","194517","33608","190292","4022","191961","Lexical Decision Task","63","74984","74","yes","1024"
"3.252447662","9.67","9","boat","word","85.33333333333333","85.33333333333333","1005.96","1005.96","black","no","legacy","legacy","legacy","0","uniform","1","undefined","undefined","undefined","1","j","0","0","0","0","74","0","0","0","74","0","70","74","70","0","70","3","74","0","74","Wed Feb 17 12:42:22 2021","The main experiment item","yes","Lexical_Decision_Task.osexp","/Users/Holly/Downloads","no","Andale Mono","no","18","no","white","no","yes","576","legacy","70","70","3","/Users/Holly/Downloads/subject-5208215.csv","legacy","Lentiform Loewenfeld","3.3.7","yes","yes","600bd7cfb6416f0113b04181","602110864497cf011d9c0822","0","j","NA","space","","space","space","j","463","NA","3117","10546","1737","3338","463","2","legacy","1024","2","48000","-16","task","5208215","odd","NA","35630","40751","37633","195064","4111","22734","20996","195566","146187","195062","195566","195022","40751","196031","33608","194522","4022","191961","Lexical Decision Task","64","75447","75","yes","1024"
"2.937852093","0","7","bamp","non-word","85.52631578947368","85.52631578947368","1001.0657894736842","1001.0657894736842","black","no","legacy","legacy","legacy","0","uniform","1","undefined","undefined","undefined","1","f","0","0","0","0","75","0","0","0","75","0","71","75","71","0","71","3","75","0","75","Wed Feb 17 12:42:22 2021","The main experiment item","yes","Lexical_Decision_Task.osexp","/Users/Holly/Downloads","no","Andale Mono","no","18","no","white","no","yes","576","legacy","71","71","3","/Users/Holly/Downloads/subject-5208215.csv","legacy","Lentiform Loewenfeld","3.3.7","yes","yes","600bd7cfb6416f0113b04181","602110864497cf011d9c0822","0","f","NA","space","","space","space","f","634","NA","3117","10546","1737","3338","634","2","legacy","1024","2","48000","-16","task","5208215","odd","NA","35630","40751","37633","196579","4111","22734","20996","197081","146187","196577","197081","196535","40751","197717","33608","196035","4022","191961","Lexical Decision Task","65","76081","76","yes","1024"
"3.230789326","5.38","5","prim","word","84.41558441558442","84.41558441558442","994.922077922078","994.922077922078","black","no","legacy","legacy","legacy","0","uniform","0","undefined","undefined","undefined","0","j","0","0","0","0","76","0","0","0","76","0","72","76","72","0","72","3","76","0","76","Wed Feb 17 12:42:22 2021","The main experiment item","yes","Lexical_Decision_Task.osexp","/Users/Holly/Downloads","no","Andale Mono","no","18","no","white","no","yes","576","legacy","72","72","3","/Users/Holly/Downloads/subject-5208215.csv","legacy","Lentiform Loewenfeld","3.3.7","yes","yes","600bd7cfb6416f0113b04181","602110864497cf011d9c0822","0","f","NA","space","","space","space","f","528","NA","3117","10546","1737","3338","528","2","legacy","1024","2","48000","-16","task","5208215","odd","NA","35630","40751","37633","198262","4111","22734","20996","198764","146187","198260","198764","198220","40751","199294","33608","197720","4022","191961","Lexical Decision Task","65","76609","77","yes","1024"
"2.755364069","7.72","2","hoax","word","84.61538461538461","84.61538461538461","991.3846153846154","991.3846153846154","black","no","legacy","legacy","legacy","0","uniform","1","undefined","undefined","undefined","1","j","0","0","0","0","77","0","0","0","77","0","73","77","73","0","73","3","77","0","77","Wed Feb 17 12:42:22 2021","The main experiment item","yes","Lexical_Decision_Task.osexp","/Users/Holly/Downloads","no","Andale Mono","no","18","no","white","no","yes","576","legacy","73","73","3","/Users/Holly/Downloads/subject-5208215.csv","legacy","Lentiform Loewenfeld","3.3.7","yes","yes","600bd7cfb6416f0113b04181","602110864497cf011d9c0822","0","j","NA","space","","space","space","j","719","NA","3117","10546","1737","3338","719","2","legacy","1024","2","48000","-16","task","5208215","odd","NA","35630","40751","37633","200843","4111","22734","20996","201345","146187","200841","201345","200798","40751","202065","33608","197720","4022","199298","Lexical Decision Task","66","77328","78","yes","1024"
"3.529815197","0","3","lerm","non-word","84.81012658227849","84.81012658227849","987.5822784810126","987.5822784810126","black","no","legacy","legacy","legacy","0","uniform","1","undefined","undefined","undefined","1","f","0","0","0","0","78","0","0","0","78","0","74","78","74","0","74","3","78","0","78","Wed Feb 17 12:42:22 2021","The main experiment item","yes","Lexical_Decision_Task.osexp","/Users/Holly/Downloads","no","Andale Mono","no","18","no","white","no","yes","576","legacy","74","74","3","/Users/Holly/Downloads/subject-5208215.csv","legacy","Lentiform Loewenfeld","3.3.7","yes","yes","600bd7cfb6416f0113b04181","602110864497cf011d9c0822","0","f","NA","space","","space","space","f","691","NA","3117","10546","1737","3338","691","2","legacy","1024","2","48000","-16","task","5208215","odd","NA","35630","40751","37633","202614","4111","22734","20996","203116","146187","202612","203116","202570","40751","203808","33608","202070","4022","199298","Lexical Decision Task","67","78019","79","yes","1024"
"2.839898939","8.99","6","soap","word","85","85","980.85","980.85","black","no","legacy","legacy","legacy","0","uniform","1","undefined","undefined","undefined","1","j","0","0","0","0","79","0","0","0","79","0","75","79","75","0","75","3","79","0","79","Wed Feb 17 12:42:22 2021","The main experiment item","yes","Lexical_Decision_Task.osexp","/Users/Holly/Downloads","no","Andale Mono","no","18","no","white","no","yes","576","legacy","75","75","3","/Users/Holly/Downloads/subject-5208215.csv","legacy","Lentiform Loewenfeld","3.3.7","yes","yes","600bd7cfb6416f0113b04181","602110864497cf011d9c0822","0","j","NA","space","","space","space","j","449","NA","3117","10546","1737","3338","449","2","legacy","1024","2","48000","-16","task","5208215","odd","NA","35630","40751","37633","204356","4111","22734","20996","204858","146187","204354","204858","204313","40751","205308","33608","203813","4022","199298","Lexical Decision Task","68","78468","80","yes","1024"
"2.709837904","6.85","8","skim","word","85.18518518518519","85.18518518518519","973.8518518518518","973.8518518518518","black","no","legacy","legacy","legacy","0","uniform","1","undefined","undefined","undefined","1","j","0","0","0","0","80","0","0","0","80","0","76","80","76","0","76","3","80","0","80","Wed Feb 17 12:42:22 2021","The main experiment item","yes","Lexical_Decision_Task.osexp","/Users/Holly/Downloads","no","Andale Mono","no","18","no","white","no","yes","576","legacy","76","76","3","/Users/Holly/Downloads/subject-5208215.csv","legacy","Lentiform Loewenfeld","3.3.7","yes","yes","600bd7cfb6416f0113b04181","602110864497cf011d9c0822","0","j","NA","space","","space","space","j","414","NA","3117","10546","1737","3338","414","2","legacy","1024","2","48000","-16","task","5208215","odd","NA","35630","40751","37633","205858","4111","22734","20996","206360","146187","205855","206360","205813","40751","206775","33608","205312","4022","199298","Lexical Decision Task","69","78882","81","yes","1024"
"3.090140555","5.81","8","pout","word","84.14634146341463","84.14634146341463","971.8536585365854","971.8536585365854","black","no","legacy","legacy","legacy","0","uniform","0","undefined","undefined","undefined","0","j","0","0","0","0","81","0","0","0","81","0","77","81","77","0","77","3","81","0","81","Wed Feb 17 12:42:22 2021","The main experiment item","yes","Lexical_Decision_Task.osexp","/Users/Holly/Downloads","no","Andale Mono","no","18","no","white","no","yes","576","legacy","77","77","3","/Users/Holly/Downloads/subject-5208215.csv","legacy","Lentiform Loewenfeld","3.3.7","yes","yes","600bd7cfb6416f0113b04181","602110864497cf011d9c0822","0","f","NA","space","","space","space","f","810","NA","3117","10546","1737","3338","810","2","legacy","1024","2","48000","-16","task","5208215","odd","NA","35630","40751","37633","207329","4111","22734","20996","207832","146187","207327","207832","207280","40751","208643","33608","206780","4022","199298","Lexical Decision Task","69","79692","82","yes","1024"
"3.003891166","8.05","2","frog","word","84.33734939759036","84.33734939759036","965.7590361445783","965.7590361445783","black","no","legacy","legacy","legacy","0","uniform","1","undefined","undefined","undefined","1","j","0","0","0","0","82","0","0","0","82","0","78","82","78","0","78","3","82","0","82","Wed Feb 17 12:42:22 2021","The main experiment item","yes","Lexical_Decision_Task.osexp","/Users/Holly/Downloads","no","Andale Mono","no","18","no","white","no","yes","576","legacy","78","78","3","/Users/Holly/Downloads/subject-5208215.csv","legacy","Lentiform Loewenfeld","3.3.7","yes","yes","600bd7cfb6416f0113b04181","602110864497cf011d9c0822","0","j","NA","space","","space","space","j","466","NA","3117","10546","1737","3338","466","2","legacy","1024","2","48000","-16","task","5208215","odd","NA","35630","40751","37633","210191","4111","22734","20996","210693","146187","210190","210693","210147","40751","211160","33608","206780","4022","208647","Lexical Decision Task","70","80158","83","yes","1024"
"3.120135028","0","3","vals","non-word","84.52380952380952","84.52380952380952","962.8452380952381","962.8452380952381","black","no","legacy","legacy","legacy","0","uniform","1","undefined","undefined","undefined","1","f","0","0","0","0","83","0","0","0","83","0","79","83","79","0","79","3","83","0","83","Wed Feb 17 12:42:22 2021","The main experiment item","yes","Lexical_Decision_Task.osexp","/Users/Holly/Downloads","no","Andale Mono","no","18","no","white","no","yes","576","legacy","79","79","3","/Users/Holly/Downloads/subject-5208215.csv","legacy","Lentiform Loewenfeld","3.3.7","yes","yes","600bd7cfb6416f0113b04181","602110864497cf011d9c0822","0","f","NA","space","","space","space","f","721","NA","3117","10546","1737","3338","721","2","legacy","1024","2","48000","-16","task","5208215","odd","NA","35630","40751","37633","211708","4111","22734","20996","212210","146187","211705","212210","211664","40751","212932","33608","211164","4022","208647","Lexical Decision Task","71","80879","84","yes","1024"
"3.153001286","8.7","5","palm","word","84.70588235294117","84.70588235294117","958.364705882353","958.364705882353","black","no","legacy","legacy","legacy","0","uniform","1","undefined","undefined","undefined","1","j","0","0","0","0","84","0","0","0","84","0","80","84","80","0","80","3","84","0","84","Wed Feb 17 12:42:22 2021","The main experiment item","yes","Lexical_Decision_Task.osexp","/Users/Holly/Downloads","no","Andale Mono","no","18","no","white","no","yes","576","legacy","80","80","3","/Users/Holly/Downloads/subject-5208215.csv","legacy","Lentiform Loewenfeld","3.3.7","yes","yes","600bd7cfb6416f0113b04181","602110864497cf011d9c0822","0","j","NA","space","","space","space","j","582","NA","3117","10546","1737","3338","582","2","legacy","1024","2","48000","-16","task","5208215","odd","NA","35630","40751","37633","213480","4111","22734","20996","213982","146187","213478","213982","213436","40751","214565","33608","212936","4022","208647","Lexical Decision Task","72","81461","85","yes","1024"
"2.576725172","0","8","gowl","non-word","84.88372093023256","84.88372093023256","954.8255813953489","954.8255813953489","black","no","legacy","legacy","legacy","0","uniform","1","undefined","undefined","undefined","1","f","0","0","0","0","85","0","0","0","85","0","81","85","81","0","81","3","85","0","85","Wed Feb 17 12:42:22 2021","The main experiment item","yes","Lexical_Decision_Task.osexp","/Users/Holly/Downloads","no","Andale Mono","no","18","no","white","no","yes","576","legacy","81","81","3","/Users/Holly/Downloads/subject-5208215.csv","legacy","Lentiform Loewenfeld","3.3.7","yes","yes","600bd7cfb6416f0113b04181","602110864497cf011d9c0822","0","f","NA","space","","space","space","f","654","NA","3117","10546","1737","3338","654","2","legacy","1024","2","48000","-16","task","5208215","odd","NA","35630","40751","37633","215113","4111","22734","20996","215615","146187","215110","215615","215070","40751","216270","33608","214570","4022","208647","Lexical Decision Task","73","82115","86","yes","1024"
"3.168400243","9.12","6","horn","word","85.05747126436782","85.05747126436782","949.7126436781609","949.7126436781609","black","no","legacy","legacy","legacy","0","uniform","1","undefined","undefined","undefined","1","j","0","0","0","0","86","0","0","0","86","0","82","86","82","0","82","3","86","0","86","Wed Feb 17 12:42:22 2021","The main experiment item","yes","Lexical_Decision_Task.osexp","/Users/Holly/Downloads","no","Andale Mono","no","18","no","white","no","yes","576","legacy","82","82","3","/Users/Holly/Downloads/subject-5208215.csv","legacy","Lentiform Loewenfeld","3.3.7","yes","yes","600bd7cfb6416f0113b04181","602110864497cf011d9c0822","0","j","NA","space","","space","space","j","510","NA","3117","10546","1737","3338","510","2","legacy","1024","2","48000","-16","task","5208215","odd","NA","35630","40751","37633","216817","4111","22734","20996","217320","146187","216816","217320","216774","40751","217831","33608","216274","4022","208647","Lexical Decision Task","74","82625","87","yes","1024"
"3.257359335","8","6","brew","word","85.22727272727273","85.22727272727273","944.4318181818181","944.4318181818181","black","no","legacy","legacy","legacy","0","uniform","1","undefined","undefined","undefined","1","j","0","0","0","0","87","0","0","0","87","0","83","87","83","0","83","3","87","0","87","Wed Feb 17 12:42:22 2021","The main experiment item","yes","Lexical_Decision_Task.osexp","/Users/Holly/Downloads","no","Andale Mono","no","18","no","white","no","yes","576","legacy","83","83","3","/Users/Holly/Downloads/subject-5208215.csv","legacy","Lentiform Loewenfeld","3.3.7","yes","yes","600bd7cfb6416f0113b04181","602110864497cf011d9c0822","0","j","NA","space","","space","space","j","485","NA","3117","10546","1737","3338","485","2","legacy","1024","2","48000","-16","task","5208215","odd","NA","35630","40751","37633","218378","4111","22734","20996","218880","146187","218376","218880","218335","40751","219367","33608","217835","4022","208647","Lexical Decision Task","75","83110","88","yes","1024"
"2.838639236","0","4","furg","non-word","85.3932584269663","85.3932584269663","939.6404494382023","939.6404494382023","black","no","legacy","legacy","legacy","0","uniform","1","undefined","undefined","undefined","1","f","0","0","0","0","88","0","0","0","88","0","84","88","84","0","84","3","88","0","88","Wed Feb 17 12:42:22 2021","The main experiment item","yes","Lexical_Decision_Task.osexp","/Users/Holly/Downloads","no","Andale Mono","no","18","no","white","no","yes","576","legacy","84","84","3","/Users/Holly/Downloads/subject-5208215.csv","legacy","Lentiform Loewenfeld","3.3.7","yes","yes","600bd7cfb6416f0113b04181","602110864497cf011d9c0822","0","f","NA","space","","space","space","f","518","NA","3117","10546","1737","3338","518","2","legacy","1024","2","48000","-16","task","5208215","odd","NA","35630","40751","37633","219914","4111","22734","20996","220416","146187","219912","220416","219871","40751","220936","33608","219371","4022","208647","Lexical Decision Task","76","83628","89","yes","1024"
"3.209246849","0","7","slem","non-word","84.44444444444444","84.44444444444444","934.2","934.2","black","no","legacy","legacy","legacy","0","uniform","0","undefined","undefined","undefined","0","f","0","0","0","0","89","0","0","0","89","0","85","89","85","0","85","3","89","0","89","Wed Feb 17 12:42:22 2021","The main experiment item","yes","Lexical_Decision_Task.osexp","/Users/Holly/Downloads","no","Andale Mono","no","18","no","white","no","yes","576","legacy","85","85","3","/Users/Holly/Downloads/subject-5208215.csv","legacy","Lentiform Loewenfeld","3.3.7","yes","yes","600bd7cfb6416f0113b04181","602110864497cf011d9c0822","0","j","NA","space","","space","space","j","450","NA","3117","10546","1737","3338","450","2","legacy","1024","2","48000","-16","task","5208215","odd","NA","35630","40751","37633","221483","4111","22734","20996","221985","146187","221481","221985","221440","40751","222437","33608","220940","4022","208647","Lexical Decision Task","76","84078","90","yes","1024"
"3.531734309","0","6","lerd","non-word","84.61538461538461","84.61538461538461","931.5934065934066","931.5934065934066","black","no","legacy","legacy","legacy","0","uniform","1","undefined","undefined","undefined","1","f","0","0","0","0","90","0","0","0","90","0","86","90","86","0","86","3","90","0","90","Wed Feb 17 12:42:22 2021","The main experiment item","yes","Lexical_Decision_Task.osexp","/Users/Holly/Downloads","no","Andale Mono","no","18","no","white","no","yes","576","legacy","86","86","3","/Users/Holly/Downloads/subject-5208215.csv","legacy","Lentiform Loewenfeld","3.3.7","yes","yes","600bd7cfb6416f0113b04181","602110864497cf011d9c0822","0","f","NA","space","","space","space","f","697","NA","3117","10546","1737","3338","697","2","legacy","1024","2","48000","-16","task","5208215","odd","NA","35630","40751","37633","223987","4111","22734","20996","224489","146187","223984","224489","223941","40751","225188","33608","220940","4022","222441","Lexical Decision Task","77","84775","91","yes","1024"
"2.898725182","0","7","turl","non-word","84.78260869565217","84.78260869565217","928.5760869565217","928.5760869565217","black","no","legacy","legacy","legacy","0","uniform","1","undefined","undefined","undefined","1","f","0","0","0","0","91","0","0","0","91","0","87","91","87","0","87","3","91","0","91","Wed Feb 17 12:42:22 2021","The main experiment item","yes","Lexical_Decision_Task.osexp","/Users/Holly/Downloads","no","Andale Mono","no","18","no","white","no","yes","576","legacy","87","87","3","/Users/Holly/Downloads/subject-5208215.csv","legacy","Lentiform Loewenfeld","3.3.7","yes","yes","600bd7cfb6416f0113b04181","602110864497cf011d9c0822","0","f","NA","space","","space","space","f","654","NA","3117","10546","1737","3338","654","2","legacy","1024","2","48000","-16","task","5208215","odd","NA","35630","40751","37633","225735","4111","22734","20996","226237","146187","225733","226237","225692","40751","226893","33608","225192","4022","222441","Lexical Decision Task","78","85429","92","yes","1024"
"2.95456409","0","4","taud","non-word","84.94623655913979","84.94623655913979","923.6559139784946","923.6559139784946","black","no","legacy","legacy","legacy","0","uniform","1","undefined","undefined","undefined","1","f","0","0","0","0","92","0","0","0","92","0","88","92","88","0","88","3","92","0","92","Wed Feb 17 12:42:22 2021","The main experiment item","yes","Lexical_Decision_Task.osexp","/Users/Holly/Downloads","no","Andale Mono","no","18","no","white","no","yes","576","legacy","88","88","3","/Users/Holly/Downloads/subject-5208215.csv","legacy","Lentiform Loewenfeld","3.3.7","yes","yes","600bd7cfb6416f0113b04181","602110864497cf011d9c0822","0","f","NA","space","","space","space","f","471","NA","3117","10546","1737","3338","471","2","legacy","1024","2","48000","-16","task","5208215","odd","NA","35630","40751","37633","227440","4111","22734","20996","227942","146187","227438","227942","227397","40751","228415","33608","226897","4022","222441","Lexical Decision Task","79","85900","93","yes","1024"
"2.668385917","5.48","4","twig","word","85.1063829787234","85.1063829787234","919.2553191489362","919.2553191489362","black","no","legacy","legacy","legacy","0","uniform","1","undefined","undefined","undefined","1","j","0","0","0","0","93","0","0","0","93","0","89","93","89","0","89","3","93","0","93","Wed Feb 17 12:42:22 2021","The main experiment item","yes","Lexical_Decision_Task.osexp","/Users/Holly/Downloads","no","Andale Mono","no","18","no","white","no","yes","576","legacy","89","89","3","/Users/Holly/Downloads/subject-5208215.csv","legacy","Lentiform Loewenfeld","3.3.7","yes","yes","600bd7cfb6416f0113b04181","602110864497cf011d9c0822","0","j","NA","space","","space","space","j","510","NA","3117","10546","1737","3338","510","2","legacy","1024","2","48000","-16","task","5208215","odd","NA","35630","40751","37633","228963","4111","22734","20996","229465","146187","228961","229465","228919","40751","229976","33608","228419","4022","222441","Lexical Decision Task","80","86410","94","yes","1024"
"3.174641193","0","3","ramb","non-word","85.26315789473684","85.26315789473684","919.6","919.6","black","no","legacy","legacy","legacy","0","uniform","1","undefined","undefined","undefined","1","f","0","0","0","0","94","0","0","0","94","0","90","94","90","0","90","3","94","0","94","Wed Feb 17 12:42:22 2021","The main experiment item","yes","Lexical_Decision_Task.osexp","/Users/Holly/Downloads","no","Andale Mono","no","18","no","white","no","yes","576","legacy","90","90","3","/Users/Holly/Downloads/subject-5208215.csv","legacy","Lentiform Loewenfeld","3.3.7","yes","yes","600bd7cfb6416f0113b04181","602110864497cf011d9c0822","0","f","NA","space","","space","space","f","952","NA","3117","10546","1737","3338","952","2","legacy","1024","2","48000","-16","task","5208215","odd","NA","35630","40751","37633","230524","4111","22734","20996","231026","146187","230522","231026","230481","40751","231979","33608","229981","4022","222441","Lexical Decision Task","81","87362","95","yes","1024"
"2.803231716","5.26","3","kiln","word","85.41666666666667","85.41666666666667","918.25","918.25","black","no","legacy","legacy","legacy","0","uniform","1","undefined","undefined","undefined","1","j","0","0","0","0","95","0","0","0","95","0","91","95","91","0","91","3","95","0","95","Wed Feb 17 12:42:22 2021","The main experiment item","yes","Lexical_Decision_Task.osexp","/Users/Holly/Downloads","no","Andale Mono","no","18","no","white","no","yes","576","legacy","91","91","3","/Users/Holly/Downloads/subject-5208215.csv","legacy","Lentiform Loewenfeld","3.3.7","yes","yes","600bd7cfb6416f0113b04181","602110864497cf011d9c0822","0","j","NA","space","","space","space","j","790","NA","3117","10546","1737","3338","790","2","legacy","1024","2","48000","-16","task","5208215","odd","NA","35630","40751","37633","232526","4111","22734","20996","233028","146187","232524","233028","232484","40751","233819","33608","231984","4022","222441","Lexical Decision Task","82","88152","96","yes","1024"
"3.149629599","0","2","cleb","non-word","85.56701030927834","85.56701030927834","914.6907216494845","914.6907216494845","black","no","legacy","legacy","legacy","0","uniform","1","undefined","undefined","undefined","1","f","0","0","0","0","96","0","0","0","96","0","92","96","92","0","92","3","96","0","96","Wed Feb 17 12:42:22 2021","The main experiment item","yes","Lexical_Decision_Task.osexp","/Users/Holly/Downloads","no","Andale Mono","no","18","no","white","no","yes","576","legacy","92","92","3","/Users/Holly/Downloads/subject-5208215.csv","legacy","Lentiform Loewenfeld","3.3.7","yes","yes","600bd7cfb6416f0113b04181","602110864497cf011d9c0822","0","f","NA","space","","space","space","f","573","NA","3117","10546","1737","3338","573","2","legacy","1024","2","48000","-16","task","5208215","odd","NA","35630","40751","37633","234367","4111","22734","20996","234869","146187","234364","234869","234323","40751","235443","33608","233823","4022","222441","Lexical Decision Task","83","88725","97","yes","1024"
"3.705778213","0","6","stin","non-word","85.71428571428571","85.71428571428571","912.5510204081633","912.5510204081633","black","no","legacy","legacy","legacy","0","uniform","1","undefined","undefined","undefined","1","f","0","0","0","0","97","0","0","0","97","0","93","97","93","0","93","3","97","0","97","Wed Feb 17 12:42:22 2021","The main experiment item","yes","Lexical_Decision_Task.osexp","/Users/Holly/Downloads","no","Andale Mono","no","18","no","white","no","yes","576","legacy","93","93","3","/Users/Holly/Downloads/subject-5208215.csv","legacy","Lentiform Loewenfeld","3.3.7","yes","yes","600bd7cfb6416f0113b04181","602110864497cf011d9c0822","0","f","NA","space","","space","space","f","705","NA","3117","10546","1737","3338","705","2","legacy","1024","2","48000","-16","task","5208215","odd","NA","35630","40751","37633","235991","4111","22734","20996","236493","146187","235989","236493","235948","40751","237199","33608","235448","4022","222441","Lexical Decision Task","84","89430","98","yes","1024"
"3.488597715","0","9","nain","non-word","85.85858585858585","85.85858585858585","911.3131313131313","911.3131313131313","black","no","legacy","legacy","legacy","0","uniform","1","undefined","undefined","undefined","1","f","0","0","0","0","98","0","0","0","98","0","94","98","94","0","94","3","98","0","98","Wed Feb 17 12:42:22 2021","The main experiment item","yes","Lexical_Decision_Task.osexp","/Users/Holly/Downloads","no","Andale Mono","no","18","no","white","no","yes","576","legacy","94","94","3","/Users/Holly/Downloads/subject-5208215.csv","legacy","Lentiform Loewenfeld","3.3.7","yes","yes","600bd7cfb6416f0113b04181","602110864497cf011d9c0822","0","f","NA","space","","space","space","f","790","NA","3117","10546","1737","3338","790","2","legacy","1024","2","48000","-16","task","5208215","odd","NA","35630","40751","37633","237747","4111","22734","20996","238249","146187","237745","238249","237704","40751","239040","33608","237204","4022","222441","Lexical Decision Task","85","90220","99","yes","1024"
"2.952953801","0","8","clax","non-word","86","86","910.57","910.57","black","no","legacy","legacy","legacy","0","uniform","1","undefined","undefined","undefined","1","f","0","0","0","0","99","0","0","0","99","0","95","99","95","0","95","3","99","0","99","Wed Feb 17 12:42:22 2021","The main experiment item","yes","Lexical_Decision_Task.osexp","/Users/Holly/Downloads","no","Andale Mono","no","18","no","white","no","yes","576","legacy","95","95","3","/Users/Holly/Downloads/subject-5208215.csv","legacy","Lentiform Loewenfeld","3.3.7","yes","yes","600bd7cfb6416f0113b04181","602110864497cf011d9c0822","0","f","NA","space","","space","space","f","837","NA","3117","10546","1737","3338","837","2","legacy","1024","2","48000","-16","task","5208215","odd","NA","35630","40751","37633","239586","4111","22734","20996","240088","146187","239585","240088","239544","40751","240926","33608","239044","4022","222441","Lexical Decision Task","86","91057","100","yes","1024"
"2.907588697","8.91","9","mood","word","86.13861386138613","86.13861386138613","911.2772277227723","911.2772277227723","black","no","legacy","legacy","legacy","0","uniform","1","undefined","undefined","undefined","1","j","0","0","0","0","100","0","0","0","100","0","96","100","96","0","96","3","100","0","100","Wed Feb 17 12:42:22 2021","The main experiment item","yes","Lexical_Decision_Task.osexp","/Users/Holly/Downloads","no","Andale Mono","no","18","no","white","no","yes","576","legacy","96","96","3","/Users/Holly/Downloads/subject-5208215.csv","legacy","Lentiform Loewenfeld","3.3.7","yes","yes","600bd7cfb6416f0113b04181","602110864497cf011d9c0822","0","j","NA","space","","space","space","j","982","NA","3117","10546","1737","3338","982","2","legacy","1024","2","48000","-16","task","5208215","odd","NA","35630","40751","37633","241473","4111","22734","20996","241975","146187","241471","241975","241430","40751","242958","33608","240930","4022","222441","Lexical Decision Task","87","92039","101","yes","1024"
