"Log_BG","Log_Freq_HAL","Ortho_N","Stimulus","Type","acc","accuracy","average_response_time","avg_rt","background","bidi","canvas_backend","clock_backend","color_backend","compensation","coordinates","correct","correct_Experimental_intro","correct_Introduction","correct_Practice_intro","correct_experimenter_kb","correct_response","count_End_Of_Experiment","count_End_Of_Practice","count_Experimental_Loop","count_Experimental_intro","count_Fixation","count_Introduction","count_Practice_Loop","count_Practice_intro","count_Stimulus","count_block_break_feedback","count_experimental_sequence","count_experimenter_kb","count_increment_trial_count","count_init_trial_count","count_logger","count_practice_sequence","count_right","count_task","count_wrong","datetime","description","disable_garbage_collection","experiment_file","experiment_path","font_bold","font_family","font_italic","font_size","font_underline","foreground","form_clicks","fullscreen","height","keyboard_backend","live_row","live_row_Experimental_Loop","live_row_Practice_Loop","logfile","mouse_backend","opensesame_codename","opensesame_version","osf_always_upload_data","osf_always_upload_experiment","osf_datanode_id","osf_id","repeat_cycle","response","response_End_Of_Experiment","response_Experimental_intro","response_Introduction","response_Practice_intro","response_block_break_feedback","response_experimenter_kb","response_time","response_time_End_Of_Experiment","response_time_Experimental_intro","response_time_Introduction","response_time_Practice_intro","response_time_block_break_feedback","response_time_experimenter_kb","round_decimals","sampler_backend","sound_buf_size","sound_channels","sound_freq","sound_sample_size","start","subject_nr","subject_parity","time_End_Of_Experiment","time_End_Of_Practice","time_Experimental_Loop","time_Experimental_intro","time_Fixation","time_Introduction","time_Practice_Loop","time_Practice_intro","time_Stimulus","time_block_break_feedback","time_experimental_sequence","time_experimenter_kb","time_increment_trial_count","time_init_trial_count","time_logger","time_practice_sequence","time_right","time_task","time_wrong","title","total_correct","total_response_time","total_responses","uniform_coordinates","width"
"3.303771854","0","9","dath","non-word","60","60","1940.2","1940.2","black","no","legacy","legacy","legacy","0","uniform","1","undefined","undefined","undefined","1","f","0","0","0","0","4","0","0","0","4","NA","0","4","0","0","0","3","4","0","4","Fri Feb 19 12:54:21 2021","The main experiment item","yes","Lexical_Decision_Task.osexp","C:/Users/Spoly","no","Andale Mono","no","18","no","white","no","yes","576","legacy","0","0","3","C:/Users/Spoly/subject-5206261.csv","legacy","Lentiform Loewenfeld","3.3.7","yes","yes","600bd7cfb6416f0113b04181","602110864497cf011d9c0822","0","f","NA","space","space","space","NA","f","1580","NA","26532","29574","2605","NA","1580","2","legacy","1024","2","48000","-16","task","5206261","odd","NA","50519","79054","52521","79099","3896","36078","33472","79600","NA","79097","79600","NA","79054","81181","45493","44937","3891","48998","Lexical Decision Task","3","9701","5","yes","1024"
"3.149629599","0","2","cleb","non-word","66.66666666666667","66.66666666666667","1851.8333333333333","1851.8333333333333","black","no","legacy","legacy","legacy","0","uniform","1","undefined","undefined","undefined","1","f","0","0","0","0","5","0","0","0","5","NA","1","5","1","0","1","3","5","0","5","Fri Feb 19 12:54:21 2021","The main experiment item","yes","Lexical_Decision_Task.osexp","C:/Users/Spoly","no","Andale Mono","no","18","no","white","no","yes","576","legacy","1","1","3","C:/Users/Spoly/subject-5206261.csv","legacy","Lentiform Loewenfeld","3.3.7","yes","yes","600bd7cfb6416f0113b04181","602110864497cf011d9c0822","0","f","NA","space","space","space","NA","f","1410","NA","26532","29574","2605","NA","1410","2","legacy","1024","2","48000","-16","task","5206261","odd","NA","50519","79054","52521","81772","3896","36078","33472","82273","NA","81770","82273","81692","79054","83684","45493","81192","3891","48998","Lexical Decision Task","4","11111","6","yes","1024"
"3.028977705","0","7","frow","non-word","71.42857142857143","71.42857142857143","1716.4285714285713","1716.4285714285713","black","no","legacy","legacy","legacy","0","uniform","1","undefined","undefined","undefined","1","f","0","0","0","0","6","0","0","0","6","NA","2","6","2","0","2","3","6","0","6","Fri Feb 19 12:54:21 2021","The main experiment item","yes","Lexical_Decision_Task.osexp","C:/Users/Spoly","no","Andale Mono","no","18","no","white","no","yes","576","legacy","2","2","3","C:/Users/Spoly/subject-5206261.csv","legacy","Lentiform Loewenfeld","3.3.7","yes","yes","600bd7cfb6416f0113b04181","602110864497cf011d9c0822","0","f","NA","space","space","space","NA","f","904","NA","26532","29574","2605","NA","904","2","legacy","1024","2","48000","-16","task","5206261","odd","NA","50519","79054","52521","84253","3896","36078","33472","84754","NA","84251","84754","84189","79054","85659","45493","83689","3891","48998","Lexical Decision Task","5","12015","7","yes","1024"
"2.966923697","5.4","2","fume","word","75","75","1575.375","1575.375","black","no","legacy","legacy","legacy","0","uniform","1","undefined","undefined","undefined","1","j","0","0","0","0","7","0","0","0","7","NA","3","7","3","0","3","3","7","0","7","Fri Feb 19 12:54:21 2021","The main experiment item","yes","Lexical_Decision_Task.osexp","C:/Users/Spoly","no","Andale Mono","no","18","no","white","no","yes","576","legacy","3","3","3","C:/Users/Spoly/subject-5206261.csv","legacy","Lentiform Loewenfeld","3.3.7","yes","yes","600bd7cfb6416f0113b04181","602110864497cf011d9c0822","0","j","NA","space","space","space","NA","j","588","NA","26532","29574","2605","NA","588","2","legacy","1024","2","48000","-16","task","5206261","odd","NA","50519","79054","52521","86230","3896","36078","33472","86731","NA","86228","86731","86164","79054","87320","45493","85664","3891","48998","Lexical Decision Task","6","12603","8","yes","1024"
"3.307211407","6.07","7","honk","word","77.77777777777777","77.77777777777777","1473.5555555555557","1473.5555555555557","black","no","legacy","legacy","legacy","0","uniform","1","undefined","undefined","undefined","1","j","0","0","0","0","8","0","0","0","8","NA","4","8","4","0","4","3","8","0","8","Fri Feb 19 12:54:21 2021","The main experiment item","yes","Lexical_Decision_Task.osexp","C:/Users/Spoly","no","Andale Mono","no","18","no","white","no","yes","576","legacy","4","4","3","C:/Users/Spoly/subject-5206261.csv","legacy","Lentiform Loewenfeld","3.3.7","yes","yes","600bd7cfb6416f0113b04181","602110864497cf011d9c0822","0","j","NA","space","space","space","NA","j","659","NA","26532","29574","2605","NA","659","2","legacy","1024","2","48000","-16","task","5206261","odd","NA","50519","79054","52521","87886","3896","36078","33472","88387","NA","87885","88387","87824","79054","89046","45493","87324","3891","48998","Lexical Decision Task","7","13262","9","yes","1024"
"2.972357144","0","5","dasp","non-word","70","70","1369.9","1369.9","black","no","legacy","legacy","legacy","0","uniform","0","undefined","undefined","undefined","0","f","0","0","0","0","9","0","0","0","9","NA","5","9","5","0","5","3","9","0","9","Fri Feb 19 12:54:21 2021","The main experiment item","yes","Lexical_Decision_Task.osexp","C:/Users/Spoly","no","Andale Mono","no","18","no","white","no","yes","576","legacy","5","5","3","C:/Users/Spoly/subject-5206261.csv","legacy","Lentiform Loewenfeld","3.3.7","yes","yes","600bd7cfb6416f0113b04181","602110864497cf011d9c0822","0","j","NA","space","space","space","NA","j","437","NA","26532","29574","2605","NA","437","2","legacy","1024","2","48000","-16","task","5206261","odd","NA","50519","79054","52521","89609","3896","36078","33472","90111","NA","89608","90111","89551","79054","90549","45493","89050","3891","48998","Lexical Decision Task","7","13699","10","yes","1024"
"2.842815106","7.86","8","lump","word","72.72727272727273","72.72727272727273","1296.3636363636363","1296.3636363636363","black","no","legacy","legacy","legacy","0","uniform","1","undefined","undefined","undefined","1","j","0","0","0","0","10","0","0","0","10","NA","6","10","6","0","6","3","10","0","10","Fri Feb 19 12:54:21 2021","The main experiment item","yes","Lexical_Decision_Task.osexp","C:/Users/Spoly","no","Andale Mono","no","18","no","white","no","yes","576","legacy","6","6","3","C:/Users/Spoly/subject-5206261.csv","legacy","Lentiform Loewenfeld","3.3.7","yes","yes","600bd7cfb6416f0113b04181","602110864497cf011d9c0822","0","j","NA","space","space","space","NA","j","561","NA","26532","29574","2605","NA","561","2","legacy","1024","2","48000","-16","task","5206261","odd","NA","50519","79054","52521","92111","3896","36078","33472","92612","NA","92110","92612","92054","79054","93175","45493","89050","3891","90554","Lexical Decision Task","8","14260","11","yes","1024"
"3.208978517","10.33","4","fish","word","75","75","1235.25","1235.25","black","no","legacy","legacy","legacy","0","uniform","1","undefined","undefined","undefined","1","j","0","0","0","0","11","0","0","0","11","NA","7","11","7","0","7","3","11","0","11","Fri Feb 19 12:54:21 2021","The main experiment item","yes","Lexical_Decision_Task.osexp","C:/Users/Spoly","no","Andale Mono","no","18","no","white","no","yes","576","legacy","7","7","3","C:/Users/Spoly/subject-5206261.csv","legacy","Lentiform Loewenfeld","3.3.7","yes","yes","600bd7cfb6416f0113b04181","602110864497cf011d9c0822","0","j","NA","space","space","space","NA","j","563","NA","26532","29574","2605","NA","563","2","legacy","1024","2","48000","-16","task","5206261","odd","NA","50519","79054","52521","93735","3896","36078","33472","94236","NA","93734","94236","93679","79054","94800","45493","93179","3891","90554","Lexical Decision Task","9","14823","12","yes","1024"
"3.261341392","5.08","8","reek","word","69.23076923076923","69.23076923076923","1196.2307692307693","1196.2307692307693","black","no","legacy","legacy","legacy","0","uniform","0","undefined","undefined","undefined","0","j","0","0","0","0","12","0","0","0","12","NA","8","12","8","0","8","3","12","0","12","Fri Feb 19 12:54:21 2021","The main experiment item","yes","Lexical_Decision_Task.osexp","C:/Users/Spoly","no","Andale Mono","no","18","no","white","no","yes","576","legacy","8","8","3","C:/Users/Spoly/subject-5206261.csv","legacy","Lentiform Loewenfeld","3.3.7","yes","yes","600bd7cfb6416f0113b04181","602110864497cf011d9c0822","0","f","NA","space","space","space","NA","f","728","NA","26532","29574","2605","NA","728","2","legacy","1024","2","48000","-16","task","5206261","odd","NA","50519","79054","52521","95361","3896","36078","33472","95862","NA","95360","95862","95303","79054","96591","45493","94803","3891","90554","Lexical Decision Task","9","15551","13","yes","1024"
"2.784379519","0","2","snaf","non-word","71.42857142857143","71.42857142857143","1157.357142857143","1157.357142857143","black","no","legacy","legacy","legacy","0","uniform","1","undefined","undefined","undefined","1","f","0","0","0","0","13","0","0","0","13","NA","9","13","9","0","9","3","13","0","13","Fri Feb 19 12:54:21 2021","The main experiment item","yes","Lexical_Decision_Task.osexp","C:/Users/Spoly","no","Andale Mono","no","18","no","white","no","yes","576","legacy","9","9","3","C:/Users/Spoly/subject-5206261.csv","legacy","Lentiform Loewenfeld","3.3.7","yes","yes","600bd7cfb6416f0113b04181","602110864497cf011d9c0822","0","f","NA","space","space","space","NA","f","652","NA","26532","29574","2605","NA","652","2","legacy","1024","2","48000","-16","task","5206261","odd","NA","50519","79054","52521","98154","3896","36078","33472","98655","NA","98153","98655","98096","79054","99308","45493","94803","3891","96596","Lexical Decision Task","10","16203","14","yes","1024"
"2.884795364","0","6","flob","non-word","73.33333333333333","73.33333333333333","1144.5333333333333","1144.5333333333333","black","no","legacy","legacy","legacy","0","uniform","1","undefined","undefined","undefined","1","f","0","0","0","0","14","0","0","0","14","NA","10","14","10","0","10","3","14","0","14","Fri Feb 19 12:54:21 2021","The main experiment item","yes","Lexical_Decision_Task.osexp","C:/Users/Spoly","no","Andale Mono","no","18","no","white","no","yes","576","legacy","10","10","3","C:/Users/Spoly/subject-5206261.csv","legacy","Lentiform Loewenfeld","3.3.7","yes","yes","600bd7cfb6416f0113b04181","602110864497cf011d9c0822","0","f","NA","space","space","space","NA","f","965","NA","26532","29574","2605","NA","965","2","legacy","1024","2","48000","-16","task","5206261","odd","NA","50519","79054","52521","99869","3896","36078","33472","100370","NA","99868","100370","99813","79054","101336","45493","99313","3891","96596","Lexical Decision Task","11","17168","15","yes","1024"
"3.049218023","7.4","9","robe","word","75","75","1110.8125","1110.8125","black","no","legacy","legacy","legacy","0","uniform","1","undefined","undefined","undefined","1","j","0","0","0","0","15","0","0","0","15","NA","11","15","11","0","11","3","15","0","15","Fri Feb 19 12:54:21 2021","The main experiment item","yes","Lexical_Decision_Task.osexp","C:/Users/Spoly","no","Andale Mono","no","18","no","white","no","yes","576","legacy","11","11","3","C:/Users/Spoly/subject-5206261.csv","legacy","Lentiform Loewenfeld","3.3.7","yes","yes","600bd7cfb6416f0113b04181","602110864497cf011d9c0822","0","j","NA","space","space","space","NA","j","605","NA","26532","29574","2605","NA","605","2","legacy","1024","2","48000","-16","task","5206261","odd","NA","50519","79054","52521","101898","3896","36078","33472","102399","NA","101897","102399","101842","79054","103006","45493","101342","3891","96596","Lexical Decision Task","12","17773","16","yes","1024"
"3.274543461","7.46","7","scar","word","76.47058823529412","76.47058823529412","1077.5882352941176","1077.5882352941176","black","no","legacy","legacy","legacy","0","uniform","1","undefined","undefined","undefined","1","j","0","0","0","0","16","0","0","0","16","NA","12","16","12","0","12","3","16","0","16","Fri Feb 19 12:54:21 2021","The main experiment item","yes","Lexical_Decision_Task.osexp","C:/Users/Spoly","no","Andale Mono","no","18","no","white","no","yes","576","legacy","12","12","3","C:/Users/Spoly/subject-5206261.csv","legacy","Lentiform Loewenfeld","3.3.7","yes","yes","600bd7cfb6416f0113b04181","602110864497cf011d9c0822","0","j","NA","space","space","space","NA","j","546","NA","26532","29574","2605","NA","546","2","legacy","1024","2","48000","-16","task","5206261","odd","NA","50519","79054","52521","103568","3896","36078","33472","104069","NA","103566","104069","103509","79054","104616","45493","103009","3891","96596","Lexical Decision Task","13","18319","17","yes","1024"
"2.924968096","0","4","phim","non-word","77.77777777777777","77.77777777777777","1061.2777777777778","1061.2777777777778","black","no","legacy","legacy","legacy","0","uniform","1","undefined","undefined","undefined","1","f","0","0","0","0","17","0","0","0","17","NA","13","17","13","0","13","3","17","0","17","Fri Feb 19 12:54:21 2021","The main experiment item","yes","Lexical_Decision_Task.osexp","C:/Users/Spoly","no","Andale Mono","no","18","no","white","no","yes","576","legacy","13","13","3","C:/Users/Spoly/subject-5206261.csv","legacy","Lentiform Loewenfeld","3.3.7","yes","yes","600bd7cfb6416f0113b04181","602110864497cf011d9c0822","0","f","NA","space","space","space","NA","f","784","NA","26532","29574","2605","NA","784","2","legacy","1024","2","48000","-16","task","5206261","odd","NA","50519","79054","52521","105181","3896","36078","33472","105682","NA","105179","105682","105121","79054","106466","45493","104621","3891","96596","Lexical Decision Task","14","19103","18","yes","1024"
"3.165936429","0","7","leps","non-word","78.94736842105263","78.94736842105263","1041.421052631579","1041.421052631579","black","no","legacy","legacy","legacy","0","uniform","1","undefined","undefined","undefined","1","f","0","0","0","0","18","0","0","0","18","NA","14","18","14","0","14","3","18","0","18","Fri Feb 19 12:54:21 2021","The main experiment item","yes","Lexical_Decision_Task.osexp","C:/Users/Spoly","no","Andale Mono","no","18","no","white","no","yes","576","legacy","14","14","3","C:/Users/Spoly/subject-5206261.csv","legacy","Lentiform Loewenfeld","3.3.7","yes","yes","600bd7cfb6416f0113b04181","602110864497cf011d9c0822","0","f","NA","space","space","space","NA","f","684","NA","26532","29574","2605","NA","684","2","legacy","1024","2","48000","-16","task","5206261","odd","NA","50519","79054","52521","107030","3896","36078","33472","107531","NA","107028","107531","106971","79054","108216","45493","106471","3891","96596","Lexical Decision Task","15","19787","19","yes","1024"
"2.68604012","0","4","pumb","non-word","80","80","1047.05","1047.05","black","no","legacy","legacy","legacy","0","uniform","1","undefined","undefined","undefined","1","f","0","0","0","0","19","0","0","0","19","NA","15","19","15","0","15","3","19","0","19","Fri Feb 19 12:54:21 2021","The main experiment item","yes","Lexical_Decision_Task.osexp","C:/Users/Spoly","no","Andale Mono","no","18","no","white","no","yes","576","legacy","15","15","3","C:/Users/Spoly/subject-5206261.csv","legacy","Lentiform Loewenfeld","3.3.7","yes","yes","600bd7cfb6416f0113b04181","602110864497cf011d9c0822","0","f","NA","space","space","space","NA","f","1154","NA","26532","29574","2605","NA","1154","2","legacy","1024","2","48000","-16","task","5206261","odd","NA","50519","79054","52521","108778","3896","36078","33472","109279","NA","108777","109279","108721","79054","110433","45493","108221","3891","96596","Lexical Decision Task","16","20941","20","yes","1024"
"3.195807436","0","6","stup","non-word","80.95238095238095","80.95238095238095","1076.7619047619048","1076.7619047619048","black","no","legacy","legacy","legacy","0","uniform","1","undefined","undefined","undefined","1","f","0","0","0","0","20","0","0","0","20","NA","16","20","16","0","16","3","20","0","20","Fri Feb 19 12:54:21 2021","The main experiment item","yes","Lexical_Decision_Task.osexp","C:/Users/Spoly","no","Andale Mono","no","18","no","white","no","yes","576","legacy","16","16","3","C:/Users/Spoly/subject-5206261.csv","legacy","Lentiform Loewenfeld","3.3.7","yes","yes","600bd7cfb6416f0113b04181","602110864497cf011d9c0822","0","f","NA","space","space","space","NA","f","1671","NA","26532","29574","2605","NA","1671","2","legacy","1024","2","48000","-16","task","5206261","odd","NA","50519","79054","52521","110999","3896","36078","33472","111500","NA","110997","111500","110939","79054","113171","45493","110439","3891","96596","Lexical Decision Task","17","22612","21","yes","1024"
"3.705778213","0","6","stin","non-word","81.81818181818181","81.81818181818181","1072.9545454545455","1072.9545454545455","black","no","legacy","legacy","legacy","0","uniform","1","undefined","undefined","undefined","1","f","0","0","0","0","21","0","0","0","21","NA","17","21","17","0","17","3","21","0","21","Fri Feb 19 12:54:21 2021","The main experiment item","yes","Lexical_Decision_Task.osexp","C:/Users/Spoly","no","Andale Mono","no","18","no","white","no","yes","576","legacy","17","17","3","C:/Users/Spoly/subject-5206261.csv","legacy","Lentiform Loewenfeld","3.3.7","yes","yes","600bd7cfb6416f0113b04181","602110864497cf011d9c0822","0","f","NA","space","space","space","NA","f","993","NA","26532","29574","2605","NA","993","2","legacy","1024","2","48000","-16","task","5206261","odd","NA","50519","79054","52521","113736","3896","36078","33472","114237","NA","113734","114237","113676","79054","115231","45493","113176","3891","96596","Lexical Decision Task","18","23605","22","yes","1024"
"2.980911938","7.15","7","hoop","word","82.6086956521739","82.6086956521739","1050.304347826087","1050.304347826087","black","no","legacy","legacy","legacy","0","uniform","1","undefined","undefined","undefined","1","j","0","0","0","0","22","0","0","0","22","NA","18","22","18","0","18","3","22","0","22","Fri Feb 19 12:54:21 2021","The main experiment item","yes","Lexical_Decision_Task.osexp","C:/Users/Spoly","no","Andale Mono","no","18","no","white","no","yes","576","legacy","18","18","3","C:/Users/Spoly/subject-5206261.csv","legacy","Lentiform Loewenfeld","3.3.7","yes","yes","600bd7cfb6416f0113b04181","602110864497cf011d9c0822","0","j","NA","space","space","space","NA","j","552","NA","26532","29574","2605","NA","552","2","legacy","1024","2","48000","-16","task","5206261","odd","NA","50519","79054","52521","115794","3896","36078","33472","116295","NA","115792","116295","115735","79054","116848","45493","115235","3891","96596","Lexical Decision Task","19","24157","23","yes","1024"
"3.010582609","0","2","drod","non-word","83.33333333333333","83.33333333333333","1034.625","1034.625","black","no","legacy","legacy","legacy","0","uniform","1","undefined","undefined","undefined","1","f","0","0","0","0","23","0","0","0","23","NA","19","23","19","0","19","3","23","0","23","Fri Feb 19 12:54:21 2021","The main experiment item","yes","Lexical_Decision_Task.osexp","C:/Users/Spoly","no","Andale Mono","no","18","no","white","no","yes","576","legacy","19","19","3","C:/Users/Spoly/subject-5206261.csv","legacy","Lentiform Loewenfeld","3.3.7","yes","yes","600bd7cfb6416f0113b04181","602110864497cf011d9c0822","0","f","NA","space","space","space","NA","f","674","NA","26532","29574","2605","NA","674","2","legacy","1024","2","48000","-16","task","5206261","odd","NA","50519","79054","52521","117412","3896","36078","33472","117913","NA","117411","117913","117354","79054","118588","45493","116853","3891","96596","Lexical Decision Task","20","24831","24","yes","1024"
"2.80048796","0","8","pife","non-word","84","84","1016.8","1016.8","black","no","legacy","legacy","legacy","0","uniform","1","undefined","undefined","undefined","1","f","0","0","0","0","24","0","0","0","24","NA","20","24","20","0","20","3","24","0","24","Fri Feb 19 12:54:21 2021","The main experiment item","yes","Lexical_Decision_Task.osexp","C:/Users/Spoly","no","Andale Mono","no","18","no","white","no","yes","576","legacy","20","20","3","C:/Users/Spoly/subject-5206261.csv","legacy","Lentiform Loewenfeld","3.3.7","yes","yes","600bd7cfb6416f0113b04181","602110864497cf011d9c0822","0","f","NA","space","space","space","NA","f","589","NA","26532","29574","2605","NA","589","2","legacy","1024","2","48000","-16","task","5206261","odd","NA","50519","79054","52521","119149","3896","36078","33472","119650","NA","119147","119650","119093","79054","120240","45493","118593","3891","96596","Lexical Decision Task","21","25420","25","yes","1024"
"3.374137706","10.21","4","tree","word","84.61538461538461","84.61538461538461","1000.8461538461538","1000.8461538461538","black","no","legacy","legacy","legacy","0","uniform","1","undefined","undefined","undefined","1","j","0","0","0","0","25","0","0","0","25","NA","21","25","21","0","21","3","25","0","25","Fri Feb 19 12:54:21 2021","The main experiment item","yes","Lexical_Decision_Task.osexp","C:/Users/Spoly","no","Andale Mono","no","18","no","white","no","yes","576","legacy","21","21","3","C:/Users/Spoly/subject-5206261.csv","legacy","Lentiform Loewenfeld","3.3.7","yes","yes","600bd7cfb6416f0113b04181","602110864497cf011d9c0822","0","j","NA","space","space","space","NA","j","602","NA","26532","29574","2605","NA","602","2","legacy","1024","2","48000","-16","task","5206261","odd","NA","50519","79054","52521","120802","3896","36078","33472","121304","NA","120800","121304","120744","79054","121907","45493","120244","3891","96596","Lexical Decision Task","22","26022","26","yes","1024"
"2.843025032","0","9","pusk","non-word","85.18518518518519","85.18518518518519","997.7407407407408","997.7407407407408","black","no","legacy","legacy","legacy","0","uniform","1","undefined","undefined","undefined","1","f","0","0","0","0","26","0","0","0","26","NA","22","26","22","0","22","3","26","0","26","Fri Feb 19 12:54:21 2021","The main experiment item","yes","Lexical_Decision_Task.osexp","C:/Users/Spoly","no","Andale Mono","no","18","no","white","no","yes","576","legacy","22","22","3","C:/Users/Spoly/subject-5206261.csv","legacy","Lentiform Loewenfeld","3.3.7","yes","yes","600bd7cfb6416f0113b04181","602110864497cf011d9c0822","0","f","NA","space","space","space","NA","f","917","NA","26532","29574","2605","NA","917","2","legacy","1024","2","48000","-16","task","5206261","odd","NA","50519","79054","52521","122468","3896","36078","33472","122969","NA","122466","122969","122411","79054","123887","45493","121911","3891","96596","Lexical Decision Task","23","26939","27","yes","1024"
"3.282244367","0","6","fute","non-word","85.71428571428571","85.71428571428571","997.2857142857143","997.2857142857143","black","no","legacy","legacy","legacy","0","uniform","1","undefined","undefined","undefined","1","f","0","0","0","0","27","0","0","0","27","NA","23","27","23","0","23","3","27","0","27","Fri Feb 19 12:54:21 2021","The main experiment item","yes","Lexical_Decision_Task.osexp","C:/Users/Spoly","no","Andale Mono","no","18","no","white","no","yes","576","legacy","23","23","3","C:/Users/Spoly/subject-5206261.csv","legacy","Lentiform Loewenfeld","3.3.7","yes","yes","600bd7cfb6416f0113b04181","602110864497cf011d9c0822","0","f","NA","space","space","space","NA","f","985","NA","26532","29574","2605","NA","985","2","legacy","1024","2","48000","-16","task","5206261","odd","NA","50519","79054","52521","124452","3896","36078","33472","124953","NA","124450","124954","124392","79054","125940","45493","123892","3891","96596","Lexical Decision Task","24","27924","28","yes","1024"
"3.037294994","8.64","7","roof","word","86.20689655172414","86.20689655172414","983.7241379310345","983.7241379310345","black","no","legacy","legacy","legacy","0","uniform","1","undefined","undefined","undefined","1","j","0","0","0","0","28","0","0","0","28","NA","24","28","24","0","24","3","28","0","28","Fri Feb 19 12:54:21 2021","The main experiment item","yes","Lexical_Decision_Task.osexp","C:/Users/Spoly","no","Andale Mono","no","18","no","white","no","yes","576","legacy","24","24","3","C:/Users/Spoly/subject-5206261.csv","legacy","Lentiform Loewenfeld","3.3.7","yes","yes","600bd7cfb6416f0113b04181","602110864497cf011d9c0822","0","j","NA","space","space","space","NA","j","604","NA","26532","29574","2605","NA","604","2","legacy","1024","2","48000","-16","task","5206261","odd","NA","50519","79054","52521","126502","3896","36078","33472","127003","NA","126501","127003","126445","79054","127607","45493","125945","3891","96596","Lexical Decision Task","25","28528","29","yes","1024"
"2.858136002","0","4","phip","non-word","86.66666666666667","86.66666666666667","975.4","975.4","black","no","legacy","legacy","legacy","0","uniform","1","undefined","undefined","undefined","1","f","0","0","0","0","29","0","0","0","29","NA","25","29","25","0","25","3","29","0","29","Fri Feb 19 12:54:21 2021","The main experiment item","yes","Lexical_Decision_Task.osexp","C:/Users/Spoly","no","Andale Mono","no","18","no","white","no","yes","576","legacy","25","25","3","C:/Users/Spoly/subject-5206261.csv","legacy","Lentiform Loewenfeld","3.3.7","yes","yes","600bd7cfb6416f0113b04181","602110864497cf011d9c0822","0","f","NA","space","space","space","NA","f","734","NA","26532","29574","2605","NA","734","2","legacy","1024","2","48000","-16","task","5206261","odd","NA","50519","79054","52521","128177","3896","36078","33472","128678","NA","128176","128678","128113","79054","129413","45493","127613","3891","96596","Lexical Decision Task","26","29262","30","yes","1024"
"3.431095062","5.74","9","perk","word","87.09677419354838","87.09677419354838","974.5806451612904","974.5806451612904","black","no","legacy","legacy","legacy","0","uniform","1","undefined","undefined","undefined","1","j","0","0","0","0","30","0","0","0","30","NA","26","30","26","0","26","3","30","0","30","Fri Feb 19 12:54:21 2021","The main experiment item","yes","Lexical_Decision_Task.osexp","C:/Users/Spoly","no","Andale Mono","no","18","no","white","no","yes","576","legacy","26","26","3","C:/Users/Spoly/subject-5206261.csv","legacy","Lentiform Loewenfeld","3.3.7","yes","yes","600bd7cfb6416f0113b04181","602110864497cf011d9c0822","0","j","NA","space","space","space","NA","j","950","NA","26532","29574","2605","NA","950","2","legacy","1024","2","48000","-16","task","5206261","odd","NA","50519","79054","52521","129976","3896","36078","33472","130477","NA","129975","130477","129918","79054","131428","45493","129417","3891","96596","Lexical Decision Task","27","30212","31","yes","1024"
"3.043885998","0","9","gome","non-word","87.5","87.5","963.46875","963.46875","black","no","legacy","legacy","legacy","0","uniform","1","undefined","undefined","undefined","1","f","0","0","0","0","31","0","0","0","31","NA","27","31","27","0","27","3","31","0","31","Fri Feb 19 12:54:21 2021","The main experiment item","yes","Lexical_Decision_Task.osexp","C:/Users/Spoly","no","Andale Mono","no","18","no","white","no","yes","576","legacy","27","27","3","C:/Users/Spoly/subject-5206261.csv","legacy","Lentiform Loewenfeld","3.3.7","yes","yes","600bd7cfb6416f0113b04181","602110864497cf011d9c0822","0","f","NA","space","space","space","NA","f","619","NA","26532","29574","2605","NA","619","2","legacy","1024","2","48000","-16","task","5206261","odd","NA","50519","79054","52521","131993","3896","36078","33472","132494","NA","131991","132494","131934","79054","133114","45493","131434","3891","96596","Lexical Decision Task","28","30831","32","yes","1024"
"3.1430148","7.92","8","bald","word","87.87878787878788","87.87878787878788","958.4848484848485","958.4848484848485","black","no","legacy","legacy","legacy","0","uniform","1","undefined","undefined","undefined","1","j","0","0","0","0","32","0","0","0","32","NA","28","32","28","0","28","3","32","0","32","Fri Feb 19 12:54:21 2021","The main experiment item","yes","Lexical_Decision_Task.osexp","C:/Users/Spoly","no","Andale Mono","no","18","no","white","no","yes","576","legacy","28","28","3","C:/Users/Spoly/subject-5206261.csv","legacy","Lentiform Loewenfeld","3.3.7","yes","yes","600bd7cfb6416f0113b04181","602110864497cf011d9c0822","0","j","NA","space","space","space","NA","j","799","NA","26532","29574","2605","NA","799","2","legacy","1024","2","48000","-16","task","5206261","odd","NA","50519","79054","52521","133676","3896","36078","33472","134177","NA","133674","134177","133620","79054","134976","45493","133120","3891","96596","Lexical Decision Task","29","31630","33","yes","1024"
"3.374198258","0","8","vist","non-word","85.29411764705883","85.29411764705883","950.8823529411765","950.8823529411765","black","no","legacy","legacy","legacy","0","uniform","0","undefined","undefined","undefined","0","f","0","0","0","0","33","0","0","0","33","NA","29","33","29","0","29","3","33","0","33","Fri Feb 19 12:54:21 2021","The main experiment item","yes","Lexical_Decision_Task.osexp","C:/Users/Spoly","no","Andale Mono","no","18","no","white","no","yes","576","legacy","29","29","3","C:/Users/Spoly/subject-5206261.csv","legacy","Lentiform Loewenfeld","3.3.7","yes","yes","600bd7cfb6416f0113b04181","602110864497cf011d9c0822","0","j","NA","space","space","space","NA","j","700","NA","26532","29574","2605","NA","700","2","legacy","1024","2","48000","-16","task","5206261","odd","NA","50519","79054","52521","135540","3896","36078","33472","136041","NA","135539","136041","135481","79054","136742","45493","134981","3891","96596","Lexical Decision Task","29","32330","34","yes","1024"
"3.20996159","0","4","clee","non-word","85.71428571428571","85.71428571428571","1000.2285714285714","1000.2285714285714","black","no","legacy","legacy","legacy","0","uniform","1","undefined","undefined","undefined","1","f","0","0","0","0","34","0","0","0","34","NA","30","34","30","0","30","3","34","0","34","Fri Feb 19 12:54:21 2021","The main experiment item","yes","Lexical_Decision_Task.osexp","C:/Users/Spoly","no","Andale Mono","no","18","no","white","no","yes","576","legacy","30","30","3","C:/Users/Spoly/subject-5206261.csv","legacy","Lentiform Loewenfeld","3.3.7","yes","yes","600bd7cfb6416f0113b04181","602110864497cf011d9c0822","0","f","NA","space","space","space","NA","f","2678","NA","26532","29574","2605","NA","2678","2","legacy","1024","2","48000","-16","task","5206261","odd","NA","50519","79054","52521","138311","3896","36078","33472","138812","NA","138309","138812","138247","79054","141491","45493","134981","3891","136747","Lexical Decision Task","30","35008","35","yes","1024"
"3.363486562","6.93","9","lush","word","86.11111111111111","86.11111111111111","992.2222222222222","992.2222222222222","black","no","legacy","legacy","legacy","0","uniform","1","undefined","undefined","undefined","1","j","0","0","0","0","35","0","0","0","35","NA","31","35","31","0","31","3","35","0","35","Fri Feb 19 12:54:21 2021","The main experiment item","yes","Lexical_Decision_Task.osexp","C:/Users/Spoly","no","Andale Mono","no","18","no","white","no","yes","576","legacy","31","31","3","C:/Users/Spoly/subject-5206261.csv","legacy","Lentiform Loewenfeld","3.3.7","yes","yes","600bd7cfb6416f0113b04181","602110864497cf011d9c0822","0","j","NA","space","space","space","NA","j","712","NA","26532","29574","2605","NA","712","2","legacy","1024","2","48000","-16","task","5206261","odd","NA","50519","79054","52521","142056","3896","36078","33472","142557","NA","142055","142557","141996","79054","143270","45493","141496","3891","136747","Lexical Decision Task","31","35720","36","yes","1024"
"3.276537627","9.15","5","trap","word","86.48648648648648","86.48648648648648","981.2432432432432","981.2432432432432","black","no","legacy","legacy","legacy","0","uniform","1","undefined","undefined","undefined","1","j","0","0","0","0","36","0","0","0","36","NA","32","36","32","0","32","3","36","0","36","Fri Feb 19 12:54:21 2021","The main experiment item","yes","Lexical_Decision_Task.osexp","C:/Users/Spoly","no","Andale Mono","no","18","no","white","no","yes","576","legacy","32","32","3","C:/Users/Spoly/subject-5206261.csv","legacy","Lentiform Loewenfeld","3.3.7","yes","yes","600bd7cfb6416f0113b04181","602110864497cf011d9c0822","0","j","NA","space","space","space","NA","j","586","NA","26532","29574","2605","NA","586","2","legacy","1024","2","48000","-16","task","5206261","odd","NA","50519","79054","52521","143835","3896","36078","33472","144336","NA","143834","144337","143775","79054","144923","45493","143275","3891","136747","Lexical Decision Task","32","36306","37","yes","1024"
"2.7084209","0","8","vump","non-word","86.84210526315789","86.84210526315789","970.9473684210526","970.9473684210526","black","no","legacy","legacy","legacy","0","uniform","1","undefined","undefined","undefined","1","f","0","0","0","0","37","0","0","0","37","NA","33","37","33","0","33","3","37","0","37","Fri Feb 19 12:54:21 2021","The main experiment item","yes","Lexical_Decision_Task.osexp","C:/Users/Spoly","no","Andale Mono","no","18","no","white","no","yes","576","legacy","33","33","3","C:/Users/Spoly/subject-5206261.csv","legacy","Lentiform Loewenfeld","3.3.7","yes","yes","600bd7cfb6416f0113b04181","602110864497cf011d9c0822","0","f","NA","space","space","space","NA","f","590","NA","26532","29574","2605","NA","590","2","legacy","1024","2","48000","-16","task","5206261","odd","NA","50519","79054","52521","145486","3896","36078","33472","145987","NA","145485","145987","145428","79054","146579","45493","144928","3891","136747","Lexical Decision Task","33","36896","38","yes","1024"
"3.481012421","8.34","5","teen","word","87.17948717948718","87.17948717948718","961.5128205128206","961.5128205128206","black","no","legacy","legacy","legacy","0","uniform","1","undefined","undefined","undefined","1","j","0","0","0","0","38","0","0","0","38","NA","34","38","34","0","34","3","38","0","38","Fri Feb 19 12:54:21 2021","The main experiment item","yes","Lexical_Decision_Task.osexp","C:/Users/Spoly","no","Andale Mono","no","18","no","white","no","yes","576","legacy","34","34","3","C:/Users/Spoly/subject-5206261.csv","legacy","Lentiform Loewenfeld","3.3.7","yes","yes","600bd7cfb6416f0113b04181","602110864497cf011d9c0822","0","j","NA","space","space","space","NA","j","603","NA","26532","29574","2605","NA","603","2","legacy","1024","2","48000","-16","task","5206261","odd","NA","50519","79054","52521","147140","3896","36078","33472","147641","NA","147138","147641","147083","79054","148245","45493","146583","3891","136747","Lexical Decision Task","34","37499","39","yes","1024"
"2.845304797","0","6","buct","non-word","87.5","87.5","954.7","954.7","black","no","legacy","legacy","legacy","0","uniform","1","undefined","undefined","undefined","1","f","0","0","0","0","39","0","0","0","39","NA","35","39","35","0","35","3","39","0","39","Fri Feb 19 12:54:21 2021","The main experiment item","yes","Lexical_Decision_Task.osexp","C:/Users/Spoly","no","Andale Mono","no","18","no","white","no","yes","576","legacy","35","35","3","C:/Users/Spoly/subject-5206261.csv","legacy","Lentiform Loewenfeld","3.3.7","yes","yes","600bd7cfb6416f0113b04181","602110864497cf011d9c0822","0","f","NA","space","space","space","NA","f","689","NA","26532","29574","2605","NA","689","2","legacy","1024","2","48000","-16","task","5206261","odd","NA","50519","79054","52521","148809","3896","36078","33472","149310","NA","148808","149310","148750","79054","150000","45493","148250","3891","136747","Lexical Decision Task","35","38188","40","yes","1024"
"2.893578687","8.69","3","surf","word","87.8048780487805","87.8048780487805","945.3170731707318","945.3170731707318","black","no","legacy","legacy","legacy","0","uniform","1","undefined","undefined","undefined","1","j","0","0","0","0","40","0","0","0","40","NA","36","40","36","0","36","3","40","0","40","Fri Feb 19 12:54:21 2021","The main experiment item","yes","Lexical_Decision_Task.osexp","C:/Users/Spoly","no","Andale Mono","no","18","no","white","no","yes","576","legacy","36","36","3","C:/Users/Spoly/subject-5206261.csv","legacy","Lentiform Loewenfeld","3.3.7","yes","yes","600bd7cfb6416f0113b04181","602110864497cf011d9c0822","0","j","NA","space","space","space","NA","j","570","NA","26532","29574","2605","NA","570","2","legacy","1024","2","48000","-16","task","5206261","odd","NA","50519","79054","52521","150564","3896","36078","33472","151065","NA","150562","151065","150505","79054","151636","45493","150005","3891","136747","Lexical Decision Task","36","38758","41","yes","1024"
"3.2757719","0","5","slea","non-word","88.0952380952381","88.0952380952381","938.6904761904761","938.6904761904761","black","no","legacy","legacy","legacy","0","uniform","1","undefined","undefined","undefined","1","f","0","0","0","0","41","0","0","0","41","NA","37","41","37","0","37","3","41","0","41","Fri Feb 19 12:54:21 2021","The main experiment item","yes","Lexical_Decision_Task.osexp","C:/Users/Spoly","no","Andale Mono","no","18","no","white","no","yes","576","legacy","37","37","3","C:/Users/Spoly/subject-5206261.csv","legacy","Lentiform Loewenfeld","3.3.7","yes","yes","600bd7cfb6416f0113b04181","602110864497cf011d9c0822","0","f","NA","space","space","space","NA","f","667","NA","26532","29574","2605","NA","667","2","legacy","1024","2","48000","-16","task","5206261","odd","NA","50519","79054","52521","152199","3896","36078","33472","152700","NA","152198","152700","152141","79054","153367","45493","151641","3891","136747","Lexical Decision Task","37","39425","42","yes","1024"
"3.088136089","8.32","9","worm","word","88.37209302325581","88.37209302325581","930.6046511627907","930.6046511627907","black","no","legacy","legacy","legacy","0","uniform","1","undefined","undefined","undefined","1","j","0","0","0","0","42","0","0","0","42","NA","38","42","38","0","38","3","42","0","42","Fri Feb 19 12:54:21 2021","The main experiment item","yes","Lexical_Decision_Task.osexp","C:/Users/Spoly","no","Andale Mono","no","18","no","white","no","yes","576","legacy","38","38","3","C:/Users/Spoly/subject-5206261.csv","legacy","Lentiform Loewenfeld","3.3.7","yes","yes","600bd7cfb6416f0113b04181","602110864497cf011d9c0822","0","j","NA","space","space","space","NA","j","591","NA","26532","29574","2605","NA","591","2","legacy","1024","2","48000","-16","task","5206261","odd","NA","50519","79054","52521","153933","3896","36078","33472","154434","NA","153932","154434","153873","79054","155026","45493","153373","3891","136747","Lexical Decision Task","38","40016","43","yes","1024"
"3.368162872","0","4","ferk","non-word","88.63636363636364","88.63636363636364","923.3863636363636","923.3863636363636","black","no","legacy","legacy","legacy","0","uniform","1","undefined","undefined","undefined","1","f","0","0","0","0","43","0","0","0","43","NA","39","43","39","0","39","3","43","0","43","Fri Feb 19 12:54:21 2021","The main experiment item","yes","Lexical_Decision_Task.osexp","C:/Users/Spoly","no","Andale Mono","no","18","no","white","no","yes","576","legacy","39","39","3","C:/Users/Spoly/subject-5206261.csv","legacy","Lentiform Loewenfeld","3.3.7","yes","yes","600bd7cfb6416f0113b04181","602110864497cf011d9c0822","0","f","NA","space","space","space","NA","f","613","NA","26532","29574","2605","NA","613","2","legacy","1024","2","48000","-16","task","5206261","odd","NA","50519","79054","52521","155588","3896","36078","33472","156089","NA","155587","156089","155531","79054","156703","45493","155031","3891","136747","Lexical Decision Task","39","40629","44","yes","1024"
"2.980306438","0","7","slun","non-word","88.88888888888889","88.88888888888889","919.7777777777778","919.7777777777778","black","no","legacy","legacy","legacy","0","uniform","1","undefined","undefined","undefined","1","f","0","0","0","0","44","0","0","0","44","NA","40","44","40","0","40","3","44","0","44","Fri Feb 19 12:54:21 2021","The main experiment item","yes","Lexical_Decision_Task.osexp","C:/Users/Spoly","no","Andale Mono","no","18","no","white","no","yes","576","legacy","40","40","3","C:/Users/Spoly/subject-5206261.csv","legacy","Lentiform Loewenfeld","3.3.7","yes","yes","600bd7cfb6416f0113b04181","602110864497cf011d9c0822","0","f","NA","space","space","space","NA","f","761","NA","26532","29574","2605","NA","761","2","legacy","1024","2","48000","-16","task","5206261","odd","NA","50519","79054","52521","157267","3896","36078","33472","157768","NA","157265","157768","157207","79054","158529","45493","156707","3891","136747","Lexical Decision Task","40","41390","45","yes","1024"
"2.771097306","0","9","jold","non-word","89.1304347826087","89.1304347826087","914.2826086956521","914.2826086956521","black","no","legacy","legacy","legacy","0","uniform","1","undefined","undefined","undefined","1","f","0","0","0","0","45","0","0","0","45","NA","41","45","41","0","41","3","45","0","45","Fri Feb 19 12:54:21 2021","The main experiment item","yes","Lexical_Decision_Task.osexp","C:/Users/Spoly","no","Andale Mono","no","18","no","white","no","yes","576","legacy","41","41","3","C:/Users/Spoly/subject-5206261.csv","legacy","Lentiform Loewenfeld","3.3.7","yes","yes","600bd7cfb6416f0113b04181","602110864497cf011d9c0822","0","f","NA","space","space","space","NA","f","667","NA","26532","29574","2605","NA","667","2","legacy","1024","2","48000","-16","task","5206261","odd","NA","50519","79054","52521","159093","3896","36078","33472","159594","NA","159091","159594","159035","79054","160262","45493","158534","3891","136747","Lexical Decision Task","41","42057","46","yes","1024"
"3.378276681","6.39","8","bran","word","89.36170212765957","89.36170212765957","918.5106382978723","918.5106382978723","black","no","legacy","legacy","legacy","0","uniform","1","undefined","undefined","undefined","1","j","0","0","0","0","46","0","0","0","46","NA","42","46","42","0","42","3","46","0","46","Fri Feb 19 12:54:21 2021","The main experiment item","yes","Lexical_Decision_Task.osexp","C:/Users/Spoly","no","Andale Mono","no","18","no","white","no","yes","576","legacy","42","42","3","C:/Users/Spoly/subject-5206261.csv","legacy","Lentiform Loewenfeld","3.3.7","yes","yes","600bd7cfb6416f0113b04181","602110864497cf011d9c0822","0","j","NA","space","space","space","NA","j","1113","NA","26532","29574","2605","NA","1113","2","legacy","1024","2","48000","-16","task","5206261","odd","NA","50519","79054","52521","160826","3896","36078","33472","161327","NA","160824","161327","160767","79054","162440","45493","160267","3891","136747","Lexical Decision Task","42","43170","47","yes","1024"
"3.081107167","0","6","chot","non-word","89.58333333333333","89.58333333333333","930.5208333333334","930.5208333333334","black","no","legacy","legacy","legacy","0","uniform","1","undefined","undefined","undefined","1","f","0","0","0","0","47","0","0","0","47","NA","43","47","43","0","43","3","47","0","47","Fri Feb 19 12:54:21 2021","The main experiment item","yes","Lexical_Decision_Task.osexp","C:/Users/Spoly","no","Andale Mono","no","18","no","white","no","yes","576","legacy","43","43","3","C:/Users/Spoly/subject-5206261.csv","legacy","Lentiform Loewenfeld","3.3.7","yes","yes","600bd7cfb6416f0113b04181","602110864497cf011d9c0822","0","f","NA","space","space","space","NA","f","1495","NA","26532","29574","2605","NA","1495","2","legacy","1024","2","48000","-16","task","5206261","odd","NA","50519","79054","52521","163006","3896","36078","33472","163507","NA","163005","163507","162946","79054","165003","45493","162446","3891","136747","Lexical Decision Task","43","44665","48","yes","1024"
"3.100255637","0","6","brax","non-word","89.79591836734694","89.79591836734694","922.3265306122449","922.3265306122449","black","no","legacy","legacy","legacy","0","uniform","1","undefined","undefined","undefined","1","f","0","0","0","0","48","0","0","0","48","NA","44","48","44","0","44","3","48","0","48","Fri Feb 19 12:54:21 2021","The main experiment item","yes","Lexical_Decision_Task.osexp","C:/Users/Spoly","no","Andale Mono","no","18","no","white","no","yes","576","legacy","44","44","3","C:/Users/Spoly/subject-5206261.csv","legacy","Lentiform Loewenfeld","3.3.7","yes","yes","600bd7cfb6416f0113b04181","602110864497cf011d9c0822","0","f","NA","space","space","space","NA","f","529","NA","26532","29574","2605","NA","529","2","legacy","1024","2","48000","-16","task","5206261","odd","NA","50519","79054","52521","165571","3896","36078","33472","166072","NA","165569","166072","165509","79054","166602","45493","165009","3891","136747","Lexical Decision Task","44","45194","49","yes","1024"
"2.794720352","0","9","koot","non-word","90","90","920.6","920.6","black","no","legacy","legacy","legacy","0","uniform","1","undefined","undefined","undefined","1","f","0","0","0","0","49","0","0","0","49","NA","45","49","45","0","45","3","49","0","49","Fri Feb 19 12:54:21 2021","The main experiment item","yes","Lexical_Decision_Task.osexp","C:/Users/Spoly","no","Andale Mono","no","18","no","white","no","yes","576","legacy","45","45","3","C:/Users/Spoly/subject-5206261.csv","legacy","Lentiform Loewenfeld","3.3.7","yes","yes","600bd7cfb6416f0113b04181","602110864497cf011d9c0822","0","f","NA","space","space","space","NA","f","836","NA","26532","29574","2605","NA","836","2","legacy","1024","2","48000","-16","task","5206261","odd","NA","50519","79054","52521","167163","3896","36078","33472","167664","NA","167161","167664","167107","79054","168501","45493","166607","3891","136747","Lexical Decision Task","45","46030","50","yes","1024"
"3.067193647","6.73","6","raft","word","90.19607843137256","90.19607843137256","916.9803921568628","916.9803921568628","black","no","legacy","legacy","legacy","0","uniform","1","undefined","undefined","undefined","1","j","0","0","0","0","50","0","0","0","50","NA","46","50","46","0","46","3","50","0","50","Fri Feb 19 12:54:21 2021","The main experiment item","yes","Lexical_Decision_Task.osexp","C:/Users/Spoly","no","Andale Mono","no","18","no","white","no","yes","576","legacy","46","46","3","C:/Users/Spoly/subject-5206261.csv","legacy","Lentiform Loewenfeld","3.3.7","yes","yes","600bd7cfb6416f0113b04181","602110864497cf011d9c0822","0","j","NA","space","space","space","NA","j","736","NA","26532","29574","2605","NA","736","2","legacy","1024","2","48000","-16","task","5206261","odd","NA","50519","79054","52521","169064","3896","36078","33472","169565","NA","169063","169565","169006","79054","170302","45493","168506","3891","136747","Lexical Decision Task","46","46766","51","yes","1024"
"3.302475237","0","7","leel","non-word","90.38461538461539","90.38461538461539","916.1153846153846","916.1153846153846","black","no","legacy","legacy","legacy","0","uniform","1","undefined","undefined","undefined","1","f","0","0","0","0","51","0","0","0","51","NA","47","51","47","0","47","3","51","0","51","Fri Feb 19 12:54:21 2021","The main experiment item","yes","Lexical_Decision_Task.osexp","C:/Users/Spoly","no","Andale Mono","no","18","no","white","no","yes","576","legacy","47","47","3","C:/Users/Spoly/subject-5206261.csv","legacy","Lentiform Loewenfeld","3.3.7","yes","yes","600bd7cfb6416f0113b04181","602110864497cf011d9c0822","0","f","NA","space","space","space","NA","f","872","NA","26532","29574","2605","NA","872","2","legacy","1024","2","48000","-16","task","5206261","odd","NA","50519","79054","52521","170864","3896","36078","33472","171368","NA","170862","171368","170807","79054","172241","45493","170307","3891","136747","Lexical Decision Task","47","47638","52","yes","1024"
"2.875447132","0","9","jelt","non-word","90.56603773584905","90.56603773584905","916.9056603773585","916.9056603773585","black","no","legacy","legacy","legacy","0","uniform","1","undefined","undefined","undefined","1","f","0","0","0","0","52","0","0","0","52","NA","48","52","48","0","48","3","52","0","52","Fri Feb 19 12:54:21 2021","The main experiment item","yes","Lexical_Decision_Task.osexp","C:/Users/Spoly","no","Andale Mono","no","18","no","white","no","yes","576","legacy","48","48","3","C:/Users/Spoly/subject-5206261.csv","legacy","Lentiform Loewenfeld","3.3.7","yes","yes","600bd7cfb6416f0113b04181","602110864497cf011d9c0822","0","f","NA","space","space","space","NA","f","958","NA","26532","29574","2605","NA","958","2","legacy","1024","2","48000","-16","task","5206261","odd","NA","50519","79054","52521","172807","3896","36078","33472","173308","NA","172806","173308","172747","79054","174267","45493","172247","3891","136747","Lexical Decision Task","48","48596","53","yes","1024"
"2.996511672","0","7","hoil","non-word","90.74074074074075","90.74074074074075","918.0925925925926","918.0925925925926","black","no","legacy","legacy","legacy","0","uniform","1","undefined","undefined","undefined","1","f","0","0","0","0","53","0","0","0","53","NA","49","53","49","0","49","3","53","0","53","Fri Feb 19 12:54:21 2021","The main experiment item","yes","Lexical_Decision_Task.osexp","C:/Users/Spoly","no","Andale Mono","no","18","no","white","no","yes","576","legacy","49","49","3","C:/Users/Spoly/subject-5206261.csv","legacy","Lentiform Loewenfeld","3.3.7","yes","yes","600bd7cfb6416f0113b04181","602110864497cf011d9c0822","0","f","NA","space","space","space","NA","f","981","NA","26532","29574","2605","NA","981","2","legacy","1024","2","48000","-16","task","5206261","odd","NA","50519","79054","52521","174830","3896","36078","33472","175331","NA","174829","175331","174772","79054","176313","45493","174272","3891","136747","Lexical Decision Task","49","49577","54","yes","1024"
"3.218535505","7.85","7","goat","word","89.0909090909091","89.0909090909091","955.9454545454546","955.9454545454546","black","no","legacy","legacy","legacy","0","uniform","0","undefined","undefined","undefined","0","j","0","0","0","0","54","0","0","0","54","0","50","54","50","0","50","3","54","0","54","Fri Feb 19 12:54:21 2021","The main experiment item","yes","Lexical_Decision_Task.osexp","C:/Users/Spoly","no","Andale Mono","no","18","no","white","no","yes","576","legacy","50","50","3","C:/Users/Spoly/subject-5206261.csv","legacy","Lentiform Loewenfeld","3.3.7","yes","yes","600bd7cfb6416f0113b04181","602110864497cf011d9c0822","0","None","NA","space","space","space","space","None","3000","NA","26532","29574","2605","57159","3000","2","legacy","1024","2","48000","-16","task","5206261","odd","NA","50519","79054","52521","234073","3896","36078","33472","234575","176853","234072","234575","176818","79054","237575","45493","176318","3891","136747","Lexical Decision Task","49","52577","55","yes","1024"
"2.64476673","0","5","moft","non-word","89.28571428571429","89.28571428571429","948.8392857142857","948.8392857142857","black","no","legacy","legacy","legacy","0","uniform","1","undefined","undefined","undefined","1","f","0","0","0","0","55","0","0","0","55","0","51","55","51","0","51","3","55","0","55","Fri Feb 19 12:54:21 2021","The main experiment item","yes","Lexical_Decision_Task.osexp","C:/Users/Spoly","no","Andale Mono","no","18","no","white","no","yes","576","legacy","51","51","3","C:/Users/Spoly/subject-5206261.csv","legacy","Lentiform Loewenfeld","3.3.7","yes","yes","600bd7cfb6416f0113b04181","602110864497cf011d9c0822","0","f","NA","space","space","space","space","f","558","NA","26532","29574","2605","57159","558","2","legacy","1024","2","48000","-16","task","5206261","odd","NA","50519","79054","52521","239135","3896","36078","33472","239637","176853","239133","239637","239080","79054","240195","45493","176318","3891","237580","Lexical Decision Task","50","53135","56","yes","1024"
"3.259832699","0","9","flar","non-word","89.47368421052632","89.47368421052632","945.3859649122807","945.3859649122807","black","no","legacy","legacy","legacy","0","uniform","1","undefined","undefined","undefined","1","f","0","0","0","0","56","0","0","0","56","0","52","56","52","0","52","3","56","0","56","Fri Feb 19 12:54:21 2021","The main experiment item","yes","Lexical_Decision_Task.osexp","C:/Users/Spoly","no","Andale Mono","no","18","no","white","no","yes","576","legacy","52","52","3","C:/Users/Spoly/subject-5206261.csv","legacy","Lentiform Loewenfeld","3.3.7","yes","yes","600bd7cfb6416f0113b04181","602110864497cf011d9c0822","0","f","NA","space","space","space","space","f","752","NA","26532","29574","2605","57159","752","2","legacy","1024","2","48000","-16","task","5206261","odd","NA","50519","79054","52521","240759","3896","36078","33472","241261","176853","240758","241261","240701","79054","242014","45493","240201","3891","237580","Lexical Decision Task","51","53887","57","yes","1024"
"2.82129731","6.72","5","plum","word","89.65517241379311","89.65517241379311","940.6034482758621","940.6034482758621","black","no","legacy","legacy","legacy","0","uniform","1","undefined","undefined","undefined","1","j","0","0","0","0","57","0","0","0","57","0","53","57","53","0","53","3","57","0","57","Fri Feb 19 12:54:21 2021","The main experiment item","yes","Lexical_Decision_Task.osexp","C:/Users/Spoly","no","Andale Mono","no","18","no","white","no","yes","576","legacy","53","53","3","C:/Users/Spoly/subject-5206261.csv","legacy","Lentiform Loewenfeld","3.3.7","yes","yes","600bd7cfb6416f0113b04181","602110864497cf011d9c0822","0","j","NA","space","space","space","space","j","668","NA","26532","29574","2605","57159","668","2","legacy","1024","2","48000","-16","task","5206261","odd","NA","50519","79054","52521","242575","3896","36078","33472","243076","176853","242573","243076","242520","79054","243745","45493","242020","3891","237580","Lexical Decision Task","52","54555","58","yes","1024"
"3.082307743","9.68","8","camp","word","89.83050847457628","89.83050847457628","936.1016949152543","936.1016949152543","black","no","legacy","legacy","legacy","0","uniform","1","undefined","undefined","undefined","1","j","0","0","0","0","58","0","0","0","58","0","54","58","54","0","54","3","58","0","58","Fri Feb 19 12:54:21 2021","The main experiment item","yes","Lexical_Decision_Task.osexp","C:/Users/Spoly","no","Andale Mono","no","18","no","white","no","yes","576","legacy","54","54","3","C:/Users/Spoly/subject-5206261.csv","legacy","Lentiform Loewenfeld","3.3.7","yes","yes","600bd7cfb6416f0113b04181","602110864497cf011d9c0822","0","j","NA","space","space","space","space","j","675","NA","26532","29574","2605","57159","675","2","legacy","1024","2","48000","-16","task","5206261","odd","NA","50519","79054","52521","244308","3896","36078","33472","244809","176853","244307","244809","244250","79054","245485","45493","243750","3891","237580","Lexical Decision Task","53","55230","59","yes","1024"
"3.397302518","7.01","2","knit","word","90","90","932.1833333333333","932.1833333333333","black","no","legacy","legacy","legacy","0","uniform","1","undefined","undefined","undefined","1","j","0","0","0","0","59","0","0","0","59","0","55","59","55","0","55","3","59","0","59","Fri Feb 19 12:54:21 2021","The main experiment item","yes","Lexical_Decision_Task.osexp","C:/Users/Spoly","no","Andale Mono","no","18","no","white","no","yes","576","legacy","55","55","3","C:/Users/Spoly/subject-5206261.csv","legacy","Lentiform Loewenfeld","3.3.7","yes","yes","600bd7cfb6416f0113b04181","602110864497cf011d9c0822","0","j","NA","space","space","space","space","j","701","NA","26532","29574","2605","57159","701","2","legacy","1024","2","48000","-16","task","5206261","odd","NA","50519","79054","52521","246051","3896","36078","33472","246553","176853","246049","246553","245990","79054","247255","45493","245490","3891","237580","Lexical Decision Task","54","55931","60","yes","1024"
"3.090140555","5.81","8","pout","word","90.1639344262295","90.1639344262295","929.0655737704918","929.0655737704918","black","no","legacy","legacy","legacy","0","uniform","1","undefined","undefined","undefined","1","j","0","0","0","0","60","0","0","0","60","0","56","60","56","0","56","3","60","0","60","Fri Feb 19 12:54:21 2021","The main experiment item","yes","Lexical_Decision_Task.osexp","C:/Users/Spoly","no","Andale Mono","no","18","no","white","no","yes","576","legacy","56","56","3","C:/Users/Spoly/subject-5206261.csv","legacy","Lentiform Loewenfeld","3.3.7","yes","yes","600bd7cfb6416f0113b04181","602110864497cf011d9c0822","0","j","NA","space","space","space","space","j","742","NA","26532","29574","2605","57159","742","2","legacy","1024","2","48000","-16","task","5206261","odd","NA","50519","79054","52521","247817","3896","36078","33472","248318","176853","247816","248318","247759","79054","249061","45493","247259","3891","237580","Lexical Decision Task","55","56673","61","yes","1024"
"2.767650507","0","6","yolt","non-word","90.3225806451613","90.3225806451613","927.5322580645161","927.5322580645161","black","no","legacy","legacy","legacy","0","uniform","1","undefined","undefined","undefined","1","f","0","0","0","0","61","0","0","0","61","0","57","61","57","0","57","3","61","0","61","Fri Feb 19 12:54:21 2021","The main experiment item","yes","Lexical_Decision_Task.osexp","C:/Users/Spoly","no","Andale Mono","no","18","no","white","no","yes","576","legacy","57","57","3","C:/Users/Spoly/subject-5206261.csv","legacy","Lentiform Loewenfeld","3.3.7","yes","yes","600bd7cfb6416f0113b04181","602110864497cf011d9c0822","0","f","NA","space","space","space","space","f","834","NA","26532","29574","2605","57159","834","2","legacy","1024","2","48000","-16","task","5206261","odd","NA","50519","79054","52521","249621","3896","36078","33472","250123","176853","249619","250123","249567","79054","250957","45493","249067","3891","237580","Lexical Decision Task","56","57507","62","yes","1024"
"3.382617311","0","4","pret","non-word","90.47619047619048","90.47619047619048","923.5873015873016","923.5873015873016","black","no","legacy","legacy","legacy","0","uniform","1","undefined","undefined","undefined","1","f","0","0","0","0","62","0","0","0","62","0","58","62","58","0","58","3","62","0","62","Fri Feb 19 12:54:21 2021","The main experiment item","yes","Lexical_Decision_Task.osexp","C:/Users/Spoly","no","Andale Mono","no","18","no","white","no","yes","576","legacy","58","58","3","C:/Users/Spoly/subject-5206261.csv","legacy","Lentiform Loewenfeld","3.3.7","yes","yes","600bd7cfb6416f0113b04181","602110864497cf011d9c0822","0","f","NA","space","space","space","space","f","679","NA","26532","29574","2605","57159","679","2","legacy","1024","2","48000","-16","task","5206261","odd","NA","50519","79054","52521","251516","3896","36078","33472","252018","176853","251515","252018","251462","79054","252697","45493","250961","3891","237580","Lexical Decision Task","57","58186","63","yes","1024"
"2.746890964","9.67","3","plug","word","90.625","90.625","918.78125","918.78125","black","no","legacy","legacy","legacy","0","uniform","1","undefined","undefined","undefined","1","j","0","0","0","0","63","0","0","0","63","0","59","63","59","0","59","3","63","0","63","Fri Feb 19 12:54:21 2021","The main experiment item","yes","Lexical_Decision_Task.osexp","C:/Users/Spoly","no","Andale Mono","no","18","no","white","no","yes","576","legacy","59","59","3","C:/Users/Spoly/subject-5206261.csv","legacy","Lentiform Loewenfeld","3.3.7","yes","yes","600bd7cfb6416f0113b04181","602110864497cf011d9c0822","0","j","NA","space","space","space","space","j","616","NA","26532","29574","2605","57159","616","2","legacy","1024","2","48000","-16","task","5206261","odd","NA","50519","79054","52521","253261","3896","36078","33472","253763","176853","253259","253763","253203","79054","254380","45493","252703","3891","237580","Lexical Decision Task","58","58802","64","yes","1024"
"2.675164031","8.57","6","glue","word","90.76923076923077","90.76923076923077","913.0615384615385","913.0615384615385","black","no","legacy","legacy","legacy","0","uniform","1","undefined","undefined","undefined","1","j","0","0","0","0","64","0","0","0","64","0","60","64","60","0","60","3","64","0","64","Fri Feb 19 12:54:21 2021","The main experiment item","yes","Lexical_Decision_Task.osexp","C:/Users/Spoly","no","Andale Mono","no","18","no","white","no","yes","576","legacy","60","60","3","C:/Users/Spoly/subject-5206261.csv","legacy","Lentiform Loewenfeld","3.3.7","yes","yes","600bd7cfb6416f0113b04181","602110864497cf011d9c0822","0","j","NA","space","space","space","space","j","547","NA","26532","29574","2605","57159","547","2","legacy","1024","2","48000","-16","task","5206261","odd","NA","50519","79054","52521","254947","3896","36078","33472","255449","176853","254946","255449","254884","79054","255997","45493","254384","3891","237580","Lexical Decision Task","59","59349","65","yes","1024"
"2.899092422","7.27","6","snag","word","90.9090909090909","90.9090909090909","911.7424242424242","911.7424242424242","black","no","legacy","legacy","legacy","0","uniform","1","undefined","undefined","undefined","1","j","0","0","0","0","65","0","0","0","65","0","61","65","61","0","61","3","65","0","65","Fri Feb 19 12:54:21 2021","The main experiment item","yes","Lexical_Decision_Task.osexp","C:/Users/Spoly","no","Andale Mono","no","18","no","white","no","yes","576","legacy","61","61","3","C:/Users/Spoly/subject-5206261.csv","legacy","Lentiform Loewenfeld","3.3.7","yes","yes","600bd7cfb6416f0113b04181","602110864497cf011d9c0822","0","j","NA","space","space","space","space","j","826","NA","26532","29574","2605","57159","826","2","legacy","1024","2","48000","-16","task","5206261","odd","NA","50519","79054","52521","256563","3896","36078","33472","257065","176853","256561","257065","256503","79054","257892","45493","256002","3891","237580","Lexical Decision Task","60","60175","66","yes","1024"
"2.899638141","0","3","hapt","non-word","91.04477611940298","91.04477611940298","908.6865671641791","908.6865671641791","black","no","legacy","legacy","legacy","0","uniform","1","undefined","undefined","undefined","1","f","0","0","0","0","66","0","0","0","66","0","62","66","62","0","62","3","66","0","66","Fri Feb 19 12:54:21 2021","The main experiment item","yes","Lexical_Decision_Task.osexp","C:/Users/Spoly","no","Andale Mono","no","18","no","white","no","yes","576","legacy","62","62","3","C:/Users/Spoly/subject-5206261.csv","legacy","Lentiform Loewenfeld","3.3.7","yes","yes","600bd7cfb6416f0113b04181","602110864497cf011d9c0822","0","f","NA","space","space","space","space","f","707","NA","26532","29574","2605","57159","707","2","legacy","1024","2","48000","-16","task","5206261","odd","NA","50519","79054","52521","258456","3896","36078","33472","258958","176853","258455","258958","258397","79054","259665","45493","257897","3891","237580","Lexical Decision Task","61","60882","67","yes","1024"
"3.372543801","9.24","8","coat","word","91.17647058823529","91.17647058823529","905.7205882352941","905.7205882352941","black","no","legacy","legacy","legacy","0","uniform","1","undefined","undefined","undefined","1","j","0","0","0","0","67","0","0","0","67","0","63","67","63","0","63","3","67","0","67","Fri Feb 19 12:54:21 2021","The main experiment item","yes","Lexical_Decision_Task.osexp","C:/Users/Spoly","no","Andale Mono","no","18","no","white","no","yes","576","legacy","63","63","3","C:/Users/Spoly/subject-5206261.csv","legacy","Lentiform Loewenfeld","3.3.7","yes","yes","600bd7cfb6416f0113b04181","602110864497cf011d9c0822","0","j","NA","space","space","space","space","j","707","NA","26532","29574","2605","57159","707","2","legacy","1024","2","48000","-16","task","5206261","odd","NA","50519","79054","52521","260231","3896","36078","33472","260732","176853","260229","260732","260170","79054","261440","45493","259670","3891","237580","Lexical Decision Task","62","61589","68","yes","1024"
"3.003891166","8.05","2","frog","word","91.30434782608695","91.30434782608695","899.8260869565217","899.8260869565217","black","no","legacy","legacy","legacy","0","uniform","1","undefined","undefined","undefined","1","j","0","0","0","0","68","0","0","0","68","0","64","68","64","0","64","3","68","0","68","Fri Feb 19 12:54:21 2021","The main experiment item","yes","Lexical_Decision_Task.osexp","C:/Users/Spoly","no","Andale Mono","no","18","no","white","no","yes","576","legacy","64","64","3","C:/Users/Spoly/subject-5206261.csv","legacy","Lentiform Loewenfeld","3.3.7","yes","yes","600bd7cfb6416f0113b04181","602110864497cf011d9c0822","0","j","NA","space","space","space","space","j","499","NA","26532","29574","2605","57159","499","2","legacy","1024","2","48000","-16","task","5206261","odd","NA","50519","79054","52521","261999","3896","36078","33472","262501","176853","261998","262502","261945","79054","263002","45493","261445","3891","237580","Lexical Decision Task","63","62088","69","yes","1024"
"2.6599162","0","6","flug","non-word","91.42857142857143","91.42857142857143","898.1285714285714","898.1285714285714","black","no","legacy","legacy","legacy","0","uniform","1","undefined","undefined","undefined","1","f","0","0","0","0","69","0","0","0","69","0","65","69","65","0","65","3","69","0","69","Fri Feb 19 12:54:21 2021","The main experiment item","yes","Lexical_Decision_Task.osexp","C:/Users/Spoly","no","Andale Mono","no","18","no","white","no","yes","576","legacy","65","65","3","C:/Users/Spoly/subject-5206261.csv","legacy","Lentiform Loewenfeld","3.3.7","yes","yes","600bd7cfb6416f0113b04181","602110864497cf011d9c0822","0","f","NA","space","space","space","space","f","781","NA","26532","29574","2605","57159","781","2","legacy","1024","2","48000","-16","task","5206261","odd","NA","50519","79054","52521","263559","3896","36078","33472","264061","176853","263557","264061","263507","79054","264843","45493","263007","3891","237580","Lexical Decision Task","64","62869","70","yes","1024"
"3.197740804","6.74","3","ache","word","91.54929577464789","91.54929577464789","895.056338028169","895.056338028169","black","no","legacy","legacy","legacy","0","uniform","1","undefined","undefined","undefined","1","j","0","0","0","0","70","0","0","0","70","0","66","70","66","0","66","3","70","0","70","Fri Feb 19 12:54:21 2021","The main experiment item","yes","Lexical_Decision_Task.osexp","C:/Users/Spoly","no","Andale Mono","no","18","no","white","no","yes","576","legacy","66","66","3","C:/Users/Spoly/subject-5206261.csv","legacy","Lentiform Loewenfeld","3.3.7","yes","yes","600bd7cfb6416f0113b04181","602110864497cf011d9c0822","0","j","NA","space","space","space","space","j","680","NA","26532","29574","2605","57159","680","2","legacy","1024","2","48000","-16","task","5206261","odd","NA","50519","79054","52521","265405","3896","36078","33472","265906","176853","265404","265906","265347","79054","266587","45493","264847","3891","237580","Lexical Decision Task","65","63549","71","yes","1024"
"3.131833513","7.66","4","limb","word","91.66666666666667","91.66666666666667","891.7083333333334","891.7083333333334","black","no","legacy","legacy","legacy","0","uniform","1","undefined","undefined","undefined","1","j","0","0","0","0","71","0","0","0","71","0","67","71","67","0","67","3","71","0","71","Fri Feb 19 12:54:21 2021","The main experiment item","yes","Lexical_Decision_Task.osexp","C:/Users/Spoly","no","Andale Mono","no","18","no","white","no","yes","576","legacy","67","67","3","C:/Users/Spoly/subject-5206261.csv","legacy","Lentiform Loewenfeld","3.3.7","yes","yes","600bd7cfb6416f0113b04181","602110864497cf011d9c0822","0","j","NA","space","space","space","space","j","654","NA","26532","29574","2605","57159","654","2","legacy","1024","2","48000","-16","task","5206261","odd","NA","50519","79054","52521","267149","3896","36078","33472","267650","176853","267148","267650","267092","79054","268305","45493","266592","3891","237580","Lexical Decision Task","66","64203","72","yes","1024"
"3.492014979","0","9","yine","non-word","91.78082191780823","91.78082191780823","889.1369863013699","889.1369863013699","black","no","legacy","legacy","legacy","0","uniform","1","undefined","undefined","undefined","1","f","0","0","0","0","72","0","0","0","72","0","68","72","68","0","68","3","72","0","72","Fri Feb 19 12:54:21 2021","The main experiment item","yes","Lexical_Decision_Task.osexp","C:/Users/Spoly","no","Andale Mono","no","18","no","white","no","yes","576","legacy","68","68","3","C:/Users/Spoly/subject-5206261.csv","legacy","Lentiform Loewenfeld","3.3.7","yes","yes","600bd7cfb6416f0113b04181","602110864497cf011d9c0822","0","f","NA","space","space","space","space","f","704","NA","26532","29574","2605","57159","704","2","legacy","1024","2","48000","-16","task","5206261","odd","NA","50519","79054","52521","268872","3896","36078","33472","269373","176853","268870","269373","268811","79054","270078","45493","268310","3891","237580","Lexical Decision Task","67","64907","73","yes","1024"
"2.705007959","6.01","4","wept","word","91.89189189189189","91.89189189189189","895.4864864864865","895.4864864864865","black","no","legacy","legacy","legacy","0","uniform","1","undefined","undefined","undefined","1","j","0","0","0","0","73","0","0","0","73","0","69","73","69","0","69","3","73","0","73","Fri Feb 19 12:54:21 2021","The main experiment item","yes","Lexical_Decision_Task.osexp","C:/Users/Spoly","no","Andale Mono","no","18","no","white","no","yes","576","legacy","69","69","3","C:/Users/Spoly/subject-5206261.csv","legacy","Lentiform Loewenfeld","3.3.7","yes","yes","600bd7cfb6416f0113b04181","602110864497cf011d9c0822","0","j","NA","space","space","space","space","j","1359","NA","26532","29574","2605","57159","1359","2","legacy","1024","2","48000","-16","task","5206261","odd","NA","50519","79054","52521","270644","3896","36078","33472","271145","176853","270643","271145","270584","79054","272505","45493","270084","3891","237580","Lexical Decision Task","68","66266","74","yes","1024"
"2.744553742","0","2","nawk","non-word","92","92","892.4266666666666","892.4266666666666","black","no","legacy","legacy","legacy","0","uniform","1","undefined","undefined","undefined","1","f","0","0","0","0","74","0","0","0","74","0","70","74","70","0","70","3","74","0","74","Fri Feb 19 12:54:21 2021","The main experiment item","yes","Lexical_Decision_Task.osexp","C:/Users/Spoly","no","Andale Mono","no","18","no","white","no","yes","576","legacy","70","70","3","C:/Users/Spoly/subject-5206261.csv","legacy","Lentiform Loewenfeld","3.3.7","yes","yes","600bd7cfb6416f0113b04181","602110864497cf011d9c0822","0","f","NA","space","space","space","space","f","666","NA","26532","29574","2605","57159","666","2","legacy","1024","2","48000","-16","task","5206261","odd","NA","50519","79054","52521","273067","3896","36078","33472","273568","176853","273065","273568","273010","79054","274236","45493","272510","3891","237580","Lexical Decision Task","69","66932","75","yes","1024"
"3.076883066","0","8","mout","non-word","92.10526315789474","92.10526315789474","889.1973684210526","889.1973684210526","black","no","legacy","legacy","legacy","0","uniform","1","undefined","undefined","undefined","1","f","0","0","0","0","75","0","0","0","75","0","71","75","71","0","71","3","75","0","75","Fri Feb 19 12:54:21 2021","The main experiment item","yes","Lexical_Decision_Task.osexp","C:/Users/Spoly","no","Andale Mono","no","18","no","white","no","yes","576","legacy","71","71","3","C:/Users/Spoly/subject-5206261.csv","legacy","Lentiform Loewenfeld","3.3.7","yes","yes","600bd7cfb6416f0113b04181","602110864497cf011d9c0822","0","f","NA","space","space","space","space","f","647","NA","26532","29574","2605","57159","647","2","legacy","1024","2","48000","-16","task","5206261","odd","NA","50519","79054","52521","274797","3896","36078","33472","275299","176853","274796","275299","274741","79054","275947","45493","274241","3891","237580","Lexical Decision Task","70","67579","76","yes","1024"
"3.031408464","0","7","drow","non-word","92.20779220779221","92.20779220779221","887.2467532467532","887.2467532467532","black","no","legacy","legacy","legacy","0","uniform","1","undefined","undefined","undefined","1","f","0","0","0","0","76","0","0","0","76","0","72","76","72","0","72","3","76","0","76","Fri Feb 19 12:54:21 2021","The main experiment item","yes","Lexical_Decision_Task.osexp","C:/Users/Spoly","no","Andale Mono","no","18","no","white","no","yes","576","legacy","72","72","3","C:/Users/Spoly/subject-5206261.csv","legacy","Lentiform Loewenfeld","3.3.7","yes","yes","600bd7cfb6416f0113b04181","602110864497cf011d9c0822","0","f","NA","space","space","space","space","f","739","NA","26532","29574","2605","57159","739","2","legacy","1024","2","48000","-16","task","5206261","odd","NA","50519","79054","52521","276513","3896","36078","33472","277014","176853","276511","277015","276453","79054","277755","45493","275953","3891","237580","Lexical Decision Task","71","68318","77","yes","1024"
"3.495914186","0","4","peng","non-word","91.02564102564102","91.02564102564102","891.3333333333334","891.3333333333334","black","no","legacy","legacy","legacy","0","uniform","0","undefined","undefined","undefined","0","f","0","0","0","0","77","0","0","0","77","0","73","77","73","0","73","3","77","0","77","Fri Feb 19 12:54:21 2021","The main experiment item","yes","Lexical_Decision_Task.osexp","C:/Users/Spoly","no","Andale Mono","no","18","no","white","no","yes","576","legacy","73","73","3","C:/Users/Spoly/subject-5206261.csv","legacy","Lentiform Loewenfeld","3.3.7","yes","yes","600bd7cfb6416f0113b04181","602110864497cf011d9c0822","0","j","NA","space","space","space","space","j","1206","NA","26532","29574","2605","57159","1206","2","legacy","1024","2","48000","-16","task","5206261","odd","NA","50519","79054","52521","278325","3896","36078","33472","278827","176853","278323","278827","278260","79054","280034","45493","277760","3891","237580","Lexical Decision Task","71","69524","78","yes","1024"
"2.8162413","0","5","nusk","non-word","91.13924050632912","91.13924050632912","888.8607594936709","888.8607594936709","black","no","legacy","legacy","legacy","0","uniform","1","undefined","undefined","undefined","1","f","0","0","0","0","78","0","0","0","78","0","74","78","74","0","74","3","78","0","78","Fri Feb 19 12:54:21 2021","The main experiment item","yes","Lexical_Decision_Task.osexp","C:/Users/Spoly","no","Andale Mono","no","18","no","white","no","yes","576","legacy","74","74","3","C:/Users/Spoly/subject-5206261.csv","legacy","Lentiform Loewenfeld","3.3.7","yes","yes","600bd7cfb6416f0113b04181","602110864497cf011d9c0822","0","f","NA","space","space","space","space","f","696","NA","26532","29574","2605","57159","696","2","legacy","1024","2","48000","-16","task","5206261","odd","NA","50519","79054","52521","281603","3896","36078","33472","282105","176853","281602","282105","281539","79054","282802","45493","277760","3891","280039","Lexical Decision Task","72","70220","79","yes","1024"
"3.120135028","0","3","vals","non-word","91.25","91.25","885.9375","885.9375","black","no","legacy","legacy","legacy","0","uniform","1","undefined","undefined","undefined","1","f","0","0","0","0","79","0","0","0","79","0","75","79","75","0","75","3","79","0","79","Fri Feb 19 12:54:21 2021","The main experiment item","yes","Lexical_Decision_Task.osexp","C:/Users/Spoly","no","Andale Mono","no","18","no","white","no","yes","576","legacy","75","75","3","C:/Users/Spoly/subject-5206261.csv","legacy","Lentiform Loewenfeld","3.3.7","yes","yes","600bd7cfb6416f0113b04181","602110864497cf011d9c0822","0","f","NA","space","space","space","space","f","655","NA","26532","29574","2605","57159","655","2","legacy","1024","2","48000","-16","task","5206261","odd","NA","50519","79054","52521","283368","3896","36078","33472","283869","176853","283367","283869","283307","79054","284526","45493","282807","3891","280039","Lexical Decision Task","73","70875","80","yes","1024"
"2.814027728","8.2","4","foam","word","91.35802469135803","91.35802469135803","883.1234567901234","883.1234567901234","black","no","legacy","legacy","legacy","0","uniform","1","undefined","undefined","undefined","1","j","0","0","0","0","80","0","0","0","80","0","76","80","76","0","76","3","80","0","80","Fri Feb 19 12:54:21 2021","The main experiment item","yes","Lexical_Decision_Task.osexp","C:/Users/Spoly","no","Andale Mono","no","18","no","white","no","yes","576","legacy","76","76","3","C:/Users/Spoly/subject-5206261.csv","legacy","Lentiform Loewenfeld","3.3.7","yes","yes","600bd7cfb6416f0113b04181","602110864497cf011d9c0822","0","j","NA","space","space","space","space","j","658","NA","26532","29574","2605","57159","658","2","legacy","1024","2","48000","-16","task","5206261","odd","NA","50519","79054","52521","285085","3896","36078","33472","285586","176853","285083","285586","285031","79054","286245","45493","284530","3891","280039","Lexical Decision Task","74","71533","81","yes","1024"
"2.708989954","9.28","9","bowl","word","91.46341463414635","91.46341463414635","880.060975609756","880.060975609756","black","no","legacy","legacy","legacy","0","uniform","1","undefined","undefined","undefined","1","j","0","0","0","0","81","0","0","0","81","0","77","81","77","0","77","3","81","0","81","Fri Feb 19 12:54:21 2021","The main experiment item","yes","Lexical_Decision_Task.osexp","C:/Users/Spoly","no","Andale Mono","no","18","no","white","no","yes","576","legacy","77","77","3","C:/Users/Spoly/subject-5206261.csv","legacy","Lentiform Loewenfeld","3.3.7","yes","yes","600bd7cfb6416f0113b04181","602110864497cf011d9c0822","0","j","NA","space","space","space","space","j","632","NA","26532","29574","2605","57159","632","2","legacy","1024","2","48000","-16","task","5206261","odd","NA","50519","79054","52521","286813","3896","36078","33472","287315","176853","286811","287315","286751","79054","287948","45493","286251","3891","280039","Lexical Decision Task","75","72165","82","yes","1024"
"2.979548375","8.71","4","soup","word","91.56626506024097","91.56626506024097","883.2289156626506","883.2289156626506","black","no","legacy","legacy","legacy","0","uniform","1","undefined","undefined","undefined","1","j","0","0","0","0","82","0","0","0","82","0","78","82","78","0","78","3","82","0","82","Fri Feb 19 12:54:21 2021","The main experiment item","yes","Lexical_Decision_Task.osexp","C:/Users/Spoly","no","Andale Mono","no","18","no","white","no","yes","576","legacy","78","78","3","C:/Users/Spoly/subject-5206261.csv","legacy","Lentiform Loewenfeld","3.3.7","yes","yes","600bd7cfb6416f0113b04181","602110864497cf011d9c0822","0","j","NA","space","space","space","space","j","1143","NA","26532","29574","2605","57159","1143","2","legacy","1024","2","48000","-16","task","5206261","odd","NA","50519","79054","52521","288506","3896","36078","33472","289008","176853","288504","289008","288453","79054","290152","45493","287953","3891","280039","Lexical Decision Task","76","73308","83","yes","1024"
"3.153001286","8.7","5","palm","word","91.66666666666667","91.66666666666667","879.0238095238095","879.0238095238095","black","no","legacy","legacy","legacy","0","uniform","1","undefined","undefined","undefined","1","j","0","0","0","0","83","0","0","0","83","0","79","83","79","0","79","3","83","0","83","Fri Feb 19 12:54:21 2021","The main experiment item","yes","Lexical_Decision_Task.osexp","C:/Users/Spoly","no","Andale Mono","no","18","no","white","no","yes","576","legacy","79","79","3","C:/Users/Spoly/subject-5206261.csv","legacy","Lentiform Loewenfeld","3.3.7","yes","yes","600bd7cfb6416f0113b04181","602110864497cf011d9c0822","0","j","NA","space","space","space","space","j","530","NA","26532","29574","2605","57159","530","2","legacy","1024","2","48000","-16","task","5206261","odd","NA","50519","79054","52521","290714","3896","36078","33472","291216","176853","290712","291216","290658","79054","291747","45493","290158","3891","280039","Lexical Decision Task","77","73838","84","yes","1024"
"3.068433376","8.09","2","bulb","word","91.76470588235294","91.76470588235294","874.6941176470589","874.6941176470589","black","no","legacy","legacy","legacy","0","uniform","1","undefined","undefined","undefined","1","j","0","0","0","0","84","0","0","0","84","0","80","84","80","0","80","3","84","0","84","Fri Feb 19 12:54:21 2021","The main experiment item","yes","Lexical_Decision_Task.osexp","C:/Users/Spoly","no","Andale Mono","no","18","no","white","no","yes","576","legacy","80","80","3","C:/Users/Spoly/subject-5206261.csv","legacy","Lentiform Loewenfeld","3.3.7","yes","yes","600bd7cfb6416f0113b04181","602110864497cf011d9c0822","0","j","NA","space","space","space","space","j","511","NA","26532","29574","2605","57159","511","2","legacy","1024","2","48000","-16","task","5206261","odd","NA","50519","79054","52521","292310","3896","36078","33472","292811","176853","292309","292811","292253","79054","293324","45493","291753","3891","280039","Lexical Decision Task","78","74349","85","yes","1024"
"3.263399331","0","8","cour","non-word","91.86046511627907","91.86046511627907","872.9883720930233","872.9883720930233","black","no","legacy","legacy","legacy","0","uniform","1","undefined","undefined","undefined","1","f","0","0","0","0","85","0","0","0","85","0","81","85","81","0","81","3","85","0","85","Fri Feb 19 12:54:21 2021","The main experiment item","yes","Lexical_Decision_Task.osexp","C:/Users/Spoly","no","Andale Mono","no","18","no","white","no","yes","576","legacy","81","81","3","C:/Users/Spoly/subject-5206261.csv","legacy","Lentiform Loewenfeld","3.3.7","yes","yes","600bd7cfb6416f0113b04181","602110864497cf011d9c0822","0","f","NA","space","space","space","space","f","728","NA","26532","29574","2605","57159","728","2","legacy","1024","2","48000","-16","task","5206261","odd","NA","50519","79054","52521","293881","3896","36078","33472","294383","176853","293880","294383","293828","79054","295112","45493","293328","3891","280039","Lexical Decision Task","79","75077","86","yes","1024"
"2.838639236","0","4","furg","non-word","91.95402298850574","91.95402298850574","869.8850574712644","869.8850574712644","black","no","legacy","legacy","legacy","0","uniform","1","undefined","undefined","undefined","1","f","0","0","0","0","86","0","0","0","86","0","82","86","82","0","82","3","86","0","86","Fri Feb 19 12:54:21 2021","The main experiment item","yes","Lexical_Decision_Task.osexp","C:/Users/Spoly","no","Andale Mono","no","18","no","white","no","yes","576","legacy","82","82","3","C:/Users/Spoly/subject-5206261.csv","legacy","Lentiform Loewenfeld","3.3.7","yes","yes","600bd7cfb6416f0113b04181","602110864497cf011d9c0822","0","f","NA","space","space","space","space","f","603","NA","26532","29574","2605","57159","603","2","legacy","1024","2","48000","-16","task","5206261","odd","NA","50519","79054","52521","295669","3896","36078","33472","296170","176853","295668","296170","295617","79054","296774","45493","295117","3891","280039","Lexical Decision Task","80","75680","87","yes","1024"
"2.813801082","5.47","7","nook","word","90.9090909090909","90.9090909090909","868.0227272727273","868.0227272727273","black","no","legacy","legacy","legacy","0","uniform","0","undefined","undefined","undefined","0","j","0","0","0","0","87","0","0","0","87","0","83","87","83","0","83","3","87","0","87","Fri Feb 19 12:54:21 2021","The main experiment item","yes","Lexical_Decision_Task.osexp","C:/Users/Spoly","no","Andale Mono","no","18","no","white","no","yes","576","legacy","83","83","3","C:/Users/Spoly/subject-5206261.csv","legacy","Lentiform Loewenfeld","3.3.7","yes","yes","600bd7cfb6416f0113b04181","602110864497cf011d9c0822","0","f","NA","space","space","space","space","f","706","NA","26532","29574","2605","57159","706","2","legacy","1024","2","48000","-16","task","5206261","odd","NA","50519","79054","52521","297341","3896","36078","33472","297843","176853","297339","297844","297279","79054","298551","45493","296779","3891","280039","Lexical Decision Task","80","76386","88","yes","1024"
"3.20871002","7.15","8","cram","word","91.01123595505618","91.01123595505618","864.4719101123595","864.4719101123595","black","no","legacy","legacy","legacy","0","uniform","1","undefined","undefined","undefined","1","j","0","0","0","0","88","0","0","0","88","0","84","88","84","0","84","3","88","0","88","Fri Feb 19 12:54:21 2021","The main experiment item","yes","Lexical_Decision_Task.osexp","C:/Users/Spoly","no","Andale Mono","no","18","no","white","no","yes","576","legacy","84","84","3","C:/Users/Spoly/subject-5206261.csv","legacy","Lentiform Loewenfeld","3.3.7","yes","yes","600bd7cfb6416f0113b04181","602110864497cf011d9c0822","0","j","NA","space","space","space","space","j","552","NA","26532","29574","2605","57159","552","2","legacy","1024","2","48000","-16","task","5206261","odd","NA","50519","79054","52521","300111","3896","36078","33472","300613","176853","300110","300614","300056","79054","301167","45493","296779","3891","298556","Lexical Decision Task","81","76938","89","yes","1024"
"2.839268497","0","8","maft","non-word","91.11111111111111","91.11111111111111","861.7777777777778","861.7777777777778","black","no","legacy","legacy","legacy","0","uniform","1","undefined","undefined","undefined","1","f","0","0","0","0","89","0","0","0","89","0","85","89","85","0","85","3","89","0","89","Fri Feb 19 12:54:21 2021","The main experiment item","yes","Lexical_Decision_Task.osexp","C:/Users/Spoly","no","Andale Mono","no","18","no","white","no","yes","576","legacy","85","85","3","C:/Users/Spoly/subject-5206261.csv","legacy","Lentiform Loewenfeld","3.3.7","yes","yes","600bd7cfb6416f0113b04181","602110864497cf011d9c0822","0","f","NA","space","space","space","space","f","622","NA","26532","29574","2605","57159","622","2","legacy","1024","2","48000","-16","task","5206261","odd","NA","50519","79054","52521","301734","3896","36078","33472","302236","176853","301733","302236","301673","79054","302859","45493","301173","3891","298556","Lexical Decision Task","82","77560","90","yes","1024"
"3.120025233","0","2","nyst","non-word","91.20879120879121","91.20879120879121","859.6813186813187","859.6813186813187","black","no","legacy","legacy","legacy","0","uniform","1","undefined","undefined","undefined","1","f","0","0","0","0","90","0","0","0","90","0","86","90","86","0","86","3","90","0","90","Fri Feb 19 12:54:21 2021","The main experiment item","yes","Lexical_Decision_Task.osexp","C:/Users/Spoly","no","Andale Mono","no","18","no","white","no","yes","576","legacy","86","86","3","C:/Users/Spoly/subject-5206261.csv","legacy","Lentiform Loewenfeld","3.3.7","yes","yes","600bd7cfb6416f0113b04181","602110864497cf011d9c0822","0","f","NA","space","space","space","space","f","671","NA","26532","29574","2605","57159","671","2","legacy","1024","2","48000","-16","task","5206261","odd","NA","50519","79054","52521","303423","3896","36078","33472","303927","176853","303422","303927","303364","79054","304599","45493","302864","3891","298556","Lexical Decision Task","83","78231","91","yes","1024"
"3.102203805","7.21","3","drip","word","91.30434782608695","91.30434782608695","867.6413043478261","867.6413043478261","black","no","legacy","legacy","legacy","0","uniform","1","undefined","undefined","undefined","1","j","0","0","0","0","91","0","0","0","91","0","87","91","87","0","87","3","91","0","91","Fri Feb 19 12:54:21 2021","The main experiment item","yes","Lexical_Decision_Task.osexp","C:/Users/Spoly","no","Andale Mono","no","18","no","white","no","yes","576","legacy","87","87","3","C:/Users/Spoly/subject-5206261.csv","legacy","Lentiform Loewenfeld","3.3.7","yes","yes","600bd7cfb6416f0113b04181","602110864497cf011d9c0822","0","j","NA","space","space","space","space","j","1592","NA","26532","29574","2605","57159","1592","2","legacy","1024","2","48000","-16","task","5206261","odd","NA","50519","79054","52521","305169","3896","36078","33472","305671","176853","305168","305671","305104","79054","307265","45493","304604","3891","298556","Lexical Decision Task","84","79823","92","yes","1024"
"3.168400243","9.12","6","horn","word","91.39784946236558","91.39784946236558","864.8494623655914","864.8494623655914","black","no","legacy","legacy","legacy","0","uniform","1","undefined","undefined","undefined","1","j","0","0","0","0","92","0","0","0","92","0","88","92","88","0","88","3","92","0","92","Fri Feb 19 12:54:21 2021","The main experiment item","yes","Lexical_Decision_Task.osexp","C:/Users/Spoly","no","Andale Mono","no","18","no","white","no","yes","576","legacy","88","88","3","C:/Users/Spoly/subject-5206261.csv","legacy","Lentiform Loewenfeld","3.3.7","yes","yes","600bd7cfb6416f0113b04181","602110864497cf011d9c0822","0","j","NA","space","space","space","space","j","608","NA","26532","29574","2605","57159","608","2","legacy","1024","2","48000","-16","task","5206261","odd","NA","50519","79054","52521","307823","3896","36078","33472","308325","176853","307822","308325","307770","79054","308934","45493","307270","3891","298556","Lexical Decision Task","85","80431","93","yes","1024"
"2.664011697","8.19","4","hawk","word","91.48936170212765","91.48936170212765","862.0851063829788","862.0851063829788","black","no","legacy","legacy","legacy","0","uniform","1","undefined","undefined","undefined","1","j","0","0","0","0","93","0","0","0","93","0","89","93","89","0","89","3","93","0","93","Fri Feb 19 12:54:21 2021","The main experiment item","yes","Lexical_Decision_Task.osexp","C:/Users/Spoly","no","Andale Mono","no","18","no","white","no","yes","576","legacy","89","89","3","C:/Users/Spoly/subject-5206261.csv","legacy","Lentiform Loewenfeld","3.3.7","yes","yes","600bd7cfb6416f0113b04181","602110864497cf011d9c0822","0","j","NA","space","space","space","space","j","605","NA","26532","29574","2605","57159","605","2","legacy","1024","2","48000","-16","task","5206261","odd","NA","50519","79054","52521","309498","3896","36078","33472","309999","176853","309497","309999","309440","79054","310606","45493","308940","3891","298556","Lexical Decision Task","86","81036","94","yes","1024"
"3.16326079","0","5","parg","non-word","91.57894736842105","91.57894736842105","859.7473684210527","859.7473684210527","black","no","legacy","legacy","legacy","0","uniform","1","undefined","undefined","undefined","1","f","0","0","0","0","94","0","0","0","94","0","90","94","90","0","90","3","94","0","94","Fri Feb 19 12:54:21 2021","The main experiment item","yes","Lexical_Decision_Task.osexp","C:/Users/Spoly","no","Andale Mono","no","18","no","white","no","yes","576","legacy","90","90","3","C:/Users/Spoly/subject-5206261.csv","legacy","Lentiform Loewenfeld","3.3.7","yes","yes","600bd7cfb6416f0113b04181","602110864497cf011d9c0822","0","f","NA","space","space","space","space","f","640","NA","26532","29574","2605","57159","640","2","legacy","1024","2","48000","-16","task","5206261","odd","NA","50519","79054","52521","311166","3896","36078","33472","311667","176853","311164","311667","311111","79054","312308","45493","310611","3891","298556","Lexical Decision Task","87","81676","95","yes","1024"
"2.782472624","10.55","2","huge","word","91.66666666666667","91.66666666666667","856.1875","856.1875","black","no","legacy","legacy","legacy","0","uniform","1","undefined","undefined","undefined","1","j","0","0","0","0","95","0","0","0","95","0","91","95","91","0","91","3","95","0","95","Fri Feb 19 12:54:21 2021","The main experiment item","yes","Lexical_Decision_Task.osexp","C:/Users/Spoly","no","Andale Mono","no","18","no","white","no","yes","576","legacy","91","91","3","C:/Users/Spoly/subject-5206261.csv","legacy","Lentiform Loewenfeld","3.3.7","yes","yes","600bd7cfb6416f0113b04181","602110864497cf011d9c0822","0","j","NA","space","space","space","space","j","518","NA","26532","29574","2605","57159","518","2","legacy","1024","2","48000","-16","task","5206261","odd","NA","50519","79054","52521","312866","3896","36078","33472","313368","176853","312865","313368","312812","79054","313888","45493","312312","3891","298556","Lexical Decision Task","88","82194","96","yes","1024"
"3.132473155","0","4","glim","non-word","90.72164948453609","90.72164948453609","857.340206185567","857.340206185567","black","no","legacy","legacy","legacy","0","uniform","0","undefined","undefined","undefined","0","f","0","0","0","0","96","0","0","0","96","0","92","96","92","0","92","3","96","0","96","Fri Feb 19 12:54:21 2021","The main experiment item","yes","Lexical_Decision_Task.osexp","C:/Users/Spoly","no","Andale Mono","no","18","no","white","no","yes","576","legacy","92","92","3","C:/Users/Spoly/subject-5206261.csv","legacy","Lentiform Loewenfeld","3.3.7","yes","yes","600bd7cfb6416f0113b04181","602110864497cf011d9c0822","0","j","NA","space","space","space","space","j","968","NA","26532","29574","2605","57159","968","2","legacy","1024","2","48000","-16","task","5206261","odd","NA","50519","79054","52521","314444","3896","36078","33472","314946","176853","314443","314946","314393","79054","315915","45493","313893","3891","298556","Lexical Decision Task","88","83162","97","yes","1024"
"2.695770526","7.34","6","pawn","word","90.81632653061224","90.81632653061224","857.2857142857143","857.2857142857143","black","no","legacy","legacy","legacy","0","uniform","1","undefined","undefined","undefined","1","j","0","0","0","0","97","0","0","0","97","0","93","97","93","0","93","3","97","0","97","Fri Feb 19 12:54:21 2021","The main experiment item","yes","Lexical_Decision_Task.osexp","C:/Users/Spoly","no","Andale Mono","no","18","no","white","no","yes","576","legacy","93","93","3","C:/Users/Spoly/subject-5206261.csv","legacy","Lentiform Loewenfeld","3.3.7","yes","yes","600bd7cfb6416f0113b04181","602110864497cf011d9c0822","0","j","NA","space","space","space","space","j","852","NA","26532","29574","2605","57159","852","2","legacy","1024","2","48000","-16","task","5206261","odd","NA","50519","79054","52521","317486","3896","36078","33472","317989","176853","317485","317989","317420","79054","318843","45493","313893","3891","315920","Lexical Decision Task","89","84014","98","yes","1024"
"3.443783828","7.65","3","verb","word","90.9090909090909","90.9090909090909","854.3131313131313","854.3131313131313","black","no","legacy","legacy","legacy","0","uniform","1","undefined","undefined","undefined","1","j","0","0","0","0","98","0","0","0","98","0","94","98","94","0","94","3","98","0","98","Fri Feb 19 12:54:21 2021","The main experiment item","yes","Lexical_Decision_Task.osexp","C:/Users/Spoly","no","Andale Mono","no","18","no","white","no","yes","576","legacy","94","94","3","C:/Users/Spoly/subject-5206261.csv","legacy","Lentiform Loewenfeld","3.3.7","yes","yes","600bd7cfb6416f0113b04181","602110864497cf011d9c0822","0","j","NA","space","space","space","space","j","563","NA","26532","29574","2605","57159","563","2","legacy","1024","2","48000","-16","task","5206261","odd","NA","50519","79054","52521","319400","3896","36078","33472","319902","176853","319398","319902","319348","79054","320466","45493","318848","3891","315920","Lexical Decision Task","90","84577","99","yes","1024"
"2.713490543","0","3","feps","non-word","91","91","852.7","852.7","black","no","legacy","legacy","legacy","0","uniform","1","undefined","undefined","undefined","1","f","0","0","0","0","99","0","0","0","99","0","95","99","95","0","95","3","99","0","99","Fri Feb 19 12:54:21 2021","The main experiment item","yes","Lexical_Decision_Task.osexp","C:/Users/Spoly","no","Andale Mono","no","18","no","white","no","yes","576","legacy","95","95","3","C:/Users/Spoly/subject-5206261.csv","legacy","Lentiform Loewenfeld","3.3.7","yes","yes","600bd7cfb6416f0113b04181","602110864497cf011d9c0822","0","f","NA","space","space","space","space","f","693","NA","26532","29574","2605","57159","693","2","legacy","1024","2","48000","-16","task","5206261","odd","NA","50519","79054","52521","321025","3896","36078","33472","321527","176853","321024","321527","320972","79054","322221","45493","320472","3891","315920","Lexical Decision Task","91","85270","100","yes","1024"
"2.709837904","6.85","8","skim","word","91.08910891089108","91.08910891089108","854.2277227722773","854.2277227722773","black","no","legacy","legacy","legacy","0","uniform","1","undefined","undefined","undefined","1","j","0","0","0","0","100","0","0","0","100","0","96","100","96","0","96","3","100","0","100","Fri Feb 19 12:54:21 2021","The main experiment item","yes","Lexical_Decision_Task.osexp","C:/Users/Spoly","no","Andale Mono","no","18","no","white","no","yes","576","legacy","96","96","3","C:/Users/Spoly/subject-5206261.csv","legacy","Lentiform Loewenfeld","3.3.7","yes","yes","600bd7cfb6416f0113b04181","602110864497cf011d9c0822","0","j","NA","space","space","space","space","j","1007","NA","26532","29574","2605","57159","1007","2","legacy","1024","2","48000","-16","task","5206261","odd","NA","50519","79054","52521","322789","3896","36078","33472","323290","176853","322788","323290","322726","79054","324298","45493","322226","3891","315920","Lexical Decision Task","92","86277","101","yes","1024"
"3.252447662","9.67","9","boat","word","91.17647058823529","91.17647058823529","851.6862745098039","851.6862745098039","black","no","legacy","legacy","legacy","0","uniform","1","undefined","undefined","undefined","1","j","0","0","0","0","101","0","0","0","101","0","97","101","97","0","97","3","101","0","101","Fri Feb 19 12:54:21 2021","The main experiment item","yes","Lexical_Decision_Task.osexp","C:/Users/Spoly","no","Andale Mono","no","18","no","white","no","yes","576","legacy","97","97","3","C:/Users/Spoly/subject-5206261.csv","legacy","Lentiform Loewenfeld","3.3.7","yes","yes","600bd7cfb6416f0113b04181","602110864497cf011d9c0822","0","j","NA","space","space","space","space","j","595","NA","26532","29574","2605","57159","595","2","legacy","1024","2","48000","-16","task","5206261","odd","NA","50519","79054","52521","324861","3896","36078","33472","325363","176853","324860","325363","324803","79054","325959","45493","324303","3891","315920","Lexical Decision Task","93","86872","102","yes","1024"
