"Log_BG","Log_Freq_HAL","Ortho_N","Stimulus","Type","acc","accuracy","average_response_time","avg_rt","background","bidi","canvas_backend","clock_backend","color_backend","compensation","coordinates","correct","correct_Experimental_intro","correct_Introduction","correct_Practice_intro","correct_experimenter_kb","correct_response","count_End_Of_Experiment","count_End_Of_Practice","count_Experimental_Loop","count_Experimental_intro","count_Fixation","count_Introduction","count_Practice_Loop","count_Practice_intro","count_Stimulus","count_block_break_feedback","count_experimental_sequence","count_experimenter_kb","count_increment_trial_count","count_init_trial_count","count_logger","count_practice_sequence","count_right","count_task","count_wrong","datetime","description","disable_garbage_collection","experiment_file","experiment_path","font_bold","font_family","font_italic","font_size","font_underline","foreground","form_clicks","fullscreen","height","keyboard_backend","live_row","live_row_Experimental_Loop","live_row_Practice_Loop","logfile","mouse_backend","opensesame_codename","opensesame_version","osf_always_upload_data","osf_always_upload_experiment","osf_datanode_id","osf_id","repeat_cycle","response","response_End_Of_Experiment","response_Experimental_intro","response_Introduction","response_Practice_intro","response_block_break_feedback","response_experimenter_kb","response_time","response_time_End_Of_Experiment","response_time_Experimental_intro","response_time_Introduction","response_time_Practice_intro","response_time_block_break_feedback","response_time_experimenter_kb","round_decimals","sampler_backend","sound_buf_size","sound_channels","sound_freq","sound_sample_size","start","subject_nr","subject_parity","time_End_Of_Experiment","time_End_Of_Practice","time_Experimental_Loop","time_Experimental_intro","time_Fixation","time_Introduction","time_Practice_Loop","time_Practice_intro","time_Stimulus","time_block_break_feedback","time_experimental_sequence","time_experimenter_kb","time_increment_trial_count","time_init_trial_count","time_logger","time_practice_sequence","time_right","time_task","time_wrong","title","total_correct","total_response_time","total_responses","uniform_coordinates","width"
"3.366547468","0","6","plat","non-word","20","20","2020.6","2020.6","black","no","legacy","legacy","legacy","0","uniform","1","undefined","undefined","undefined","1","f","0","0","0","0","4","0","0","0","4","NA","0","4","0","0","0","3","4","0","4","Fri Feb 19 12:13:46 2021","The main experiment item","yes","Lexical_Decision_Task.osexp","/Users/molly","no","Andale Mono","no","18","no","white","no","yes","576","legacy","0","0","3","/Users/molly/subject-5208078 2.csv","legacy","Lentiform Loewenfeld","3.3.7","yes","yes","600bd7cfb6416f0113b04181","602110864497cf011d9c0822","0","f","NA","space","space","space","NA","f","2592","NA","23218","10015","7799","NA","2592","2","legacy","1024","2","48000","-16","task","5208078","even","NA","38570","63792","40572","63825","4912","22744","14943","64329","NA","63823","64329","NA","63792","66923","35344","NA","4839","37041","Lexical Decision Task","1","10103","5","yes","1024"
"2.709837904","6.85","8","skim","word","33.333333333333336","33.333333333333336","1961.1666666666667","1961.1666666666667","black","no","legacy","legacy","legacy","0","uniform","1","undefined","undefined","undefined","1","j","0","0","0","0","5","0","0","0","5","NA","1","5","1","0","1","3","5","0","5","Fri Feb 19 12:13:46 2021","The main experiment item","yes","Lexical_Decision_Task.osexp","/Users/molly","no","Andale Mono","no","18","no","white","no","yes","576","legacy","1","1","3","/Users/molly/subject-5208078 2.csv","legacy","Lentiform Loewenfeld","3.3.7","yes","yes","600bd7cfb6416f0113b04181","602110864497cf011d9c0822","0","j","NA","space","space","space","NA","j","1664","NA","23218","10015","7799","NA","1664","2","legacy","1024","2","48000","-16","task","5208078","even","NA","38570","63792","40572","67502","4912","22744","14943","68006","NA","67499","68007","67431","63792","69672","35344","66931","4839","37041","Lexical Decision Task","2","11767","6","yes","1024"
"2.981215883","10.66","5","hair","word","42.857142857142854","42.857142857142854","1884.7142857142858","1884.7142857142858","black","no","legacy","legacy","legacy","0","uniform","1","undefined","undefined","undefined","1","j","0","0","0","0","6","0","0","0","6","NA","2","6","2","0","2","3","6","0","6","Fri Feb 19 12:13:46 2021","The main experiment item","yes","Lexical_Decision_Task.osexp","/Users/molly","no","Andale Mono","no","18","no","white","no","yes","576","legacy","2","2","3","/Users/molly/subject-5208078 2.csv","legacy","Lentiform Loewenfeld","3.3.7","yes","yes","600bd7cfb6416f0113b04181","602110864497cf011d9c0822","0","j","NA","space","space","space","NA","j","1426","NA","23218","10015","7799","NA","1426","2","legacy","1024","2","48000","-16","task","5208078","even","NA","38570","63792","40572","70234","4912","22744","14943","70739","NA","70231","70739","70177","63792","72166","35344","69677","4839","37041","Lexical Decision Task","3","13193","7","yes","1024"
"2.980911938","7.15","7","hoop","word","50","50","1762.875","1762.875","black","no","legacy","legacy","legacy","0","uniform","1","undefined","undefined","undefined","1","j","0","0","0","0","7","0","0","0","7","NA","3","7","3","0","3","3","7","0","7","Fri Feb 19 12:13:46 2021","The main experiment item","yes","Lexical_Decision_Task.osexp","/Users/molly","no","Andale Mono","no","18","no","white","no","yes","576","legacy","3","3","3","/Users/molly/subject-5208078 2.csv","legacy","Lentiform Loewenfeld","3.3.7","yes","yes","600bd7cfb6416f0113b04181","602110864497cf011d9c0822","0","j","NA","space","space","space","NA","j","910","NA","23218","10015","7799","NA","910","2","legacy","1024","2","48000","-16","task","5208078","even","NA","38570","63792","40572","72735","4912","22744","14943","73240","NA","72732","73240","72671","63792","74151","35344","72171","4839","37041","Lexical Decision Task","4","14103","8","yes","1024"
"2.893578687","8.69","3","surf","word","55.55555555555556","55.55555555555556","1647.3333333333333","1647.3333333333333","black","no","legacy","legacy","legacy","0","uniform","1","undefined","undefined","undefined","1","j","0","0","0","0","8","0","0","0","8","NA","4","8","4","0","4","3","8","0","8","Fri Feb 19 12:13:46 2021","The main experiment item","yes","Lexical_Decision_Task.osexp","/Users/molly","no","Andale Mono","no","18","no","white","no","yes","576","legacy","4","4","3","/Users/molly/subject-5208078 2.csv","legacy","Lentiform Loewenfeld","3.3.7","yes","yes","600bd7cfb6416f0113b04181","602110864497cf011d9c0822","0","j","NA","space","space","space","NA","j","723","NA","23218","10015","7799","NA","723","2","legacy","1024","2","48000","-16","task","5208078","even","NA","38570","63792","40572","74715","4912","22744","14943","75220","NA","74713","75220","74657","63792","75944","35344","74157","4839","37041","Lexical Decision Task","5","14826","9","yes","1024"
"3.307211407","6.07","7","honk","word","60","60","1551.1","1551.1","black","no","legacy","legacy","legacy","0","uniform","1","undefined","undefined","undefined","1","j","0","0","0","0","9","0","0","0","9","NA","5","9","5","0","5","3","9","0","9","Fri Feb 19 12:13:46 2021","The main experiment item","yes","Lexical_Decision_Task.osexp","/Users/molly","no","Andale Mono","no","18","no","white","no","yes","576","legacy","5","5","3","/Users/molly/subject-5208078 2.csv","legacy","Lentiform Loewenfeld","3.3.7","yes","yes","600bd7cfb6416f0113b04181","602110864497cf011d9c0822","0","j","NA","space","space","space","NA","j","685","NA","23218","10015","7799","NA","685","2","legacy","1024","2","48000","-16","task","5208078","even","NA","38570","63792","40572","76505","4912","22744","14943","77008","NA","76502","77008","76449","63792","77694","35344","75949","4839","37041","Lexical Decision Task","6","15511","10","yes","1024"
"3.225825991","0","7","talm","non-word","63.63636363636363","63.63636363636363","1492.5454545454545","1492.5454545454545","black","no","legacy","legacy","legacy","0","uniform","1","undefined","undefined","undefined","1","f","0","0","0","0","10","0","0","0","10","NA","6","10","6","0","6","3","10","0","10","Fri Feb 19 12:13:46 2021","The main experiment item","yes","Lexical_Decision_Task.osexp","/Users/molly","no","Andale Mono","no","18","no","white","no","yes","576","legacy","6","6","3","/Users/molly/subject-5208078 2.csv","legacy","Lentiform Loewenfeld","3.3.7","yes","yes","600bd7cfb6416f0113b04181","602110864497cf011d9c0822","0","f","NA","space","space","space","NA","f","907","NA","23218","10015","7799","NA","907","2","legacy","1024","2","48000","-16","task","5208078","even","NA","38570","63792","40572","78256","4912","22744","14943","78759","NA","78253","78759","78200","63792","79667","35344","77700","4839","37041","Lexical Decision Task","7","16418","11","yes","1024"
"3.010582609","0","2","drod","non-word","66.66666666666667","66.66666666666667","1424.6666666666667","1424.6666666666667","black","no","legacy","legacy","legacy","0","uniform","1","undefined","undefined","undefined","1","f","0","0","0","0","11","0","0","0","11","NA","7","11","7","0","7","3","11","0","11","Fri Feb 19 12:13:46 2021","The main experiment item","yes","Lexical_Decision_Task.osexp","/Users/molly","no","Andale Mono","no","18","no","white","no","yes","576","legacy","7","7","3","/Users/molly/subject-5208078 2.csv","legacy","Lentiform Loewenfeld","3.3.7","yes","yes","600bd7cfb6416f0113b04181","602110864497cf011d9c0822","0","f","NA","space","space","space","NA","f","678","NA","23218","10015","7799","NA","678","2","legacy","1024","2","48000","-16","task","5208078","even","NA","38570","63792","40572","80227","4912","22744","14943","80730","NA","80224","80731","80173","63792","81410","35344","79672","4839","37041","Lexical Decision Task","8","17096","12","yes","1024"
"3.121778632","0","9","sark","non-word","69.23076923076923","69.23076923076923","1396.076923076923","1396.076923076923","black","no","legacy","legacy","legacy","0","uniform","1","undefined","undefined","undefined","1","f","0","0","0","0","12","0","0","0","12","NA","8","12","8","0","8","3","12","0","12","Fri Feb 19 12:13:46 2021","The main experiment item","yes","Lexical_Decision_Task.osexp","/Users/molly","no","Andale Mono","no","18","no","white","no","yes","576","legacy","8","8","3","/Users/molly/subject-5208078 2.csv","legacy","Lentiform Loewenfeld","3.3.7","yes","yes","600bd7cfb6416f0113b04181","602110864497cf011d9c0822","0","f","NA","space","space","space","NA","f","1053","NA","23218","10015","7799","NA","1053","2","legacy","1024","2","48000","-16","task","5208078","even","NA","38570","63792","40572","81970","4912","22744","14943","82473","NA","81967","82474","81915","63792","83529","35344","81415","4839","37041","Lexical Decision Task","9","18149","13","yes","1024"
"3.140404328","10.66","9","deep","word","71.42857142857143","71.42857142857143","1357.0714285714287","1357.0714285714287","black","no","legacy","legacy","legacy","0","uniform","1","undefined","undefined","undefined","1","j","0","0","0","0","13","0","0","0","13","NA","9","13","9","0","9","3","13","0","13","Fri Feb 19 12:13:46 2021","The main experiment item","yes","Lexical_Decision_Task.osexp","/Users/molly","no","Andale Mono","no","18","no","white","no","yes","576","legacy","9","9","3","/Users/molly/subject-5208078 2.csv","legacy","Lentiform Loewenfeld","3.3.7","yes","yes","600bd7cfb6416f0113b04181","602110864497cf011d9c0822","0","j","NA","space","space","space","NA","j","850","NA","23218","10015","7799","NA","850","2","legacy","1024","2","48000","-16","task","5208078","even","NA","38570","63792","40572","84091","4912","22744","14943","84595","NA","84089","84596","84034","63792","85448","35344","83534","4839","37041","Lexical Decision Task","10","18999","14","yes","1024"
"3.174641193","0","3","ramb","non-word","73.33333333333333","73.33333333333333","1337.8","1337.8","black","no","legacy","legacy","legacy","0","uniform","1","undefined","undefined","undefined","1","f","0","0","0","0","14","0","0","0","14","NA","10","14","10","0","10","3","14","0","14","Fri Feb 19 12:13:46 2021","The main experiment item","yes","Lexical_Decision_Task.osexp","/Users/molly","no","Andale Mono","no","18","no","white","no","yes","576","legacy","10","10","3","/Users/molly/subject-5208078 2.csv","legacy","Lentiform Loewenfeld","3.3.7","yes","yes","600bd7cfb6416f0113b04181","602110864497cf011d9c0822","0","f","NA","space","space","space","NA","f","1068","NA","23218","10015","7799","NA","1068","2","legacy","1024","2","48000","-16","task","5208078","even","NA","38570","63792","40572","86007","4912","22744","14943","86511","NA","86005","86512","85953","63792","87582","35344","85452","4839","37041","Lexical Decision Task","11","20067","15","yes","1024"
"3.443783828","7.65","3","verb","word","75","75","1302.8125","1302.8125","black","no","legacy","legacy","legacy","0","uniform","1","undefined","undefined","undefined","1","j","0","0","0","0","15","0","0","0","15","NA","11","15","11","0","11","3","15","0","15","Fri Feb 19 12:13:46 2021","The main experiment item","yes","Lexical_Decision_Task.osexp","/Users/molly","no","Andale Mono","no","18","no","white","no","yes","576","legacy","11","11","3","/Users/molly/subject-5208078 2.csv","legacy","Lentiform Loewenfeld","3.3.7","yes","yes","600bd7cfb6416f0113b04181","602110864497cf011d9c0822","0","j","NA","space","space","space","NA","j","778","NA","23218","10015","7799","NA","778","2","legacy","1024","2","48000","-16","task","5208078","even","NA","38570","63792","40572","88147","4912","22744","14943","88651","NA","88145","88652","88087","63792","89431","35344","87587","4839","37041","Lexical Decision Task","12","20845","16","yes","1024"
"2.705007959","6.01","4","wept","word","76.47058823529412","76.47058823529412","1270.2941176470588","1270.2941176470588","black","no","legacy","legacy","legacy","0","uniform","1","undefined","undefined","undefined","1","j","0","0","0","0","16","0","0","0","16","NA","12","16","12","0","12","3","16","0","16","Fri Feb 19 12:13:46 2021","The main experiment item","yes","Lexical_Decision_Task.osexp","/Users/molly","no","Andale Mono","no","18","no","white","no","yes","576","legacy","12","12","3","/Users/molly/subject-5208078 2.csv","legacy","Lentiform Loewenfeld","3.3.7","yes","yes","600bd7cfb6416f0113b04181","602110864497cf011d9c0822","0","j","NA","space","space","space","NA","j","750","NA","23218","10015","7799","NA","750","2","legacy","1024","2","48000","-16","task","5208078","even","NA","38570","63792","40572","89992","4912","22744","14943","90495","NA","89989","90496","89937","63792","91247","35344","89437","4839","37041","Lexical Decision Task","13","21595","17","yes","1024"
"3.102203805","7.21","3","drip","word","77.77777777777777","77.77777777777777","1232.9444444444443","1232.9444444444443","black","no","legacy","legacy","legacy","0","uniform","1","undefined","undefined","undefined","1","j","0","0","0","0","17","0","0","0","17","NA","13","17","13","0","13","3","17","0","17","Fri Feb 19 12:13:46 2021","The main experiment item","yes","Lexical_Decision_Task.osexp","/Users/molly","no","Andale Mono","no","18","no","white","no","yes","576","legacy","13","13","3","/Users/molly/subject-5208078 2.csv","legacy","Lentiform Loewenfeld","3.3.7","yes","yes","600bd7cfb6416f0113b04181","602110864497cf011d9c0822","0","j","NA","space","space","space","NA","j","598","NA","23218","10015","7799","NA","598","2","legacy","1024","2","48000","-16","task","5208078","even","NA","38570","63792","40572","91808","4912","22744","14943","92312","NA","91805","92312","91752","63792","92911","35344","91252","4839","37041","Lexical Decision Task","14","22193","18","yes","1024"
"2.696644658","5.78","2","yolk","word","78.94736842105263","78.94736842105263","1198.2631578947369","1198.2631578947369","black","no","legacy","legacy","legacy","0","uniform","1","undefined","undefined","undefined","1","j","0","0","0","0","18","0","0","0","18","NA","14","18","14","0","14","3","18","0","18","Fri Feb 19 12:13:46 2021","The main experiment item","yes","Lexical_Decision_Task.osexp","/Users/molly","no","Andale Mono","no","18","no","white","no","yes","576","legacy","14","14","3","/Users/molly/subject-5208078 2.csv","legacy","Lentiform Loewenfeld","3.3.7","yes","yes","600bd7cfb6416f0113b04181","602110864497cf011d9c0822","0","j","NA","space","space","space","NA","j","574","NA","23218","10015","7799","NA","574","2","legacy","1024","2","48000","-16","task","5208078","even","NA","38570","63792","40572","93471","4912","22744","14943","93976","NA","93469","93977","93417","63792","94552","35344","92916","4839","37041","Lexical Decision Task","15","22767","19","yes","1024"
"2.807758206","6.25","4","hurl","word","80","80","1165.1","1165.1","black","no","legacy","legacy","legacy","0","uniform","1","undefined","undefined","undefined","1","j","0","0","0","0","19","0","0","0","19","NA","15","19","15","0","15","3","19","0","19","Fri Feb 19 12:13:46 2021","The main experiment item","yes","Lexical_Decision_Task.osexp","/Users/molly","no","Andale Mono","no","18","no","white","no","yes","576","legacy","15","15","3","/Users/molly/subject-5208078 2.csv","legacy","Lentiform Loewenfeld","3.3.7","yes","yes","600bd7cfb6416f0113b04181","602110864497cf011d9c0822","0","j","NA","space","space","space","NA","j","535","NA","23218","10015","7799","NA","535","2","legacy","1024","2","48000","-16","task","5208078","even","NA","38570","63792","40572","95112","4912","22744","14943","95616","NA","95110","95617","95057","63792","96153","35344","94557","4839","37041","Lexical Decision Task","16","23302","20","yes","1024"
"2.7084209","0","8","vump","non-word","80.95238095238095","80.95238095238095","1140.4761904761904","1140.4761904761904","black","no","legacy","legacy","legacy","0","uniform","1","undefined","undefined","undefined","1","f","0","0","0","0","20","0","0","0","20","NA","16","20","16","0","16","3","20","0","20","Fri Feb 19 12:13:46 2021","The main experiment item","yes","Lexical_Decision_Task.osexp","/Users/molly","no","Andale Mono","no","18","no","white","no","yes","576","legacy","16","16","3","/Users/molly/subject-5208078 2.csv","legacy","Lentiform Loewenfeld","3.3.7","yes","yes","600bd7cfb6416f0113b04181","602110864497cf011d9c0822","0","f","NA","space","space","space","NA","f","648","NA","23218","10015","7799","NA","648","2","legacy","1024","2","48000","-16","task","5208078","even","NA","38570","63792","40572","96716","4912","22744","14943","97221","NA","96713","97221","96658","63792","97870","35344","96158","4839","37041","Lexical Decision Task","17","23950","21","yes","1024"
"2.892836167","10.01","5","soft","word","81.81818181818181","81.81818181818181","1122.090909090909","1122.090909090909","black","no","legacy","legacy","legacy","0","uniform","1","undefined","undefined","undefined","1","j","0","0","0","0","21","0","0","0","21","NA","17","21","17","0","17","3","21","0","21","Fri Feb 19 12:13:46 2021","The main experiment item","yes","Lexical_Decision_Task.osexp","/Users/molly","no","Andale Mono","no","18","no","white","no","yes","576","legacy","17","17","3","/Users/molly/subject-5208078 2.csv","legacy","Lentiform Loewenfeld","3.3.7","yes","yes","600bd7cfb6416f0113b04181","602110864497cf011d9c0822","0","j","NA","space","space","space","NA","j","736","NA","23218","10015","7799","NA","736","2","legacy","1024","2","48000","-16","task","5208078","even","NA","38570","63792","40572","98430","4912","22744","14943","98935","NA","98428","98936","98375","63792","99674","35344","97875","4839","37041","Lexical Decision Task","18","24686","22","yes","1024"
"3.15462682","0","6","noal","non-word","82.6086956521739","82.6086956521739","1111.7826086956522","1111.7826086956522","black","no","legacy","legacy","legacy","0","uniform","1","undefined","undefined","undefined","1","f","0","0","0","0","22","0","0","0","22","NA","18","22","18","0","18","3","22","0","22","Fri Feb 19 12:13:46 2021","The main experiment item","yes","Lexical_Decision_Task.osexp","/Users/molly","no","Andale Mono","no","18","no","white","no","yes","576","legacy","18","18","3","/Users/molly/subject-5208078 2.csv","legacy","Lentiform Loewenfeld","3.3.7","yes","yes","600bd7cfb6416f0113b04181","602110864497cf011d9c0822","0","f","NA","space","space","space","NA","f","885","NA","23218","10015","7799","NA","885","2","legacy","1024","2","48000","-16","task","5208078","even","NA","38570","63792","40572","100232","4912","22744","14943","100737","NA","100230","100737","100178","63792","101623","35344","99678","4839","37041","Lexical Decision Task","19","25571","23","yes","1024"
"2.755364069","7.72","2","hoax","word","83.33333333333333","83.33333333333333","1092.4166666666667","1092.4166666666667","black","no","legacy","legacy","legacy","0","uniform","1","undefined","undefined","undefined","1","j","0","0","0","0","23","0","0","0","23","NA","19","23","19","0","19","3","23","0","23","Fri Feb 19 12:13:46 2021","The main experiment item","yes","Lexical_Decision_Task.osexp","/Users/molly","no","Andale Mono","no","18","no","white","no","yes","576","legacy","19","19","3","/Users/molly/subject-5208078 2.csv","legacy","Lentiform Loewenfeld","3.3.7","yes","yes","600bd7cfb6416f0113b04181","602110864497cf011d9c0822","0","j","NA","space","space","space","NA","j","647","NA","23218","10015","7799","NA","647","2","legacy","1024","2","48000","-16","task","5208078","even","NA","38570","63792","40572","102183","4912","22744","14943","102686","NA","102180","102687","102128","63792","103335","35344","101628","4839","37041","Lexical Decision Task","20","26218","24","yes","1024"
"3.197740804","6.74","3","ache","word","84","84","1075.88","1075.88","black","no","legacy","legacy","legacy","0","uniform","1","undefined","undefined","undefined","1","j","0","0","0","0","24","0","0","0","24","NA","20","24","20","0","20","3","24","0","24","Fri Feb 19 12:13:46 2021","The main experiment item","yes","Lexical_Decision_Task.osexp","/Users/molly","no","Andale Mono","no","18","no","white","no","yes","576","legacy","20","20","3","/Users/molly/subject-5208078 2.csv","legacy","Lentiform Loewenfeld","3.3.7","yes","yes","600bd7cfb6416f0113b04181","602110864497cf011d9c0822","0","j","NA","space","space","space","NA","j","679","NA","23218","10015","7799","NA","679","2","legacy","1024","2","48000","-16","task","5208078","even","NA","38570","63792","40572","103896","4912","22744","14943","104401","NA","103893","104401","103841","63792","105081","35344","103340","4839","37041","Lexical Decision Task","21","26897","25","yes","1024"
"3.302475237","0","7","leel","non-word","84.61538461538461","84.61538461538461","1066.3076923076924","1066.3076923076924","black","no","legacy","legacy","legacy","0","uniform","1","undefined","undefined","undefined","1","f","0","0","0","0","25","0","0","0","25","NA","21","25","21","0","21","3","25","0","25","Fri Feb 19 12:13:46 2021","The main experiment item","yes","Lexical_Decision_Task.osexp","/Users/molly","no","Andale Mono","no","18","no","white","no","yes","576","legacy","21","21","3","/Users/molly/subject-5208078 2.csv","legacy","Lentiform Loewenfeld","3.3.7","yes","yes","600bd7cfb6416f0113b04181","602110864497cf011d9c0822","0","f","NA","space","space","space","NA","f","827","NA","23218","10015","7799","NA","827","2","legacy","1024","2","48000","-16","task","5208078","even","NA","38570","63792","40572","105642","4912","22744","14943","106146","NA","105639","106146","105587","63792","106974","35344","105087","4839","37041","Lexical Decision Task","22","27724","26","yes","1024"
"2.875447132","0","9","jelt","non-word","85.18518518518519","85.18518518518519","1058.111111111111","1058.111111111111","black","no","legacy","legacy","legacy","0","uniform","1","undefined","undefined","undefined","1","f","0","0","0","0","26","0","0","0","26","NA","22","26","22","0","22","3","26","0","26","Fri Feb 19 12:13:46 2021","The main experiment item","yes","Lexical_Decision_Task.osexp","/Users/molly","no","Andale Mono","no","18","no","white","no","yes","576","legacy","22","22","3","/Users/molly/subject-5208078 2.csv","legacy","Lentiform Loewenfeld","3.3.7","yes","yes","600bd7cfb6416f0113b04181","602110864497cf011d9c0822","0","f","NA","space","space","space","NA","f","845","NA","23218","10015","7799","NA","845","2","legacy","1024","2","48000","-16","task","5208078","even","NA","38570","63792","40572","107534","4912","22744","14943","108039","NA","107531","108039","107480","63792","108885","35344","106979","4839","37041","Lexical Decision Task","23","28569","27","yes","1024"
"3.529815197","0","3","lerm","non-word","85.71428571428571","85.71428571428571","1046.857142857143","1046.857142857143","black","no","legacy","legacy","legacy","0","uniform","1","undefined","undefined","undefined","1","f","0","0","0","0","27","0","0","0","27","NA","23","27","23","0","23","3","27","0","27","Fri Feb 19 12:13:46 2021","The main experiment item","yes","Lexical_Decision_Task.osexp","/Users/molly","no","Andale Mono","no","18","no","white","no","yes","576","legacy","23","23","3","/Users/molly/subject-5208078 2.csv","legacy","Lentiform Loewenfeld","3.3.7","yes","yes","600bd7cfb6416f0113b04181","602110864497cf011d9c0822","0","f","NA","space","space","space","NA","f","743","NA","23218","10015","7799","NA","743","2","legacy","1024","2","48000","-16","task","5208078","even","NA","38570","63792","40572","109449","4912","22744","14943","109953","NA","109446","109954","109394","63792","110698","35344","108893","4839","37041","Lexical Decision Task","24","29312","28","yes","1024"
"3.133964479","0","8","graw","non-word","86.20689655172414","86.20689655172414","1037.4137931034484","1037.4137931034484","black","no","legacy","legacy","legacy","0","uniform","1","undefined","undefined","undefined","1","f","0","0","0","0","28","0","0","0","28","NA","24","28","24","0","24","3","28","0","28","Fri Feb 19 12:13:46 2021","The main experiment item","yes","Lexical_Decision_Task.osexp","/Users/molly","no","Andale Mono","no","18","no","white","no","yes","576","legacy","24","24","3","/Users/molly/subject-5208078 2.csv","legacy","Lentiform Loewenfeld","3.3.7","yes","yes","600bd7cfb6416f0113b04181","602110864497cf011d9c0822","0","f","NA","space","space","space","NA","f","773","NA","23218","10015","7799","NA","773","2","legacy","1024","2","48000","-16","task","5208078","even","NA","38570","63792","40572","111260","4912","22744","14943","111766","NA","111258","111766","111204","63792","112540","35344","110703","4839","37041","Lexical Decision Task","25","30085","29","yes","1024"
"2.698387659","6.66","7","skid","word","86.66666666666667","86.66666666666667","1024.3666666666666","1024.3666666666666","black","no","legacy","legacy","legacy","0","uniform","1","undefined","undefined","undefined","1","j","0","0","0","0","29","0","0","0","29","NA","25","29","25","0","25","3","29","0","29","Fri Feb 19 12:13:46 2021","The main experiment item","yes","Lexical_Decision_Task.osexp","/Users/molly","no","Andale Mono","no","18","no","white","no","yes","576","legacy","25","25","3","/Users/molly/subject-5208078 2.csv","legacy","Lentiform Loewenfeld","3.3.7","yes","yes","600bd7cfb6416f0113b04181","602110864497cf011d9c0822","0","j","NA","space","space","space","NA","j","646","NA","23218","10015","7799","NA","646","2","legacy","1024","2","48000","-16","task","5208078","even","NA","38570","63792","40572","113100","4912","22744","14943","113605","NA","113097","113605","113044","63792","114252","35344","112544","4839","37041","Lexical Decision Task","26","30731","30","yes","1024"
"2.746890964","9.67","3","plug","word","87.09677419354838","87.09677419354838","1010.1612903225806","1010.1612903225806","black","no","legacy","legacy","legacy","0","uniform","1","undefined","undefined","undefined","1","j","0","0","0","0","30","0","0","0","30","NA","26","30","26","0","26","3","30","0","30","Fri Feb 19 12:13:46 2021","The main experiment item","yes","Lexical_Decision_Task.osexp","/Users/molly","no","Andale Mono","no","18","no","white","no","yes","576","legacy","26","26","3","/Users/molly/subject-5208078 2.csv","legacy","Lentiform Loewenfeld","3.3.7","yes","yes","600bd7cfb6416f0113b04181","602110864497cf011d9c0822","0","j","NA","space","space","space","NA","j","584","NA","23218","10015","7799","NA","584","2","legacy","1024","2","48000","-16","task","5208078","even","NA","38570","63792","40572","114816","4912","22744","14943","115320","NA","114814","115321","114758","63792","115907","35344","114257","4839","37041","Lexical Decision Task","27","31315","31","yes","1024"
"2.708989954","9.28","9","bowl","word","87.5","87.5","995.96875","995.96875","black","no","legacy","legacy","legacy","0","uniform","1","undefined","undefined","undefined","1","j","0","0","0","0","31","0","0","0","31","NA","27","31","27","0","27","3","31","0","31","Fri Feb 19 12:13:46 2021","The main experiment item","yes","Lexical_Decision_Task.osexp","/Users/molly","no","Andale Mono","no","18","no","white","no","yes","576","legacy","27","27","3","/Users/molly/subject-5208078 2.csv","legacy","Lentiform Loewenfeld","3.3.7","yes","yes","600bd7cfb6416f0113b04181","602110864497cf011d9c0822","0","j","NA","space","space","space","NA","j","556","NA","23218","10015","7799","NA","556","2","legacy","1024","2","48000","-16","task","5208078","even","NA","38570","63792","40572","116468","4912","22744","14943","116972","NA","116465","116973","116412","63792","117530","35344","115912","4839","37041","Lexical Decision Task","28","31871","32","yes","1024"
"2.714888338","0","3","brug","non-word","87.87878787878788","87.87878787878788","989.8484848484849","989.8484848484849","black","no","legacy","legacy","legacy","0","uniform","1","undefined","undefined","undefined","1","f","0","0","0","0","32","0","0","0","32","NA","28","32","28","0","28","3","32","0","32","Fri Feb 19 12:13:46 2021","The main experiment item","yes","Lexical_Decision_Task.osexp","/Users/molly","no","Andale Mono","no","18","no","white","no","yes","576","legacy","28","28","3","/Users/molly/subject-5208078 2.csv","legacy","Lentiform Loewenfeld","3.3.7","yes","yes","600bd7cfb6416f0113b04181","602110864497cf011d9c0822","0","f","NA","space","space","space","NA","f","794","NA","23218","10015","7799","NA","794","2","legacy","1024","2","48000","-16","task","5208078","even","NA","38570","63792","40572","118096","4912","22744","14943","118601","NA","118094","118602","118036","63792","119397","35344","117535","4839","37041","Lexical Decision Task","29","32665","33","yes","1024"
"2.990042563","6.64","9","plow","word","88.23529411764706","88.23529411764706","994.3235294117648","994.3235294117648","black","no","legacy","legacy","legacy","0","uniform","1","undefined","undefined","undefined","1","j","0","0","0","0","33","0","0","0","33","NA","29","33","29","0","29","3","33","0","33","Fri Feb 19 12:13:46 2021","The main experiment item","yes","Lexical_Decision_Task.osexp","/Users/molly","no","Andale Mono","no","18","no","white","no","yes","576","legacy","29","29","3","/Users/molly/subject-5208078 2.csv","legacy","Lentiform Loewenfeld","3.3.7","yes","yes","600bd7cfb6416f0113b04181","602110864497cf011d9c0822","0","j","NA","space","space","space","NA","j","1142","NA","23218","10015","7799","NA","1142","2","legacy","1024","2","48000","-16","task","5208078","even","NA","38570","63792","40572","119957","4912","22744","14943","120461","NA","119954","120462","119902","63792","121605","35344","119401","4839","37041","Lexical Decision Task","30","33807","34","yes","1024"
"2.884795364","0","6","flob","non-word","88.57142857142857","88.57142857142857","986.2857142857143","986.2857142857143","black","no","legacy","legacy","legacy","0","uniform","1","undefined","undefined","undefined","1","f","0","0","0","0","34","0","0","0","34","NA","30","34","30","0","30","3","34","0","34","Fri Feb 19 12:13:46 2021","The main experiment item","yes","Lexical_Decision_Task.osexp","/Users/molly","no","Andale Mono","no","18","no","white","no","yes","576","legacy","30","30","3","/Users/molly/subject-5208078 2.csv","legacy","Lentiform Loewenfeld","3.3.7","yes","yes","600bd7cfb6416f0113b04181","602110864497cf011d9c0822","0","f","NA","space","space","space","NA","f","713","NA","23218","10015","7799","NA","713","2","legacy","1024","2","48000","-16","task","5208078","even","NA","38570","63792","40572","122167","4912","22744","14943","122670","NA","122164","122671","122110","63792","123385","35344","121610","4839","37041","Lexical Decision Task","31","34520","35","yes","1024"
"3.043885998","0","9","gome","non-word","88.88888888888889","88.88888888888889","977.0833333333334","977.0833333333334","black","no","legacy","legacy","legacy","0","uniform","1","undefined","undefined","undefined","1","f","0","0","0","0","35","0","0","0","35","NA","31","35","31","0","31","3","35","0","35","Fri Feb 19 12:13:46 2021","The main experiment item","yes","Lexical_Decision_Task.osexp","/Users/molly","no","Andale Mono","no","18","no","white","no","yes","576","legacy","31","31","3","/Users/molly/subject-5208078 2.csv","legacy","Lentiform Loewenfeld","3.3.7","yes","yes","600bd7cfb6416f0113b04181","602110864497cf011d9c0822","0","f","NA","space","space","space","NA","f","655","NA","23218","10015","7799","NA","655","2","legacy","1024","2","48000","-16","task","5208078","even","NA","38570","63792","40572","123951","4912","22744","14943","124455","NA","123948","124456","123889","63792","125112","35344","123389","4839","37041","Lexical Decision Task","32","35175","36","yes","1024"
"2.793790385","5.67","9","swab","word","89.1891891891892","89.1891891891892","969.5135135135135","969.5135135135135","black","no","legacy","legacy","legacy","0","uniform","1","undefined","undefined","undefined","1","j","0","0","0","0","36","0","0","0","36","NA","32","36","32","0","32","3","36","0","36","Fri Feb 19 12:13:46 2021","The main experiment item","yes","Lexical_Decision_Task.osexp","/Users/molly","no","Andale Mono","no","18","no","white","no","yes","576","legacy","32","32","3","/Users/molly/subject-5208078 2.csv","legacy","Lentiform Loewenfeld","3.3.7","yes","yes","600bd7cfb6416f0113b04181","602110864497cf011d9c0822","0","j","NA","space","space","space","NA","j","697","NA","23218","10015","7799","NA","697","2","legacy","1024","2","48000","-16","task","5208078","even","NA","38570","63792","40572","125675","4912","22744","14943","126179","NA","125672","126179","125617","63792","126877","35344","125117","4839","37041","Lexical Decision Task","33","35872","37","yes","1024"
"3.165936429","0","7","leps","non-word","86.84210526315789","86.84210526315789","963.3947368421053","963.3947368421053","black","no","legacy","legacy","legacy","0","uniform","0","undefined","undefined","undefined","0","f","0","0","0","0","37","0","0","0","37","NA","33","37","33","0","33","3","37","0","37","Fri Feb 19 12:13:46 2021","The main experiment item","yes","Lexical_Decision_Task.osexp","/Users/molly","no","Andale Mono","no","18","no","white","no","yes","576","legacy","33","33","3","/Users/molly/subject-5208078 2.csv","legacy","Lentiform Loewenfeld","3.3.7","yes","yes","600bd7cfb6416f0113b04181","602110864497cf011d9c0822","0","j","NA","space","space","space","NA","j","737","NA","23218","10015","7799","NA","737","2","legacy","1024","2","48000","-16","task","5208078","even","NA","38570","63792","40572","127439","4912","22744","14943","127943","NA","127435","127943","127382","63792","128681","35344","126881","4839","37041","Lexical Decision Task","33","36609","38","yes","1024"
"3.488597715","0","9","nain","non-word","87.17948717948718","87.17948717948718","960.8717948717949","960.8717948717949","black","no","legacy","legacy","legacy","0","uniform","1","undefined","undefined","undefined","1","f","0","0","0","0","38","0","0","0","38","NA","34","38","34","0","34","3","38","0","38","Fri Feb 19 12:13:46 2021","The main experiment item","yes","Lexical_Decision_Task.osexp","/Users/molly","no","Andale Mono","no","18","no","white","no","yes","576","legacy","34","34","3","/Users/molly/subject-5208078 2.csv","legacy","Lentiform Loewenfeld","3.3.7","yes","yes","600bd7cfb6416f0113b04181","602110864497cf011d9c0822","0","f","NA","space","space","space","NA","f","865","NA","23218","10015","7799","NA","865","2","legacy","1024","2","48000","-16","task","5208078","even","NA","38570","63792","40572","130244","4912","22744","14943","130748","NA","130241","130748","130187","63792","131615","35344","126881","4839","128686","Lexical Decision Task","34","37474","39","yes","1024"
"2.899638141","0","3","hapt","non-word","87.5","87.5","954.75","954.75","black","no","legacy","legacy","legacy","0","uniform","1","undefined","undefined","undefined","1","f","0","0","0","0","39","0","0","0","39","NA","35","39","35","0","35","3","39","0","39","Fri Feb 19 12:13:46 2021","The main experiment item","yes","Lexical_Decision_Task.osexp","/Users/molly","no","Andale Mono","no","18","no","white","no","yes","576","legacy","35","35","3","/Users/molly/subject-5208078 2.csv","legacy","Lentiform Loewenfeld","3.3.7","yes","yes","600bd7cfb6416f0113b04181","602110864497cf011d9c0822","0","f","NA","space","space","space","NA","f","716","NA","23218","10015","7799","NA","716","2","legacy","1024","2","48000","-16","task","5208078","even","NA","38570","63792","40572","132175","4912","22744","14943","132680","NA","132172","132681","132120","63792","133399","35344","131620","4839","128686","Lexical Decision Task","35","38190","40","yes","1024"
"3.208172527","10.27","7","deck","word","87.8048780487805","87.8048780487805","945.170731707317","945.170731707317","black","no","legacy","legacy","legacy","0","uniform","1","undefined","undefined","undefined","1","j","0","0","0","0","40","0","0","0","40","NA","36","40","36","0","36","3","40","0","40","Fri Feb 19 12:13:46 2021","The main experiment item","yes","Lexical_Decision_Task.osexp","/Users/molly","no","Andale Mono","no","18","no","white","no","yes","576","legacy","36","36","3","/Users/molly/subject-5208078 2.csv","legacy","Lentiform Loewenfeld","3.3.7","yes","yes","600bd7cfb6416f0113b04181","602110864497cf011d9c0822","0","j","NA","space","space","space","NA","j","562","NA","23218","10015","7799","NA","562","2","legacy","1024","2","48000","-16","task","5208078","even","NA","38570","63792","40572","133958","4912","22744","14943","134462","NA","133955","134462","133904","63792","135025","35344","133403","4839","128686","Lexical Decision Task","36","38752","41","yes","1024"
"2.706148589","0","4","hube","non-word","88.0952380952381","88.0952380952381","939.1190476190476","939.1190476190476","black","no","legacy","legacy","legacy","0","uniform","1","undefined","undefined","undefined","1","f","0","0","0","0","41","0","0","0","41","NA","37","41","37","0","37","3","41","0","41","Fri Feb 19 12:13:46 2021","The main experiment item","yes","Lexical_Decision_Task.osexp","/Users/molly","no","Andale Mono","no","18","no","white","no","yes","576","legacy","37","37","3","/Users/molly/subject-5208078 2.csv","legacy","Lentiform Loewenfeld","3.3.7","yes","yes","600bd7cfb6416f0113b04181","602110864497cf011d9c0822","0","f","NA","space","space","space","NA","f","691","NA","23218","10015","7799","NA","691","2","legacy","1024","2","48000","-16","task","5208078","even","NA","38570","63792","40572","135590","4912","22744","14943","136093","NA","135587","136094","135531","63792","136786","35344","135030","4839","128686","Lexical Decision Task","37","39443","42","yes","1024"
"3.252447662","9.67","9","boat","word","88.37209302325581","88.37209302325581","930.7441860465116","930.7441860465116","black","no","legacy","legacy","legacy","0","uniform","1","undefined","undefined","undefined","1","j","0","0","0","0","42","0","0","0","42","NA","38","42","38","0","38","3","42","0","42","Fri Feb 19 12:13:46 2021","The main experiment item","yes","Lexical_Decision_Task.osexp","/Users/molly","no","Andale Mono","no","18","no","white","no","yes","576","legacy","38","38","3","/Users/molly/subject-5208078 2.csv","legacy","Lentiform Loewenfeld","3.3.7","yes","yes","600bd7cfb6416f0113b04181","602110864497cf011d9c0822","0","j","NA","space","space","space","NA","j","579","NA","23218","10015","7799","NA","579","2","legacy","1024","2","48000","-16","task","5208078","even","NA","38570","63792","40572","137347","4912","22744","14943","137853","NA","137344","137853","137291","63792","138433","35344","136791","4839","128686","Lexical Decision Task","38","40022","43","yes","1024"
"2.6599162","0","2","saff","non-word","88.63636363636364","88.63636363636364","926.8409090909091","926.8409090909091","black","no","legacy","legacy","legacy","0","uniform","1","undefined","undefined","undefined","1","f","0","0","0","0","43","0","0","0","43","NA","39","43","39","0","39","3","43","0","43","Fri Feb 19 12:13:46 2021","The main experiment item","yes","Lexical_Decision_Task.osexp","/Users/molly","no","Andale Mono","no","18","no","white","no","yes","576","legacy","39","39","3","/Users/molly/subject-5208078 2.csv","legacy","Lentiform Loewenfeld","3.3.7","yes","yes","600bd7cfb6416f0113b04181","602110864497cf011d9c0822","0","f","NA","space","space","space","NA","f","759","NA","23218","10015","7799","NA","759","2","legacy","1024","2","48000","-16","task","5208078","even","NA","38570","63792","40572","138997","4912","22744","14943","139503","NA","138995","139503","138943","63792","140263","35344","138442","4839","128686","Lexical Decision Task","39","40781","44","yes","1024"
"2.937852093","0","7","bamp","non-word","88.88888888888889","88.88888888888889","922.8888888888889","922.8888888888889","black","no","legacy","legacy","legacy","0","uniform","1","undefined","undefined","undefined","1","f","0","0","0","0","44","0","0","0","44","NA","40","44","40","0","40","3","44","0","44","Fri Feb 19 12:13:46 2021","The main experiment item","yes","Lexical_Decision_Task.osexp","/Users/molly","no","Andale Mono","no","18","no","white","no","yes","576","legacy","40","40","3","/Users/molly/subject-5208078 2.csv","legacy","Lentiform Loewenfeld","3.3.7","yes","yes","600bd7cfb6416f0113b04181","602110864497cf011d9c0822","0","f","NA","space","space","space","NA","f","749","NA","23218","10015","7799","NA","749","2","legacy","1024","2","48000","-16","task","5208078","even","NA","38570","63792","40572","140826","4912","22744","14943","141330","NA","140823","141331","140768","63792","142081","35344","140268","4839","128686","Lexical Decision Task","40","41530","45","yes","1024"
"3.153001286","8.7","5","palm","word","89.1304347826087","89.1304347826087","914.9347826086956","914.9347826086956","black","no","legacy","legacy","legacy","0","uniform","1","undefined","undefined","undefined","1","j","0","0","0","0","45","0","0","0","45","NA","41","45","41","0","41","3","45","0","45","Fri Feb 19 12:13:46 2021","The main experiment item","yes","Lexical_Decision_Task.osexp","/Users/molly","no","Andale Mono","no","18","no","white","no","yes","576","legacy","41","41","3","/Users/molly/subject-5208078 2.csv","legacy","Lentiform Loewenfeld","3.3.7","yes","yes","600bd7cfb6416f0113b04181","602110864497cf011d9c0822","0","j","NA","space","space","space","NA","j","557","NA","23218","10015","7799","NA","557","2","legacy","1024","2","48000","-16","task","5208078","even","NA","38570","63792","40572","142641","4912","22744","14943","143144","NA","142638","143145","142587","63792","143703","35344","142086","4839","128686","Lexical Decision Task","41","42087","46","yes","1024"
"3.29439347","8.6","9","wand","word","89.36170212765957","89.36170212765957","909.4255319148937","909.4255319148937","black","no","legacy","legacy","legacy","0","uniform","1","undefined","undefined","undefined","1","j","0","0","0","0","46","0","0","0","46","NA","42","46","42","0","42","3","46","0","46","Fri Feb 19 12:13:46 2021","The main experiment item","yes","Lexical_Decision_Task.osexp","/Users/molly","no","Andale Mono","no","18","no","white","no","yes","576","legacy","42","42","3","/Users/molly/subject-5208078 2.csv","legacy","Lentiform Loewenfeld","3.3.7","yes","yes","600bd7cfb6416f0113b04181","602110864497cf011d9c0822","0","j","NA","space","space","space","NA","j","656","NA","23218","10015","7799","NA","656","2","legacy","1024","2","48000","-16","task","5208078","even","NA","38570","63792","40572","144262","4912","22744","14943","144766","NA","144260","144767","144208","63792","145424","35344","143708","4839","128686","Lexical Decision Task","42","42743","47","yes","1024"
"2.594027722","9.08","8","skip","word","89.58333333333333","89.58333333333333","903.3333333333334","903.3333333333334","black","no","legacy","legacy","legacy","0","uniform","1","undefined","undefined","undefined","1","j","0","0","0","0","47","0","0","0","47","NA","43","47","43","0","43","3","47","0","47","Fri Feb 19 12:13:46 2021","The main experiment item","yes","Lexical_Decision_Task.osexp","/Users/molly","no","Andale Mono","no","18","no","white","no","yes","576","legacy","43","43","3","/Users/molly/subject-5208078 2.csv","legacy","Lentiform Loewenfeld","3.3.7","yes","yes","600bd7cfb6416f0113b04181","602110864497cf011d9c0822","0","j","NA","space","space","space","NA","j","617","NA","23218","10015","7799","NA","617","2","legacy","1024","2","48000","-16","task","5208078","even","NA","38570","63792","40572","145984","4912","22744","14943","146488","NA","145982","146489","145929","63792","147108","35344","145429","4839","128686","Lexical Decision Task","43","43360","48","yes","1024"
"2.8162413","0","5","nusk","non-word","89.79591836734694","89.79591836734694","897.8775510204082","897.8775510204082","black","no","legacy","legacy","legacy","0","uniform","1","undefined","undefined","undefined","1","f","0","0","0","0","48","0","0","0","48","NA","44","48","44","0","44","3","48","0","48","Fri Feb 19 12:13:46 2021","The main experiment item","yes","Lexical_Decision_Task.osexp","/Users/molly","no","Andale Mono","no","18","no","white","no","yes","576","legacy","44","44","3","/Users/molly/subject-5208078 2.csv","legacy","Lentiform Loewenfeld","3.3.7","yes","yes","600bd7cfb6416f0113b04181","602110864497cf011d9c0822","0","f","NA","space","space","space","NA","f","636","NA","23218","10015","7799","NA","636","2","legacy","1024","2","48000","-16","task","5208078","even","NA","38570","63792","40572","147667","4912","22744","14943","148171","NA","147665","148172","147612","63792","148809","35344","147112","4839","128686","Lexical Decision Task","44","43996","49","yes","1024"
"2.86332286","6.71","2","feud","word","90","90","892.68","892.68","black","no","legacy","legacy","legacy","0","uniform","1","undefined","undefined","undefined","1","j","0","0","0","0","49","0","0","0","49","NA","45","49","45","0","45","3","49","0","49","Fri Feb 19 12:13:46 2021","The main experiment item","yes","Lexical_Decision_Task.osexp","/Users/molly","no","Andale Mono","no","18","no","white","no","yes","576","legacy","45","45","3","/Users/molly/subject-5208078 2.csv","legacy","Lentiform Loewenfeld","3.3.7","yes","yes","600bd7cfb6416f0113b04181","602110864497cf011d9c0822","0","j","NA","space","space","space","NA","j","638","NA","23218","10015","7799","NA","638","2","legacy","1024","2","48000","-16","task","5208078","even","NA","38570","63792","40572","149369","4912","22744","14943","149873","NA","149367","149873","149315","63792","150512","35344","148814","4839","128686","Lexical Decision Task","45","44634","50","yes","1024"
"3.492014979","0","9","yine","non-word","90.19607843137256","90.19607843137256","888.156862745098","888.156862745098","black","no","legacy","legacy","legacy","0","uniform","1","undefined","undefined","undefined","1","f","0","0","0","0","50","0","0","0","50","NA","46","50","46","0","46","3","50","0","50","Fri Feb 19 12:13:46 2021","The main experiment item","yes","Lexical_Decision_Task.osexp","/Users/molly","no","Andale Mono","no","18","no","white","no","yes","576","legacy","46","46","3","/Users/molly/subject-5208078 2.csv","legacy","Lentiform Loewenfeld","3.3.7","yes","yes","600bd7cfb6416f0113b04181","602110864497cf011d9c0822","0","f","NA","space","space","space","NA","f","662","NA","23218","10015","7799","NA","662","2","legacy","1024","2","48000","-16","task","5208078","even","NA","38570","63792","40572","151073","4912","22744","14943","151578","NA","151070","151578","151017","63792","152242","35344","150517","4839","128686","Lexical Decision Task","46","45296","51","yes","1024"
"3.311895072","0","9","gung","non-word","90.38461538461539","90.38461538461539","886.2692307692307","886.2692307692307","black","no","legacy","legacy","legacy","0","uniform","1","undefined","undefined","undefined","1","f","0","0","0","0","51","0","0","0","51","NA","47","51","47","0","47","3","51","0","51","Fri Feb 19 12:13:46 2021","The main experiment item","yes","Lexical_Decision_Task.osexp","/Users/molly","no","Andale Mono","no","18","no","white","no","yes","576","legacy","47","47","3","/Users/molly/subject-5208078 2.csv","legacy","Lentiform Loewenfeld","3.3.7","yes","yes","600bd7cfb6416f0113b04181","602110864497cf011d9c0822","0","f","NA","space","space","space","NA","f","790","NA","23218","10015","7799","NA","790","2","legacy","1024","2","48000","-16","task","5208078","even","NA","38570","63792","40572","152805","4912","22744","14943","153309","NA","152802","153309","152747","63792","154101","35344","152247","4839","128686","Lexical Decision Task","47","46086","52","yes","1024"
"3.039414119","0","9","meep","non-word","90.56603773584905","90.56603773584905","882.6981132075472","882.6981132075472","black","no","legacy","legacy","legacy","0","uniform","1","undefined","undefined","undefined","1","f","0","0","0","0","52","0","0","0","52","NA","48","52","48","0","48","3","52","0","52","Fri Feb 19 12:13:46 2021","The main experiment item","yes","Lexical_Decision_Task.osexp","/Users/molly","no","Andale Mono","no","18","no","white","no","yes","576","legacy","48","48","3","/Users/molly/subject-5208078 2.csv","legacy","Lentiform Loewenfeld","3.3.7","yes","yes","600bd7cfb6416f0113b04181","602110864497cf011d9c0822","0","f","NA","space","space","space","NA","f","697","NA","23218","10015","7799","NA","697","2","legacy","1024","2","48000","-16","task","5208078","even","NA","38570","63792","40572","154660","4912","22744","14943","155163","NA","154657","155163","154606","63792","155862","35344","154106","4839","128686","Lexical Decision Task","48","46783","53","yes","1024"
"2.6599162","0","6","flug","non-word","90.74074074074075","90.74074074074075","885.6666666666666","885.6666666666666","black","no","legacy","legacy","legacy","0","uniform","1","undefined","undefined","undefined","1","f","0","0","0","0","53","0","0","0","53","NA","49","53","49","0","49","3","53","0","53","Fri Feb 19 12:13:46 2021","The main experiment item","yes","Lexical_Decision_Task.osexp","/Users/molly","no","Andale Mono","no","18","no","white","no","yes","576","legacy","49","49","3","/Users/molly/subject-5208078 2.csv","legacy","Lentiform Loewenfeld","3.3.7","yes","yes","600bd7cfb6416f0113b04181","602110864497cf011d9c0822","0","f","NA","space","space","space","NA","f","1043","NA","23218","10015","7799","NA","1043","2","legacy","1024","2","48000","-16","task","5208078","even","NA","38570","63792","40572","156422","4912","22744","14943","156926","NA","156419","156927","156367","63792","157971","35344","155866","4839","128686","Lexical Decision Task","49","47826","54","yes","1024"
"2.803231716","5.26","3","kiln","word","89.0909090909091","89.0909090909091","882.0545454545454","882.0545454545454","black","no","legacy","legacy","legacy","0","uniform","0","undefined","undefined","undefined","0","j","0","0","0","0","54","0","0","0","54","0","50","54","50","0","50","3","54","0","54","Fri Feb 19 12:13:46 2021","The main experiment item","yes","Lexical_Decision_Task.osexp","/Users/molly","no","Andale Mono","no","18","no","white","no","yes","576","legacy","50","50","3","/Users/molly/subject-5208078 2.csv","legacy","Lentiform Loewenfeld","3.3.7","yes","yes","600bd7cfb6416f0113b04181","602110864497cf011d9c0822","0","f","NA","space","space","space","space","f","687","NA","23218","10015","7799","3424","687","2","legacy","1024","2","48000","-16","task","5208078","even","NA","38570","63792","40572","161992","4912","22744","14943","162496","158513","161990","162497","158476","63792","163185","35344","157976","4839","128686","Lexical Decision Task","49","48513","55","yes","1024"
"2.819763221","0","2","durp","non-word","89.28571428571429","89.28571428571429","882.7321428571429","882.7321428571429","black","no","legacy","legacy","legacy","0","uniform","1","undefined","undefined","undefined","1","f","0","0","0","0","55","0","0","0","55","0","51","55","51","0","51","3","55","0","55","Fri Feb 19 12:13:46 2021","The main experiment item","yes","Lexical_Decision_Task.osexp","/Users/molly","no","Andale Mono","no","18","no","white","no","yes","576","legacy","51","51","3","/Users/molly/subject-5208078 2.csv","legacy","Lentiform Loewenfeld","3.3.7","yes","yes","600bd7cfb6416f0113b04181","602110864497cf011d9c0822","0","f","NA","space","space","space","space","f","920","NA","23218","10015","7799","3424","920","2","legacy","1024","2","48000","-16","task","5208078","even","NA","38570","63792","40572","164748","4912","22744","14943","165251","158513","164745","165252","164691","63792","166173","35344","157976","4839","163190","Lexical Decision Task","50","49433","56","yes","1024"
"2.794720352","0","9","koot","non-word","89.47368421052632","89.47368421052632","879.421052631579","879.421052631579","black","no","legacy","legacy","legacy","0","uniform","1","undefined","undefined","undefined","1","f","0","0","0","0","56","0","0","0","56","0","52","56","52","0","52","3","56","0","56","Fri Feb 19 12:13:46 2021","The main experiment item","yes","Lexical_Decision_Task.osexp","/Users/molly","no","Andale Mono","no","18","no","white","no","yes","576","legacy","52","52","3","/Users/molly/subject-5208078 2.csv","legacy","Lentiform Loewenfeld","3.3.7","yes","yes","600bd7cfb6416f0113b04181","602110864497cf011d9c0822","0","f","NA","space","space","space","space","f","694","NA","23218","10015","7799","3424","694","2","legacy","1024","2","48000","-16","task","5208078","even","NA","38570","63792","40572","166733","4912","22744","14943","167237","158513","166730","167237","166678","63792","167932","35344","166178","4839","163190","Lexical Decision Task","51","50127","57","yes","1024"
"3.495914186","0","4","peng","non-word","87.93103448275862","87.93103448275862","876.1896551724138","876.1896551724138","black","no","legacy","legacy","legacy","0","uniform","0","undefined","undefined","undefined","0","f","0","0","0","0","57","0","0","0","57","0","53","57","53","0","53","3","57","0","57","Fri Feb 19 12:13:46 2021","The main experiment item","yes","Lexical_Decision_Task.osexp","/Users/molly","no","Andale Mono","no","18","no","white","no","yes","576","legacy","53","53","3","/Users/molly/subject-5208078 2.csv","legacy","Lentiform Loewenfeld","3.3.7","yes","yes","600bd7cfb6416f0113b04181","602110864497cf011d9c0822","0","j","NA","space","space","space","space","j","692","NA","23218","10015","7799","3424","692","2","legacy","1024","2","48000","-16","task","5208078","even","NA","38570","63792","40572","168500","4912","22744","14943","169004","158513","168496","169005","168445","63792","169699","35344","167944","4839","163190","Lexical Decision Task","51","50819","58","yes","1024"
"2.778633532","0","3","jurp","non-word","88.13559322033899","88.13559322033899","873.3220338983051","873.3220338983051","black","no","legacy","legacy","legacy","0","uniform","1","undefined","undefined","undefined","1","f","0","0","0","0","58","0","0","0","58","0","54","58","54","0","54","3","58","0","58","Fri Feb 19 12:13:46 2021","The main experiment item","yes","Lexical_Decision_Task.osexp","/Users/molly","no","Andale Mono","no","18","no","white","no","yes","576","legacy","54","54","3","/Users/molly/subject-5208078 2.csv","legacy","Lentiform Loewenfeld","3.3.7","yes","yes","600bd7cfb6416f0113b04181","602110864497cf011d9c0822","0","f","NA","space","space","space","space","f","707","NA","23218","10015","7799","3424","707","2","legacy","1024","2","48000","-16","task","5208078","even","NA","38570","63792","40572","171263","4912","22744","14943","171769","158513","171261","171769","171205","63792","172478","35344","167944","4839","169704","Lexical Decision Task","52","51526","59","yes","1024"
"2.68604012","0","4","pumb","non-word","88.33333333333333","88.33333333333333","871.3333333333334","871.3333333333334","black","no","legacy","legacy","legacy","0","uniform","1","undefined","undefined","undefined","1","f","0","0","0","0","59","0","0","0","59","0","55","59","55","0","55","3","59","0","59","Fri Feb 19 12:13:46 2021","The main experiment item","yes","Lexical_Decision_Task.osexp","/Users/molly","no","Andale Mono","no","18","no","white","no","yes","576","legacy","55","55","3","/Users/molly/subject-5208078 2.csv","legacy","Lentiform Loewenfeld","3.3.7","yes","yes","600bd7cfb6416f0113b04181","602110864497cf011d9c0822","0","f","NA","space","space","space","space","f","754","NA","23218","10015","7799","3424","754","2","legacy","1024","2","48000","-16","task","5208078","even","NA","38570","63792","40572","173042","4912","22744","14943","173547","158513","173039","173547","172983","63792","174303","35344","172483","4839","169704","Lexical Decision Task","53","52280","60","yes","1024"
"2.664328519","0","4","plux","non-word","86.88524590163935","86.88524590163935","874.0491803278688","874.0491803278688","black","no","legacy","legacy","legacy","0","uniform","0","undefined","undefined","undefined","0","f","0","0","0","0","60","0","0","0","60","0","56","60","56","0","56","3","60","0","60","Fri Feb 19 12:13:46 2021","The main experiment item","yes","Lexical_Decision_Task.osexp","/Users/molly","no","Andale Mono","no","18","no","white","no","yes","576","legacy","56","56","3","/Users/molly/subject-5208078 2.csv","legacy","Lentiform Loewenfeld","3.3.7","yes","yes","600bd7cfb6416f0113b04181","602110864497cf011d9c0822","0","j","NA","space","space","space","space","j","1037","NA","23218","10015","7799","3424","1037","2","legacy","1024","2","48000","-16","task","5208078","even","NA","38570","63792","40572","174867","4912","22744","14943","175370","158513","174864","175371","174808","63792","176410","35344","174308","4839","169704","Lexical Decision Task","53","53317","61","yes","1024"
"3.088136089","8.32","9","worm","word","87.09677419354838","87.09677419354838","871.3709677419355","871.3709677419355","black","no","legacy","legacy","legacy","0","uniform","1","undefined","undefined","undefined","1","j","0","0","0","0","61","0","0","0","61","0","57","61","57","0","57","3","61","0","61","Fri Feb 19 12:13:46 2021","The main experiment item","yes","Lexical_Decision_Task.osexp","/Users/molly","no","Andale Mono","no","18","no","white","no","yes","576","legacy","57","57","3","/Users/molly/subject-5208078 2.csv","legacy","Lentiform Loewenfeld","3.3.7","yes","yes","600bd7cfb6416f0113b04181","602110864497cf011d9c0822","0","j","NA","space","space","space","space","j","708","NA","23218","10015","7799","3424","708","2","legacy","1024","2","48000","-16","task","5208078","even","NA","38570","63792","40572","177973","4912","22744","14943","178477","158513","177971","178477","177915","63792","179186","35344","174308","4839","176415","Lexical Decision Task","54","54025","62","yes","1024"
"2.668385917","5.48","4","twig","word","87.3015873015873","87.3015873015873","868.3968253968254","868.3968253968254","black","no","legacy","legacy","legacy","0","uniform","1","undefined","undefined","undefined","1","j","0","0","0","0","62","0","0","0","62","0","58","62","58","0","58","3","62","0","62","Fri Feb 19 12:13:46 2021","The main experiment item","yes","Lexical_Decision_Task.osexp","/Users/molly","no","Andale Mono","no","18","no","white","no","yes","576","legacy","58","58","3","/Users/molly/subject-5208078 2.csv","legacy","Lentiform Loewenfeld","3.3.7","yes","yes","600bd7cfb6416f0113b04181","602110864497cf011d9c0822","0","j","NA","space","space","space","space","j","684","NA","23218","10015","7799","3424","684","2","legacy","1024","2","48000","-16","task","5208078","even","NA","38570","63792","40572","179747","4912","22744","14943","180250","158513","179744","180251","179692","63792","180937","35344","179191","4839","176415","Lexical Decision Task","55","54709","63","yes","1024"
"3.216517684","10.87","3","film","word","87.5","87.5","865.21875","865.21875","black","no","legacy","legacy","legacy","0","uniform","1","undefined","undefined","undefined","1","j","0","0","0","0","63","0","0","0","63","0","59","63","59","0","59","3","63","0","63","Fri Feb 19 12:13:46 2021","The main experiment item","yes","Lexical_Decision_Task.osexp","/Users/molly","no","Andale Mono","no","18","no","white","no","yes","576","legacy","59","59","3","/Users/molly/subject-5208078 2.csv","legacy","Lentiform Loewenfeld","3.3.7","yes","yes","600bd7cfb6416f0113b04181","602110864497cf011d9c0822","0","j","NA","space","space","space","space","j","665","NA","23218","10015","7799","3424","665","2","legacy","1024","2","48000","-16","task","5208078","even","NA","38570","63792","40572","181501","4912","22744","14943","182006","158513","181498","182007","181442","63792","182673","35344","180941","4839","176415","Lexical Decision Task","56","55374","64","yes","1024"
"3.347850856","10.51","2","rich","word","87.6923076923077","87.6923076923077","860.7692307692307","860.7692307692307","black","no","legacy","legacy","legacy","0","uniform","1","undefined","undefined","undefined","1","j","0","0","0","0","64","0","0","0","64","0","60","64","60","0","60","3","64","0","64","Fri Feb 19 12:13:46 2021","The main experiment item","yes","Lexical_Decision_Task.osexp","/Users/molly","no","Andale Mono","no","18","no","white","no","yes","576","legacy","60","60","3","/Users/molly/subject-5208078 2.csv","legacy","Lentiform Loewenfeld","3.3.7","yes","yes","600bd7cfb6416f0113b04181","602110864497cf011d9c0822","0","j","NA","space","space","space","space","j","576","NA","23218","10015","7799","3424","576","2","legacy","1024","2","48000","-16","task","5208078","even","NA","38570","63792","40572","183239","4912","22744","14943","183742","158513","183235","183743","183178","63792","184321","35344","182678","4839","176415","Lexical Decision Task","57","55950","65","yes","1024"
"2.821076612","0","4","lult","non-word","87.87878787878788","87.87878787878788","858.9090909090909","858.9090909090909","black","no","legacy","legacy","legacy","0","uniform","1","undefined","undefined","undefined","1","f","0","0","0","0","65","0","0","0","65","0","61","65","61","0","61","3","65","0","65","Fri Feb 19 12:13:46 2021","The main experiment item","yes","Lexical_Decision_Task.osexp","/Users/molly","no","Andale Mono","no","18","no","white","no","yes","576","legacy","61","61","3","/Users/molly/subject-5208078 2.csv","legacy","Lentiform Loewenfeld","3.3.7","yes","yes","600bd7cfb6416f0113b04181","602110864497cf011d9c0822","0","f","NA","space","space","space","space","f","738","NA","23218","10015","7799","3424","738","2","legacy","1024","2","48000","-16","task","5208078","even","NA","38570","63792","40572","184881","4912","22744","14943","185393","158513","184879","185394","184826","63792","186134","35344","184326","4839","176415","Lexical Decision Task","58","56688","66","yes","1024"
"3.363486562","6.93","9","lush","word","88.05970149253731","88.05970149253731","855.8059701492538","855.8059701492538","black","no","legacy","legacy","legacy","0","uniform","1","undefined","undefined","undefined","1","j","0","0","0","0","66","0","0","0","66","0","62","66","62","0","62","3","66","0","66","Fri Feb 19 12:13:46 2021","The main experiment item","yes","Lexical_Decision_Task.osexp","/Users/molly","no","Andale Mono","no","18","no","white","no","yes","576","legacy","62","62","3","/Users/molly/subject-5208078 2.csv","legacy","Lentiform Loewenfeld","3.3.7","yes","yes","600bd7cfb6416f0113b04181","602110864497cf011d9c0822","0","j","NA","space","space","space","space","j","651","NA","23218","10015","7799","3424","651","2","legacy","1024","2","48000","-16","task","5208078","even","NA","38570","63792","40572","186696","4912","22744","14943","187201","158513","186694","187201","186640","63792","187854","35344","186139","4839","176415","Lexical Decision Task","59","57339","67","yes","1024"
"3.374137706","10.21","4","tree","word","88.23529411764706","88.23529411764706","852.0294117647059","852.0294117647059","black","no","legacy","legacy","legacy","0","uniform","1","undefined","undefined","undefined","1","j","0","0","0","0","67","0","0","0","67","0","63","67","63","0","63","3","67","0","67","Fri Feb 19 12:13:46 2021","The main experiment item","yes","Lexical_Decision_Task.osexp","/Users/molly","no","Andale Mono","no","18","no","white","no","yes","576","legacy","63","63","3","/Users/molly/subject-5208078 2.csv","legacy","Lentiform Loewenfeld","3.3.7","yes","yes","600bd7cfb6416f0113b04181","602110864497cf011d9c0822","0","j","NA","space","space","space","space","j","599","NA","23218","10015","7799","3424","599","2","legacy","1024","2","48000","-16","task","5208078","even","NA","38570","63792","40572","188415","4912","22744","14943","188921","158513","188413","188921","188359","63792","189522","35344","187859","4839","176415","Lexical Decision Task","60","57938","68","yes","1024"
"2.845304797","0","6","buct","non-word","88.40579710144928","88.40579710144928","849.5797101449275","849.5797101449275","black","no","legacy","legacy","legacy","0","uniform","1","undefined","undefined","undefined","1","f","0","0","0","0","68","0","0","0","68","0","64","68","64","0","64","3","68","0","68","Fri Feb 19 12:13:46 2021","The main experiment item","yes","Lexical_Decision_Task.osexp","/Users/molly","no","Andale Mono","no","18","no","white","no","yes","576","legacy","64","64","3","/Users/molly/subject-5208078 2.csv","legacy","Lentiform Loewenfeld","3.3.7","yes","yes","600bd7cfb6416f0113b04181","602110864497cf011d9c0822","0","f","NA","space","space","space","space","f","683","NA","23218","10015","7799","3424","683","2","legacy","1024","2","48000","-16","task","5208078","even","NA","38570","63792","40572","190084","4912","22744","14943","190588","158513","190081","190589","190027","63792","191274","35344","189527","4839","176415","Lexical Decision Task","61","58621","69","yes","1024"
"3.705778213","0","6","stin","non-word","88.57142857142857","88.57142857142857","847.6571428571428","847.6571428571428","black","no","legacy","legacy","legacy","0","uniform","1","undefined","undefined","undefined","1","f","0","0","0","0","69","0","0","0","69","0","65","69","65","0","65","3","69","0","69","Fri Feb 19 12:13:46 2021","The main experiment item","yes","Lexical_Decision_Task.osexp","/Users/molly","no","Andale Mono","no","18","no","white","no","yes","576","legacy","65","65","3","/Users/molly/subject-5208078 2.csv","legacy","Lentiform Loewenfeld","3.3.7","yes","yes","600bd7cfb6416f0113b04181","602110864497cf011d9c0822","0","f","NA","space","space","space","space","f","715","NA","23218","10015","7799","3424","715","2","legacy","1024","2","48000","-16","task","5208078","even","NA","38570","63792","40572","191832","4912","22744","14943","192337","158513","191829","192338","191778","63792","193054","35344","191278","4839","176415","Lexical Decision Task","62","59336","70","yes","1024"
"3.374198258","0","8","vist","non-word","88.73239436619718","88.73239436619718","847.6619718309859","847.6619718309859","black","no","legacy","legacy","legacy","0","uniform","1","undefined","undefined","undefined","1","f","0","0","0","0","70","0","0","0","70","0","66","70","66","0","66","3","70","0","70","Fri Feb 19 12:13:46 2021","The main experiment item","yes","Lexical_Decision_Task.osexp","/Users/molly","no","Andale Mono","no","18","no","white","no","yes","576","legacy","66","66","3","/Users/molly/subject-5208078 2.csv","legacy","Lentiform Loewenfeld","3.3.7","yes","yes","600bd7cfb6416f0113b04181","602110864497cf011d9c0822","0","f","NA","space","space","space","space","f","848","NA","23218","10015","7799","3424","848","2","legacy","1024","2","48000","-16","task","5208078","even","NA","38570","63792","40572","193614","4912","22744","14943","194119","158513","193611","194120","193560","63792","194969","35344","193059","4839","176415","Lexical Decision Task","63","60184","71","yes","1024"
"3.261341392","5.08","8","reek","word","88.88888888888889","88.88888888888889","846.0833333333334","846.0833333333334","black","no","legacy","legacy","legacy","0","uniform","1","undefined","undefined","undefined","1","j","0","0","0","0","71","0","0","0","71","0","67","71","67","0","67","3","71","0","71","Fri Feb 19 12:13:46 2021","The main experiment item","yes","Lexical_Decision_Task.osexp","/Users/molly","no","Andale Mono","no","18","no","white","no","yes","576","legacy","67","67","3","/Users/molly/subject-5208078 2.csv","legacy","Lentiform Loewenfeld","3.3.7","yes","yes","600bd7cfb6416f0113b04181","602110864497cf011d9c0822","0","j","NA","space","space","space","space","j","734","NA","23218","10015","7799","3424","734","2","legacy","1024","2","48000","-16","task","5208078","even","NA","38570","63792","40572","195531","4912","22744","14943","196034","158513","195528","196035","195474","63792","196771","35344","194974","4839","176415","Lexical Decision Task","64","60918","72","yes","1024"
"2.67699827","0","6","hulf","non-word","89.04109589041096","89.04109589041096","845.3972602739726","845.3972602739726","black","no","legacy","legacy","legacy","0","uniform","1","undefined","undefined","undefined","1","f","0","0","0","0","72","0","0","0","72","0","68","72","68","0","68","3","72","0","72","Fri Feb 19 12:13:46 2021","The main experiment item","yes","Lexical_Decision_Task.osexp","/Users/molly","no","Andale Mono","no","18","no","white","no","yes","576","legacy","68","68","3","/Users/molly/subject-5208078 2.csv","legacy","Lentiform Loewenfeld","3.3.7","yes","yes","600bd7cfb6416f0113b04181","602110864497cf011d9c0822","0","f","NA","space","space","space","space","f","796","NA","23218","10015","7799","3424","796","2","legacy","1024","2","48000","-16","task","5208078","even","NA","38570","63792","40572","197332","4912","22744","14943","197837","158513","197329","197838","197276","63792","198635","35344","196776","4839","176415","Lexical Decision Task","65","61714","73","yes","1024"
"3.248054965","7.86","5","glow","word","89.1891891891892","89.1891891891892","842.7432432432432","842.7432432432432","black","no","legacy","legacy","legacy","0","uniform","1","undefined","undefined","undefined","1","j","0","0","0","0","73","0","0","0","73","0","69","73","69","0","69","3","73","0","73","Fri Feb 19 12:13:46 2021","The main experiment item","yes","Lexical_Decision_Task.osexp","/Users/molly","no","Andale Mono","no","18","no","white","no","yes","576","legacy","69","69","3","/Users/molly/subject-5208078 2.csv","legacy","Lentiform Loewenfeld","3.3.7","yes","yes","600bd7cfb6416f0113b04181","602110864497cf011d9c0822","0","j","NA","space","space","space","space","j","649","NA","23218","10015","7799","3424","649","2","legacy","1024","2","48000","-16","task","5208078","even","NA","38570","63792","40572","199199","4912","22744","14943","199703","158513","199196","199703","199143","63792","200354","35344","198642","4839","176415","Lexical Decision Task","66","62363","74","yes","1024"
"2.966923697","5.4","2","fume","word","89.33333333333333","89.33333333333333","844.3466666666667","844.3466666666667","black","no","legacy","legacy","legacy","0","uniform","1","undefined","undefined","undefined","1","j","0","0","0","0","74","0","0","0","74","0","70","74","70","0","70","3","74","0","74","Fri Feb 19 12:13:46 2021","The main experiment item","yes","Lexical_Decision_Task.osexp","/Users/molly","no","Andale Mono","no","18","no","white","no","yes","576","legacy","70","70","3","/Users/molly/subject-5208078 2.csv","legacy","Lentiform Loewenfeld","3.3.7","yes","yes","600bd7cfb6416f0113b04181","602110864497cf011d9c0822","0","j","NA","space","space","space","space","j","963","NA","23218","10015","7799","3424","963","2","legacy","1024","2","48000","-16","task","5208078","even","NA","38570","63792","40572","200913","4912","22744","14943","201417","158513","200911","201418","200859","63792","202383","35344","200359","4839","176415","Lexical Decision Task","67","63326","75","yes","1024"
"3.353210739","0","9","reet","non-word","89.47368421052632","89.47368421052632","843.4078947368421","843.4078947368421","black","no","legacy","legacy","legacy","0","uniform","1","undefined","undefined","undefined","1","f","0","0","0","0","75","0","0","0","75","0","71","75","71","0","71","3","75","0","75","Fri Feb 19 12:13:46 2021","The main experiment item","yes","Lexical_Decision_Task.osexp","/Users/molly","no","Andale Mono","no","18","no","white","no","yes","576","legacy","71","71","3","/Users/molly/subject-5208078 2.csv","legacy","Lentiform Loewenfeld","3.3.7","yes","yes","600bd7cfb6416f0113b04181","602110864497cf011d9c0822","0","f","NA","space","space","space","space","f","773","NA","23218","10015","7799","3424","773","2","legacy","1024","2","48000","-16","task","5208078","even","NA","38570","63792","40572","202942","4912","22744","14943","203448","158513","202940","203448","202889","63792","204223","35344","202389","4839","176415","Lexical Decision Task","68","64099","76","yes","1024"
"3.382617311","0","4","pret","non-word","89.6103896103896","89.6103896103896","842.8701298701299","842.8701298701299","black","no","legacy","legacy","legacy","0","uniform","1","undefined","undefined","undefined","1","f","0","0","0","0","76","0","0","0","76","0","72","76","72","0","72","3","76","0","76","Fri Feb 19 12:13:46 2021","The main experiment item","yes","Lexical_Decision_Task.osexp","/Users/molly","no","Andale Mono","no","18","no","white","no","yes","576","legacy","72","72","3","/Users/molly/subject-5208078 2.csv","legacy","Lentiform Loewenfeld","3.3.7","yes","yes","600bd7cfb6416f0113b04181","602110864497cf011d9c0822","0","f","NA","space","space","space","space","f","802","NA","23218","10015","7799","3424","802","2","legacy","1024","2","48000","-16","task","5208078","even","NA","38570","63792","40572","204785","4912","22744","14943","205289","158513","204782","205290","204728","63792","206093","35344","204227","4839","176415","Lexical Decision Task","69","64901","77","yes","1024"
"3.230789326","5.38","5","prim","word","88.46153846153847","88.46153846153847","842.4102564102565","842.4102564102565","black","no","legacy","legacy","legacy","0","uniform","0","undefined","undefined","undefined","0","j","0","0","0","0","77","0","0","0","77","0","73","77","73","0","73","3","77","0","77","Fri Feb 19 12:13:46 2021","The main experiment item","yes","Lexical_Decision_Task.osexp","/Users/molly","no","Andale Mono","no","18","no","white","no","yes","576","legacy","73","73","3","/Users/molly/subject-5208078 2.csv","legacy","Lentiform Loewenfeld","3.3.7","yes","yes","600bd7cfb6416f0113b04181","602110864497cf011d9c0822","0","f","NA","space","space","space","space","f","807","NA","23218","10015","7799","3424","807","2","legacy","1024","2","48000","-16","task","5208078","even","NA","38570","63792","40572","206655","4912","22744","14943","207160","158513","206652","207160","206598","63792","207968","35344","206098","4839","176415","Lexical Decision Task","69","65708","78","yes","1024"
"3.274543461","7.46","7","scar","word","88.60759493670886","88.60759493670886","838.0253164556962","838.0253164556962","black","no","legacy","legacy","legacy","0","uniform","1","undefined","undefined","undefined","1","j","0","0","0","0","78","0","0","0","78","0","74","78","74","0","74","3","78","0","78","Fri Feb 19 12:13:46 2021","The main experiment item","yes","Lexical_Decision_Task.osexp","/Users/molly","no","Andale Mono","no","18","no","white","no","yes","576","legacy","74","74","3","/Users/molly/subject-5208078 2.csv","legacy","Lentiform Loewenfeld","3.3.7","yes","yes","600bd7cfb6416f0113b04181","602110864497cf011d9c0822","0","j","NA","space","space","space","space","j","496","NA","23218","10015","7799","3424","496","2","legacy","1024","2","48000","-16","task","5208078","even","NA","38570","63792","40572","209531","4912","22744","14943","210034","158513","209528","210035","209474","63792","210533","35344","206098","4839","207973","Lexical Decision Task","70","66204","79","yes","1024"
"2.812467698","0","7","hafe","non-word","88.75","88.75","835.45","835.45","black","no","legacy","legacy","legacy","0","uniform","1","undefined","undefined","undefined","1","f","0","0","0","0","79","0","0","0","79","0","75","79","75","0","75","3","79","0","79","Fri Feb 19 12:13:46 2021","The main experiment item","yes","Lexical_Decision_Task.osexp","/Users/molly","no","Andale Mono","no","18","no","white","no","yes","576","legacy","75","75","3","/Users/molly/subject-5208078 2.csv","legacy","Lentiform Loewenfeld","3.3.7","yes","yes","600bd7cfb6416f0113b04181","602110864497cf011d9c0822","0","f","NA","space","space","space","space","f","632","NA","23218","10015","7799","3424","632","2","legacy","1024","2","48000","-16","task","5208078","even","NA","38570","63792","40572","211093","4912","22744","14943","211597","158513","211090","211597","211038","63792","212230","35344","210538","4839","207973","Lexical Decision Task","71","66836","80","yes","1024"
"3.076883066","0","8","mout","non-word","88.88888888888889","88.88888888888889","834.1234567901234","834.1234567901234","black","no","legacy","legacy","legacy","0","uniform","1","undefined","undefined","undefined","1","f","0","0","0","0","80","0","0","0","80","0","76","80","76","0","76","3","80","0","80","Fri Feb 19 12:13:46 2021","The main experiment item","yes","Lexical_Decision_Task.osexp","/Users/molly","no","Andale Mono","no","18","no","white","no","yes","576","legacy","76","76","3","/Users/molly/subject-5208078 2.csv","legacy","Lentiform Loewenfeld","3.3.7","yes","yes","600bd7cfb6416f0113b04181","602110864497cf011d9c0822","0","f","NA","space","space","space","space","f","728","NA","23218","10015","7799","3424","728","2","legacy","1024","2","48000","-16","task","5208078","even","NA","38570","63792","40572","212789","4912","22744","14943","213294","158513","212787","213294","212735","63792","214023","35344","212235","4839","207973","Lexical Decision Task","72","67564","81","yes","1024"
"2.971428938","9.86","7","spot","word","89.02439024390245","89.02439024390245","831.3414634146342","831.3414634146342","black","no","legacy","legacy","legacy","0","uniform","1","undefined","undefined","undefined","1","j","0","0","0","0","81","0","0","0","81","0","77","81","77","0","77","3","81","0","81","Fri Feb 19 12:13:46 2021","The main experiment item","yes","Lexical_Decision_Task.osexp","/Users/molly","no","Andale Mono","no","18","no","white","no","yes","576","legacy","77","77","3","/Users/molly/subject-5208078 2.csv","legacy","Lentiform Loewenfeld","3.3.7","yes","yes","600bd7cfb6416f0113b04181","602110864497cf011d9c0822","0","j","NA","space","space","space","space","j","606","NA","23218","10015","7799","3424","606","2","legacy","1024","2","48000","-16","task","5208078","even","NA","38570","63792","40572","214584","4912","22744","14943","215090","158513","214582","215090","214528","63792","215697","35344","214027","4839","207973","Lexical Decision Task","73","68170","82","yes","1024"
"3.077974404","10.41","8","tool","word","89.1566265060241","89.1566265060241","828.9518072289156","828.9518072289156","black","no","legacy","legacy","legacy","0","uniform","1","undefined","undefined","undefined","1","j","0","0","0","0","82","0","0","0","82","0","78","82","78","0","78","3","82","0","82","Fri Feb 19 12:13:46 2021","The main experiment item","yes","Lexical_Decision_Task.osexp","/Users/molly","no","Andale Mono","no","18","no","white","no","yes","576","legacy","78","78","3","/Users/molly/subject-5208078 2.csv","legacy","Lentiform Loewenfeld","3.3.7","yes","yes","600bd7cfb6416f0113b04181","602110864497cf011d9c0822","0","j","NA","space","space","space","space","j","633","NA","23218","10015","7799","3424","633","2","legacy","1024","2","48000","-16","task","5208078","even","NA","38570","63792","40572","216257","4912","22744","14943","216761","158513","216254","216761","216202","63792","217396","35344","215701","4839","207973","Lexical Decision Task","74","68803","83","yes","1024"
"2.576725172","0","8","gowl","non-word","89.28571428571429","89.28571428571429","831.4761904761905","831.4761904761905","black","no","legacy","legacy","legacy","0","uniform","1","undefined","undefined","undefined","1","f","0","0","0","0","83","0","0","0","83","0","79","83","79","0","79","3","83","0","83","Fri Feb 19 12:13:46 2021","The main experiment item","yes","Lexical_Decision_Task.osexp","/Users/molly","no","Andale Mono","no","18","no","white","no","yes","576","legacy","79","79","3","/Users/molly/subject-5208078 2.csv","legacy","Lentiform Loewenfeld","3.3.7","yes","yes","600bd7cfb6416f0113b04181","602110864497cf011d9c0822","0","f","NA","space","space","space","space","f","1041","NA","23218","10015","7799","3424","1041","2","legacy","1024","2","48000","-16","task","5208078","even","NA","38570","63792","40572","217960","4912","22744","14943","218463","158513","217956","218464","217902","63792","219506","35344","217401","4839","207973","Lexical Decision Task","75","69844","84","yes","1024"
"3.368162872","0","4","ferk","non-word","89.41176470588235","89.41176470588235","829.2588235294118","829.2588235294118","black","no","legacy","legacy","legacy","0","uniform","1","undefined","undefined","undefined","1","f","0","0","0","0","84","0","0","0","84","0","80","84","80","0","80","3","84","0","84","Fri Feb 19 12:13:46 2021","The main experiment item","yes","Lexical_Decision_Task.osexp","/Users/molly","no","Andale Mono","no","18","no","white","no","yes","576","legacy","80","80","3","/Users/molly/subject-5208078 2.csv","legacy","Lentiform Loewenfeld","3.3.7","yes","yes","600bd7cfb6416f0113b04181","602110864497cf011d9c0822","0","f","NA","space","space","space","space","f","643","NA","23218","10015","7799","3424","643","2","legacy","1024","2","48000","-16","task","5208078","even","NA","38570","63792","40572","220067","4912","22744","14943","220570","158513","220064","220571","220012","63792","221216","35344","219511","4839","207973","Lexical Decision Task","76","70487","85","yes","1024"
"3.218535505","7.85","7","goat","word","89.53488372093024","89.53488372093024","826.0813953488372","826.0813953488372","black","no","legacy","legacy","legacy","0","uniform","1","undefined","undefined","undefined","1","j","0","0","0","0","85","0","0","0","85","0","81","85","81","0","81","3","85","0","85","Fri Feb 19 12:13:46 2021","The main experiment item","yes","Lexical_Decision_Task.osexp","/Users/molly","no","Andale Mono","no","18","no","white","no","yes","576","legacy","81","81","3","/Users/molly/subject-5208078 2.csv","legacy","Lentiform Loewenfeld","3.3.7","yes","yes","600bd7cfb6416f0113b04181","602110864497cf011d9c0822","0","j","NA","space","space","space","space","j","556","NA","23218","10015","7799","3424","556","2","legacy","1024","2","48000","-16","task","5208078","even","NA","38570","63792","40572","221780","4912","22744","14943","222283","158513","221777","222284","221721","63792","222842","35344","221221","4839","207973","Lexical Decision Task","77","71043","86","yes","1024"
"3.20871002","7.15","8","cram","word","89.65517241379311","89.65517241379311","824.735632183908","824.735632183908","black","no","legacy","legacy","legacy","0","uniform","1","undefined","undefined","undefined","1","j","0","0","0","0","86","0","0","0","86","0","82","86","82","0","82","3","86","0","86","Fri Feb 19 12:13:46 2021","The main experiment item","yes","Lexical_Decision_Task.osexp","/Users/molly","no","Andale Mono","no","18","no","white","no","yes","576","legacy","82","82","3","/Users/molly/subject-5208078 2.csv","legacy","Lentiform Loewenfeld","3.3.7","yes","yes","600bd7cfb6416f0113b04181","602110864497cf011d9c0822","0","j","NA","space","space","space","space","j","709","NA","23218","10015","7799","3424","709","2","legacy","1024","2","48000","-16","task","5208078","even","NA","38570","63792","40572","223406","4912","22744","14943","223910","158513","223403","223911","223347","63792","224621","35344","222847","4839","207973","Lexical Decision Task","78","71752","87","yes","1024"
"3.1430148","7.92","8","bald","word","89.77272727272727","89.77272727272727","821.7159090909091","821.7159090909091","black","no","legacy","legacy","legacy","0","uniform","1","undefined","undefined","undefined","1","j","0","0","0","0","87","0","0","0","87","0","83","87","83","0","83","3","87","0","87","Fri Feb 19 12:13:46 2021","The main experiment item","yes","Lexical_Decision_Task.osexp","/Users/molly","no","Andale Mono","no","18","no","white","no","yes","576","legacy","83","83","3","/Users/molly/subject-5208078 2.csv","legacy","Lentiform Loewenfeld","3.3.7","yes","yes","600bd7cfb6416f0113b04181","602110864497cf011d9c0822","0","j","NA","space","space","space","space","j","559","NA","23218","10015","7799","3424","559","2","legacy","1024","2","48000","-16","task","5208078","even","NA","38570","63792","40572","225183","4912","22744","14943","225687","158513","225180","225688","225126","63792","226248","35344","224626","4839","207973","Lexical Decision Task","79","72311","88","yes","1024"
"3.031812271","6.52","3","gulp","word","89.88764044943821","89.88764044943821","819.6067415730337","819.6067415730337","black","no","legacy","legacy","legacy","0","uniform","1","undefined","undefined","undefined","1","j","0","0","0","0","88","0","0","0","88","0","84","88","84","0","84","3","88","0","88","Fri Feb 19 12:13:46 2021","The main experiment item","yes","Lexical_Decision_Task.osexp","/Users/molly","no","Andale Mono","no","18","no","white","no","yes","576","legacy","84","84","3","/Users/molly/subject-5208078 2.csv","legacy","Lentiform Loewenfeld","3.3.7","yes","yes","600bd7cfb6416f0113b04181","602110864497cf011d9c0822","0","j","NA","space","space","space","space","j","634","NA","23218","10015","7799","3424","634","2","legacy","1024","2","48000","-16","task","5208078","even","NA","38570","63792","40572","226808","4912","22744","14943","227311","158513","226805","227312","226753","63792","227947","35344","226253","4839","207973","Lexical Decision Task","80","72945","89","yes","1024"
"3.028977705","0","7","frow","non-word","90","90","819.5888888888888","819.5888888888888","black","no","legacy","legacy","legacy","0","uniform","1","undefined","undefined","undefined","1","f","0","0","0","0","89","0","0","0","89","0","85","89","85","0","85","3","89","0","89","Fri Feb 19 12:13:46 2021","The main experiment item","yes","Lexical_Decision_Task.osexp","/Users/molly","no","Andale Mono","no","18","no","white","no","yes","576","legacy","85","85","3","/Users/molly/subject-5208078 2.csv","legacy","Lentiform Loewenfeld","3.3.7","yes","yes","600bd7cfb6416f0113b04181","602110864497cf011d9c0822","0","f","NA","space","space","space","space","f","818","NA","23218","10015","7799","3424","818","2","legacy","1024","2","48000","-16","task","5208078","even","NA","38570","63792","40572","228513","4912","22744","14943","229016","158513","228510","229017","228456","63792","229837","35344","227955","4839","207973","Lexical Decision Task","81","73763","90","yes","1024"
"2.858136002","0","4","phip","non-word","90.10989010989012","90.10989010989012","818.2197802197802","818.2197802197802","black","no","legacy","legacy","legacy","0","uniform","1","undefined","undefined","undefined","1","f","0","0","0","0","90","0","0","0","90","0","86","90","86","0","86","3","90","0","90","Fri Feb 19 12:13:46 2021","The main experiment item","yes","Lexical_Decision_Task.osexp","/Users/molly","no","Andale Mono","no","18","no","white","no","yes","576","legacy","86","86","3","/Users/molly/subject-5208078 2.csv","legacy","Lentiform Loewenfeld","3.3.7","yes","yes","600bd7cfb6416f0113b04181","602110864497cf011d9c0822","0","f","NA","space","space","space","space","f","695","NA","23218","10015","7799","3424","695","2","legacy","1024","2","48000","-16","task","5208078","even","NA","38570","63792","40572","230397","4912","22744","14943","230902","158513","230394","230902","230342","63792","231599","35344","229842","4839","207973","Lexical Decision Task","82","74458","91","yes","1024"
"2.771097306","0","9","jold","non-word","90.21739130434783","90.21739130434783","816.3369565217391","816.3369565217391","black","no","legacy","legacy","legacy","0","uniform","1","undefined","undefined","undefined","1","f","0","0","0","0","91","0","0","0","91","0","87","91","87","0","87","3","91","0","91","Fri Feb 19 12:13:46 2021","The main experiment item","yes","Lexical_Decision_Task.osexp","/Users/molly","no","Andale Mono","no","18","no","white","no","yes","576","legacy","87","87","3","/Users/molly/subject-5208078 2.csv","legacy","Lentiform Loewenfeld","3.3.7","yes","yes","600bd7cfb6416f0113b04181","602110864497cf011d9c0822","0","f","NA","space","space","space","space","f","645","NA","23218","10015","7799","3424","645","2","legacy","1024","2","48000","-16","task","5208078","even","NA","38570","63792","40572","232170","4912","22744","14943","232674","158513","232168","232674","232105","63792","233320","35344","231605","4839","207973","Lexical Decision Task","83","75103","92","yes","1024"
"3.195807436","0","6","stup","non-word","90.3225806451613","90.3225806451613","817.9032258064516","817.9032258064516","black","no","legacy","legacy","legacy","0","uniform","1","undefined","undefined","undefined","1","f","0","0","0","0","92","0","0","0","92","0","88","92","88","0","88","3","92","0","92","Fri Feb 19 12:13:46 2021","The main experiment item","yes","Lexical_Decision_Task.osexp","/Users/molly","no","Andale Mono","no","18","no","white","no","yes","576","legacy","88","88","3","/Users/molly/subject-5208078 2.csv","legacy","Lentiform Loewenfeld","3.3.7","yes","yes","600bd7cfb6416f0113b04181","602110864497cf011d9c0822","0","f","NA","space","space","space","space","f","962","NA","23218","10015","7799","3424","962","2","legacy","1024","2","48000","-16","task","5208078","even","NA","38570","63792","40572","233880","4912","22744","14943","234385","158513","233877","234386","233826","63792","235350","35344","233325","4839","207973","Lexical Decision Task","84","76065","93","yes","1024"
"3.081107167","0","6","chot","non-word","90.42553191489361","90.42553191489361","816.4893617021277","816.4893617021277","black","no","legacy","legacy","legacy","0","uniform","1","undefined","undefined","undefined","1","f","0","0","0","0","93","0","0","0","93","0","89","93","89","0","89","3","93","0","93","Fri Feb 19 12:13:46 2021","The main experiment item","yes","Lexical_Decision_Task.osexp","/Users/molly","no","Andale Mono","no","18","no","white","no","yes","576","legacy","89","89","3","/Users/molly/subject-5208078 2.csv","legacy","Lentiform Loewenfeld","3.3.7","yes","yes","600bd7cfb6416f0113b04181","602110864497cf011d9c0822","0","f","NA","space","space","space","space","f","685","NA","23218","10015","7799","3424","685","2","legacy","1024","2","48000","-16","task","5208078","even","NA","38570","63792","40572","235913","4912","22744","14943","236416","158513","235910","236416","235855","63792","237103","35344","235355","4839","207973","Lexical Decision Task","85","76750","94","yes","1024"
"2.68604012","0","3","mulb","non-word","90.52631578947368","90.52631578947368","814.6947368421053","814.6947368421053","black","no","legacy","legacy","legacy","0","uniform","1","undefined","undefined","undefined","1","f","0","0","0","0","94","0","0","0","94","0","90","94","90","0","90","3","94","0","94","Fri Feb 19 12:13:46 2021","The main experiment item","yes","Lexical_Decision_Task.osexp","/Users/molly","no","Andale Mono","no","18","no","white","no","yes","576","legacy","90","90","3","/Users/molly/subject-5208078 2.csv","legacy","Lentiform Loewenfeld","3.3.7","yes","yes","600bd7cfb6416f0113b04181","602110864497cf011d9c0822","0","f","NA","space","space","space","space","f","646","NA","23218","10015","7799","3424","646","2","legacy","1024","2","48000","-16","task","5208078","even","NA","38570","63792","40572","237663","4912","22744","14943","238168","158513","237661","238169","237609","63792","238817","35344","237108","4839","207973","Lexical Decision Task","86","77396","95","yes","1024"
"2.838639236","0","4","furg","non-word","90.625","90.625","812.6979166666666","812.6979166666666","black","no","legacy","legacy","legacy","0","uniform","1","undefined","undefined","undefined","1","f","0","0","0","0","95","0","0","0","95","0","91","95","91","0","91","3","95","0","95","Fri Feb 19 12:13:46 2021","The main experiment item","yes","Lexical_Decision_Task.osexp","/Users/molly","no","Andale Mono","no","18","no","white","no","yes","576","legacy","91","91","3","/Users/molly/subject-5208078 2.csv","legacy","Lentiform Loewenfeld","3.3.7","yes","yes","600bd7cfb6416f0113b04181","602110864497cf011d9c0822","0","f","NA","space","space","space","space","f","623","NA","23218","10015","7799","3424","623","2","legacy","1024","2","48000","-16","task","5208078","even","NA","38570","63792","40572","239381","4912","22744","14943","239886","158513","239379","239887","239321","63792","240511","35344","238821","4839","207973","Lexical Decision Task","87","78019","96","yes","1024"
"2.713490543","0","3","feps","non-word","90.72164948453609","90.72164948453609","810.5463917525773","810.5463917525773","black","no","legacy","legacy","legacy","0","uniform","1","undefined","undefined","undefined","1","f","0","0","0","0","96","0","0","0","96","0","92","96","92","0","92","3","96","0","96","Fri Feb 19 12:13:46 2021","The main experiment item","yes","Lexical_Decision_Task.osexp","/Users/molly","no","Andale Mono","no","18","no","white","no","yes","576","legacy","92","92","3","/Users/molly/subject-5208078 2.csv","legacy","Lentiform Loewenfeld","3.3.7","yes","yes","600bd7cfb6416f0113b04181","602110864497cf011d9c0822","0","f","NA","space","space","space","space","f","604","NA","23218","10015","7799","3424","604","2","legacy","1024","2","48000","-16","task","5208078","even","NA","38570","63792","40572","241071","4912","22744","14943","241576","158513","241068","241576","241017","63792","242182","35344","240517","4839","207973","Lexical Decision Task","88","78623","97","yes","1024"
"3.259832699","0","9","flar","non-word","90.81632653061224","90.81632653061224","809.0204081632653","809.0204081632653","black","no","legacy","legacy","legacy","0","uniform","1","undefined","undefined","undefined","1","f","0","0","0","0","97","0","0","0","97","0","93","97","93","0","93","3","97","0","97","Fri Feb 19 12:13:46 2021","The main experiment item","yes","Lexical_Decision_Task.osexp","/Users/molly","no","Andale Mono","no","18","no","white","no","yes","576","legacy","93","93","3","/Users/molly/subject-5208078 2.csv","legacy","Lentiform Loewenfeld","3.3.7","yes","yes","600bd7cfb6416f0113b04181","602110864497cf011d9c0822","0","f","NA","space","space","space","space","f","661","NA","23218","10015","7799","3424","661","2","legacy","1024","2","48000","-16","task","5208078","even","NA","38570","63792","40572","242742","4912","22744","14943","243247","158513","242739","243247","242687","63792","243910","35344","242186","4839","207973","Lexical Decision Task","89","79284","98","yes","1024"
"2.839268497","0","8","maft","non-word","90.9090909090909","90.9090909090909","808.989898989899","808.989898989899","black","no","legacy","legacy","legacy","0","uniform","1","undefined","undefined","undefined","1","f","0","0","0","0","98","0","0","0","98","0","94","98","94","0","94","3","98","0","98","Fri Feb 19 12:13:46 2021","The main experiment item","yes","Lexical_Decision_Task.osexp","/Users/molly","no","Andale Mono","no","18","no","white","no","yes","576","legacy","94","94","3","/Users/molly/subject-5208078 2.csv","legacy","Lentiform Loewenfeld","3.3.7","yes","yes","600bd7cfb6416f0113b04181","602110864497cf011d9c0822","0","f","NA","space","space","space","space","f","806","NA","23218","10015","7799","3424","806","2","legacy","1024","2","48000","-16","task","5208078","even","NA","38570","63792","40572","244470","4912","22744","14943","244973","158513","244467","244974","244415","63792","245782","35344","243915","4839","207973","Lexical Decision Task","90","80090","99","yes","1024"
"3.431095062","5.74","9","perk","word","90","90","806.57","806.57","black","no","legacy","legacy","legacy","0","uniform","0","undefined","undefined","undefined","0","j","0","0","0","0","99","0","0","0","99","0","95","99","95","0","95","3","99","0","99","Fri Feb 19 12:13:46 2021","The main experiment item","yes","Lexical_Decision_Task.osexp","/Users/molly","no","Andale Mono","no","18","no","white","no","yes","576","legacy","95","95","3","/Users/molly/subject-5208078 2.csv","legacy","Lentiform Loewenfeld","3.3.7","yes","yes","600bd7cfb6416f0113b04181","602110864497cf011d9c0822","0","f","NA","space","space","space","space","f","567","NA","23218","10015","7799","3424","567","2","legacy","1024","2","48000","-16","task","5208078","even","NA","38570","63792","40572","246341","4912","22744","14943","246846","158513","246339","246847","246287","63792","247416","35344","245787","4839","207973","Lexical Decision Task","90","80657","100","yes","1024"
"3.276537627","9.15","5","trap","word","90.0990099009901","90.0990099009901","804.039603960396","804.039603960396","black","no","legacy","legacy","legacy","0","uniform","1","undefined","undefined","undefined","1","j","0","0","0","0","100","0","0","0","100","0","96","100","96","0","96","3","100","0","100","Fri Feb 19 12:13:46 2021","The main experiment item","yes","Lexical_Decision_Task.osexp","/Users/molly","no","Andale Mono","no","18","no","white","no","yes","576","legacy","96","96","3","/Users/molly/subject-5208078 2.csv","legacy","Lentiform Loewenfeld","3.3.7","yes","yes","600bd7cfb6416f0113b04181","602110864497cf011d9c0822","0","j","NA","space","space","space","space","j","551","NA","23218","10015","7799","3424","551","2","legacy","1024","2","48000","-16","task","5208078","even","NA","38570","63792","40572","248977","4912","22744","14943","249480","158513","248974","249481","248921","63792","250034","35344","245787","4839","247421","Lexical Decision Task","91","81208","101","yes","1024"
"3.105055783","0","2","norp","non-word","90.19607843137256","90.19607843137256","802.5","802.5","black","no","legacy","legacy","legacy","0","uniform","1","undefined","undefined","undefined","1","f","0","0","0","0","101","0","0","0","101","0","97","101","97","0","97","3","101","0","101","Fri Feb 19 12:13:46 2021","The main experiment item","yes","Lexical_Decision_Task.osexp","/Users/molly","no","Andale Mono","no","18","no","white","no","yes","576","legacy","97","97","3","/Users/molly/subject-5208078 2.csv","legacy","Lentiform Loewenfeld","3.3.7","yes","yes","600bd7cfb6416f0113b04181","602110864497cf011d9c0822","0","f","NA","space","space","space","space","f","647","NA","23218","10015","7799","3424","647","2","legacy","1024","2","48000","-16","task","5208078","even","NA","38570","63792","40572","250593","4912","22744","14943","251097","158513","250591","251097","250539","63792","251745","35344","250039","4839","247421","Lexical Decision Task","92","81855","102","yes","1024"
