key_resp_2.keys,key_resp_2.rt,key_resp_3.keys,key_resp_3.rt,key_resp.keys,key_resp.rt,key_resp_4.keys,trials.thisRepN,trials.thisTrialN,trials.thisN,trials.thisIndex,trials.ran,stimulus,distractor1,distractor2,distractor3,distractor4,CorrAns,isi_duration,isi_dur_in_seconds,participant,session,date,expName,psychopyVersion,OS,frameRate,PROLIFIC_PID,STUDY_ID,SESSION_ID,key_resp_4.rt
return,12.0292,space,12.0978,space,0.6911,,0,0,0,254,1,M, , , , ,space,1500,1.5,5872a0d958ca4c00018ce4fe,001,2021-08-19_15h27.24.182,natb3,2021.2.3,Win32,59.70505702,5872a0d958ca4c00018ce4fe,611e07ecdcc96256ae8d5b80,611e6a23a866c0e045a6f244,
,,,,space,0.3406,,0,1,1,281,1,Z, , , , ,space,1500,1.5,5872a0d958ca4c00018ce4fe,001,2021-08-19_15h27.24.182,natb3,2021.2.3,Win32,59.70505702,5872a0d958ca4c00018ce4fe,611e07ecdcc96256ae8d5b80,611e6a23a866c0e045a6f244,
,,,,space,0.2936,,0,2,2,305,1,X, , , , ,,1500,1.5,5872a0d958ca4c00018ce4fe,001,2021-08-19_15h27.24.182,natb3,2021.2.3,Win32,59.70505702,5872a0d958ca4c00018ce4fe,611e07ecdcc96256ae8d5b80,611e6a23a866c0e045a6f244,
,,,,space,0.574,,0,3,3,290,1,W, , , , ,space,1500,1.5,5872a0d958ca4c00018ce4fe,001,2021-08-19_15h27.24.182,natb3,2021.2.3,Win32,59.70505702,5872a0d958ca4c00018ce4fe,611e07ecdcc96256ae8d5b80,611e6a23a866c0e045a6f244,
,,,,,,,0,4,4,118,1,X, , , , ,,2000,2,5872a0d958ca4c00018ce4fe,001,2021-08-19_15h27.24.182,natb3,2021.2.3,Win32,59.70505702,5872a0d958ca4c00018ce4fe,611e07ecdcc96256ae8d5b80,611e6a23a866c0e045a6f244,
,,,,space,0.3673,,0,5,5,146,1,W, , , , ,space,1500,1.5,5872a0d958ca4c00018ce4fe,001,2021-08-19_15h27.24.182,natb3,2021.2.3,Win32,59.70505702,5872a0d958ca4c00018ce4fe,611e07ecdcc96256ae8d5b80,611e6a23a866c0e045a6f244,
,,,,space,0.4437,,0,6,6,159,1,S, , , , ,space,2500,2.5,5872a0d958ca4c00018ce4fe,001,2021-08-19_15h27.24.182,natb3,2021.2.3,Win32,59.70505702,5872a0d958ca4c00018ce4fe,611e07ecdcc96256ae8d5b80,611e6a23a866c0e045a6f244,
,,,,,,,0,7,7,35,1,X, , , , ,,2500,2.5,5872a0d958ca4c00018ce4fe,001,2021-08-19_15h27.24.182,natb3,2021.2.3,Win32,59.70505702,5872a0d958ca4c00018ce4fe,611e07ecdcc96256ae8d5b80,611e6a23a866c0e045a6f244,
,,,,space,0.4337,,0,8,8,13,1,A, , , , ,space,2000,2,5872a0d958ca4c00018ce4fe,001,2021-08-19_15h27.24.182,natb3,2021.2.3,Win32,59.70505702,5872a0d958ca4c00018ce4fe,611e07ecdcc96256ae8d5b80,611e6a23a866c0e045a6f244,
,,,,space,0.384,,0,9,9,17,1,F, , , , ,space,2500,2.5,5872a0d958ca4c00018ce4fe,001,2021-08-19_15h27.24.182,natb3,2021.2.3,Win32,59.70505702,5872a0d958ca4c00018ce4fe,611e07ecdcc96256ae8d5b80,611e6a23a866c0e045a6f244,
,,,,space,0.4335,,0,10,10,172,1,C, , , , ,space,1500,1.5,5872a0d958ca4c00018ce4fe,001,2021-08-19_15h27.24.182,natb3,2021.2.3,Win32,59.70505702,5872a0d958ca4c00018ce4fe,611e07ecdcc96256ae8d5b80,611e6a23a866c0e045a6f244,
,,,,,,,0,11,11,252,1,X,3, ,6,9,,2000,2,5872a0d958ca4c00018ce4fe,001,2021-08-19_15h27.24.182,natb3,2021.2.3,Win32,59.70505702,5872a0d958ca4c00018ce4fe,611e07ecdcc96256ae8d5b80,611e6a23a866c0e045a6f244,
,,,,space,0.4517,,0,12,12,227,1,T, , , , ,space,1500,1.5,5872a0d958ca4c00018ce4fe,001,2021-08-19_15h27.24.182,natb3,2021.2.3,Win32,59.70505702,5872a0d958ca4c00018ce4fe,611e07ecdcc96256ae8d5b80,611e6a23a866c0e045a6f244,
,,,,space,0.4131,,0,13,13,79,1,P, , , , ,space,2000,2,5872a0d958ca4c00018ce4fe,001,2021-08-19_15h27.24.182,natb3,2021.2.3,Win32,59.70505702,5872a0d958ca4c00018ce4fe,611e07ecdcc96256ae8d5b80,611e6a23a866c0e045a6f244,
,,,,space,0.3845,,0,14,14,208,1,B, , , , ,space,1500,1.5,5872a0d958ca4c00018ce4fe,001,2021-08-19_15h27.24.182,natb3,2021.2.3,Win32,59.70505702,5872a0d958ca4c00018ce4fe,611e07ecdcc96256ae8d5b80,611e6a23a866c0e045a6f244,
,,,,space,0.3881,,0,15,15,22,1,K, , , , ,space,2000,2,5872a0d958ca4c00018ce4fe,001,2021-08-19_15h27.24.182,natb3,2021.2.3,Win32,59.70505702,5872a0d958ca4c00018ce4fe,611e07ecdcc96256ae8d5b80,611e6a23a866c0e045a6f244,
,,,,space,0.4098,,0,16,16,68,1,W, , , , ,space,2500,2.5,5872a0d958ca4c00018ce4fe,001,2021-08-19_15h27.24.182,natb3,2021.2.3,Win32,59.70505702,5872a0d958ca4c00018ce4fe,611e07ecdcc96256ae8d5b80,611e6a23a866c0e045a6f244,
,,,,space,0.3047,,0,17,17,164,1,H, , , , ,space,2500,2.5,5872a0d958ca4c00018ce4fe,001,2021-08-19_15h27.24.182,natb3,2021.2.3,Win32,59.70505702,5872a0d958ca4c00018ce4fe,611e07ecdcc96256ae8d5b80,611e6a23a866c0e045a6f244,
,,,,space,0.3111,,0,18,18,139,1,V, , , , ,space,2000,2,5872a0d958ca4c00018ce4fe,001,2021-08-19_15h27.24.182,natb3,2021.2.3,Win32,59.70505702,5872a0d958ca4c00018ce4fe,611e07ecdcc96256ae8d5b80,611e6a23a866c0e045a6f244,
,,,,space,0.3549,,0,19,19,115,1,R, , , , ,space,1500,1.5,5872a0d958ca4c00018ce4fe,001,2021-08-19_15h27.24.182,natb3,2021.2.3,Win32,59.70505702,5872a0d958ca4c00018ce4fe,611e07ecdcc96256ae8d5b80,611e6a23a866c0e045a6f244,
,,,,space,0.4345,,0,20,20,167,1,K, , , , ,space,1500,1.5,5872a0d958ca4c00018ce4fe,001,2021-08-19_15h27.24.182,natb3,2021.2.3,Win32,59.70505702,5872a0d958ca4c00018ce4fe,611e07ecdcc96256ae8d5b80,611e6a23a866c0e045a6f244,
,,,,space,0.3879,,0,21,21,142,1,N, , , , ,space,2500,2.5,5872a0d958ca4c00018ce4fe,001,2021-08-19_15h27.24.182,natb3,2021.2.3,Win32,59.70505702,5872a0d958ca4c00018ce4fe,611e07ecdcc96256ae8d5b80,611e6a23a866c0e045a6f244,
,,,,space,0.3842,,0,22,22,103,1,W, , , , ,space,2000,2,5872a0d958ca4c00018ce4fe,001,2021-08-19_15h27.24.182,natb3,2021.2.3,Win32,59.70505702,5872a0d958ca4c00018ce4fe,611e07ecdcc96256ae8d5b80,611e6a23a866c0e045a6f244,
,,,,space,0.3205,,0,23,23,2,1,E, , , , ,space,2500,2.5,5872a0d958ca4c00018ce4fe,001,2021-08-19_15h27.24.182,natb3,2021.2.3,Win32,59.70505702,5872a0d958ca4c00018ce4fe,611e07ecdcc96256ae8d5b80,611e6a23a866c0e045a6f244,
,,,,space,0.3695,,0,24,24,230,1,U, , , , ,space,1500,1.5,5872a0d958ca4c00018ce4fe,001,2021-08-19_15h27.24.182,natb3,2021.2.3,Win32,59.70505702,5872a0d958ca4c00018ce4fe,611e07ecdcc96256ae8d5b80,611e6a23a866c0e045a6f244,
,,,,,,,0,25,25,162,1,X,1,6, ,2,,1500,1.5,5872a0d958ca4c00018ce4fe,001,2021-08-19_15h27.24.182,natb3,2021.2.3,Win32,59.70505702,5872a0d958ca4c00018ce4fe,611e07ecdcc96256ae8d5b80,611e6a23a866c0e045a6f244,
,,,,space,0.3226,,0,26,26,188,1,I, , , , ,space,2500,2.5,5872a0d958ca4c00018ce4fe,001,2021-08-19_15h27.24.182,natb3,2021.2.3,Win32,59.70505702,5872a0d958ca4c00018ce4fe,611e07ecdcc96256ae8d5b80,611e6a23a866c0e045a6f244,
,,,,space,0.234,,0,27,27,192,1,A, , , , ,space,2000,2,5872a0d958ca4c00018ce4fe,001,2021-08-19_15h27.24.182,natb3,2021.2.3,Win32,59.70505702,5872a0d958ca4c00018ce4fe,611e07ecdcc96256ae8d5b80,611e6a23a866c0e045a6f244,
,,,,space,0.2676,,0,28,28,308,1,G, , , , ,space,1500,1.5,5872a0d958ca4c00018ce4fe,001,2021-08-19_15h27.24.182,natb3,2021.2.3,Win32,59.70505702,5872a0d958ca4c00018ce4fe,611e07ecdcc96256ae8d5b80,611e6a23a866c0e045a6f244,
,,,,space,0.2885,,0,29,29,8,1,U, , , , ,space,1500,1.5,5872a0d958ca4c00018ce4fe,001,2021-08-19_15h27.24.182,natb3,2021.2.3,Win32,59.70505702,5872a0d958ca4c00018ce4fe,611e07ecdcc96256ae8d5b80,611e6a23a866c0e045a6f244,
,,,,space,0.2842,,0,30,30,55,1,H, , , , ,space,2500,2.5,5872a0d958ca4c00018ce4fe,001,2021-08-19_15h27.24.182,natb3,2021.2.3,Win32,59.70505702,5872a0d958ca4c00018ce4fe,611e07ecdcc96256ae8d5b80,611e6a23a866c0e045a6f244,
,,,,space,0.2841,,0,31,31,197,1,G, , , , ,space,2500,2.5,5872a0d958ca4c00018ce4fe,001,2021-08-19_15h27.24.182,natb3,2021.2.3,Win32,59.70505702,5872a0d958ca4c00018ce4fe,611e07ecdcc96256ae8d5b80,611e6a23a866c0e045a6f244,
,,,,space,0.2779,,0,32,32,271,1,X, , , , ,,2500,2.5,5872a0d958ca4c00018ce4fe,001,2021-08-19_15h27.24.182,natb3,2021.2.3,Win32,59.70505702,5872a0d958ca4c00018ce4fe,611e07ecdcc96256ae8d5b80,611e6a23a866c0e045a6f244,
,,,,space,0.273,,0,33,33,173,1,V, , , , ,space,1500,1.5,5872a0d958ca4c00018ce4fe,001,2021-08-19_15h27.24.182,natb3,2021.2.3,Win32,59.70505702,5872a0d958ca4c00018ce4fe,611e07ecdcc96256ae8d5b80,611e6a23a866c0e045a6f244,
,,,,,,,0,34,34,175,1,X,7, ,4,2,,1500,1.5,5872a0d958ca4c00018ce4fe,001,2021-08-19_15h27.24.182,natb3,2021.2.3,Win32,59.70505702,5872a0d958ca4c00018ce4fe,611e07ecdcc96256ae8d5b80,611e6a23a866c0e045a6f244,
,,,,,,,0,35,35,211,1,X, , , , ,,2500,2.5,5872a0d958ca4c00018ce4fe,001,2021-08-19_15h27.24.182,natb3,2021.2.3,Win32,59.70505702,5872a0d958ca4c00018ce4fe,611e07ecdcc96256ae8d5b80,611e6a23a866c0e045a6f244,
,,,,space,0.3298,,0,36,36,165,1,J, , , , ,space,2500,2.5,5872a0d958ca4c00018ce4fe,001,2021-08-19_15h27.24.182,natb3,2021.2.3,Win32,59.70505702,5872a0d958ca4c00018ce4fe,611e07ecdcc96256ae8d5b80,611e6a23a866c0e045a6f244,
,,,,space,0.335,,0,37,37,319,1,V, , , , ,space,2000,2,5872a0d958ca4c00018ce4fe,001,2021-08-19_15h27.24.182,natb3,2021.2.3,Win32,59.70505702,5872a0d958ca4c00018ce4fe,611e07ecdcc96256ae8d5b80,611e6a23a866c0e045a6f244,
,,,,space,0.4009,,0,38,38,111,1,O, , , , ,space,2000,2,5872a0d958ca4c00018ce4fe,001,2021-08-19_15h27.24.182,natb3,2021.2.3,Win32,59.70505702,5872a0d958ca4c00018ce4fe,611e07ecdcc96256ae8d5b80,611e6a23a866c0e045a6f244,
,,,,space,0.472,,0,39,39,87,1,H, , , , ,space,1500,1.5,5872a0d958ca4c00018ce4fe,001,2021-08-19_15h27.24.182,natb3,2021.2.3,Win32,59.70505702,5872a0d958ca4c00018ce4fe,611e07ecdcc96256ae8d5b80,611e6a23a866c0e045a6f244,
,,,,space,0.6164,,0,40,40,132,1,H, , , , ,space,2500,2.5,5872a0d958ca4c00018ce4fe,001,2021-08-19_15h27.24.182,natb3,2021.2.3,Win32,59.70505702,5872a0d958ca4c00018ce4fe,611e07ecdcc96256ae8d5b80,611e6a23a866c0e045a6f244,
,,,,space,0.6103,,0,41,41,185,1,Y, , , , ,space,2500,2.5,5872a0d958ca4c00018ce4fe,001,2021-08-19_15h27.24.182,natb3,2021.2.3,Win32,59.70505702,5872a0d958ca4c00018ce4fe,611e07ecdcc96256ae8d5b80,611e6a23a866c0e045a6f244,
,,,,space,0.3603,,0,42,42,143,1,M, , , , ,space,2500,2.5,5872a0d958ca4c00018ce4fe,001,2021-08-19_15h27.24.182,natb3,2021.2.3,Win32,59.70505702,5872a0d958ca4c00018ce4fe,611e07ecdcc96256ae8d5b80,611e6a23a866c0e045a6f244,
,,,,space,0.3518,,0,43,43,302,1,X, , , , ,,2000,2,5872a0d958ca4c00018ce4fe,001,2021-08-19_15h27.24.182,natb3,2021.2.3,Win32,59.70505702,5872a0d958ca4c00018ce4fe,611e07ecdcc96256ae8d5b80,611e6a23a866c0e045a6f244,
,,,,space,0.6009,,0,44,44,57,1,K, , , , ,space,2500,2.5,5872a0d958ca4c00018ce4fe,001,2021-08-19_15h27.24.182,natb3,2021.2.3,Win32,59.70505702,5872a0d958ca4c00018ce4fe,611e07ecdcc96256ae8d5b80,611e6a23a866c0e045a6f244,
,,,,space,0.6782,,0,45,45,6,1,Y, , , , ,space,2500,2.5,5872a0d958ca4c00018ce4fe,001,2021-08-19_15h27.24.182,natb3,2021.2.3,Win32,59.70505702,5872a0d958ca4c00018ce4fe,611e07ecdcc96256ae8d5b80,611e6a23a866c0e045a6f244,
,,,,space,0.6692,,0,46,46,258,1,E, , , , ,space,1500,1.5,5872a0d958ca4c00018ce4fe,001,2021-08-19_15h27.24.182,natb3,2021.2.3,Win32,59.70505702,5872a0d958ca4c00018ce4fe,611e07ecdcc96256ae8d5b80,611e6a23a866c0e045a6f244,
,,,,space,0.5841,,0,47,47,247,1,Z, , , , ,space,1500,1.5,5872a0d958ca4c00018ce4fe,001,2021-08-19_15h27.24.182,natb3,2021.2.3,Win32,59.70505702,5872a0d958ca4c00018ce4fe,611e07ecdcc96256ae8d5b80,611e6a23a866c0e045a6f244,
,,,,space,0.3426,,0,48,48,127,1,S, , , , ,space,2500,2.5,5872a0d958ca4c00018ce4fe,001,2021-08-19_15h27.24.182,natb3,2021.2.3,Win32,59.70505702,5872a0d958ca4c00018ce4fe,611e07ecdcc96256ae8d5b80,611e6a23a866c0e045a6f244,
,,,,space,0.3176,,0,49,49,293,1,R, , , , ,space,2500,2.5,5872a0d958ca4c00018ce4fe,001,2021-08-19_15h27.24.182,natb3,2021.2.3,Win32,59.70505702,5872a0d958ca4c00018ce4fe,611e07ecdcc96256ae8d5b80,611e6a23a866c0e045a6f244,
,,,,space,0.3739,,0,50,50,9,1,I, , , , ,space,1500,1.5,5872a0d958ca4c00018ce4fe,001,2021-08-19_15h27.24.182,natb3,2021.2.3,Win32,59.70505702,5872a0d958ca4c00018ce4fe,611e07ecdcc96256ae8d5b80,611e6a23a866c0e045a6f244,
,,,,space,0.3016,,0,51,51,36,1,W, , , , ,space,2000,2,5872a0d958ca4c00018ce4fe,001,2021-08-19_15h27.24.182,natb3,2021.2.3,Win32,59.70505702,5872a0d958ca4c00018ce4fe,611e07ecdcc96256ae8d5b80,611e6a23a866c0e045a6f244,
,,,,space,0.418,,0,52,52,316,1,Z, , , , ,space,1500,1.5,5872a0d958ca4c00018ce4fe,001,2021-08-19_15h27.24.182,natb3,2021.2.3,Win32,59.70505702,5872a0d958ca4c00018ce4fe,611e07ecdcc96256ae8d5b80,611e6a23a866c0e045a6f244,
,,,,space,0.3279,,0,53,53,77,1,O, , , , ,space,2000,2,5872a0d958ca4c00018ce4fe,001,2021-08-19_15h27.24.182,natb3,2021.2.3,Win32,59.70505702,5872a0d958ca4c00018ce4fe,611e07ecdcc96256ae8d5b80,611e6a23a866c0e045a6f244,
,,,,space,0.2904,,0,54,54,24,1,L, , , , ,space,2500,2.5,5872a0d958ca4c00018ce4fe,001,2021-08-19_15h27.24.182,natb3,2021.2.3,Win32,59.70505702,5872a0d958ca4c00018ce4fe,611e07ecdcc96256ae8d5b80,611e6a23a866c0e045a6f244,
,,,,space,0.34,,0,55,55,85,1,F, , , , ,space,2500,2.5,5872a0d958ca4c00018ce4fe,001,2021-08-19_15h27.24.182,natb3,2021.2.3,Win32,59.70505702,5872a0d958ca4c00018ce4fe,611e07ecdcc96256ae8d5b80,611e6a23a866c0e045a6f244,
,,,,space,0.357,,0,56,56,177,1,M, , , , ,space,2500,2.5,5872a0d958ca4c00018ce4fe,001,2021-08-19_15h27.24.182,natb3,2021.2.3,Win32,59.70505702,5872a0d958ca4c00018ce4fe,611e07ecdcc96256ae8d5b80,611e6a23a866c0e045a6f244,
,,,,,,,0,57,57,102,1,X, ,6, , ,,1500,1.5,5872a0d958ca4c00018ce4fe,001,2021-08-19_15h27.24.182,natb3,2021.2.3,Win32,59.70505702,5872a0d958ca4c00018ce4fe,611e07ecdcc96256ae8d5b80,611e6a23a866c0e045a6f244,
,,,,space,0.4004,,0,58,58,285,1,B, , , , ,space,1500,1.5,5872a0d958ca4c00018ce4fe,001,2021-08-19_15h27.24.182,natb3,2021.2.3,Win32,59.70505702,5872a0d958ca4c00018ce4fe,611e07ecdcc96256ae8d5b80,611e6a23a866c0e045a6f244,
,,,,space,0.3798,,0,59,59,223,1,Q, , , , ,space,2000,2,5872a0d958ca4c00018ce4fe,001,2021-08-19_15h27.24.182,natb3,2021.2.3,Win32,59.70505702,5872a0d958ca4c00018ce4fe,611e07ecdcc96256ae8d5b80,611e6a23a866c0e045a6f244,
,,,,,,,0,60,60,39,1,X,6,2, , ,,1500,1.5,5872a0d958ca4c00018ce4fe,001,2021-08-19_15h27.24.182,natb3,2021.2.3,Win32,59.70505702,5872a0d958ca4c00018ce4fe,611e07ecdcc96256ae8d5b80,611e6a23a866c0e045a6f244,
,,,,space,0.6172,,0,61,61,157,1,A, , , , ,space,2500,2.5,5872a0d958ca4c00018ce4fe,001,2021-08-19_15h27.24.182,natb3,2021.2.3,Win32,59.70505702,5872a0d958ca4c00018ce4fe,611e07ecdcc96256ae8d5b80,611e6a23a866c0e045a6f244,
,,,,space,0.3178,,0,62,62,47,1,P, , , , ,space,2000,2,5872a0d958ca4c00018ce4fe,001,2021-08-19_15h27.24.182,natb3,2021.2.3,Win32,59.70505702,5872a0d958ca4c00018ce4fe,611e07ecdcc96256ae8d5b80,611e6a23a866c0e045a6f244,
,,,,,,,0,63,63,23,1,X,1, ,5, ,,2000,2,5872a0d958ca4c00018ce4fe,001,2021-08-19_15h27.24.182,natb3,2021.2.3,Win32,59.70505702,5872a0d958ca4c00018ce4fe,611e07ecdcc96256ae8d5b80,611e6a23a866c0e045a6f244,
,,,,space,0.3232,,0,64,64,154,1,I, , , , ,space,2500,2.5,5872a0d958ca4c00018ce4fe,001,2021-08-19_15h27.24.182,natb3,2021.2.3,Win32,59.70505702,5872a0d958ca4c00018ce4fe,611e07ecdcc96256ae8d5b80,611e6a23a866c0e045a6f244,
,,,,space,0.3612,,0,65,65,242,1,H, , , , ,space,2500,2.5,5872a0d958ca4c00018ce4fe,001,2021-08-19_15h27.24.182,natb3,2021.2.3,Win32,59.70505702,5872a0d958ca4c00018ce4fe,611e07ecdcc96256ae8d5b80,611e6a23a866c0e045a6f244,
,,,,space,0.3238,,0,66,66,75,1,U, , , , ,space,1500,1.5,5872a0d958ca4c00018ce4fe,001,2021-08-19_15h27.24.182,natb3,2021.2.3,Win32,59.70505702,5872a0d958ca4c00018ce4fe,611e07ecdcc96256ae8d5b80,611e6a23a866c0e045a6f244,
,,,,space,0.3019,,0,67,67,202,1,L, , , , ,space,2500,2.5,5872a0d958ca4c00018ce4fe,001,2021-08-19_15h27.24.182,natb3,2021.2.3,Win32,59.70505702,5872a0d958ca4c00018ce4fe,611e07ecdcc96256ae8d5b80,611e6a23a866c0e045a6f244,
,,,,space,0.3003,,0,68,68,163,1,G, , , , ,space,2500,2.5,5872a0d958ca4c00018ce4fe,001,2021-08-19_15h27.24.182,natb3,2021.2.3,Win32,59.70505702,5872a0d958ca4c00018ce4fe,611e07ecdcc96256ae8d5b80,611e6a23a866c0e045a6f244,
,,,,space,0.3674,,0,69,69,250,1,V, , , , ,space,2000,2,5872a0d958ca4c00018ce4fe,001,2021-08-19_15h27.24.182,natb3,2021.2.3,Win32,59.70505702,5872a0d958ca4c00018ce4fe,611e07ecdcc96256ae8d5b80,611e6a23a866c0e045a6f244,
,,,,space,0.3338,,0,70,70,86,1,G, , , , ,space,2000,2,5872a0d958ca4c00018ce4fe,001,2021-08-19_15h27.24.182,natb3,2021.2.3,Win32,59.70505702,5872a0d958ca4c00018ce4fe,611e07ecdcc96256ae8d5b80,611e6a23a866c0e045a6f244,
,,,,space,0.3693,,0,71,71,278,1,J, , , , ,space,2000,2,5872a0d958ca4c00018ce4fe,001,2021-08-19_15h27.24.182,natb3,2021.2.3,Win32,59.70505702,5872a0d958ca4c00018ce4fe,611e07ecdcc96256ae8d5b80,611e6a23a866c0e045a6f244,
,,,,space,0.3724,,0,72,72,276,1,H, , , , ,space,2000,2,5872a0d958ca4c00018ce4fe,001,2021-08-19_15h27.24.182,natb3,2021.2.3,Win32,59.70505702,5872a0d958ca4c00018ce4fe,611e07ecdcc96256ae8d5b80,611e6a23a866c0e045a6f244,
,,,,,,,0,73,73,229,1,X,8, ,2,6,,2500,2.5,5872a0d958ca4c00018ce4fe,001,2021-08-19_15h27.24.182,natb3,2021.2.3,Win32,59.70505702,5872a0d958ca4c00018ce4fe,611e07ecdcc96256ae8d5b80,611e6a23a866c0e045a6f244,
,,,,space,0.334,,0,74,74,212,1,Q, , , , ,space,2500,2.5,5872a0d958ca4c00018ce4fe,001,2021-08-19_15h27.24.182,natb3,2021.2.3,Win32,59.70505702,5872a0d958ca4c00018ce4fe,611e07ecdcc96256ae8d5b80,611e6a23a866c0e045a6f244,
,,,,,,,0,75,75,93,1,X,5, ,7, ,,2500,2.5,5872a0d958ca4c00018ce4fe,001,2021-08-19_15h27.24.182,natb3,2021.2.3,Win32,59.70505702,5872a0d958ca4c00018ce4fe,611e07ecdcc96256ae8d5b80,611e6a23a866c0e045a6f244,
,,,,space,0.3105,,0,76,76,234,1,P, , , , ,space,2000,2,5872a0d958ca4c00018ce4fe,001,2021-08-19_15h27.24.182,natb3,2021.2.3,Win32,59.70505702,5872a0d958ca4c00018ce4fe,611e07ecdcc96256ae8d5b80,611e6a23a866c0e045a6f244,
,,,,space,0.3227,,0,77,77,283,1,C, , , , ,space,1500,1.5,5872a0d958ca4c00018ce4fe,001,2021-08-19_15h27.24.182,natb3,2021.2.3,Win32,59.70505702,5872a0d958ca4c00018ce4fe,611e07ecdcc96256ae8d5b80,611e6a23a866c0e045a6f244,
,,,,space,0.3068,,0,78,78,236,1,X,3, ,4,7,,2500,2.5,5872a0d958ca4c00018ce4fe,001,2021-08-19_15h27.24.182,natb3,2021.2.3,Win32,59.70505702,5872a0d958ca4c00018ce4fe,611e07ecdcc96256ae8d5b80,611e6a23a866c0e045a6f244,
,,,,space,0.5004,,0,79,79,14,1,S, , , , ,space,2500,2.5,5872a0d958ca4c00018ce4fe,001,2021-08-19_15h27.24.182,natb3,2021.2.3,Win32,59.70505702,5872a0d958ca4c00018ce4fe,611e07ecdcc96256ae8d5b80,611e6a23a866c0e045a6f244,
,,,,,,,0,80,80,171,1,X, , , , ,,1500,1.5,5872a0d958ca4c00018ce4fe,001,2021-08-19_15h27.24.182,natb3,2021.2.3,Win32,59.70505702,5872a0d958ca4c00018ce4fe,611e07ecdcc96256ae8d5b80,611e6a23a866c0e045a6f244,
,,,,space,0.3908,,0,81,81,112,1,Q, , , , ,space,2500,2.5,5872a0d958ca4c00018ce4fe,001,2021-08-19_15h27.24.182,natb3,2021.2.3,Win32,59.70505702,5872a0d958ca4c00018ce4fe,611e07ecdcc96256ae8d5b80,611e6a23a866c0e045a6f244,
,,,,space,0.3704,,0,82,82,80,1,A, , , , ,space,2000,2,5872a0d958ca4c00018ce4fe,001,2021-08-19_15h27.24.182,natb3,2021.2.3,Win32,59.70505702,5872a0d958ca4c00018ce4fe,611e07ecdcc96256ae8d5b80,611e6a23a866c0e045a6f244,
,,,,space,0.3883,,0,83,83,312,1,K, , , , ,space,2000,2,5872a0d958ca4c00018ce4fe,001,2021-08-19_15h27.24.182,natb3,2021.2.3,Win32,59.70505702,5872a0d958ca4c00018ce4fe,611e07ecdcc96256ae8d5b80,611e6a23a866c0e045a6f244,
,,,,space,0.342,,0,84,84,83,1,D, , , , ,space,2000,2,5872a0d958ca4c00018ce4fe,001,2021-08-19_15h27.24.182,natb3,2021.2.3,Win32,59.70505702,5872a0d958ca4c00018ce4fe,611e07ecdcc96256ae8d5b80,611e6a23a866c0e045a6f244,
,,,,space,0.4008,,0,85,85,63,1,B, , , , ,space,2000,2,5872a0d958ca4c00018ce4fe,001,2021-08-19_15h27.24.182,natb3,2021.2.3,Win32,59.70505702,5872a0d958ca4c00018ce4fe,611e07ecdcc96256ae8d5b80,611e6a23a866c0e045a6f244,
,,,,,,,0,86,86,129,1,X,2,3,5, ,,1500,1.5,5872a0d958ca4c00018ce4fe,001,2021-08-19_15h27.24.182,natb3,2021.2.3,Win32,59.70505702,5872a0d958ca4c00018ce4fe,611e07ecdcc96256ae8d5b80,611e6a23a866c0e045a6f244,
,,,,space,0.467,,0,87,87,130,1,F, , , , ,space,2000,2,5872a0d958ca4c00018ce4fe,001,2021-08-19_15h27.24.182,natb3,2021.2.3,Win32,59.70505702,5872a0d958ca4c00018ce4fe,611e07ecdcc96256ae8d5b80,611e6a23a866c0e045a6f244,
,,,,space,0.5877,,0,88,88,201,1,K, , , , ,space,1500,1.5,5872a0d958ca4c00018ce4fe,001,2021-08-19_15h27.24.182,natb3,2021.2.3,Win32,59.70505702,5872a0d958ca4c00018ce4fe,611e07ecdcc96256ae8d5b80,611e6a23a866c0e045a6f244,
,,,,space,0.3891,,0,89,89,71,1,R, , , , ,space,2500,2.5,5872a0d958ca4c00018ce4fe,001,2021-08-19_15h27.24.182,natb3,2021.2.3,Win32,59.70505702,5872a0d958ca4c00018ce4fe,611e07ecdcc96256ae8d5b80,611e6a23a866c0e045a6f244,
,,,,space,0.4457,,0,90,90,298,1,I, , , , ,space,2000,2,5872a0d958ca4c00018ce4fe,001,2021-08-19_15h27.24.182,natb3,2021.2.3,Win32,59.70505702,5872a0d958ca4c00018ce4fe,611e07ecdcc96256ae8d5b80,611e6a23a866c0e045a6f244,
,,,,space,0.5694,,0,91,91,199,1,J, , , , ,space,2500,2.5,5872a0d958ca4c00018ce4fe,001,2021-08-19_15h27.24.182,natb3,2021.2.3,Win32,59.70505702,5872a0d958ca4c00018ce4fe,611e07ecdcc96256ae8d5b80,611e6a23a866c0e045a6f244,
,,,,space,0.8216,,0,92,92,29,1,B, , , , ,space,1500,1.5,5872a0d958ca4c00018ce4fe,001,2021-08-19_15h27.24.182,natb3,2021.2.3,Win32,59.70505702,5872a0d958ca4c00018ce4fe,611e07ecdcc96256ae8d5b80,611e6a23a866c0e045a6f244,
,,,,space,0.4033,,0,93,93,151,1,Y, , , , ,space,2500,2.5,5872a0d958ca4c00018ce4fe,001,2021-08-19_15h27.24.182,natb3,2021.2.3,Win32,59.70505702,5872a0d958ca4c00018ce4fe,611e07ecdcc96256ae8d5b80,611e6a23a866c0e045a6f244,
,,,,space,0.9708,,0,94,94,228,1,Y, , , , ,space,2000,2,5872a0d958ca4c00018ce4fe,001,2021-08-19_15h27.24.182,natb3,2021.2.3,Win32,59.70505702,5872a0d958ca4c00018ce4fe,611e07ecdcc96256ae8d5b80,611e6a23a866c0e045a6f244,
,,,,space,0.6088,,0,95,95,106,1,T, , , , ,space,1500,1.5,5872a0d958ca4c00018ce4fe,001,2021-08-19_15h27.24.182,natb3,2021.2.3,Win32,59.70505702,5872a0d958ca4c00018ce4fe,611e07ecdcc96256ae8d5b80,611e6a23a866c0e045a6f244,
,,,,,,,0,96,96,295,1,X,8,7,5, ,,2500,2.5,5872a0d958ca4c00018ce4fe,001,2021-08-19_15h27.24.182,natb3,2021.2.3,Win32,59.70505702,5872a0d958ca4c00018ce4fe,611e07ecdcc96256ae8d5b80,611e6a23a866c0e045a6f244,
,,,,space,0.6059,,0,97,97,160,1,D, , , , ,space,1500,1.5,5872a0d958ca4c00018ce4fe,001,2021-08-19_15h27.24.182,natb3,2021.2.3,Win32,59.70505702,5872a0d958ca4c00018ce4fe,611e07ecdcc96256ae8d5b80,611e6a23a866c0e045a6f244,
,,,,space,0.6514,,0,98,98,297,1,U, , , , ,space,2000,2,5872a0d958ca4c00018ce4fe,001,2021-08-19_15h27.24.182,natb3,2021.2.3,Win32,59.70505702,5872a0d958ca4c00018ce4fe,611e07ecdcc96256ae8d5b80,611e6a23a866c0e045a6f244,
,,,,space,0.7338,,0,99,99,333,1,I, , , , ,space,1500,1.5,5872a0d958ca4c00018ce4fe,001,2021-08-19_15h27.24.182,natb3,2021.2.3,Win32,59.70505702,5872a0d958ca4c00018ce4fe,611e07ecdcc96256ae8d5b80,611e6a23a866c0e045a6f244,
,,,,space,0.4678,,0,100,100,174,1,B, , , , ,space,2500,2.5,5872a0d958ca4c00018ce4fe,001,2021-08-19_15h27.24.182,natb3,2021.2.3,Win32,59.70505702,5872a0d958ca4c00018ce4fe,611e07ecdcc96256ae8d5b80,611e6a23a866c0e045a6f244,
,,,,,,,0,101,101,66,1,X, ,4,7, ,,2000,2,5872a0d958ca4c00018ce4fe,001,2021-08-19_15h27.24.182,natb3,2021.2.3,Win32,59.70505702,5872a0d958ca4c00018ce4fe,611e07ecdcc96256ae8d5b80,611e6a23a866c0e045a6f244,
,,,,space,0.313,,0,102,102,61,1,C, , , , ,space,2000,2,5872a0d958ca4c00018ce4fe,001,2021-08-19_15h27.24.182,natb3,2021.2.3,Win32,59.70505702,5872a0d958ca4c00018ce4fe,611e07ecdcc96256ae8d5b80,611e6a23a866c0e045a6f244,
,,,,,,,0,103,103,263,1,X,4, ,6, ,,1500,1.5,5872a0d958ca4c00018ce4fe,001,2021-08-19_15h27.24.182,natb3,2021.2.3,Win32,59.70505702,5872a0d958ca4c00018ce4fe,611e07ecdcc96256ae8d5b80,611e6a23a866c0e045a6f244,
,,,,,,,0,104,104,255,1,X, , , , ,,1500,1.5,5872a0d958ca4c00018ce4fe,001,2021-08-19_15h27.24.182,natb3,2021.2.3,Win32,59.70505702,5872a0d958ca4c00018ce4fe,611e07ecdcc96256ae8d5b80,611e6a23a866c0e045a6f244,
,,,,space,0.3923,,0,105,105,95,1,V, , , , ,space,1500,1.5,5872a0d958ca4c00018ce4fe,001,2021-08-19_15h27.24.182,natb3,2021.2.3,Win32,59.70505702,5872a0d958ca4c00018ce4fe,611e07ecdcc96256ae8d5b80,611e6a23a866c0e045a6f244,
,,,,space,0.4045,,0,106,106,161,1,F, , , , ,space,1500,1.5,5872a0d958ca4c00018ce4fe,001,2021-08-19_15h27.24.182,natb3,2021.2.3,Win32,59.70505702,5872a0d958ca4c00018ce4fe,611e07ecdcc96256ae8d5b80,611e6a23a866c0e045a6f244,
,,,,space,0.3849,,0,107,107,284,1,V, , , , ,space,2500,2.5,5872a0d958ca4c00018ce4fe,001,2021-08-19_15h27.24.182,natb3,2021.2.3,Win32,59.70505702,5872a0d958ca4c00018ce4fe,611e07ecdcc96256ae8d5b80,611e6a23a866c0e045a6f244,
,,,,space,0.3434,,0,108,108,134,1,J, , , , ,space,2000,2,5872a0d958ca4c00018ce4fe,001,2021-08-19_15h27.24.182,natb3,2021.2.3,Win32,59.70505702,5872a0d958ca4c00018ce4fe,611e07ecdcc96256ae8d5b80,611e6a23a866c0e045a6f244,
,,,,space,0.3445,,0,109,109,282,1,X, , , , ,,2500,2.5,5872a0d958ca4c00018ce4fe,001,2021-08-19_15h27.24.182,natb3,2021.2.3,Win32,59.70505702,5872a0d958ca4c00018ce4fe,611e07ecdcc96256ae8d5b80,611e6a23a866c0e045a6f244,
,,,,space,0.4568,,0,110,110,194,1,D, , , , ,space,2000,2,5872a0d958ca4c00018ce4fe,001,2021-08-19_15h27.24.182,natb3,2021.2.3,Win32,59.70505702,5872a0d958ca4c00018ce4fe,611e07ecdcc96256ae8d5b80,611e6a23a866c0e045a6f244,
,,,,space,0.3932,,0,111,111,196,1,F, , , , ,space,1500,1.5,5872a0d958ca4c00018ce4fe,001,2021-08-19_15h27.24.182,natb3,2021.2.3,Win32,59.70505702,5872a0d958ca4c00018ce4fe,611e07ecdcc96256ae8d5b80,611e6a23a866c0e045a6f244,
,,,,space,0.3734,,0,112,112,123,1,O, , , , ,space,1500,1.5,5872a0d958ca4c00018ce4fe,001,2021-08-19_15h27.24.182,natb3,2021.2.3,Win32,59.70505702,5872a0d958ca4c00018ce4fe,611e07ecdcc96256ae8d5b80,611e6a23a866c0e045a6f244,
,,,,,,,0,113,113,46,1,X, , , , ,,2000,2,5872a0d958ca4c00018ce4fe,001,2021-08-19_15h27.24.182,natb3,2021.2.3,Win32,59.70505702,5872a0d958ca4c00018ce4fe,611e07ecdcc96256ae8d5b80,611e6a23a866c0e045a6f244,
,,,,space,0.3886,,0,114,114,279,1,K, , , , ,space,2500,2.5,5872a0d958ca4c00018ce4fe,001,2021-08-19_15h27.24.182,natb3,2021.2.3,Win32,59.70505702,5872a0d958ca4c00018ce4fe,611e07ecdcc96256ae8d5b80,611e6a23a866c0e045a6f244,
,,,,,,,0,115,115,141,1,X,1, ,4,6,,1500,1.5,5872a0d958ca4c00018ce4fe,001,2021-08-19_15h27.24.182,natb3,2021.2.3,Win32,59.70505702,5872a0d958ca4c00018ce4fe,611e07ecdcc96256ae8d5b80,611e6a23a866c0e045a6f244,
,,,,,,,0,116,116,187,1,X, ,3,7,4,,1500,1.5,5872a0d958ca4c00018ce4fe,001,2021-08-19_15h27.24.182,natb3,2021.2.3,Win32,59.70505702,5872a0d958ca4c00018ce4fe,611e07ecdcc96256ae8d5b80,611e6a23a866c0e045a6f244,
,,,,space,0.3838,,0,117,117,94,1,C, , , , ,space,2000,2,5872a0d958ca4c00018ce4fe,001,2021-08-19_15h27.24.182,natb3,2021.2.3,Win32,59.70505702,5872a0d958ca4c00018ce4fe,611e07ecdcc96256ae8d5b80,611e6a23a866c0e045a6f244,
,,,,space,0.524,,0,118,118,16,1,D, , , , ,space,1500,1.5,5872a0d958ca4c00018ce4fe,001,2021-08-19_15h27.24.182,natb3,2021.2.3,Win32,59.70505702,5872a0d958ca4c00018ce4fe,611e07ecdcc96256ae8d5b80,611e6a23a866c0e045a6f244,
,,,,space,0.4384,,0,119,119,261,1,T, , , , ,space,2000,2,5872a0d958ca4c00018ce4fe,001,2021-08-19_15h27.24.182,natb3,2021.2.3,Win32,59.70505702,5872a0d958ca4c00018ce4fe,611e07ecdcc96256ae8d5b80,611e6a23a866c0e045a6f244,
,,,,space,0.4544,,0,120,120,26,1,C, , , , ,space,2000,2,5872a0d958ca4c00018ce4fe,001,2021-08-19_15h27.24.182,natb3,2021.2.3,Win32,59.70505702,5872a0d958ca4c00018ce4fe,611e07ecdcc96256ae8d5b80,611e6a23a866c0e045a6f244,
,,,,space,0.3672,,0,121,121,304,1,S, , , , ,space,2000,2,5872a0d958ca4c00018ce4fe,001,2021-08-19_15h27.24.182,natb3,2021.2.3,Win32,59.70505702,5872a0d958ca4c00018ce4fe,611e07ecdcc96256ae8d5b80,611e6a23a866c0e045a6f244,
,,,,space,0.444,,0,122,122,121,1,I, , , , ,space,2000,2,5872a0d958ca4c00018ce4fe,001,2021-08-19_15h27.24.182,natb3,2021.2.3,Win32,59.70505702,5872a0d958ca4c00018ce4fe,611e07ecdcc96256ae8d5b80,611e6a23a866c0e045a6f244,
,,,,space,0.3784,,0,123,123,5,1,T, , , , ,space,2000,2,5872a0d958ca4c00018ce4fe,001,2021-08-19_15h27.24.182,natb3,2021.2.3,Win32,59.70505702,5872a0d958ca4c00018ce4fe,611e07ecdcc96256ae8d5b80,611e6a23a866c0e045a6f244,
,,,,space,0.3003,,0,124,124,269,1,A, , , , ,space,2500,2.5,5872a0d958ca4c00018ce4fe,001,2021-08-19_15h27.24.182,natb3,2021.2.3,Win32,59.70505702,5872a0d958ca4c00018ce4fe,611e07ecdcc96256ae8d5b80,611e6a23a866c0e045a6f244,
,,,,space,0.4719,,0,125,125,99,1,N, , , , ,space,2500,2.5,5872a0d958ca4c00018ce4fe,001,2021-08-19_15h27.24.182,natb3,2021.2.3,Win32,59.70505702,5872a0d958ca4c00018ce4fe,611e07ecdcc96256ae8d5b80,611e6a23a866c0e045a6f244,
,,,,space,0.5926,,0,126,126,326,1,W, , , , ,space,2000,2,5872a0d958ca4c00018ce4fe,001,2021-08-19_15h27.24.182,natb3,2021.2.3,Win32,59.70505702,5872a0d958ca4c00018ce4fe,611e07ecdcc96256ae8d5b80,611e6a23a866c0e045a6f244,
,,,,,,,0,127,127,318,1,X, , , , ,,1500,1.5,5872a0d958ca4c00018ce4fe,001,2021-08-19_15h27.24.182,natb3,2021.2.3,Win32,59.70505702,5872a0d958ca4c00018ce4fe,611e07ecdcc96256ae8d5b80,611e6a23a866c0e045a6f244,
,,,,,,,0,128,128,96,1,X, , , , ,,1500,1.5,5872a0d958ca4c00018ce4fe,001,2021-08-19_15h27.24.182,natb3,2021.2.3,Win32,59.70505702,5872a0d958ca4c00018ce4fe,611e07ecdcc96256ae8d5b80,611e6a23a866c0e045a6f244,
,,,,space,0.2953,,0,129,129,30,1,N, , , , ,space,2500,2.5,5872a0d958ca4c00018ce4fe,001,2021-08-19_15h27.24.182,natb3,2021.2.3,Win32,59.70505702,5872a0d958ca4c00018ce4fe,611e07ecdcc96256ae8d5b80,611e6a23a866c0e045a6f244,
,,,,,,,0,130,130,74,1,X, ,4,3,2,,1500,1.5,5872a0d958ca4c00018ce4fe,001,2021-08-19_15h27.24.182,natb3,2021.2.3,Win32,59.70505702,5872a0d958ca4c00018ce4fe,611e07ecdcc96256ae8d5b80,611e6a23a866c0e045a6f244,
,,,,space,0.3834,,0,131,131,317,1,C, , , , ,space,2000,2,5872a0d958ca4c00018ce4fe,001,2021-08-19_15h27.24.182,natb3,2021.2.3,Win32,59.70505702,5872a0d958ca4c00018ce4fe,611e07ecdcc96256ae8d5b80,611e6a23a866c0e045a6f244,
,,,,space,0.5676,,0,132,132,296,1,Y, , , , ,space,2500,2.5,5872a0d958ca4c00018ce4fe,001,2021-08-19_15h27.24.182,natb3,2021.2.3,Win32,59.70505702,5872a0d958ca4c00018ce4fe,611e07ecdcc96256ae8d5b80,611e6a23a866c0e045a6f244,
,,,,,,,0,133,133,248,1,X, ,1,5, ,,1500,1.5,5872a0d958ca4c00018ce4fe,001,2021-08-19_15h27.24.182,natb3,2021.2.3,Win32,59.70505702,5872a0d958ca4c00018ce4fe,611e07ecdcc96256ae8d5b80,611e6a23a866c0e045a6f244,
,,,,space,0.3501,,0,134,134,170,1,Z, , , , ,space,2000,2,5872a0d958ca4c00018ce4fe,001,2021-08-19_15h27.24.182,natb3,2021.2.3,Win32,59.70505702,5872a0d958ca4c00018ce4fe,611e07ecdcc96256ae8d5b80,611e6a23a866c0e045a6f244,
,,,,space,0.3177,,0,135,135,190,1,P, , , , ,space,2000,2,5872a0d958ca4c00018ce4fe,001,2021-08-19_15h27.24.182,natb3,2021.2.3,Win32,59.70505702,5872a0d958ca4c00018ce4fe,611e07ecdcc96256ae8d5b80,611e6a23a866c0e045a6f244,
,,,,space,0.3929,,0,136,136,101,1,Q, , , , ,space,2500,2.5,5872a0d958ca4c00018ce4fe,001,2021-08-19_15h27.24.182,natb3,2021.2.3,Win32,59.70505702,5872a0d958ca4c00018ce4fe,611e07ecdcc96256ae8d5b80,611e6a23a866c0e045a6f244,
,,,,space,0.3012,,0,137,137,149,1,R, , , , ,space,2000,2,5872a0d958ca4c00018ce4fe,001,2021-08-19_15h27.24.182,natb3,2021.2.3,Win32,59.70505702,5872a0d958ca4c00018ce4fe,611e07ecdcc96256ae8d5b80,611e6a23a866c0e045a6f244,
,,,,,,,0,138,138,43,1,X, ,6, ,2,,2500,2.5,5872a0d958ca4c00018ce4fe,001,2021-08-19_15h27.24.182,natb3,2021.2.3,Win32,59.70505702,5872a0d958ca4c00018ce4fe,611e07ecdcc96256ae8d5b80,611e6a23a866c0e045a6f244,
,,,,space,0.3118,,0,139,139,25,1,Z, , , , ,space,2500,2.5,5872a0d958ca4c00018ce4fe,001,2021-08-19_15h27.24.182,natb3,2021.2.3,Win32,59.70505702,5872a0d958ca4c00018ce4fe,611e07ecdcc96256ae8d5b80,611e6a23a866c0e045a6f244,
,,,,,,,0,140,140,218,1,X,1,3, ,8,,1500,1.5,5872a0d958ca4c00018ce4fe,001,2021-08-19_15h27.24.182,natb3,2021.2.3,Win32,59.70505702,5872a0d958ca4c00018ce4fe,611e07ecdcc96256ae8d5b80,611e6a23a866c0e045a6f244,
,,,,space,0.3722,,0,141,141,303,1,A, , , , ,space,2000,2,5872a0d958ca4c00018ce4fe,001,2021-08-19_15h27.24.182,natb3,2021.2.3,Win32,59.70505702,5872a0d958ca4c00018ce4fe,611e07ecdcc96256ae8d5b80,611e6a23a866c0e045a6f244,
,,,,,,,0,142,142,313,1,X, , , , ,,2500,2.5,5872a0d958ca4c00018ce4fe,001,2021-08-19_15h27.24.182,natb3,2021.2.3,Win32,59.70505702,5872a0d958ca4c00018ce4fe,611e07ecdcc96256ae8d5b80,611e6a23a866c0e045a6f244,
,,,,space,0.4694,,0,143,143,294,1,T, , , , ,space,2000,2,5872a0d958ca4c00018ce4fe,001,2021-08-19_15h27.24.182,natb3,2021.2.3,Win32,59.70505702,5872a0d958ca4c00018ce4fe,611e07ecdcc96256ae8d5b80,611e6a23a866c0e045a6f244,
,,,,space,0.4025,,0,144,144,270,1,S, , , , ,space,1500,1.5,5872a0d958ca4c00018ce4fe,001,2021-08-19_15h27.24.182,natb3,2021.2.3,Win32,59.70505702,5872a0d958ca4c00018ce4fe,611e07ecdcc96256ae8d5b80,611e6a23a866c0e045a6f244,
,,,,,,,0,145,145,233,1,X, ,2, ,5,,1500,1.5,5872a0d958ca4c00018ce4fe,001,2021-08-19_15h27.24.182,natb3,2021.2.3,Win32,59.70505702,5872a0d958ca4c00018ce4fe,611e07ecdcc96256ae8d5b80,611e6a23a866c0e045a6f244,
,,,,space,0.3562,,0,146,146,0,1,Q, , , , ,space,1500,1.5,5872a0d958ca4c00018ce4fe,001,2021-08-19_15h27.24.182,natb3,2021.2.3,Win32,59.70505702,5872a0d958ca4c00018ce4fe,611e07ecdcc96256ae8d5b80,611e6a23a866c0e045a6f244,
,,,,space,0.3849,,0,147,147,206,1,V, , , , ,space,2000,2,5872a0d958ca4c00018ce4fe,001,2021-08-19_15h27.24.182,natb3,2021.2.3,Win32,59.70505702,5872a0d958ca4c00018ce4fe,611e07ecdcc96256ae8d5b80,611e6a23a866c0e045a6f244,
,,,,space,0.3745,,0,148,148,92,1,Z, , , , ,space,1500,1.5,5872a0d958ca4c00018ce4fe,001,2021-08-19_15h27.24.182,natb3,2021.2.3,Win32,59.70505702,5872a0d958ca4c00018ce4fe,611e07ecdcc96256ae8d5b80,611e6a23a866c0e045a6f244,
,,,,space,0.3346,,0,149,149,180,1,W, , , , ,space,2000,2,5872a0d958ca4c00018ce4fe,001,2021-08-19_15h27.24.182,natb3,2021.2.3,Win32,59.70505702,5872a0d958ca4c00018ce4fe,611e07ecdcc96256ae8d5b80,611e6a23a866c0e045a6f244,
,,,,space,0.3505,,0,150,150,38,1,R, , , , ,space,2500,2.5,5872a0d958ca4c00018ce4fe,001,2021-08-19_15h27.24.182,natb3,2021.2.3,Win32,59.70505702,5872a0d958ca4c00018ce4fe,611e07ecdcc96256ae8d5b80,611e6a23a866c0e045a6f244,
,,,,space,0.5778,,0,151,151,88,1,J, , , , ,space,2500,2.5,5872a0d958ca4c00018ce4fe,001,2021-08-19_15h27.24.182,natb3,2021.2.3,Win32,59.70505702,5872a0d958ca4c00018ce4fe,611e07ecdcc96256ae8d5b80,611e6a23a866c0e045a6f244,
,,,,space,0.327,,0,152,152,186,1,U, , , , ,space,2500,2.5,5872a0d958ca4c00018ce4fe,001,2021-08-19_15h27.24.182,natb3,2021.2.3,Win32,59.70505702,5872a0d958ca4c00018ce4fe,611e07ecdcc96256ae8d5b80,611e6a23a866c0e045a6f244,
,,,,space,0.3789,,0,153,153,108,1,Y, , , , ,space,2500,2.5,5872a0d958ca4c00018ce4fe,001,2021-08-19_15h27.24.182,natb3,2021.2.3,Win32,59.70505702,5872a0d958ca4c00018ce4fe,611e07ecdcc96256ae8d5b80,611e6a23a866c0e045a6f244,
,,,,space,0.3693,,0,154,154,210,1,M, , , , ,space,1500,1.5,5872a0d958ca4c00018ce4fe,001,2021-08-19_15h27.24.182,natb3,2021.2.3,Win32,59.70505702,5872a0d958ca4c00018ce4fe,611e07ecdcc96256ae8d5b80,611e6a23a866c0e045a6f244,
,,,,space,0.372,,0,155,155,301,1,P, , , , ,space,1500,1.5,5872a0d958ca4c00018ce4fe,001,2021-08-19_15h27.24.182,natb3,2021.2.3,Win32,59.70505702,5872a0d958ca4c00018ce4fe,611e07ecdcc96256ae8d5b80,611e6a23a866c0e045a6f244,
,,,,space,0.3702,,0,156,156,307,1,F, , , , ,space,2500,2.5,5872a0d958ca4c00018ce4fe,001,2021-08-19_15h27.24.182,natb3,2021.2.3,Win32,59.70505702,5872a0d958ca4c00018ce4fe,611e07ecdcc96256ae8d5b80,611e6a23a866c0e045a6f244,
,,,,space,0.334,,0,157,157,1,1,W, , , , ,space,2000,2,5872a0d958ca4c00018ce4fe,001,2021-08-19_15h27.24.182,natb3,2021.2.3,Win32,59.70505702,5872a0d958ca4c00018ce4fe,611e07ecdcc96256ae8d5b80,611e6a23a866c0e045a6f244,
,,,,space,0.489,,0,158,158,155,1,O, , , , ,space,1500,1.5,5872a0d958ca4c00018ce4fe,001,2021-08-19_15h27.24.182,natb3,2021.2.3,Win32,59.70505702,5872a0d958ca4c00018ce4fe,611e07ecdcc96256ae8d5b80,611e6a23a866c0e045a6f244,
,,,,space,0.4095,,0,159,159,265,1,I, , , , ,space,2000,2,5872a0d958ca4c00018ce4fe,001,2021-08-19_15h27.24.182,natb3,2021.2.3,Win32,59.70505702,5872a0d958ca4c00018ce4fe,611e07ecdcc96256ae8d5b80,611e6a23a866c0e045a6f244,
,,,,space,0.3356,,0,160,160,224,1,W, , , , ,space,1500,1.5,5872a0d958ca4c00018ce4fe,001,2021-08-19_15h27.24.182,natb3,2021.2.3,Win32,59.70505702,5872a0d958ca4c00018ce4fe,611e07ecdcc96256ae8d5b80,611e6a23a866c0e045a6f244,
,,,,space,0.5775,,0,161,161,314,1,L, , , , ,space,1500,1.5,5872a0d958ca4c00018ce4fe,001,2021-08-19_15h27.24.182,natb3,2021.2.3,Win32,59.70505702,5872a0d958ca4c00018ce4fe,611e07ecdcc96256ae8d5b80,611e6a23a866c0e045a6f244,
,,,,space,0.3426,,0,162,162,100,1,M, , , , ,space,2000,2,5872a0d958ca4c00018ce4fe,001,2021-08-19_15h27.24.182,natb3,2021.2.3,Win32,59.70505702,5872a0d958ca4c00018ce4fe,611e07ecdcc96256ae8d5b80,611e6a23a866c0e045a6f244,
,,,,space,0.3022,,0,163,163,213,1,X, , , , ,,2500,2.5,5872a0d958ca4c00018ce4fe,001,2021-08-19_15h27.24.182,natb3,2021.2.3,Win32,59.70505702,5872a0d958ca4c00018ce4fe,611e07ecdcc96256ae8d5b80,611e6a23a866c0e045a6f244,
,,,,,,,0,164,164,138,1,X,8,5, ,3,,2000,2,5872a0d958ca4c00018ce4fe,001,2021-08-19_15h27.24.182,natb3,2021.2.3,Win32,59.70505702,5872a0d958ca4c00018ce4fe,611e07ecdcc96256ae8d5b80,611e6a23a866c0e045a6f244,
,,,,space,0.3431,,0,165,165,19,1,G, , , , ,space,1500,1.5,5872a0d958ca4c00018ce4fe,001,2021-08-19_15h27.24.182,natb3,2021.2.3,Win32,59.70505702,5872a0d958ca4c00018ce4fe,611e07ecdcc96256ae8d5b80,611e6a23a866c0e045a6f244,
,,,,space,0.3946,,0,166,166,256,1,Q, , , , ,space,2000,2,5872a0d958ca4c00018ce4fe,001,2021-08-19_15h27.24.182,natb3,2021.2.3,Win32,59.70505702,5872a0d958ca4c00018ce4fe,611e07ecdcc96256ae8d5b80,611e6a23a866c0e045a6f244,
,,,,space,0.4099,space,0,167,167,147,1,E, , , , ,space,2000,2,5872a0d958ca4c00018ce4fe,001,2021-08-19_15h27.24.182,natb3,2021.2.3,Win32,59.70505702,5872a0d958ca4c00018ce4fe,611e07ecdcc96256ae8d5b80,611e6a23a866c0e045a6f244,189.57
,,,,space,0.684,,0,168,168,48,1,A, , , , ,space,2500,2.5,5872a0d958ca4c00018ce4fe,001,2021-08-19_15h27.24.182,natb3,2021.2.3,Win32,59.70505702,5872a0d958ca4c00018ce4fe,611e07ecdcc96256ae8d5b80,611e6a23a866c0e045a6f244,
,,,,space,0.2707,,0,169,169,251,1,B, , , , ,space,1500,1.5,5872a0d958ca4c00018ce4fe,001,2021-08-19_15h27.24.182,natb3,2021.2.3,Win32,59.70505702,5872a0d958ca4c00018ce4fe,611e07ecdcc96256ae8d5b80,611e6a23a866c0e045a6f244,
,,,,space,0.403,,0,170,170,110,1,I, , , , ,space,1500,1.5,5872a0d958ca4c00018ce4fe,001,2021-08-19_15h27.24.182,natb3,2021.2.3,Win32,59.70505702,5872a0d958ca4c00018ce4fe,611e07ecdcc96256ae8d5b80,611e6a23a866c0e045a6f244,
,,,,space,0.3219,,0,171,171,244,1,J, , , , ,space,1500,1.5,5872a0d958ca4c00018ce4fe,001,2021-08-19_15h27.24.182,natb3,2021.2.3,Win32,59.70505702,5872a0d958ca4c00018ce4fe,611e07ecdcc96256ae8d5b80,611e6a23a866c0e045a6f244,
,,,,space,0.3002,,0,172,172,232,1,O, , , , ,space,2500,2.5,5872a0d958ca4c00018ce4fe,001,2021-08-19_15h27.24.182,natb3,2021.2.3,Win32,59.70505702,5872a0d958ca4c00018ce4fe,611e07ecdcc96256ae8d5b80,611e6a23a866c0e045a6f244,
,,,,space,0.4051,,0,173,173,237,1,S, , , , ,space,1500,1.5,5872a0d958ca4c00018ce4fe,001,2021-08-19_15h27.24.182,natb3,2021.2.3,Win32,59.70505702,5872a0d958ca4c00018ce4fe,611e07ecdcc96256ae8d5b80,611e6a23a866c0e045a6f244,
,,,,,,,0,174,174,299,1,X, , , , ,,2500,2.5,5872a0d958ca4c00018ce4fe,001,2021-08-19_15h27.24.182,natb3,2021.2.3,Win32,59.70505702,5872a0d958ca4c00018ce4fe,611e07ecdcc96256ae8d5b80,611e6a23a866c0e045a6f244,
,,,,space,0.3606,,0,175,175,44,1,I, , , , ,space,2500,2.5,5872a0d958ca4c00018ce4fe,001,2021-08-19_15h27.24.182,natb3,2021.2.3,Win32,59.70505702,5872a0d958ca4c00018ce4fe,611e07ecdcc96256ae8d5b80,611e6a23a866c0e045a6f244,
,,,,,,,0,176,176,158,1,X, , , , ,,1500,1.5,5872a0d958ca4c00018ce4fe,001,2021-08-19_15h27.24.182,natb3,2021.2.3,Win32,59.70505702,5872a0d958ca4c00018ce4fe,611e07ecdcc96256ae8d5b80,611e6a23a866c0e045a6f244,
,,,,space,0.3079,,0,177,177,291,1,X, , , , ,,2000,2,5872a0d958ca4c00018ce4fe,001,2021-08-19_15h27.24.182,natb3,2021.2.3,Win32,59.70505702,5872a0d958ca4c00018ce4fe,611e07ecdcc96256ae8d5b80,611e6a23a866c0e045a6f244,
,,,,,,,0,178,178,148,1,X, , , , ,,2000,2,5872a0d958ca4c00018ce4fe,001,2021-08-19_15h27.24.182,natb3,2021.2.3,Win32,59.70505702,5872a0d958ca4c00018ce4fe,611e07ecdcc96256ae8d5b80,611e6a23a866c0e045a6f244,
,,,,,,,0,179,179,18,1,X, ,2,5,8,,2500,2.5,5872a0d958ca4c00018ce4fe,001,2021-08-19_15h27.24.182,natb3,2021.2.3,Win32,59.70505702,5872a0d958ca4c00018ce4fe,611e07ecdcc96256ae8d5b80,611e6a23a866c0e045a6f244,
,,,,space,0.444,,0,180,180,231,1,I, , , , ,space,2500,2.5,5872a0d958ca4c00018ce4fe,001,2021-08-19_15h27.24.182,natb3,2021.2.3,Win32,59.70505702,5872a0d958ca4c00018ce4fe,611e07ecdcc96256ae8d5b80,611e6a23a866c0e045a6f244,
,,,,space,0.368,,0,181,181,144,1,Q, , , , ,space,2500,2.5,5872a0d958ca4c00018ce4fe,001,2021-08-19_15h27.24.182,natb3,2021.2.3,Win32,59.70505702,5872a0d958ca4c00018ce4fe,611e07ecdcc96256ae8d5b80,611e6a23a866c0e045a6f244,
,,,,,,,0,182,182,268,1,X,6, ,3, ,,2500,2.5,5872a0d958ca4c00018ce4fe,001,2021-08-19_15h27.24.182,natb3,2021.2.3,Win32,59.70505702,5872a0d958ca4c00018ce4fe,611e07ecdcc96256ae8d5b80,611e6a23a866c0e045a6f244,
,,,,space,0.2785,,0,183,183,205,1,C, , , , ,space,2000,2,5872a0d958ca4c00018ce4fe,001,2021-08-19_15h27.24.182,natb3,2021.2.3,Win32,59.70505702,5872a0d958ca4c00018ce4fe,611e07ecdcc96256ae8d5b80,611e6a23a866c0e045a6f244,
,,,,space,0.2747,,0,184,184,238,1,D, , , , ,space,1500,1.5,5872a0d958ca4c00018ce4fe,001,2021-08-19_15h27.24.182,natb3,2021.2.3,Win32,59.70505702,5872a0d958ca4c00018ce4fe,611e07ecdcc96256ae8d5b80,611e6a23a866c0e045a6f244,
,,,,space,0.1098,,0,185,185,120,1,U, , , , ,space,1500,1.5,5872a0d958ca4c00018ce4fe,001,2021-08-19_15h27.24.182,natb3,2021.2.3,Win32,59.70505702,5872a0d958ca4c00018ce4fe,611e07ecdcc96256ae8d5b80,611e6a23a866c0e045a6f244,
,,,,space,0.4354,,0,186,186,59,1,Z, , , , ,space,2000,2,5872a0d958ca4c00018ce4fe,001,2021-08-19_15h27.24.182,natb3,2021.2.3,Win32,59.70505702,5872a0d958ca4c00018ce4fe,611e07ecdcc96256ae8d5b80,611e6a23a866c0e045a6f244,
,,,,space,0.3342,,0,187,187,260,1,R, , , , ,space,2000,2,5872a0d958ca4c00018ce4fe,001,2021-08-19_15h27.24.182,natb3,2021.2.3,Win32,59.70505702,5872a0d958ca4c00018ce4fe,611e07ecdcc96256ae8d5b80,611e6a23a866c0e045a6f244,
,,,,space,0.3009,,0,188,188,203,1,X, , , , ,,2500,2.5,5872a0d958ca4c00018ce4fe,001,2021-08-19_15h27.24.182,natb3,2021.2.3,Win32,59.70505702,5872a0d958ca4c00018ce4fe,611e07ecdcc96256ae8d5b80,611e6a23a866c0e045a6f244,
,,,,space,0.5184,,0,189,189,235,1,A, , , , ,space,1500,1.5,5872a0d958ca4c00018ce4fe,001,2021-08-19_15h27.24.182,natb3,2021.2.3,Win32,59.70505702,5872a0d958ca4c00018ce4fe,611e07ecdcc96256ae8d5b80,611e6a23a866c0e045a6f244,
,,,,space,0.3505,,0,190,190,274,1,F, , , , ,space,2000,2,5872a0d958ca4c00018ce4fe,001,2021-08-19_15h27.24.182,natb3,2021.2.3,Win32,59.70505702,5872a0d958ca4c00018ce4fe,611e07ecdcc96256ae8d5b80,611e6a23a866c0e045a6f244,
,,,,space,0.4671,,0,191,191,183,1,R, , , , ,space,1500,1.5,5872a0d958ca4c00018ce4fe,001,2021-08-19_15h27.24.182,natb3,2021.2.3,Win32,59.70505702,5872a0d958ca4c00018ce4fe,611e07ecdcc96256ae8d5b80,611e6a23a866c0e045a6f244,
,,,,space,0.4678,,0,192,192,267,1,P, , , , ,space,2000,2,5872a0d958ca4c00018ce4fe,001,2021-08-19_15h27.24.182,natb3,2021.2.3,Win32,59.70505702,5872a0d958ca4c00018ce4fe,611e07ecdcc96256ae8d5b80,611e6a23a866c0e045a6f244,
,,,,space,0.5347,,0,193,193,113,1,W, , , , ,space,2500,2.5,5872a0d958ca4c00018ce4fe,001,2021-08-19_15h27.24.182,natb3,2021.2.3,Win32,59.70505702,5872a0d958ca4c00018ce4fe,611e07ecdcc96256ae8d5b80,611e6a23a866c0e045a6f244,
,,,,,,,0,194,194,179,1,X, ,9, ,2,,1500,1.5,5872a0d958ca4c00018ce4fe,001,2021-08-19_15h27.24.182,natb3,2021.2.3,Win32,59.70505702,5872a0d958ca4c00018ce4fe,611e07ecdcc96256ae8d5b80,611e6a23a866c0e045a6f244,
,,,,space,0.401,,0,195,195,10,1,O, , , , ,space,2000,2,5872a0d958ca4c00018ce4fe,001,2021-08-19_15h27.24.182,natb3,2021.2.3,Win32,59.70505702,5872a0d958ca4c00018ce4fe,611e07ecdcc96256ae8d5b80,611e6a23a866c0e045a6f244,
,,,,,,,0,196,196,182,1,X, , , , ,,1500,1.5,5872a0d958ca4c00018ce4fe,001,2021-08-19_15h27.24.182,natb3,2021.2.3,Win32,59.70505702,5872a0d958ca4c00018ce4fe,611e07ecdcc96256ae8d5b80,611e6a23a866c0e045a6f244,
,,,,,,,0,197,197,89,1,X,3, , , ,,2000,2,5872a0d958ca4c00018ce4fe,001,2021-08-19_15h27.24.182,natb3,2021.2.3,Win32,59.70505702,5872a0d958ca4c00018ce4fe,611e07ecdcc96256ae8d5b80,611e6a23a866c0e045a6f244,
,,,,space,0.385,,0,198,198,109,1,U, , , , ,space,1500,1.5,5872a0d958ca4c00018ce4fe,001,2021-08-19_15h27.24.182,natb3,2021.2.3,Win32,59.70505702,5872a0d958ca4c00018ce4fe,611e07ecdcc96256ae8d5b80,611e6a23a866c0e045a6f244,
,,,,,,,0,199,199,7,1,X, , , , ,,1500,1.5,5872a0d958ca4c00018ce4fe,001,2021-08-19_15h27.24.182,natb3,2021.2.3,Win32,59.70505702,5872a0d958ca4c00018ce4fe,611e07ecdcc96256ae8d5b80,611e6a23a866c0e045a6f244,
,,,,space,0.3835,,0,200,200,140,1,B, , , , ,space,2500,2.5,5872a0d958ca4c00018ce4fe,001,2021-08-19_15h27.24.182,natb3,2021.2.3,Win32,59.70505702,5872a0d958ca4c00018ce4fe,611e07ecdcc96256ae8d5b80,611e6a23a866c0e045a6f244,
,,,,space,0.3551,,0,201,201,137,1,C, , , , ,space,2500,2.5,5872a0d958ca4c00018ce4fe,001,2021-08-19_15h27.24.182,natb3,2021.2.3,Win32,59.70505702,5872a0d958ca4c00018ce4fe,611e07ecdcc96256ae8d5b80,611e6a23a866c0e045a6f244,
,,,,,,,0,202,202,195,1,X, , , , ,,1500,1.5,5872a0d958ca4c00018ce4fe,001,2021-08-19_15h27.24.182,natb3,2021.2.3,Win32,59.70505702,5872a0d958ca4c00018ce4fe,611e07ecdcc96256ae8d5b80,611e6a23a866c0e045a6f244,
,,,,space,0.4171,,0,203,203,81,1,S, , , , ,space,2000,2,5872a0d958ca4c00018ce4fe,001,2021-08-19_15h27.24.182,natb3,2021.2.3,Win32,59.70505702,5872a0d958ca4c00018ce4fe,611e07ecdcc96256ae8d5b80,611e6a23a866c0e045a6f244,
,,,,space,0.5003,,0,204,204,310,1,J, , , , ,space,2500,2.5,5872a0d958ca4c00018ce4fe,001,2021-08-19_15h27.24.182,natb3,2021.2.3,Win32,59.70505702,5872a0d958ca4c00018ce4fe,611e07ecdcc96256ae8d5b80,611e6a23a866c0e045a6f244,
,,,,,,,0,205,205,191,1,X,1, ,3,4,,2500,2.5,5872a0d958ca4c00018ce4fe,001,2021-08-19_15h27.24.182,natb3,2021.2.3,Win32,59.70505702,5872a0d958ca4c00018ce4fe,611e07ecdcc96256ae8d5b80,611e6a23a866c0e045a6f244,
,,,,space,0.4883,,0,206,206,262,1,Y, , , , ,space,2500,2.5,5872a0d958ca4c00018ce4fe,001,2021-08-19_15h27.24.182,natb3,2021.2.3,Win32,59.70505702,5872a0d958ca4c00018ce4fe,611e07ecdcc96256ae8d5b80,611e6a23a866c0e045a6f244,
,,,,space,0.3792,,0,207,207,97,1,B, , , , ,space,2500,2.5,5872a0d958ca4c00018ce4fe,001,2021-08-19_15h27.24.182,natb3,2021.2.3,Win32,59.70505702,5872a0d958ca4c00018ce4fe,611e07ecdcc96256ae8d5b80,611e6a23a866c0e045a6f244,
,,,,,,,0,208,208,12,1,X, , , , ,,1500,1.5,5872a0d958ca4c00018ce4fe,001,2021-08-19_15h27.24.182,natb3,2021.2.3,Win32,59.70505702,5872a0d958ca4c00018ce4fe,611e07ecdcc96256ae8d5b80,611e6a23a866c0e045a6f244,
,,,,,,,0,209,209,133,1,X, ,4, ,6,,2500,2.5,5872a0d958ca4c00018ce4fe,001,2021-08-19_15h27.24.182,natb3,2021.2.3,Win32,59.70505702,5872a0d958ca4c00018ce4fe,611e07ecdcc96256ae8d5b80,611e6a23a866c0e045a6f244,
,,,,,,,0,210,210,325,1,X, , , , ,,2500,2.5,5872a0d958ca4c00018ce4fe,001,2021-08-19_15h27.24.182,natb3,2021.2.3,Win32,59.70505702,5872a0d958ca4c00018ce4fe,611e07ecdcc96256ae8d5b80,611e6a23a866c0e045a6f244,
,,,,space,0.4924,,0,211,211,219,1,Y, , , , ,space,2000,2,5872a0d958ca4c00018ce4fe,001,2021-08-19_15h27.24.182,natb3,2021.2.3,Win32,59.70505702,5872a0d958ca4c00018ce4fe,611e07ecdcc96256ae8d5b80,611e6a23a866c0e045a6f244,
,,,,space,0.4518,,0,212,212,193,1,S, , , , ,space,2500,2.5,5872a0d958ca4c00018ce4fe,001,2021-08-19_15h27.24.182,natb3,2021.2.3,Win32,59.70505702,5872a0d958ca4c00018ce4fe,611e07ecdcc96256ae8d5b80,611e6a23a866c0e045a6f244,
,,,,space,0.485,,0,213,213,216,1,R, , , , ,space,1500,1.5,5872a0d958ca4c00018ce4fe,001,2021-08-19_15h27.24.182,natb3,2021.2.3,Win32,59.70505702,5872a0d958ca4c00018ce4fe,611e07ecdcc96256ae8d5b80,611e6a23a866c0e045a6f244,
,,,,space,0.4777,,0,214,214,225,1,E, , , , ,space,2000,2,5872a0d958ca4c00018ce4fe,001,2021-08-19_15h27.24.182,natb3,2021.2.3,Win32,59.70505702,5872a0d958ca4c00018ce4fe,611e07ecdcc96256ae8d5b80,611e6a23a866c0e045a6f244,
,,,,space,0.9344,,0,215,215,209,1,N, , , , ,space,2000,2,5872a0d958ca4c00018ce4fe,001,2021-08-19_15h27.24.182,natb3,2021.2.3,Win32,59.70505702,5872a0d958ca4c00018ce4fe,611e07ecdcc96256ae8d5b80,611e6a23a866c0e045a6f244,
,,,,,,,0,216,216,60,1,X,7,3,5, ,,1500,1.5,5872a0d958ca4c00018ce4fe,001,2021-08-19_15h27.24.182,natb3,2021.2.3,Win32,59.70505702,5872a0d958ca4c00018ce4fe,611e07ecdcc96256ae8d5b80,611e6a23a866c0e045a6f244,
,,,,space,0.4044,,0,217,217,323,1,M, , , , ,space,2500,2.5,5872a0d958ca4c00018ce4fe,001,2021-08-19_15h27.24.182,natb3,2021.2.3,Win32,59.70505702,5872a0d958ca4c00018ce4fe,611e07ecdcc96256ae8d5b80,611e6a23a866c0e045a6f244,
,,,,space,0.41,,0,218,218,67,1,Q, , , , ,space,2000,2,5872a0d958ca4c00018ce4fe,001,2021-08-19_15h27.24.182,natb3,2021.2.3,Win32,59.70505702,5872a0d958ca4c00018ce4fe,611e07ecdcc96256ae8d5b80,611e6a23a866c0e045a6f244,
,,,,space,0.0937,,0,219,219,288,1,M, , , , ,space,1500,1.5,5872a0d958ca4c00018ce4fe,001,2021-08-19_15h27.24.182,natb3,2021.2.3,Win32,59.70505702,5872a0d958ca4c00018ce4fe,611e07ecdcc96256ae8d5b80,611e6a23a866c0e045a6f244,
,,,,space,0.5112,,0,220,220,49,1,S, , , , ,space,1500,1.5,5872a0d958ca4c00018ce4fe,001,2021-08-19_15h27.24.182,natb3,2021.2.3,Win32,59.70505702,5872a0d958ca4c00018ce4fe,611e07ecdcc96256ae8d5b80,611e6a23a866c0e045a6f244,
,,,,,,,0,221,221,107,1,X,9,3, ,2,,2000,2,5872a0d958ca4c00018ce4fe,001,2021-08-19_15h27.24.182,natb3,2021.2.3,Win32,59.70505702,5872a0d958ca4c00018ce4fe,611e07ecdcc96256ae8d5b80,611e6a23a866c0e045a6f244,
,,,,space,0.3616,,0,222,222,69,1,X, , , , ,,1500,1.5,5872a0d958ca4c00018ce4fe,001,2021-08-19_15h27.24.182,natb3,2021.2.3,Win32,59.70505702,5872a0d958ca4c00018ce4fe,611e07ecdcc96256ae8d5b80,611e6a23a866c0e045a6f244,
,,,,space,0.4607,,0,223,223,131,1,G, , , , ,space,1500,1.5,5872a0d958ca4c00018ce4fe,001,2021-08-19_15h27.24.182,natb3,2021.2.3,Win32,59.70505702,5872a0d958ca4c00018ce4fe,611e07ecdcc96256ae8d5b80,611e6a23a866c0e045a6f244,
,,,,,,,0,224,224,27,1,X,5, ,1,3,,1500,1.5,5872a0d958ca4c00018ce4fe,001,2021-08-19_15h27.24.182,natb3,2021.2.3,Win32,59.70505702,5872a0d958ca4c00018ce4fe,611e07ecdcc96256ae8d5b80,611e6a23a866c0e045a6f244,
,,,,space,0.3921,,0,225,225,217,1,T, , , , ,space,2500,2.5,5872a0d958ca4c00018ce4fe,001,2021-08-19_15h27.24.182,natb3,2021.2.3,Win32,59.70505702,5872a0d958ca4c00018ce4fe,611e07ecdcc96256ae8d5b80,611e6a23a866c0e045a6f244,
,,,,,,,0,226,226,15,1,X, , , , ,,1500,1.5,5872a0d958ca4c00018ce4fe,001,2021-08-19_15h27.24.182,natb3,2021.2.3,Win32,59.70505702,5872a0d958ca4c00018ce4fe,611e07ecdcc96256ae8d5b80,611e6a23a866c0e045a6f244,
,,,,space,0.3718,,0,227,227,42,1,U, , , , ,space,1500,1.5,5872a0d958ca4c00018ce4fe,001,2021-08-19_15h27.24.182,natb3,2021.2.3,Win32,59.70505702,5872a0d958ca4c00018ce4fe,611e07ecdcc96256ae8d5b80,611e6a23a866c0e045a6f244,
,,,,space,0.3531,,0,228,228,28,1,V, , , , ,space,1500,1.5,5872a0d958ca4c00018ce4fe,001,2021-08-19_15h27.24.182,natb3,2021.2.3,Win32,59.70505702,5872a0d958ca4c00018ce4fe,611e07ecdcc96256ae8d5b80,611e6a23a866c0e045a6f244,
,,,,space,0.4167,,0,229,229,40,1,T, , , , ,space,1500,1.5,5872a0d958ca4c00018ce4fe,001,2021-08-19_15h27.24.182,natb3,2021.2.3,Win32,59.70505702,5872a0d958ca4c00018ce4fe,611e07ecdcc96256ae8d5b80,611e6a23a866c0e045a6f244,
,,,,space,0.4186,,0,230,230,3,1,R, , , , ,space,2000,2,5872a0d958ca4c00018ce4fe,001,2021-08-19_15h27.24.182,natb3,2021.2.3,Win32,59.70505702,5872a0d958ca4c00018ce4fe,611e07ecdcc96256ae8d5b80,611e6a23a866c0e045a6f244,
,,,,space,0.388,,0,231,231,52,1,F, , , , ,space,1500,1.5,5872a0d958ca4c00018ce4fe,001,2021-08-19_15h27.24.182,natb3,2021.2.3,Win32,59.70505702,5872a0d958ca4c00018ce4fe,611e07ecdcc96256ae8d5b80,611e6a23a866c0e045a6f244,
,,,,space,0.4011,,0,232,232,45,1,O, , , , ,space,2000,2,5872a0d958ca4c00018ce4fe,001,2021-08-19_15h27.24.182,natb3,2021.2.3,Win32,59.70505702,5872a0d958ca4c00018ce4fe,611e07ecdcc96256ae8d5b80,611e6a23a866c0e045a6f244,
,,,,space,0.3672,,0,233,233,330,1,T, , , , ,space,2500,2.5,5872a0d958ca4c00018ce4fe,001,2021-08-19_15h27.24.182,natb3,2021.2.3,Win32,59.70505702,5872a0d958ca4c00018ce4fe,611e07ecdcc96256ae8d5b80,611e6a23a866c0e045a6f244,
,,,,,,,0,234,234,207,1,X,9, ,2, ,,2500,2.5,5872a0d958ca4c00018ce4fe,001,2021-08-19_15h27.24.182,natb3,2021.2.3,Win32,59.70505702,5872a0d958ca4c00018ce4fe,611e07ecdcc96256ae8d5b80,611e6a23a866c0e045a6f244,
,,,,space,0.4178,,0,235,235,198,1,H, , , , ,space,2500,2.5,5872a0d958ca4c00018ce4fe,001,2021-08-19_15h27.24.182,natb3,2021.2.3,Win32,59.70505702,5872a0d958ca4c00018ce4fe,611e07ecdcc96256ae8d5b80,611e6a23a866c0e045a6f244,
,,,,space,0.4839,,0,236,236,220,1,U, , , , ,space,2500,2.5,5872a0d958ca4c00018ce4fe,001,2021-08-19_15h27.24.182,natb3,2021.2.3,Win32,59.70505702,5872a0d958ca4c00018ce4fe,611e07ecdcc96256ae8d5b80,611e6a23a866c0e045a6f244,
,,,,space,0.4843,,0,237,237,264,1,U, , , , ,space,2000,2,5872a0d958ca4c00018ce4fe,001,2021-08-19_15h27.24.182,natb3,2021.2.3,Win32,59.70505702,5872a0d958ca4c00018ce4fe,611e07ecdcc96256ae8d5b80,611e6a23a866c0e045a6f244,
,,,,,,,0,238,238,51,1,X,7,5,8, ,,1500,1.5,5872a0d958ca4c00018ce4fe,001,2021-08-19_15h27.24.182,natb3,2021.2.3,Win32,59.70505702,5872a0d958ca4c00018ce4fe,611e07ecdcc96256ae8d5b80,611e6a23a866c0e045a6f244,
,,,,space,0.3873,,0,239,239,135,1,K, , , , ,space,1500,1.5,5872a0d958ca4c00018ce4fe,001,2021-08-19_15h27.24.182,natb3,2021.2.3,Win32,59.70505702,5872a0d958ca4c00018ce4fe,611e07ecdcc96256ae8d5b80,611e6a23a866c0e045a6f244,
,,,,space,0.3449,,0,240,240,41,1,Y, , , , ,space,2500,2.5,5872a0d958ca4c00018ce4fe,001,2021-08-19_15h27.24.182,natb3,2021.2.3,Win32,59.70505702,5872a0d958ca4c00018ce4fe,611e07ecdcc96256ae8d5b80,611e6a23a866c0e045a6f244,
,,,,space,0.3721,,0,241,241,73,1,Y, , , , ,space,2000,2,5872a0d958ca4c00018ce4fe,001,2021-08-19_15h27.24.182,natb3,2021.2.3,Win32,59.70505702,5872a0d958ca4c00018ce4fe,611e07ecdcc96256ae8d5b80,611e6a23a866c0e045a6f244,
,,,,space,0.5779,,0,242,242,266,1,O, , , , ,space,1500,1.5,5872a0d958ca4c00018ce4fe,001,2021-08-19_15h27.24.182,natb3,2021.2.3,Win32,59.70505702,5872a0d958ca4c00018ce4fe,611e07ecdcc96256ae8d5b80,611e6a23a866c0e045a6f244,
,,,,space,0.5125,,0,243,243,249,1,C, , , , ,space,2000,2,5872a0d958ca4c00018ce4fe,001,2021-08-19_15h27.24.182,natb3,2021.2.3,Win32,59.70505702,5872a0d958ca4c00018ce4fe,611e07ecdcc96256ae8d5b80,611e6a23a866c0e045a6f244,
,,,,space,0.5339,,0,244,244,320,1,B, , , , ,space,1500,1.5,5872a0d958ca4c00018ce4fe,001,2021-08-19_15h27.24.182,natb3,2021.2.3,Win32,59.70505702,5872a0d958ca4c00018ce4fe,611e07ecdcc96256ae8d5b80,611e6a23a866c0e045a6f244,
,,,,space,0.4404,,0,245,245,241,1,G, , , , ,space,2500,2.5,5872a0d958ca4c00018ce4fe,001,2021-08-19_15h27.24.182,natb3,2021.2.3,Win32,59.70505702,5872a0d958ca4c00018ce4fe,611e07ecdcc96256ae8d5b80,611e6a23a866c0e045a6f244,
,,,,,,,0,246,246,153,1,X,4,7, ,6,,2000,2,5872a0d958ca4c00018ce4fe,001,2021-08-19_15h27.24.182,natb3,2021.2.3,Win32,59.70505702,5872a0d958ca4c00018ce4fe,611e07ecdcc96256ae8d5b80,611e6a23a866c0e045a6f244,
,,,,,,,0,247,247,243,1,X, , , , ,,2500,2.5,5872a0d958ca4c00018ce4fe,001,2021-08-19_15h27.24.182,natb3,2021.2.3,Win32,59.70505702,5872a0d958ca4c00018ce4fe,611e07ecdcc96256ae8d5b80,611e6a23a866c0e045a6f244,
,,,,space,0.6342,,0,248,248,20,1,H, , , , ,space,1500,1.5,5872a0d958ca4c00018ce4fe,001,2021-08-19_15h27.24.182,natb3,2021.2.3,Win32,59.70505702,5872a0d958ca4c00018ce4fe,611e07ecdcc96256ae8d5b80,611e6a23a866c0e045a6f244,
,,,,space,0.384,,0,249,249,136,1,Z, , , , ,space,2500,2.5,5872a0d958ca4c00018ce4fe,001,2021-08-19_15h27.24.182,natb3,2021.2.3,Win32,59.70505702,5872a0d958ca4c00018ce4fe,611e07ecdcc96256ae8d5b80,611e6a23a866c0e045a6f244,
,,,,space,0.5737,,0,250,250,156,1,P, , , , ,space,1500,1.5,5872a0d958ca4c00018ce4fe,001,2021-08-19_15h27.24.182,natb3,2021.2.3,Win32,59.70505702,5872a0d958ca4c00018ce4fe,611e07ecdcc96256ae8d5b80,611e6a23a866c0e045a6f244,
,,,,space,0.8071,,0,251,251,240,1,F, , , , ,space,2500,2.5,5872a0d958ca4c00018ce4fe,001,2021-08-19_15h27.24.182,natb3,2021.2.3,Win32,59.70505702,5872a0d958ca4c00018ce4fe,611e07ecdcc96256ae8d5b80,611e6a23a866c0e045a6f244,
,,,,space,0.4037,,0,252,252,200,1,X,7, ,5,3,,1500,1.5,5872a0d958ca4c00018ce4fe,001,2021-08-19_15h27.24.182,natb3,2021.2.3,Win32,59.70505702,5872a0d958ca4c00018ce4fe,611e07ecdcc96256ae8d5b80,611e6a23a866c0e045a6f244,
,,,,space,0.4742,,0,253,253,50,1,D, , , , ,space,1500,1.5,5872a0d958ca4c00018ce4fe,001,2021-08-19_15h27.24.182,natb3,2021.2.3,Win32,59.70505702,5872a0d958ca4c00018ce4fe,611e07ecdcc96256ae8d5b80,611e6a23a866c0e045a6f244,
,,,,space,0.3233,,0,254,254,105,1,R, , , , ,space,2500,2.5,5872a0d958ca4c00018ce4fe,001,2021-08-19_15h27.24.182,natb3,2021.2.3,Win32,59.70505702,5872a0d958ca4c00018ce4fe,611e07ecdcc96256ae8d5b80,611e6a23a866c0e045a6f244,
,,,,space,0.4264,,0,255,255,272,1,D, , , , ,space,2000,2,5872a0d958ca4c00018ce4fe,001,2021-08-19_15h27.24.182,natb3,2021.2.3,Win32,59.70505702,5872a0d958ca4c00018ce4fe,611e07ecdcc96256ae8d5b80,611e6a23a866c0e045a6f244,
,,,,space,0.3839,,0,256,256,300,1,O, , , , ,space,2500,2.5,5872a0d958ca4c00018ce4fe,001,2021-08-19_15h27.24.182,natb3,2021.2.3,Win32,59.70505702,5872a0d958ca4c00018ce4fe,611e07ecdcc96256ae8d5b80,611e6a23a866c0e045a6f244,
,,,,space,0.4512,,0,257,257,150,1,T, , , , ,space,2500,2.5,5872a0d958ca4c00018ce4fe,001,2021-08-19_15h27.24.182,natb3,2021.2.3,Win32,59.70505702,5872a0d958ca4c00018ce4fe,611e07ecdcc96256ae8d5b80,611e6a23a866c0e045a6f244,
,,,,,,,0,258,258,259,1,X,8, , ,3,,2500,2.5,5872a0d958ca4c00018ce4fe,001,2021-08-19_15h27.24.182,natb3,2021.2.3,Win32,59.70505702,5872a0d958ca4c00018ce4fe,611e07ecdcc96256ae8d5b80,611e6a23a866c0e045a6f244,
,,,,space,0.0339,,0,259,259,257,1,W, , , , ,space,2000,2,5872a0d958ca4c00018ce4fe,001,2021-08-19_15h27.24.182,natb3,2021.2.3,Win32,59.70505702,5872a0d958ca4c00018ce4fe,611e07ecdcc96256ae8d5b80,611e6a23a866c0e045a6f244,
,,,,,,,0,260,260,78,1,X, , , , ,,2000,2,5872a0d958ca4c00018ce4fe,001,2021-08-19_15h27.24.182,natb3,2021.2.3,Win32,59.70505702,5872a0d958ca4c00018ce4fe,611e07ecdcc96256ae8d5b80,611e6a23a866c0e045a6f244,
,,,,space,0.4176,,0,261,261,128,1,D, , , , ,space,2500,2.5,5872a0d958ca4c00018ce4fe,001,2021-08-19_15h27.24.182,natb3,2021.2.3,Win32,59.70505702,5872a0d958ca4c00018ce4fe,611e07ecdcc96256ae8d5b80,611e6a23a866c0e045a6f244,
,,,,space,0.4675,,0,262,262,184,1,T, , , , ,space,2000,2,5872a0d958ca4c00018ce4fe,001,2021-08-19_15h27.24.182,natb3,2021.2.3,Win32,59.70505702,5872a0d958ca4c00018ce4fe,611e07ecdcc96256ae8d5b80,611e6a23a866c0e045a6f244,
,,,,,,,0,263,263,168,1,X, , , , ,,2500,2.5,5872a0d958ca4c00018ce4fe,001,2021-08-19_15h27.24.182,natb3,2021.2.3,Win32,59.70505702,5872a0d958ca4c00018ce4fe,611e07ecdcc96256ae8d5b80,611e6a23a866c0e045a6f244,
,,,,space,0.5919,,0,264,264,65,1,M, , , , ,space,1500,1.5,5872a0d958ca4c00018ce4fe,001,2021-08-19_15h27.24.182,natb3,2021.2.3,Win32,59.70505702,5872a0d958ca4c00018ce4fe,611e07ecdcc96256ae8d5b80,611e6a23a866c0e045a6f244,
,,,,space,0.0344,,0,265,265,70,1,E, , , , ,space,2500,2.5,5872a0d958ca4c00018ce4fe,001,2021-08-19_15h27.24.182,natb3,2021.2.3,Win32,59.70505702,5872a0d958ca4c00018ce4fe,611e07ecdcc96256ae8d5b80,611e6a23a866c0e045a6f244,
,,,,space,0.6173,,0,266,266,292,1,E, , , , ,space,2000,2,5872a0d958ca4c00018ce4fe,001,2021-08-19_15h27.24.182,natb3,2021.2.3,Win32,59.70505702,5872a0d958ca4c00018ce4fe,611e07ecdcc96256ae8d5b80,611e6a23a866c0e045a6f244,
,,,,space,0.5095,,0,267,267,76,1,I, , , , ,space,2000,2,5872a0d958ca4c00018ce4fe,001,2021-08-19_15h27.24.182,natb3,2021.2.3,Win32,59.70505702,5872a0d958ca4c00018ce4fe,611e07ecdcc96256ae8d5b80,611e6a23a866c0e045a6f244,
,,,,space,0.0801,,0,268,268,280,1,L, , , , ,space,1500,1.5,5872a0d958ca4c00018ce4fe,001,2021-08-19_15h27.24.182,natb3,2021.2.3,Win32,59.70505702,5872a0d958ca4c00018ce4fe,611e07ecdcc96256ae8d5b80,611e6a23a866c0e045a6f244,
,,,,space,0.6006,,0,269,269,332,1,U, , , , ,space,2000,2,5872a0d958ca4c00018ce4fe,001,2021-08-19_15h27.24.182,natb3,2021.2.3,Win32,59.70505702,5872a0d958ca4c00018ce4fe,611e07ecdcc96256ae8d5b80,611e6a23a866c0e045a6f244,
,,,,,,,0,270,270,4,1,X, , , , ,,2000,2,5872a0d958ca4c00018ce4fe,001,2021-08-19_15h27.24.182,natb3,2021.2.3,Win32,59.70505702,5872a0d958ca4c00018ce4fe,611e07ecdcc96256ae8d5b80,611e6a23a866c0e045a6f244,
,,,,space,0.6239,,0,271,271,53,1,G, , , , ,space,2500,2.5,5872a0d958ca4c00018ce4fe,001,2021-08-19_15h27.24.182,natb3,2021.2.3,Win32,59.70505702,5872a0d958ca4c00018ce4fe,611e07ecdcc96256ae8d5b80,611e6a23a866c0e045a6f244,
,,,,space,0.5841,,0,272,272,286,1,N, , , , ,space,1500,1.5,5872a0d958ca4c00018ce4fe,001,2021-08-19_15h27.24.182,natb3,2021.2.3,Win32,59.70505702,5872a0d958ca4c00018ce4fe,611e07ecdcc96256ae8d5b80,611e6a23a866c0e045a6f244,
,,,,space,0.5345,,0,273,273,32,1,M, , , , ,space,1500,1.5,5872a0d958ca4c00018ce4fe,001,2021-08-19_15h27.24.182,natb3,2021.2.3,Win32,59.70505702,5872a0d958ca4c00018ce4fe,611e07ecdcc96256ae8d5b80,611e6a23a866c0e045a6f244,
,,,,space,0.5362,,0,274,274,246,1,L, , , , ,space,2500,2.5,5872a0d958ca4c00018ce4fe,001,2021-08-19_15h27.24.182,natb3,2021.2.3,Win32,59.70505702,5872a0d958ca4c00018ce4fe,611e07ecdcc96256ae8d5b80,611e6a23a866c0e045a6f244,
,,,,space,0.4883,,0,275,275,253,1,N, , , , ,space,2500,2.5,5872a0d958ca4c00018ce4fe,001,2021-08-19_15h27.24.182,natb3,2021.2.3,Win32,59.70505702,5872a0d958ca4c00018ce4fe,611e07ecdcc96256ae8d5b80,611e6a23a866c0e045a6f244,
,,,,space,0.5682,,0,276,276,328,1,R, , , , ,space,1500,1.5,5872a0d958ca4c00018ce4fe,001,2021-08-19_15h27.24.182,natb3,2021.2.3,Win32,59.70505702,5872a0d958ca4c00018ce4fe,611e07ecdcc96256ae8d5b80,611e6a23a866c0e045a6f244,
,,,,space,0.6243,,0,277,277,169,1,L, , , , ,space,2500,2.5,5872a0d958ca4c00018ce4fe,001,2021-08-19_15h27.24.182,natb3,2021.2.3,Win32,59.70505702,5872a0d958ca4c00018ce4fe,611e07ecdcc96256ae8d5b80,611e6a23a866c0e045a6f244,
,,,,space,0.4966,,0,278,278,176,1,N, , , , ,space,1500,1.5,5872a0d958ca4c00018ce4fe,001,2021-08-19_15h27.24.182,natb3,2021.2.3,Win32,59.70505702,5872a0d958ca4c00018ce4fe,611e07ecdcc96256ae8d5b80,611e6a23a866c0e045a6f244,
,,,,space,0.4513,,0,279,279,21,1,J, , , , ,space,1500,1.5,5872a0d958ca4c00018ce4fe,001,2021-08-19_15h27.24.182,natb3,2021.2.3,Win32,59.70505702,5872a0d958ca4c00018ce4fe,611e07ecdcc96256ae8d5b80,611e6a23a866c0e045a6f244,
,,,,space,0.4843,,0,280,280,117,1,T, , , , ,space,2500,2.5,5872a0d958ca4c00018ce4fe,001,2021-08-19_15h27.24.182,natb3,2021.2.3,Win32,59.70505702,5872a0d958ca4c00018ce4fe,611e07ecdcc96256ae8d5b80,611e6a23a866c0e045a6f244,
,,,,,,,0,281,281,90,1,K, , , , ,space,2000,2,5872a0d958ca4c00018ce4fe,001,2021-08-19_15h27.24.182,natb3,2021.2.3,Win32,59.70505702,5872a0d958ca4c00018ce4fe,611e07ecdcc96256ae8d5b80,611e6a23a866c0e045a6f244,
,,,,space,0.5094,,0,282,282,221,1,I, , , , ,space,2500,2.5,5872a0d958ca4c00018ce4fe,001,2021-08-19_15h27.24.182,natb3,2021.2.3,Win32,59.70505702,5872a0d958ca4c00018ce4fe,611e07ecdcc96256ae8d5b80,611e6a23a866c0e045a6f244,
,,,,,,,0,283,283,215,1,E, , , , ,space,2500,2.5,5872a0d958ca4c00018ce4fe,001,2021-08-19_15h27.24.182,natb3,2021.2.3,Win32,59.70505702,5872a0d958ca4c00018ce4fe,611e07ecdcc96256ae8d5b80,611e6a23a866c0e045a6f244,
,,,,,,,0,284,284,239,1,X, , , , ,,2000,2,5872a0d958ca4c00018ce4fe,001,2021-08-19_15h27.24.182,natb3,2021.2.3,Win32,59.70505702,5872a0d958ca4c00018ce4fe,611e07ecdcc96256ae8d5b80,611e6a23a866c0e045a6f244,
,,,,,,,0,285,285,58,1,L, , , , ,space,2000,2,5872a0d958ca4c00018ce4fe,001,2021-08-19_15h27.24.182,natb3,2021.2.3,Win32,59.70505702,5872a0d958ca4c00018ce4fe,611e07ecdcc96256ae8d5b80,611e6a23a866c0e045a6f244,
,,,,,,,0,286,286,145,1,X, , , , ,,2000,2,5872a0d958ca4c00018ce4fe,001,2021-08-19_15h27.24.182,natb3,2021.2.3,Win32,59.70505702,5872a0d958ca4c00018ce4fe,611e07ecdcc96256ae8d5b80,611e6a23a866c0e045a6f244,
,,,,,,,0,287,287,122,1,X,1, , ,8,,1500,1.5,5872a0d958ca4c00018ce4fe,001,2021-08-19_15h27.24.182,natb3,2021.2.3,Win32,59.70505702,5872a0d958ca4c00018ce4fe,611e07ecdcc96256ae8d5b80,611e6a23a866c0e045a6f244,
,,,,space,0.5105,,0,288,288,11,1,P, , , , ,space,2500,2.5,5872a0d958ca4c00018ce4fe,001,2021-08-19_15h27.24.182,natb3,2021.2.3,Win32,59.70505702,5872a0d958ca4c00018ce4fe,611e07ecdcc96256ae8d5b80,611e6a23a866c0e045a6f244,
,,,,,,,0,289,289,335,1,P,,,,,space,1500,1.5,5872a0d958ca4c00018ce4fe,001,2021-08-19_15h27.24.182,natb3,2021.2.3,Win32,59.70505702,5872a0d958ca4c00018ce4fe,611e07ecdcc96256ae8d5b80,611e6a23a866c0e045a6f244,
,,,,space,0.4479,,0,290,290,104,1,E, , , , ,space,2000,2,5872a0d958ca4c00018ce4fe,001,2021-08-19_15h27.24.182,natb3,2021.2.3,Win32,59.70505702,5872a0d958ca4c00018ce4fe,611e07ecdcc96256ae8d5b80,611e6a23a866c0e045a6f244,
,,,,space,0.5162,,0,291,291,62,1,V, , , , ,space,1500,1.5,5872a0d958ca4c00018ce4fe,001,2021-08-19_15h27.24.182,natb3,2021.2.3,Win32,59.70505702,5872a0d958ca4c00018ce4fe,611e07ecdcc96256ae8d5b80,611e6a23a866c0e045a6f244,
,,,,,,,0,292,292,322,1,X, , ,1,6,,2000,2,5872a0d958ca4c00018ce4fe,001,2021-08-19_15h27.24.182,natb3,2021.2.3,Win32,59.70505702,5872a0d958ca4c00018ce4fe,611e07ecdcc96256ae8d5b80,611e6a23a866c0e045a6f244,
,,,,space,0.3575,,0,293,293,119,1,Y, , , , ,space,2500,2.5,5872a0d958ca4c00018ce4fe,001,2021-08-19_15h27.24.182,natb3,2021.2.3,Win32,59.70505702,5872a0d958ca4c00018ce4fe,611e07ecdcc96256ae8d5b80,611e6a23a866c0e045a6f244,
,,,,space,0.4635,,0,294,294,321,1,N, , , , ,space,2000,2,5872a0d958ca4c00018ce4fe,001,2021-08-19_15h27.24.182,natb3,2021.2.3,Win32,59.70505702,5872a0d958ca4c00018ce4fe,611e07ecdcc96256ae8d5b80,611e6a23a866c0e045a6f244,
,,,,space,0.3028,,0,295,295,245,1,K, , , , ,space,2000,2,5872a0d958ca4c00018ce4fe,001,2021-08-19_15h27.24.182,natb3,2021.2.3,Win32,59.70505702,5872a0d958ca4c00018ce4fe,611e07ecdcc96256ae8d5b80,611e6a23a866c0e045a6f244,
,,,,space,0.5138,,0,296,296,289,1,Q, , , , ,space,2000,2,5872a0d958ca4c00018ce4fe,001,2021-08-19_15h27.24.182,natb3,2021.2.3,Win32,59.70505702,5872a0d958ca4c00018ce4fe,611e07ecdcc96256ae8d5b80,611e6a23a866c0e045a6f244,
,,,,,,,0,297,297,311,1,X,1,2,7,3,,2500,2.5,5872a0d958ca4c00018ce4fe,001,2021-08-19_15h27.24.182,natb3,2021.2.3,Win32,59.70505702,5872a0d958ca4c00018ce4fe,611e07ecdcc96256ae8d5b80,611e6a23a866c0e045a6f244,
,,,,,,,0,298,298,125,1,X, , , , ,,2000,2,5872a0d958ca4c00018ce4fe,001,2021-08-19_15h27.24.182,natb3,2021.2.3,Win32,59.70505702,5872a0d958ca4c00018ce4fe,611e07ecdcc96256ae8d5b80,611e6a23a866c0e045a6f244,
,,,,,,,0,299,299,166,1,X, , , , ,,2000,2,5872a0d958ca4c00018ce4fe,001,2021-08-19_15h27.24.182,natb3,2021.2.3,Win32,59.70505702,5872a0d958ca4c00018ce4fe,611e07ecdcc96256ae8d5b80,611e6a23a866c0e045a6f244,
,,,,space,0.502,,0,300,300,309,1,H, , , , ,space,2500,2.5,5872a0d958ca4c00018ce4fe,001,2021-08-19_15h27.24.182,natb3,2021.2.3,Win32,59.70505702,5872a0d958ca4c00018ce4fe,611e07ecdcc96256ae8d5b80,611e6a23a866c0e045a6f244,
,,,,space,0.5024,,0,301,301,334,1,O, , , , ,space,1500,1.5,5872a0d958ca4c00018ce4fe,001,2021-08-19_15h27.24.182,natb3,2021.2.3,Win32,59.70505702,5872a0d958ca4c00018ce4fe,611e07ecdcc96256ae8d5b80,611e6a23a866c0e045a6f244,
,,,,space,0.4296,,0,302,302,178,1,Q, , , , ,space,1500,1.5,5872a0d958ca4c00018ce4fe,001,2021-08-19_15h27.24.182,natb3,2021.2.3,Win32,59.70505702,5872a0d958ca4c00018ce4fe,611e07ecdcc96256ae8d5b80,611e6a23a866c0e045a6f244,
,,,,,,,0,303,303,84,1,X, , , , ,,2000,2,5872a0d958ca4c00018ce4fe,001,2021-08-19_15h27.24.182,natb3,2021.2.3,Win32,59.70505702,5872a0d958ca4c00018ce4fe,611e07ecdcc96256ae8d5b80,611e6a23a866c0e045a6f244,
,,,,space,0.5013,,0,304,304,222,1,O, , , , ,space,2000,2,5872a0d958ca4c00018ce4fe,001,2021-08-19_15h27.24.182,natb3,2021.2.3,Win32,59.70505702,5872a0d958ca4c00018ce4fe,611e07ecdcc96256ae8d5b80,611e6a23a866c0e045a6f244,
,,,,space,0.5174,,0,305,305,124,1,P, , , , ,space,2000,2,5872a0d958ca4c00018ce4fe,001,2021-08-19_15h27.24.182,natb3,2021.2.3,Win32,59.70505702,5872a0d958ca4c00018ce4fe,611e07ecdcc96256ae8d5b80,611e6a23a866c0e045a6f244,
,,,,space,0.5881,,0,306,306,72,1,T, , , , ,space,1500,1.5,5872a0d958ca4c00018ce4fe,001,2021-08-19_15h27.24.182,natb3,2021.2.3,Win32,59.70505702,5872a0d958ca4c00018ce4fe,611e07ecdcc96256ae8d5b80,611e6a23a866c0e045a6f244,
,,,,space,0.5215,,0,307,307,331,1,Y, , , , ,space,2500,2.5,5872a0d958ca4c00018ce4fe,001,2021-08-19_15h27.24.182,natb3,2021.2.3,Win32,59.70505702,5872a0d958ca4c00018ce4fe,611e07ecdcc96256ae8d5b80,611e6a23a866c0e045a6f244,
,,,,space,0.5319,,0,308,308,226,1,R, , , , ,space,2000,2,5872a0d958ca4c00018ce4fe,001,2021-08-19_15h27.24.182,natb3,2021.2.3,Win32,59.70505702,5872a0d958ca4c00018ce4fe,611e07ecdcc96256ae8d5b80,611e6a23a866c0e045a6f244,
,,,,space,0.398,,0,309,309,114,1,E, , , , ,space,2000,2,5872a0d958ca4c00018ce4fe,001,2021-08-19_15h27.24.182,natb3,2021.2.3,Win32,59.70505702,5872a0d958ca4c00018ce4fe,611e07ecdcc96256ae8d5b80,611e6a23a866c0e045a6f244,
,,,,space,0.6154,,0,310,310,275,1,G, , , , ,space,1500,1.5,5872a0d958ca4c00018ce4fe,001,2021-08-19_15h27.24.182,natb3,2021.2.3,Win32,59.70505702,5872a0d958ca4c00018ce4fe,611e07ecdcc96256ae8d5b80,611e6a23a866c0e045a6f244,
,,,,,,,0,311,311,56,1,J, , , , ,space,1500,1.5,5872a0d958ca4c00018ce4fe,001,2021-08-19_15h27.24.182,natb3,2021.2.3,Win32,59.70505702,5872a0d958ca4c00018ce4fe,611e07ecdcc96256ae8d5b80,611e6a23a866c0e045a6f244,
,,,,space,0.3736,,0,312,312,315,1,X, , , , ,,2500,2.5,5872a0d958ca4c00018ce4fe,001,2021-08-19_15h27.24.182,natb3,2021.2.3,Win32,59.70505702,5872a0d958ca4c00018ce4fe,611e07ecdcc96256ae8d5b80,611e6a23a866c0e045a6f244,
,,,,,,,0,313,313,287,1,X, ,2, ,9,,2000,2,5872a0d958ca4c00018ce4fe,001,2021-08-19_15h27.24.182,natb3,2021.2.3,Win32,59.70505702,5872a0d958ca4c00018ce4fe,611e07ecdcc96256ae8d5b80,611e6a23a866c0e045a6f244,
,,,,space,0.3481,,0,314,314,214,1,W, , , , ,space,2000,2,5872a0d958ca4c00018ce4fe,001,2021-08-19_15h27.24.182,natb3,2021.2.3,Win32,59.70505702,5872a0d958ca4c00018ce4fe,611e07ecdcc96256ae8d5b80,611e6a23a866c0e045a6f244,
,,,,space,0.3926,,0,315,315,34,1,Q, , , , ,space,2500,2.5,5872a0d958ca4c00018ce4fe,001,2021-08-19_15h27.24.182,natb3,2021.2.3,Win32,59.70505702,5872a0d958ca4c00018ce4fe,611e07ecdcc96256ae8d5b80,611e6a23a866c0e045a6f244,
,,,,,,,0,316,316,98,1,X, , , , ,,2500,2.5,5872a0d958ca4c00018ce4fe,001,2021-08-19_15h27.24.182,natb3,2021.2.3,Win32,59.70505702,5872a0d958ca4c00018ce4fe,611e07ecdcc96256ae8d5b80,611e6a23a866c0e045a6f244,
,,,,space,0.5944,,0,317,317,54,1,X, , , , ,,2000,2,5872a0d958ca4c00018ce4fe,001,2021-08-19_15h27.24.182,natb3,2021.2.3,Win32,59.70505702,5872a0d958ca4c00018ce4fe,611e07ecdcc96256ae8d5b80,611e6a23a866c0e045a6f244,
,,,,,,,0,318,318,116,1,X, , , , ,,2000,2,5872a0d958ca4c00018ce4fe,001,2021-08-19_15h27.24.182,natb3,2021.2.3,Win32,59.70505702,5872a0d958ca4c00018ce4fe,611e07ecdcc96256ae8d5b80,611e6a23a866c0e045a6f244,
,,,,space,0.4082,,0,319,319,91,1,L, , , , ,space,2000,2,5872a0d958ca4c00018ce4fe,001,2021-08-19_15h27.24.182,natb3,2021.2.3,Win32,59.70505702,5872a0d958ca4c00018ce4fe,611e07ecdcc96256ae8d5b80,611e6a23a866c0e045a6f244,
,,,,space,0.4524,,0,320,320,324,1,Q, , , , ,space,2000,2,5872a0d958ca4c00018ce4fe,001,2021-08-19_15h27.24.182,natb3,2021.2.3,Win32,59.70505702,5872a0d958ca4c00018ce4fe,611e07ecdcc96256ae8d5b80,611e6a23a866c0e045a6f244,
,,,,,,,0,321,321,189,1,O, , , , ,space,1500,1.5,5872a0d958ca4c00018ce4fe,001,2021-08-19_15h27.24.182,natb3,2021.2.3,Win32,59.70505702,5872a0d958ca4c00018ce4fe,611e07ecdcc96256ae8d5b80,611e6a23a866c0e045a6f244,
,,,,space,0.4033,,0,322,322,181,1,E, , , , ,space,1500,1.5,5872a0d958ca4c00018ce4fe,001,2021-08-19_15h27.24.182,natb3,2021.2.3,Win32,59.70505702,5872a0d958ca4c00018ce4fe,611e07ecdcc96256ae8d5b80,611e6a23a866c0e045a6f244,
,,,,space,0.354,,0,323,323,204,1,Z, , , , ,space,2000,2,5872a0d958ca4c00018ce4fe,001,2021-08-19_15h27.24.182,natb3,2021.2.3,Win32,59.70505702,5872a0d958ca4c00018ce4fe,611e07ecdcc96256ae8d5b80,611e6a23a866c0e045a6f244,
,,,,space,0.3297,,0,324,324,31,1,X, , , , ,,1500,1.5,5872a0d958ca4c00018ce4fe,001,2021-08-19_15h27.24.182,natb3,2021.2.3,Win32,59.70505702,5872a0d958ca4c00018ce4fe,611e07ecdcc96256ae8d5b80,611e6a23a866c0e045a6f244,
,,,,space,0.3529,,0,325,325,327,1,E, , , , ,space,1500,1.5,5872a0d958ca4c00018ce4fe,001,2021-08-19_15h27.24.182,natb3,2021.2.3,Win32,59.70505702,5872a0d958ca4c00018ce4fe,611e07ecdcc96256ae8d5b80,611e6a23a866c0e045a6f244,
,,,,space,0.3572,,0,326,326,152,1,U, , , , ,space,2000,2,5872a0d958ca4c00018ce4fe,001,2021-08-19_15h27.24.182,natb3,2021.2.3,Win32,59.70505702,5872a0d958ca4c00018ce4fe,611e07ecdcc96256ae8d5b80,611e6a23a866c0e045a6f244,
,,,,space,0.424,,0,327,327,126,1,A, , , , ,space,2500,2.5,5872a0d958ca4c00018ce4fe,001,2021-08-19_15h27.24.182,natb3,2021.2.3,Win32,59.70505702,5872a0d958ca4c00018ce4fe,611e07ecdcc96256ae8d5b80,611e6a23a866c0e045a6f244,
,,,,space,0.5828,,0,328,328,64,1,N, , , , ,space,2000,2,5872a0d958ca4c00018ce4fe,001,2021-08-19_15h27.24.182,natb3,2021.2.3,Win32,59.70505702,5872a0d958ca4c00018ce4fe,611e07ecdcc96256ae8d5b80,611e6a23a866c0e045a6f244,
,,,,,,,0,329,329,277,1,X,8,5, ,2,,2000,2,5872a0d958ca4c00018ce4fe,001,2021-08-19_15h27.24.182,natb3,2021.2.3,Win32,59.70505702,5872a0d958ca4c00018ce4fe,611e07ecdcc96256ae8d5b80,611e6a23a866c0e045a6f244,
,,,,space,0.3506,,0,330,330,306,1,D, , , , ,space,2000,2,5872a0d958ca4c00018ce4fe,001,2021-08-19_15h27.24.182,natb3,2021.2.3,Win32,59.70505702,5872a0d958ca4c00018ce4fe,611e07ecdcc96256ae8d5b80,611e6a23a866c0e045a6f244,
,,,,space,0.3458,,0,331,331,37,1,E, , , , ,space,2500,2.5,5872a0d958ca4c00018ce4fe,001,2021-08-19_15h27.24.182,natb3,2021.2.3,Win32,59.70505702,5872a0d958ca4c00018ce4fe,611e07ecdcc96256ae8d5b80,611e6a23a866c0e045a6f244,
,,,,,,,0,332,332,273,1,X, , , , ,,2000,2,5872a0d958ca4c00018ce4fe,001,2021-08-19_15h27.24.182,natb3,2021.2.3,Win32,59.70505702,5872a0d958ca4c00018ce4fe,611e07ecdcc96256ae8d5b80,611e6a23a866c0e045a6f244,
,,,,space,0.2868,,0,333,333,33,1,X, , , , ,,1500,1.5,5872a0d958ca4c00018ce4fe,001,2021-08-19_15h27.24.182,natb3,2021.2.3,Win32,59.70505702,5872a0d958ca4c00018ce4fe,611e07ecdcc96256ae8d5b80,611e6a23a866c0e045a6f244,
,,,,space,0.2263,,0,334,334,329,1,X,3,4, ,2,,2500,2.5,5872a0d958ca4c00018ce4fe,001,2021-08-19_15h27.24.182,natb3,2021.2.3,Win32,59.70505702,5872a0d958ca4c00018ce4fe,611e07ecdcc96256ae8d5b80,611e6a23a866c0e045a6f244,
,,,,,,,0,335,335,82,1,X,4,6,1,7,,2000,2,5872a0d958ca4c00018ce4fe,001,2021-08-19_15h27.24.182,natb3,2021.2.3,Win32,59.70505702,5872a0d958ca4c00018ce4fe,611e07ecdcc96256ae8d5b80,611e6a23a866c0e045a6f244,
