key_resp_2.keys,key_resp_2.rt,key_resp_3.keys,key_resp_3.rt,key_resp.keys,key_resp_4.keys,trials.thisRepN,trials.thisTrialN,trials.thisN,trials.thisIndex,trials.ran,stimulus,distractor1,distractor2,distractor3,distractor4,CorrAns,isi_duration,isi_dur_in_seconds,participant,session,date,expName,psychopyVersion,OS,frameRate,PROLIFIC_PID,STUDY_ID,SESSION_ID,key_resp.rt,key_resp_4.rt
return,17.0262,space,8.6336,,,0,0,0,122,1,X,1, , ,8,,1500,1.5,58f3b92052ac63000154a9ff,001,2021-08-19_16h00.46.594,natb3,2021.2.3,Win32,60.13590715,58f3b92052ac63000154a9ff,611e07ecdcc96256ae8d5b80,611e720299336d0627fa34a3,,
,,,,space,,0,1,1,306,1,D, , , , ,space,2000,2,58f3b92052ac63000154a9ff,001,2021-08-19_16h00.46.594,natb3,2021.2.3,Win32,60.13590715,58f3b92052ac63000154a9ff,611e07ecdcc96256ae8d5b80,611e720299336d0627fa34a3,0.4452,
,,,,space,,0,2,2,292,1,E, , , , ,space,2000,2,58f3b92052ac63000154a9ff,001,2021-08-19_16h00.46.594,natb3,2021.2.3,Win32,60.13590715,58f3b92052ac63000154a9ff,611e07ecdcc96256ae8d5b80,611e720299336d0627fa34a3,0.3506,
,,,,space,,0,3,3,215,1,E, , , , ,space,2500,2.5,58f3b92052ac63000154a9ff,001,2021-08-19_16h00.46.594,natb3,2021.2.3,Win32,60.13590715,58f3b92052ac63000154a9ff,611e07ecdcc96256ae8d5b80,611e720299336d0627fa34a3,0.3519,
,,,,space,,0,4,4,281,1,Z, , , , ,space,1500,1.5,58f3b92052ac63000154a9ff,001,2021-08-19_16h00.46.594,natb3,2021.2.3,Win32,60.13590715,58f3b92052ac63000154a9ff,611e07ecdcc96256ae8d5b80,611e720299336d0627fa34a3,0.3936,
,,,,,,0,5,5,27,1,X,5, ,1,3,,1500,1.5,58f3b92052ac63000154a9ff,001,2021-08-19_16h00.46.594,natb3,2021.2.3,Win32,60.13590715,58f3b92052ac63000154a9ff,611e07ecdcc96256ae8d5b80,611e720299336d0627fa34a3,,
,,,,,,0,6,6,125,1,X, , , , ,,2000,2,58f3b92052ac63000154a9ff,001,2021-08-19_16h00.46.594,natb3,2021.2.3,Win32,60.13590715,58f3b92052ac63000154a9ff,611e07ecdcc96256ae8d5b80,611e720299336d0627fa34a3,,
,,,,space,,0,7,7,115,1,R, , , , ,space,1500,1.5,58f3b92052ac63000154a9ff,001,2021-08-19_16h00.46.594,natb3,2021.2.3,Win32,60.13590715,58f3b92052ac63000154a9ff,611e07ecdcc96256ae8d5b80,611e720299336d0627fa34a3,0.351,
,,,,space,,0,8,8,219,1,Y, , , , ,space,2000,2,58f3b92052ac63000154a9ff,001,2021-08-19_16h00.46.594,natb3,2021.2.3,Win32,60.13590715,58f3b92052ac63000154a9ff,611e07ecdcc96256ae8d5b80,611e720299336d0627fa34a3,0.3134,
,,,,space,,0,9,9,21,1,J, , , , ,space,1500,1.5,58f3b92052ac63000154a9ff,001,2021-08-19_16h00.46.594,natb3,2021.2.3,Win32,60.13590715,58f3b92052ac63000154a9ff,611e07ecdcc96256ae8d5b80,611e720299336d0627fa34a3,0.3276,
,,,,space,,0,10,10,70,1,E, , , , ,space,2500,2.5,58f3b92052ac63000154a9ff,001,2021-08-19_16h00.46.594,natb3,2021.2.3,Win32,60.13590715,58f3b92052ac63000154a9ff,611e07ecdcc96256ae8d5b80,611e720299336d0627fa34a3,0.3452,
,,,,space,,0,11,11,297,1,U, , , , ,space,2000,2,58f3b92052ac63000154a9ff,001,2021-08-19_16h00.46.594,natb3,2021.2.3,Win32,60.13590715,58f3b92052ac63000154a9ff,611e07ecdcc96256ae8d5b80,611e720299336d0627fa34a3,0.3762,
,,,,space,,0,12,12,228,1,Y, , , , ,space,2000,2,58f3b92052ac63000154a9ff,001,2021-08-19_16h00.46.594,natb3,2021.2.3,Win32,60.13590715,58f3b92052ac63000154a9ff,611e07ecdcc96256ae8d5b80,611e720299336d0627fa34a3,0.3784,
,,,,space,,0,13,13,227,1,T, , , , ,space,1500,1.5,58f3b92052ac63000154a9ff,001,2021-08-19_16h00.46.594,natb3,2021.2.3,Win32,60.13590715,58f3b92052ac63000154a9ff,611e07ecdcc96256ae8d5b80,611e720299336d0627fa34a3,0.3953,
,,,,space,,0,14,14,289,1,Q, , , , ,space,2000,2,58f3b92052ac63000154a9ff,001,2021-08-19_16h00.46.594,natb3,2021.2.3,Win32,60.13590715,58f3b92052ac63000154a9ff,611e07ecdcc96256ae8d5b80,611e720299336d0627fa34a3,0.375,
,,,,space,,0,15,15,106,1,T, , , , ,space,1500,1.5,58f3b92052ac63000154a9ff,001,2021-08-19_16h00.46.594,natb3,2021.2.3,Win32,60.13590715,58f3b92052ac63000154a9ff,611e07ecdcc96256ae8d5b80,611e720299336d0627fa34a3,0.3388,
,,,,,,0,16,16,148,1,X, , , , ,,2000,2,58f3b92052ac63000154a9ff,001,2021-08-19_16h00.46.594,natb3,2021.2.3,Win32,60.13590715,58f3b92052ac63000154a9ff,611e07ecdcc96256ae8d5b80,611e720299336d0627fa34a3,,
,,,,space,,0,17,17,156,1,P, , , , ,space,1500,1.5,58f3b92052ac63000154a9ff,001,2021-08-19_16h00.46.594,natb3,2021.2.3,Win32,60.13590715,58f3b92052ac63000154a9ff,611e07ecdcc96256ae8d5b80,611e720299336d0627fa34a3,0.3757,
,,,,space,,0,18,18,172,1,C, , , , ,space,1500,1.5,58f3b92052ac63000154a9ff,001,2021-08-19_16h00.46.594,natb3,2021.2.3,Win32,60.13590715,58f3b92052ac63000154a9ff,611e07ecdcc96256ae8d5b80,611e720299336d0627fa34a3,0.4069,
,,,,space,,0,19,19,16,1,D, , , , ,space,1500,1.5,58f3b92052ac63000154a9ff,001,2021-08-19_16h00.46.594,natb3,2021.2.3,Win32,60.13590715,58f3b92052ac63000154a9ff,611e07ecdcc96256ae8d5b80,611e720299336d0627fa34a3,0.3614,
,,,,space,,0,20,20,225,1,E, , , , ,space,2000,2,58f3b92052ac63000154a9ff,001,2021-08-19_16h00.46.594,natb3,2021.2.3,Win32,60.13590715,58f3b92052ac63000154a9ff,611e07ecdcc96256ae8d5b80,611e720299336d0627fa34a3,0.3571,
,,,,space,,0,21,21,146,1,W, , , , ,space,1500,1.5,58f3b92052ac63000154a9ff,001,2021-08-19_16h00.46.594,natb3,2021.2.3,Win32,60.13590715,58f3b92052ac63000154a9ff,611e07ecdcc96256ae8d5b80,611e720299336d0627fa34a3,0.4309,
,,,,space,,0,22,22,147,1,E, , , , ,space,2000,2,58f3b92052ac63000154a9ff,001,2021-08-19_16h00.46.594,natb3,2021.2.3,Win32,60.13590715,58f3b92052ac63000154a9ff,611e07ecdcc96256ae8d5b80,611e720299336d0627fa34a3,0.4019,
,,,,,,0,23,23,12,1,X, , , , ,,1500,1.5,58f3b92052ac63000154a9ff,001,2021-08-19_16h00.46.594,natb3,2021.2.3,Win32,60.13590715,58f3b92052ac63000154a9ff,611e07ecdcc96256ae8d5b80,611e720299336d0627fa34a3,,
,,,,space,,0,24,24,165,1,J, , , , ,space,2500,2.5,58f3b92052ac63000154a9ff,001,2021-08-19_16h00.46.594,natb3,2021.2.3,Win32,60.13590715,58f3b92052ac63000154a9ff,611e07ecdcc96256ae8d5b80,611e720299336d0627fa34a3,0.4167,
,,,,space,,0,25,25,59,1,Z, , , , ,space,2000,2,58f3b92052ac63000154a9ff,001,2021-08-19_16h00.46.594,natb3,2021.2.3,Win32,60.13590715,58f3b92052ac63000154a9ff,611e07ecdcc96256ae8d5b80,611e720299336d0627fa34a3,0.3463,
,,,,space,,0,26,26,196,1,F, , , , ,space,1500,1.5,58f3b92052ac63000154a9ff,001,2021-08-19_16h00.46.594,natb3,2021.2.3,Win32,60.13590715,58f3b92052ac63000154a9ff,611e07ecdcc96256ae8d5b80,611e720299336d0627fa34a3,0.3508,
,,,,space,,0,27,27,52,1,F, , , , ,space,1500,1.5,58f3b92052ac63000154a9ff,001,2021-08-19_16h00.46.594,natb3,2021.2.3,Win32,60.13590715,58f3b92052ac63000154a9ff,611e07ecdcc96256ae8d5b80,611e720299336d0627fa34a3,0.3273,
,,,,space,,0,28,28,22,1,K, , , , ,space,2000,2,58f3b92052ac63000154a9ff,001,2021-08-19_16h00.46.594,natb3,2021.2.3,Win32,60.13590715,58f3b92052ac63000154a9ff,611e07ecdcc96256ae8d5b80,611e720299336d0627fa34a3,0.2978,
,,,,space,,0,29,29,108,1,Y, , , , ,space,2500,2.5,58f3b92052ac63000154a9ff,001,2021-08-19_16h00.46.594,natb3,2021.2.3,Win32,60.13590715,58f3b92052ac63000154a9ff,611e07ecdcc96256ae8d5b80,611e720299336d0627fa34a3,0.3512,
,,,,space,,0,30,30,255,1,X, , , , ,,1500,1.5,58f3b92052ac63000154a9ff,001,2021-08-19_16h00.46.594,natb3,2021.2.3,Win32,60.13590715,58f3b92052ac63000154a9ff,611e07ecdcc96256ae8d5b80,611e720299336d0627fa34a3,0.3284,
,,,,space,,0,31,31,24,1,L, , , , ,space,2500,2.5,58f3b92052ac63000154a9ff,001,2021-08-19_16h00.46.594,natb3,2021.2.3,Win32,60.13590715,58f3b92052ac63000154a9ff,611e07ecdcc96256ae8d5b80,611e720299336d0627fa34a3,0.3819,
,,,,space,,0,32,32,185,1,Y, , , , ,space,2500,2.5,58f3b92052ac63000154a9ff,001,2021-08-19_16h00.46.594,natb3,2021.2.3,Win32,60.13590715,58f3b92052ac63000154a9ff,611e07ecdcc96256ae8d5b80,611e720299336d0627fa34a3,0.47,
,,,,space,,0,33,33,45,1,O, , , , ,space,2000,2,58f3b92052ac63000154a9ff,001,2021-08-19_16h00.46.594,natb3,2021.2.3,Win32,60.13590715,58f3b92052ac63000154a9ff,611e07ecdcc96256ae8d5b80,611e720299336d0627fa34a3,0.3413,
,,,,,,0,34,34,60,1,X,7,3,5, ,,1500,1.5,58f3b92052ac63000154a9ff,001,2021-08-19_16h00.46.594,natb3,2021.2.3,Win32,60.13590715,58f3b92052ac63000154a9ff,611e07ecdcc96256ae8d5b80,611e720299336d0627fa34a3,,
,,,,space,,0,35,35,309,1,H, , , , ,space,2500,2.5,58f3b92052ac63000154a9ff,001,2021-08-19_16h00.46.594,natb3,2021.2.3,Win32,60.13590715,58f3b92052ac63000154a9ff,611e07ecdcc96256ae8d5b80,611e720299336d0627fa34a3,0.3342,
,,,,space,,0,36,36,17,1,F, , , , ,space,2500,2.5,58f3b92052ac63000154a9ff,001,2021-08-19_16h00.46.594,natb3,2021.2.3,Win32,60.13590715,58f3b92052ac63000154a9ff,611e07ecdcc96256ae8d5b80,611e720299336d0627fa34a3,0.398,
,,,,space,,0,37,37,335,1,P,,,,,space,1500,1.5,58f3b92052ac63000154a9ff,001,2021-08-19_16h00.46.594,natb3,2021.2.3,Win32,60.13590715,58f3b92052ac63000154a9ff,611e07ecdcc96256ae8d5b80,611e720299336d0627fa34a3,0.616,
,,,,space,,0,38,38,307,1,F, , , , ,space,2500,2.5,58f3b92052ac63000154a9ff,001,2021-08-19_16h00.46.594,natb3,2021.2.3,Win32,60.13590715,58f3b92052ac63000154a9ff,611e07ecdcc96256ae8d5b80,611e720299336d0627fa34a3,0.3665,
,,,,space,,0,39,39,270,1,S, , , , ,space,1500,1.5,58f3b92052ac63000154a9ff,001,2021-08-19_16h00.46.594,natb3,2021.2.3,Win32,60.13590715,58f3b92052ac63000154a9ff,611e07ecdcc96256ae8d5b80,611e720299336d0627fa34a3,0.4838,
,,,,space,,0,40,40,63,1,B, , , , ,space,2000,2,58f3b92052ac63000154a9ff,001,2021-08-19_16h00.46.594,natb3,2021.2.3,Win32,60.13590715,58f3b92052ac63000154a9ff,611e07ecdcc96256ae8d5b80,611e720299336d0627fa34a3,0.3942,
,,,,,,0,41,41,7,1,X, , , , ,,1500,1.5,58f3b92052ac63000154a9ff,001,2021-08-19_16h00.46.594,natb3,2021.2.3,Win32,60.13590715,58f3b92052ac63000154a9ff,611e07ecdcc96256ae8d5b80,611e720299336d0627fa34a3,,
,,,,space,,0,42,42,319,1,V, , , , ,space,2000,2,58f3b92052ac63000154a9ff,001,2021-08-19_16h00.46.594,natb3,2021.2.3,Win32,60.13590715,58f3b92052ac63000154a9ff,611e07ecdcc96256ae8d5b80,611e720299336d0627fa34a3,0.3741,
,,,,space,,0,43,43,140,1,B, , , , ,space,2500,2.5,58f3b92052ac63000154a9ff,001,2021-08-19_16h00.46.594,natb3,2021.2.3,Win32,60.13590715,58f3b92052ac63000154a9ff,611e07ecdcc96256ae8d5b80,611e720299336d0627fa34a3,0.3674,
,,,,space,,0,44,44,303,1,A, , , , ,space,2000,2,58f3b92052ac63000154a9ff,001,2021-08-19_16h00.46.594,natb3,2021.2.3,Win32,60.13590715,58f3b92052ac63000154a9ff,611e07ecdcc96256ae8d5b80,611e720299336d0627fa34a3,0.4177,
,,,,,,0,45,45,35,1,X, , , , ,,2500,2.5,58f3b92052ac63000154a9ff,001,2021-08-19_16h00.46.594,natb3,2021.2.3,Win32,60.13590715,58f3b92052ac63000154a9ff,611e07ecdcc96256ae8d5b80,611e720299336d0627fa34a3,,
,,,,,,0,46,46,277,1,X,8,5, ,2,,2000,2,58f3b92052ac63000154a9ff,001,2021-08-19_16h00.46.594,natb3,2021.2.3,Win32,60.13590715,58f3b92052ac63000154a9ff,611e07ecdcc96256ae8d5b80,611e720299336d0627fa34a3,,
,,,,space,,0,47,47,61,1,C, , , , ,space,2000,2,58f3b92052ac63000154a9ff,001,2021-08-19_16h00.46.594,natb3,2021.2.3,Win32,60.13590715,58f3b92052ac63000154a9ff,611e07ecdcc96256ae8d5b80,611e720299336d0627fa34a3,0.385,
,,,,space,,0,48,48,324,1,Q, , , , ,space,2000,2,58f3b92052ac63000154a9ff,001,2021-08-19_16h00.46.594,natb3,2021.2.3,Win32,60.13590715,58f3b92052ac63000154a9ff,611e07ecdcc96256ae8d5b80,611e720299336d0627fa34a3,0.3679,
,,,,space,,0,49,49,126,1,A, , , , ,space,2500,2.5,58f3b92052ac63000154a9ff,001,2021-08-19_16h00.46.594,natb3,2021.2.3,Win32,60.13590715,58f3b92052ac63000154a9ff,611e07ecdcc96256ae8d5b80,611e720299336d0627fa34a3,0.3689,
,,,,space,,0,50,50,49,1,S, , , , ,space,1500,1.5,58f3b92052ac63000154a9ff,001,2021-08-19_16h00.46.594,natb3,2021.2.3,Win32,60.13590715,58f3b92052ac63000154a9ff,611e07ecdcc96256ae8d5b80,611e720299336d0627fa34a3,0.3405,
,,,,,,0,51,51,213,1,X, , , , ,,2500,2.5,58f3b92052ac63000154a9ff,001,2021-08-19_16h00.46.594,natb3,2021.2.3,Win32,60.13590715,58f3b92052ac63000154a9ff,611e07ecdcc96256ae8d5b80,611e720299336d0627fa34a3,,
,,,,space,,0,52,52,144,1,Q, , , , ,space,2500,2.5,58f3b92052ac63000154a9ff,001,2021-08-19_16h00.46.594,natb3,2021.2.3,Win32,60.13590715,58f3b92052ac63000154a9ff,611e07ecdcc96256ae8d5b80,611e720299336d0627fa34a3,0.3715,
,,,,space,,0,53,53,40,1,T, , , , ,space,1500,1.5,58f3b92052ac63000154a9ff,001,2021-08-19_16h00.46.594,natb3,2021.2.3,Win32,60.13590715,58f3b92052ac63000154a9ff,611e07ecdcc96256ae8d5b80,611e720299336d0627fa34a3,0.4173,
,,,,,,0,54,54,305,1,X, , , , ,,1500,1.5,58f3b92052ac63000154a9ff,001,2021-08-19_16h00.46.594,natb3,2021.2.3,Win32,60.13590715,58f3b92052ac63000154a9ff,611e07ecdcc96256ae8d5b80,611e720299336d0627fa34a3,,
,,,,space,,0,55,55,178,1,Q, , , , ,space,1500,1.5,58f3b92052ac63000154a9ff,001,2021-08-19_16h00.46.594,natb3,2021.2.3,Win32,60.13590715,58f3b92052ac63000154a9ff,611e07ecdcc96256ae8d5b80,611e720299336d0627fa34a3,0.3672,
,,,,space,,0,56,56,237,1,S, , , , ,space,1500,1.5,58f3b92052ac63000154a9ff,001,2021-08-19_16h00.46.594,natb3,2021.2.3,Win32,60.13590715,58f3b92052ac63000154a9ff,611e07ecdcc96256ae8d5b80,611e720299336d0627fa34a3,0.3702,
,,,,,,0,57,57,39,1,X,6,2, , ,,1500,1.5,58f3b92052ac63000154a9ff,001,2021-08-19_16h00.46.594,natb3,2021.2.3,Win32,60.13590715,58f3b92052ac63000154a9ff,611e07ecdcc96256ae8d5b80,611e720299336d0627fa34a3,,
,,,,space,,0,58,58,173,1,V, , , , ,space,1500,1.5,58f3b92052ac63000154a9ff,001,2021-08-19_16h00.46.594,natb3,2021.2.3,Win32,60.13590715,58f3b92052ac63000154a9ff,611e07ecdcc96256ae8d5b80,611e720299336d0627fa34a3,0.3685,
,,,,space,,0,59,59,274,1,F, , , , ,space,2000,2,58f3b92052ac63000154a9ff,001,2021-08-19_16h00.46.594,natb3,2021.2.3,Win32,60.13590715,58f3b92052ac63000154a9ff,611e07ecdcc96256ae8d5b80,611e720299336d0627fa34a3,0.3674,
,,,,,,0,60,60,133,1,X, ,4, ,6,,2500,2.5,58f3b92052ac63000154a9ff,001,2021-08-19_16h00.46.594,natb3,2021.2.3,Win32,60.13590715,58f3b92052ac63000154a9ff,611e07ecdcc96256ae8d5b80,611e720299336d0627fa34a3,,
,,,,,,0,61,61,236,1,X,3, ,4,7,,2500,2.5,58f3b92052ac63000154a9ff,001,2021-08-19_16h00.46.594,natb3,2021.2.3,Win32,60.13590715,58f3b92052ac63000154a9ff,611e07ecdcc96256ae8d5b80,611e720299336d0627fa34a3,,
,,,,,,0,62,62,82,1,X,4,6,1,7,,2000,2,58f3b92052ac63000154a9ff,001,2021-08-19_16h00.46.594,natb3,2021.2.3,Win32,60.13590715,58f3b92052ac63000154a9ff,611e07ecdcc96256ae8d5b80,611e720299336d0627fa34a3,,
,,,,,,0,63,63,18,1,X, ,2,5,8,,2500,2.5,58f3b92052ac63000154a9ff,001,2021-08-19_16h00.46.594,natb3,2021.2.3,Win32,60.13590715,58f3b92052ac63000154a9ff,611e07ecdcc96256ae8d5b80,611e720299336d0627fa34a3,,
,,,,space,,0,64,64,76,1,I, , , , ,space,2000,2,58f3b92052ac63000154a9ff,001,2021-08-19_16h00.46.594,natb3,2021.2.3,Win32,60.13590715,58f3b92052ac63000154a9ff,611e07ecdcc96256ae8d5b80,611e720299336d0627fa34a3,0.4529,
,,,,space,,0,65,65,314,1,L, , , , ,space,1500,1.5,58f3b92052ac63000154a9ff,001,2021-08-19_16h00.46.594,natb3,2021.2.3,Win32,60.13590715,58f3b92052ac63000154a9ff,611e07ecdcc96256ae8d5b80,611e720299336d0627fa34a3,0.5634,
,,,,,,0,66,66,318,1,X, , , , ,,1500,1.5,58f3b92052ac63000154a9ff,001,2021-08-19_16h00.46.594,natb3,2021.2.3,Win32,60.13590715,58f3b92052ac63000154a9ff,611e07ecdcc96256ae8d5b80,611e720299336d0627fa34a3,,
,,,,space,,0,67,67,9,1,I, , , , ,space,1500,1.5,58f3b92052ac63000154a9ff,001,2021-08-19_16h00.46.594,natb3,2021.2.3,Win32,60.13590715,58f3b92052ac63000154a9ff,611e07ecdcc96256ae8d5b80,611e720299336d0627fa34a3,0.3721,
,,,,space,,0,68,68,160,1,D, , , , ,space,1500,1.5,58f3b92052ac63000154a9ff,001,2021-08-19_16h00.46.594,natb3,2021.2.3,Win32,60.13590715,58f3b92052ac63000154a9ff,611e07ecdcc96256ae8d5b80,611e720299336d0627fa34a3,0.3342,
,,,,space,,0,69,69,114,1,E, , , , ,space,2000,2,58f3b92052ac63000154a9ff,001,2021-08-19_16h00.46.594,natb3,2021.2.3,Win32,60.13590715,58f3b92052ac63000154a9ff,611e07ecdcc96256ae8d5b80,611e720299336d0627fa34a3,0.3877,
,,,,space,,0,70,70,28,1,V, , , , ,space,1500,1.5,58f3b92052ac63000154a9ff,001,2021-08-19_16h00.46.594,natb3,2021.2.3,Win32,60.13590715,58f3b92052ac63000154a9ff,611e07ecdcc96256ae8d5b80,611e720299336d0627fa34a3,0.4025,
,,,,space,,0,71,71,38,1,R, , , , ,space,2500,2.5,58f3b92052ac63000154a9ff,001,2021-08-19_16h00.46.594,natb3,2021.2.3,Win32,60.13590715,58f3b92052ac63000154a9ff,611e07ecdcc96256ae8d5b80,611e720299336d0627fa34a3,0.4321,
,,,,,,0,72,72,229,1,X,8, ,2,6,,2500,2.5,58f3b92052ac63000154a9ff,001,2021-08-19_16h00.46.594,natb3,2021.2.3,Win32,60.13590715,58f3b92052ac63000154a9ff,611e07ecdcc96256ae8d5b80,611e720299336d0627fa34a3,,
,,,,space,,0,73,73,94,1,C, , , , ,space,2000,2,58f3b92052ac63000154a9ff,001,2021-08-19_16h00.46.594,natb3,2021.2.3,Win32,60.13590715,58f3b92052ac63000154a9ff,611e07ecdcc96256ae8d5b80,611e720299336d0627fa34a3,0.3233,
,,,,space,,0,74,74,278,1,J, , , , ,space,2000,2,58f3b92052ac63000154a9ff,001,2021-08-19_16h00.46.594,natb3,2021.2.3,Win32,60.13590715,58f3b92052ac63000154a9ff,611e07ecdcc96256ae8d5b80,611e720299336d0627fa34a3,0.3472,
,,,,,,0,75,75,166,1,X, , , , ,,2000,2,58f3b92052ac63000154a9ff,001,2021-08-19_16h00.46.594,natb3,2021.2.3,Win32,60.13590715,58f3b92052ac63000154a9ff,611e07ecdcc96256ae8d5b80,611e720299336d0627fa34a3,,
,,,,,,0,76,76,259,1,X,8, , ,3,,2500,2.5,58f3b92052ac63000154a9ff,001,2021-08-19_16h00.46.594,natb3,2021.2.3,Win32,60.13590715,58f3b92052ac63000154a9ff,611e07ecdcc96256ae8d5b80,611e720299336d0627fa34a3,,
,,,,,,0,77,77,233,1,X, ,2, ,5,,1500,1.5,58f3b92052ac63000154a9ff,001,2021-08-19_16h00.46.594,natb3,2021.2.3,Win32,60.13590715,58f3b92052ac63000154a9ff,611e07ecdcc96256ae8d5b80,611e720299336d0627fa34a3,,
,,,,space,,0,78,78,55,1,H, , , , ,space,2500,2.5,58f3b92052ac63000154a9ff,001,2021-08-19_16h00.46.594,natb3,2021.2.3,Win32,60.13590715,58f3b92052ac63000154a9ff,611e07ecdcc96256ae8d5b80,611e720299336d0627fa34a3,0.3775,
,,,,space,,0,79,79,20,1,H, , , , ,space,1500,1.5,58f3b92052ac63000154a9ff,001,2021-08-19_16h00.46.594,natb3,2021.2.3,Win32,60.13590715,58f3b92052ac63000154a9ff,611e07ecdcc96256ae8d5b80,611e720299336d0627fa34a3,0.4335,
,,,,space,,0,80,80,123,1,O, , , , ,space,1500,1.5,58f3b92052ac63000154a9ff,001,2021-08-19_16h00.46.594,natb3,2021.2.3,Win32,60.13590715,58f3b92052ac63000154a9ff,611e07ecdcc96256ae8d5b80,611e720299336d0627fa34a3,0.3815,
,,,,space,,0,81,81,161,1,F, , , , ,space,1500,1.5,58f3b92052ac63000154a9ff,001,2021-08-19_16h00.46.594,natb3,2021.2.3,Win32,60.13590715,58f3b92052ac63000154a9ff,611e07ecdcc96256ae8d5b80,611e720299336d0627fa34a3,0.397,
,,,,space,,0,82,82,48,1,A, , , , ,space,2500,2.5,58f3b92052ac63000154a9ff,001,2021-08-19_16h00.46.594,natb3,2021.2.3,Win32,60.13590715,58f3b92052ac63000154a9ff,611e07ecdcc96256ae8d5b80,611e720299336d0627fa34a3,0.365,
,,,,space,,0,83,83,10,1,O, , , , ,space,2000,2,58f3b92052ac63000154a9ff,001,2021-08-19_16h00.46.594,natb3,2021.2.3,Win32,60.13590715,58f3b92052ac63000154a9ff,611e07ecdcc96256ae8d5b80,611e720299336d0627fa34a3,0.3781,
,,,,space,,0,84,84,176,1,N, , , , ,space,1500,1.5,58f3b92052ac63000154a9ff,001,2021-08-19_16h00.46.594,natb3,2021.2.3,Win32,60.13590715,58f3b92052ac63000154a9ff,611e07ecdcc96256ae8d5b80,611e720299336d0627fa34a3,0.3408,
,,,,space,,0,85,85,222,1,O, , , , ,space,2000,2,58f3b92052ac63000154a9ff,001,2021-08-19_16h00.46.594,natb3,2021.2.3,Win32,60.13590715,58f3b92052ac63000154a9ff,611e07ecdcc96256ae8d5b80,611e720299336d0627fa34a3,0.3451,
,,,,space,,0,86,86,287,1,X, ,2, ,9,,2000,2,58f3b92052ac63000154a9ff,001,2021-08-19_16h00.46.594,natb3,2021.2.3,Win32,60.13590715,58f3b92052ac63000154a9ff,611e07ecdcc96256ae8d5b80,611e720299336d0627fa34a3,0.2963,
,,,,,,0,87,87,31,1,X, , , , ,,1500,1.5,58f3b92052ac63000154a9ff,001,2021-08-19_16h00.46.594,natb3,2021.2.3,Win32,60.13590715,58f3b92052ac63000154a9ff,611e07ecdcc96256ae8d5b80,611e720299336d0627fa34a3,,
,,,,space,,0,88,88,139,1,V, , , , ,space,2000,2,58f3b92052ac63000154a9ff,001,2021-08-19_16h00.46.594,natb3,2021.2.3,Win32,60.13590715,58f3b92052ac63000154a9ff,611e07ecdcc96256ae8d5b80,611e720299336d0627fa34a3,0.3811,
,,,,,,0,89,89,33,1,X, , , , ,,1500,1.5,58f3b92052ac63000154a9ff,001,2021-08-19_16h00.46.594,natb3,2021.2.3,Win32,60.13590715,58f3b92052ac63000154a9ff,611e07ecdcc96256ae8d5b80,611e720299336d0627fa34a3,,
,,,,space,,0,90,90,131,1,G, , , , ,space,1500,1.5,58f3b92052ac63000154a9ff,001,2021-08-19_16h00.46.594,natb3,2021.2.3,Win32,60.13590715,58f3b92052ac63000154a9ff,611e07ecdcc96256ae8d5b80,611e720299336d0627fa34a3,0.4225,
,,,,space,,0,91,91,8,1,U, , , , ,space,1500,1.5,58f3b92052ac63000154a9ff,001,2021-08-19_16h00.46.594,natb3,2021.2.3,Win32,60.13590715,58f3b92052ac63000154a9ff,611e07ecdcc96256ae8d5b80,611e720299336d0627fa34a3,0.4489,
,,,,space,,0,92,92,42,1,U, , , , ,space,1500,1.5,58f3b92052ac63000154a9ff,001,2021-08-19_16h00.46.594,natb3,2021.2.3,Win32,60.13590715,58f3b92052ac63000154a9ff,611e07ecdcc96256ae8d5b80,611e720299336d0627fa34a3,0.4611,
,,,,space,,0,93,93,44,1,I, , , , ,space,2500,2.5,58f3b92052ac63000154a9ff,001,2021-08-19_16h00.46.594,natb3,2021.2.3,Win32,60.13590715,58f3b92052ac63000154a9ff,611e07ecdcc96256ae8d5b80,611e720299336d0627fa34a3,0.7164,
,,,,space,,0,94,94,264,1,U, , , , ,space,2000,2,58f3b92052ac63000154a9ff,001,2021-08-19_16h00.46.594,natb3,2021.2.3,Win32,60.13590715,58f3b92052ac63000154a9ff,611e07ecdcc96256ae8d5b80,611e720299336d0627fa34a3,0.3686,
,,,,space,,0,95,95,242,1,H, , , , ,space,2500,2.5,58f3b92052ac63000154a9ff,001,2021-08-19_16h00.46.594,natb3,2021.2.3,Win32,60.13590715,58f3b92052ac63000154a9ff,611e07ecdcc96256ae8d5b80,611e720299336d0627fa34a3,0.4045,
,,,,space,,0,96,96,286,1,N, , , , ,space,1500,1.5,58f3b92052ac63000154a9ff,001,2021-08-19_16h00.46.594,natb3,2021.2.3,Win32,60.13590715,58f3b92052ac63000154a9ff,611e07ecdcc96256ae8d5b80,611e720299336d0627fa34a3,0.3844,
,,,,space,,0,97,97,155,1,O, , , , ,space,1500,1.5,58f3b92052ac63000154a9ff,001,2021-08-19_16h00.46.594,natb3,2021.2.3,Win32,60.13590715,58f3b92052ac63000154a9ff,611e07ecdcc96256ae8d5b80,611e720299336d0627fa34a3,0.4168,
,,,,space,,0,98,98,136,1,Z, , , , ,space,2500,2.5,58f3b92052ac63000154a9ff,001,2021-08-19_16h00.46.594,natb3,2021.2.3,Win32,60.13590715,58f3b92052ac63000154a9ff,611e07ecdcc96256ae8d5b80,611e720299336d0627fa34a3,0.4285,
,,,,space,,0,99,99,203,1,X, , , , ,,2500,2.5,58f3b92052ac63000154a9ff,001,2021-08-19_16h00.46.594,natb3,2021.2.3,Win32,60.13590715,58f3b92052ac63000154a9ff,611e07ecdcc96256ae8d5b80,611e720299336d0627fa34a3,0.3666,
,,,,,,0,100,100,116,1,X, , , , ,,2000,2,58f3b92052ac63000154a9ff,001,2021-08-19_16h00.46.594,natb3,2021.2.3,Win32,60.13590715,58f3b92052ac63000154a9ff,611e07ecdcc96256ae8d5b80,611e720299336d0627fa34a3,,
,,,,,,0,101,101,273,1,X, , , , ,,2000,2,58f3b92052ac63000154a9ff,001,2021-08-19_16h00.46.594,natb3,2021.2.3,Win32,60.13590715,58f3b92052ac63000154a9ff,611e07ecdcc96256ae8d5b80,611e720299336d0627fa34a3,,
,,,,space,,0,102,102,267,1,P, , , , ,space,2000,2,58f3b92052ac63000154a9ff,001,2021-08-19_16h00.46.594,natb3,2021.2.3,Win32,60.13590715,58f3b92052ac63000154a9ff,611e07ecdcc96256ae8d5b80,611e720299336d0627fa34a3,0.4159,
,,,,space,,0,103,103,232,1,O, , , , ,space,2500,2.5,58f3b92052ac63000154a9ff,001,2021-08-19_16h00.46.594,natb3,2021.2.3,Win32,60.13590715,58f3b92052ac63000154a9ff,611e07ecdcc96256ae8d5b80,611e720299336d0627fa34a3,0.3892,
,,,,space,,0,104,104,192,1,A, , , , ,space,2000,2,58f3b92052ac63000154a9ff,001,2021-08-19_16h00.46.594,natb3,2021.2.3,Win32,60.13590715,58f3b92052ac63000154a9ff,611e07ecdcc96256ae8d5b80,611e720299336d0627fa34a3,0.345,
,,,,space,,0,105,105,167,1,K, , , , ,space,1500,1.5,58f3b92052ac63000154a9ff,001,2021-08-19_16h00.46.594,natb3,2021.2.3,Win32,60.13590715,58f3b92052ac63000154a9ff,611e07ecdcc96256ae8d5b80,611e720299336d0627fa34a3,0.4294,
,,,,space,,0,106,106,194,1,D, , , , ,space,2000,2,58f3b92052ac63000154a9ff,001,2021-08-19_16h00.46.594,natb3,2021.2.3,Win32,60.13590715,58f3b92052ac63000154a9ff,611e07ecdcc96256ae8d5b80,611e720299336d0627fa34a3,0.3455,
,,,,space,,0,107,107,211,1,X, , , , ,,2500,2.5,58f3b92052ac63000154a9ff,001,2021-08-19_16h00.46.594,natb3,2021.2.3,Win32,60.13590715,58f3b92052ac63000154a9ff,611e07ecdcc96256ae8d5b80,611e720299336d0627fa34a3,0.3538,
,,,,space,,0,108,108,105,1,R, , , , ,space,2500,2.5,58f3b92052ac63000154a9ff,001,2021-08-19_16h00.46.594,natb3,2021.2.3,Win32,60.13590715,58f3b92052ac63000154a9ff,611e07ecdcc96256ae8d5b80,611e720299336d0627fa34a3,0.4089,
,,,,,,0,109,109,141,1,X,1, ,4,6,,1500,1.5,58f3b92052ac63000154a9ff,001,2021-08-19_16h00.46.594,natb3,2021.2.3,Win32,60.13590715,58f3b92052ac63000154a9ff,611e07ecdcc96256ae8d5b80,611e720299336d0627fa34a3,,
,,,,space,,0,110,110,296,1,Y, , , , ,space,2500,2.5,58f3b92052ac63000154a9ff,001,2021-08-19_16h00.46.594,natb3,2021.2.3,Win32,60.13590715,58f3b92052ac63000154a9ff,611e07ecdcc96256ae8d5b80,611e720299336d0627fa34a3,0.5334,
,,,,,,0,111,111,313,1,X, , , , ,,2500,2.5,58f3b92052ac63000154a9ff,001,2021-08-19_16h00.46.594,natb3,2021.2.3,Win32,60.13590715,58f3b92052ac63000154a9ff,611e07ecdcc96256ae8d5b80,611e720299336d0627fa34a3,,
,,,,space,,0,112,112,186,1,U, , , , ,space,2500,2.5,58f3b92052ac63000154a9ff,001,2021-08-19_16h00.46.594,natb3,2021.2.3,Win32,60.13590715,58f3b92052ac63000154a9ff,611e07ecdcc96256ae8d5b80,611e720299336d0627fa34a3,0.3624,
,,,,space,,0,113,113,183,1,R, , , , ,space,1500,1.5,58f3b92052ac63000154a9ff,001,2021-08-19_16h00.46.594,natb3,2021.2.3,Win32,60.13590715,58f3b92052ac63000154a9ff,611e07ecdcc96256ae8d5b80,611e720299336d0627fa34a3,0.3612,
,,,,space,,0,114,114,285,1,B, , , , ,space,1500,1.5,58f3b92052ac63000154a9ff,001,2021-08-19_16h00.46.594,natb3,2021.2.3,Win32,60.13590715,58f3b92052ac63000154a9ff,611e07ecdcc96256ae8d5b80,611e720299336d0627fa34a3,0.381,
,,,,space,,0,115,115,190,1,P, , , , ,space,2000,2,58f3b92052ac63000154a9ff,001,2021-08-19_16h00.46.594,natb3,2021.2.3,Win32,60.13590715,58f3b92052ac63000154a9ff,611e07ecdcc96256ae8d5b80,611e720299336d0627fa34a3,0.386,
,,,,space,,0,116,116,293,1,R, , , , ,space,2500,2.5,58f3b92052ac63000154a9ff,001,2021-08-19_16h00.46.594,natb3,2021.2.3,Win32,60.13590715,58f3b92052ac63000154a9ff,611e07ecdcc96256ae8d5b80,611e720299336d0627fa34a3,0.3513,
,,,,space,,0,117,117,240,1,F, , , , ,space,2500,2.5,58f3b92052ac63000154a9ff,001,2021-08-19_16h00.46.594,natb3,2021.2.3,Win32,60.13590715,58f3b92052ac63000154a9ff,611e07ecdcc96256ae8d5b80,611e720299336d0627fa34a3,0.3495,
,,,,space,,0,118,118,99,1,N, , , , ,space,2500,2.5,58f3b92052ac63000154a9ff,001,2021-08-19_16h00.46.594,natb3,2021.2.3,Win32,60.13590715,58f3b92052ac63000154a9ff,611e07ecdcc96256ae8d5b80,611e720299336d0627fa34a3,0.3676,
,,,,space,,0,119,119,208,1,B, , , , ,space,1500,1.5,58f3b92052ac63000154a9ff,001,2021-08-19_16h00.46.594,natb3,2021.2.3,Win32,60.13590715,58f3b92052ac63000154a9ff,611e07ecdcc96256ae8d5b80,611e720299336d0627fa34a3,0.3942,
,,,,space,,0,120,120,257,1,W, , , , ,space,2000,2,58f3b92052ac63000154a9ff,001,2021-08-19_16h00.46.594,natb3,2021.2.3,Win32,60.13590715,58f3b92052ac63000154a9ff,611e07ecdcc96256ae8d5b80,611e720299336d0627fa34a3,0.4006,
,,,,space,,0,121,121,46,1,X, , , , ,,2000,2,58f3b92052ac63000154a9ff,001,2021-08-19_16h00.46.594,natb3,2021.2.3,Win32,60.13590715,58f3b92052ac63000154a9ff,611e07ecdcc96256ae8d5b80,611e720299336d0627fa34a3,0.3519,
,,,,space,,0,122,122,276,1,H, , , , ,space,2000,2,58f3b92052ac63000154a9ff,001,2021-08-19_16h00.46.594,natb3,2021.2.3,Win32,60.13590715,58f3b92052ac63000154a9ff,611e07ecdcc96256ae8d5b80,611e720299336d0627fa34a3,0.4703,
,,,,space,,0,123,123,64,1,N, , , , ,space,2000,2,58f3b92052ac63000154a9ff,001,2021-08-19_16h00.46.594,natb3,2021.2.3,Win32,60.13590715,58f3b92052ac63000154a9ff,611e07ecdcc96256ae8d5b80,611e720299336d0627fa34a3,0.3349,
,,,,space,,0,124,124,36,1,W, , , , ,space,2000,2,58f3b92052ac63000154a9ff,001,2021-08-19_16h00.46.594,natb3,2021.2.3,Win32,60.13590715,58f3b92052ac63000154a9ff,611e07ecdcc96256ae8d5b80,611e720299336d0627fa34a3,0.4772,
,,,,space,,0,125,125,214,1,W, , , , ,space,2000,2,58f3b92052ac63000154a9ff,001,2021-08-19_16h00.46.594,natb3,2021.2.3,Win32,60.13590715,58f3b92052ac63000154a9ff,611e07ecdcc96256ae8d5b80,611e720299336d0627fa34a3,0.4512,
,,,,space,,0,126,126,210,1,M, , , , ,space,1500,1.5,58f3b92052ac63000154a9ff,001,2021-08-19_16h00.46.594,natb3,2021.2.3,Win32,60.13590715,58f3b92052ac63000154a9ff,611e07ecdcc96256ae8d5b80,611e720299336d0627fa34a3,0.4194,
,,,,space,,0,127,127,47,1,P, , , , ,space,2000,2,58f3b92052ac63000154a9ff,001,2021-08-19_16h00.46.594,natb3,2021.2.3,Win32,60.13590715,58f3b92052ac63000154a9ff,611e07ecdcc96256ae8d5b80,611e720299336d0627fa34a3,0.422,
,,,,space,,0,128,128,174,1,B, , , , ,space,2500,2.5,58f3b92052ac63000154a9ff,001,2021-08-19_16h00.46.594,natb3,2021.2.3,Win32,60.13590715,58f3b92052ac63000154a9ff,611e07ecdcc96256ae8d5b80,611e720299336d0627fa34a3,0.4007,
,,,,space,,0,129,129,244,1,J, , , , ,space,1500,1.5,58f3b92052ac63000154a9ff,001,2021-08-19_16h00.46.594,natb3,2021.2.3,Win32,60.13590715,58f3b92052ac63000154a9ff,611e07ecdcc96256ae8d5b80,611e720299336d0627fa34a3,0.394,
,,,,,,0,130,130,182,1,X, , , , ,,1500,1.5,58f3b92052ac63000154a9ff,001,2021-08-19_16h00.46.594,natb3,2021.2.3,Win32,60.13590715,58f3b92052ac63000154a9ff,611e07ecdcc96256ae8d5b80,611e720299336d0627fa34a3,,
,,,,,,0,131,131,23,1,X,1, ,5, ,,2000,2,58f3b92052ac63000154a9ff,001,2021-08-19_16h00.46.594,natb3,2021.2.3,Win32,60.13590715,58f3b92052ac63000154a9ff,611e07ecdcc96256ae8d5b80,611e720299336d0627fa34a3,,
,,,,space,,0,132,132,111,1,O, , , , ,space,2000,2,58f3b92052ac63000154a9ff,001,2021-08-19_16h00.46.594,natb3,2021.2.3,Win32,60.13590715,58f3b92052ac63000154a9ff,611e07ecdcc96256ae8d5b80,611e720299336d0627fa34a3,0.3845,
,,,,space,,0,133,133,247,1,Z, , , , ,space,1500,1.5,58f3b92052ac63000154a9ff,001,2021-08-19_16h00.46.594,natb3,2021.2.3,Win32,60.13590715,58f3b92052ac63000154a9ff,611e07ecdcc96256ae8d5b80,611e720299336d0627fa34a3,0.369,
,,,,,,0,134,134,282,1,X, , , , ,,2500,2.5,58f3b92052ac63000154a9ff,001,2021-08-19_16h00.46.594,natb3,2021.2.3,Win32,60.13590715,58f3b92052ac63000154a9ff,611e07ecdcc96256ae8d5b80,611e720299336d0627fa34a3,,
,,,,space,,0,135,135,143,1,M, , , , ,space,2500,2.5,58f3b92052ac63000154a9ff,001,2021-08-19_16h00.46.594,natb3,2021.2.3,Win32,60.13590715,58f3b92052ac63000154a9ff,611e07ecdcc96256ae8d5b80,611e720299336d0627fa34a3,0.4172,
,,,,space,,0,136,136,280,1,L, , , , ,space,1500,1.5,58f3b92052ac63000154a9ff,001,2021-08-19_16h00.46.594,natb3,2021.2.3,Win32,60.13590715,58f3b92052ac63000154a9ff,611e07ecdcc96256ae8d5b80,611e720299336d0627fa34a3,0.3958,
,,,,space,,0,137,137,88,1,J, , , , ,space,2500,2.5,58f3b92052ac63000154a9ff,001,2021-08-19_16h00.46.594,natb3,2021.2.3,Win32,60.13590715,58f3b92052ac63000154a9ff,611e07ecdcc96256ae8d5b80,611e720299336d0627fa34a3,0.3431,
,,,,,,0,138,138,107,1,X,9,3, ,2,,2000,2,58f3b92052ac63000154a9ff,001,2021-08-19_16h00.46.594,natb3,2021.2.3,Win32,60.13590715,58f3b92052ac63000154a9ff,611e07ecdcc96256ae8d5b80,611e720299336d0627fa34a3,,
,,,,space,,0,139,139,204,1,Z, , , , ,space,2000,2,58f3b92052ac63000154a9ff,001,2021-08-19_16h00.46.594,natb3,2021.2.3,Win32,60.13590715,58f3b92052ac63000154a9ff,611e07ecdcc96256ae8d5b80,611e720299336d0627fa34a3,0.4843,
,,,,space,,0,140,140,254,1,M, , , , ,space,1500,1.5,58f3b92052ac63000154a9ff,001,2021-08-19_16h00.46.594,natb3,2021.2.3,Win32,60.13590715,58f3b92052ac63000154a9ff,611e07ecdcc96256ae8d5b80,611e720299336d0627fa34a3,0.3686,
,,,,space,,0,141,141,119,1,Y, , , , ,space,2500,2.5,58f3b92052ac63000154a9ff,001,2021-08-19_16h00.46.594,natb3,2021.2.3,Win32,60.13590715,58f3b92052ac63000154a9ff,611e07ecdcc96256ae8d5b80,611e720299336d0627fa34a3,0.3979,
,,,,,,0,142,142,200,1,X,7, ,5,3,,1500,1.5,58f3b92052ac63000154a9ff,001,2021-08-19_16h00.46.594,natb3,2021.2.3,Win32,60.13590715,58f3b92052ac63000154a9ff,611e07ecdcc96256ae8d5b80,611e720299336d0627fa34a3,,
,,,,space,,0,143,143,245,1,K, , , , ,space,2000,2,58f3b92052ac63000154a9ff,001,2021-08-19_16h00.46.594,natb3,2021.2.3,Win32,60.13590715,58f3b92052ac63000154a9ff,611e07ecdcc96256ae8d5b80,611e720299336d0627fa34a3,0.4234,
,,,,,,0,144,144,207,1,X,9, ,2, ,,2500,2.5,58f3b92052ac63000154a9ff,001,2021-08-19_16h00.46.594,natb3,2021.2.3,Win32,60.13590715,58f3b92052ac63000154a9ff,611e07ecdcc96256ae8d5b80,611e720299336d0627fa34a3,,
,,,,space,,0,145,145,333,1,I, , , , ,space,1500,1.5,58f3b92052ac63000154a9ff,001,2021-08-19_16h00.46.594,natb3,2021.2.3,Win32,60.13590715,58f3b92052ac63000154a9ff,611e07ecdcc96256ae8d5b80,611e720299336d0627fa34a3,0.4077,
,,,,space,,0,146,146,159,1,S, , , , ,space,2500,2.5,58f3b92052ac63000154a9ff,001,2021-08-19_16h00.46.594,natb3,2021.2.3,Win32,60.13590715,58f3b92052ac63000154a9ff,611e07ecdcc96256ae8d5b80,611e720299336d0627fa34a3,0.4005,
,,,,space,,0,147,147,130,1,F, , , , ,space,2000,2,58f3b92052ac63000154a9ff,001,2021-08-19_16h00.46.594,natb3,2021.2.3,Win32,60.13590715,58f3b92052ac63000154a9ff,611e07ecdcc96256ae8d5b80,611e720299336d0627fa34a3,0.36,
,,,,space,,0,148,148,109,1,U, , , , ,space,1500,1.5,58f3b92052ac63000154a9ff,001,2021-08-19_16h00.46.594,natb3,2021.2.3,Win32,60.13590715,58f3b92052ac63000154a9ff,611e07ecdcc96256ae8d5b80,611e720299336d0627fa34a3,0.4007,
,,,,space,,0,149,149,180,1,W, , , , ,space,2000,2,58f3b92052ac63000154a9ff,001,2021-08-19_16h00.46.594,natb3,2021.2.3,Win32,60.13590715,58f3b92052ac63000154a9ff,611e07ecdcc96256ae8d5b80,611e720299336d0627fa34a3,0.3175,
,,,,space,,0,150,150,332,1,U, , , , ,space,2000,2,58f3b92052ac63000154a9ff,001,2021-08-19_16h00.46.594,natb3,2021.2.3,Win32,60.13590715,58f3b92052ac63000154a9ff,611e07ecdcc96256ae8d5b80,611e720299336d0627fa34a3,0.3693,
,,,,,,0,151,151,153,1,X,4,7, ,6,,2000,2,58f3b92052ac63000154a9ff,001,2021-08-19_16h00.46.594,natb3,2021.2.3,Win32,60.13590715,58f3b92052ac63000154a9ff,611e07ecdcc96256ae8d5b80,611e720299336d0627fa34a3,,
,,,,space,,0,152,152,79,1,P, , , , ,space,2000,2,58f3b92052ac63000154a9ff,001,2021-08-19_16h00.46.594,natb3,2021.2.3,Win32,60.13590715,58f3b92052ac63000154a9ff,611e07ecdcc96256ae8d5b80,611e720299336d0627fa34a3,0.3402,
,,,,space,,0,153,153,84,1,X, , , , ,,2000,2,58f3b92052ac63000154a9ff,001,2021-08-19_16h00.46.594,natb3,2021.2.3,Win32,60.13590715,58f3b92052ac63000154a9ff,611e07ecdcc96256ae8d5b80,611e720299336d0627fa34a3,0.3344,
,,,,space,,0,154,154,308,1,G, , , , ,space,1500,1.5,58f3b92052ac63000154a9ff,001,2021-08-19_16h00.46.594,natb3,2021.2.3,Win32,60.13590715,58f3b92052ac63000154a9ff,611e07ecdcc96256ae8d5b80,611e720299336d0627fa34a3,0.4015,
,,,,space,,0,155,155,312,1,K, , , , ,space,2000,2,58f3b92052ac63000154a9ff,001,2021-08-19_16h00.46.594,natb3,2021.2.3,Win32,60.13590715,58f3b92052ac63000154a9ff,611e07ecdcc96256ae8d5b80,611e720299336d0627fa34a3,0.5555,
,,,,space,,0,156,156,231,1,I, , , , ,space,2500,2.5,58f3b92052ac63000154a9ff,001,2021-08-19_16h00.46.594,natb3,2021.2.3,Win32,60.13590715,58f3b92052ac63000154a9ff,611e07ecdcc96256ae8d5b80,611e720299336d0627fa34a3,0.3872,
,,,,space,,0,157,157,50,1,D, , , , ,space,1500,1.5,58f3b92052ac63000154a9ff,001,2021-08-19_16h00.46.594,natb3,2021.2.3,Win32,60.13590715,58f3b92052ac63000154a9ff,611e07ecdcc96256ae8d5b80,611e720299336d0627fa34a3,0.6132,
,,,,space,,0,158,158,317,1,C, , , , ,space,2000,2,58f3b92052ac63000154a9ff,001,2021-08-19_16h00.46.594,natb3,2021.2.3,Win32,60.13590715,58f3b92052ac63000154a9ff,611e07ecdcc96256ae8d5b80,611e720299336d0627fa34a3,0.4704,
,,,,space,,0,159,159,163,1,G, , , , ,space,2500,2.5,58f3b92052ac63000154a9ff,001,2021-08-19_16h00.46.594,natb3,2021.2.3,Win32,60.13590715,58f3b92052ac63000154a9ff,611e07ecdcc96256ae8d5b80,611e720299336d0627fa34a3,0.3981,
,,,,space,,0,160,160,262,1,Y, , , , ,space,2500,2.5,58f3b92052ac63000154a9ff,001,2021-08-19_16h00.46.594,natb3,2021.2.3,Win32,60.13590715,58f3b92052ac63000154a9ff,611e07ecdcc96256ae8d5b80,611e720299336d0627fa34a3,0.466,
,,,,space,,0,161,161,132,1,H, , , , ,space,2500,2.5,58f3b92052ac63000154a9ff,001,2021-08-19_16h00.46.594,natb3,2021.2.3,Win32,60.13590715,58f3b92052ac63000154a9ff,611e07ecdcc96256ae8d5b80,611e720299336d0627fa34a3,0.4068,
,,,,,,0,162,162,302,1,X, , , , ,,2000,2,58f3b92052ac63000154a9ff,001,2021-08-19_16h00.46.594,natb3,2021.2.3,Win32,60.13590715,58f3b92052ac63000154a9ff,611e07ecdcc96256ae8d5b80,611e720299336d0627fa34a3,,
,,,,space,,0,163,163,11,1,P, , , , ,space,2500,2.5,58f3b92052ac63000154a9ff,001,2021-08-19_16h00.46.594,natb3,2021.2.3,Win32,60.13590715,58f3b92052ac63000154a9ff,611e07ecdcc96256ae8d5b80,611e720299336d0627fa34a3,0.3819,
,,,,space,,0,164,164,246,1,L, , , , ,space,2500,2.5,58f3b92052ac63000154a9ff,001,2021-08-19_16h00.46.594,natb3,2021.2.3,Win32,60.13590715,58f3b92052ac63000154a9ff,611e07ecdcc96256ae8d5b80,611e720299336d0627fa34a3,0.4566,
,,,,space,,0,165,165,69,1,X, , , , ,,1500,1.5,58f3b92052ac63000154a9ff,001,2021-08-19_16h00.46.594,natb3,2021.2.3,Win32,60.13590715,58f3b92052ac63000154a9ff,611e07ecdcc96256ae8d5b80,611e720299336d0627fa34a3,0.3893,
,,,,,,0,166,166,239,1,X, , , , ,,2000,2,58f3b92052ac63000154a9ff,001,2021-08-19_16h00.46.594,natb3,2021.2.3,Win32,60.13590715,58f3b92052ac63000154a9ff,611e07ecdcc96256ae8d5b80,611e720299336d0627fa34a3,,
,,,,,space,0,167,167,252,1,X,3, ,6,9,,2000,2,58f3b92052ac63000154a9ff,001,2021-08-19_16h00.46.594,natb3,2021.2.3,Win32,60.13590715,58f3b92052ac63000154a9ff,611e07ecdcc96256ae8d5b80,611e720299336d0627fa34a3,,766.1796
,,,,,,0,168,168,299,1,X, , , , ,,2500,2.5,58f3b92052ac63000154a9ff,001,2021-08-19_16h00.46.594,natb3,2021.2.3,Win32,60.13590715,58f3b92052ac63000154a9ff,611e07ecdcc96256ae8d5b80,611e720299336d0627fa34a3,,
,,,,space,,0,169,169,330,1,T, , , , ,space,2500,2.5,58f3b92052ac63000154a9ff,001,2021-08-19_16h00.46.594,natb3,2021.2.3,Win32,60.13590715,58f3b92052ac63000154a9ff,611e07ecdcc96256ae8d5b80,611e720299336d0627fa34a3,0.3325,
,,,,space,,0,170,170,29,1,B, , , , ,space,1500,1.5,58f3b92052ac63000154a9ff,001,2021-08-19_16h00.46.594,natb3,2021.2.3,Win32,60.13590715,58f3b92052ac63000154a9ff,611e07ecdcc96256ae8d5b80,611e720299336d0627fa34a3,0.3526,
,,,,space,,0,171,171,104,1,E, , , , ,space,2000,2,58f3b92052ac63000154a9ff,001,2021-08-19_16h00.46.594,natb3,2021.2.3,Win32,60.13590715,58f3b92052ac63000154a9ff,611e07ecdcc96256ae8d5b80,611e720299336d0627fa34a3,0.3412,
,,,,space,,0,172,172,170,1,Z, , , , ,space,2000,2,58f3b92052ac63000154a9ff,001,2021-08-19_16h00.46.594,natb3,2021.2.3,Win32,60.13590715,58f3b92052ac63000154a9ff,611e07ecdcc96256ae8d5b80,611e720299336d0627fa34a3,0.317,
,,,,space,,0,173,173,57,1,K, , , , ,space,2500,2.5,58f3b92052ac63000154a9ff,001,2021-08-19_16h00.46.594,natb3,2021.2.3,Win32,60.13590715,58f3b92052ac63000154a9ff,611e07ecdcc96256ae8d5b80,611e720299336d0627fa34a3,0.3664,
,,,,space,,0,174,174,301,1,P, , , , ,space,1500,1.5,58f3b92052ac63000154a9ff,001,2021-08-19_16h00.46.594,natb3,2021.2.3,Win32,60.13590715,58f3b92052ac63000154a9ff,611e07ecdcc96256ae8d5b80,611e720299336d0627fa34a3,0.3135,
,,,,space,,0,175,175,209,1,N, , , , ,space,2000,2,58f3b92052ac63000154a9ff,001,2021-08-19_16h00.46.594,natb3,2021.2.3,Win32,60.13590715,58f3b92052ac63000154a9ff,611e07ecdcc96256ae8d5b80,611e720299336d0627fa34a3,0.3123,
,,,,space,,0,176,176,118,1,X, , , , ,,2000,2,58f3b92052ac63000154a9ff,001,2021-08-19_16h00.46.594,natb3,2021.2.3,Win32,60.13590715,58f3b92052ac63000154a9ff,611e07ecdcc96256ae8d5b80,611e720299336d0627fa34a3,0.348,
,,,,space,,0,177,177,100,1,M, , , , ,space,2000,2,58f3b92052ac63000154a9ff,001,2021-08-19_16h00.46.594,natb3,2021.2.3,Win32,60.13590715,58f3b92052ac63000154a9ff,611e07ecdcc96256ae8d5b80,611e720299336d0627fa34a3,0.3467,
,,,,,,0,178,178,315,1,X, , , , ,,2500,2.5,58f3b92052ac63000154a9ff,001,2021-08-19_16h00.46.594,natb3,2021.2.3,Win32,60.13590715,58f3b92052ac63000154a9ff,611e07ecdcc96256ae8d5b80,611e720299336d0627fa34a3,,
,,,,space,,0,179,179,120,1,U, , , , ,space,1500,1.5,58f3b92052ac63000154a9ff,001,2021-08-19_16h00.46.594,natb3,2021.2.3,Win32,60.13590715,58f3b92052ac63000154a9ff,611e07ecdcc96256ae8d5b80,611e720299336d0627fa34a3,0.3973,
,,,,space,,0,180,180,221,1,I, , , , ,space,2500,2.5,58f3b92052ac63000154a9ff,001,2021-08-19_16h00.46.594,natb3,2021.2.3,Win32,60.13590715,58f3b92052ac63000154a9ff,611e07ecdcc96256ae8d5b80,611e720299336d0627fa34a3,0.384,
,,,,,,0,181,181,171,1,X, , , , ,,1500,1.5,58f3b92052ac63000154a9ff,001,2021-08-19_16h00.46.594,natb3,2021.2.3,Win32,60.13590715,58f3b92052ac63000154a9ff,611e07ecdcc96256ae8d5b80,611e720299336d0627fa34a3,,
,,,,space,,0,182,182,334,1,O, , , , ,space,1500,1.5,58f3b92052ac63000154a9ff,001,2021-08-19_16h00.46.594,natb3,2021.2.3,Win32,60.13590715,58f3b92052ac63000154a9ff,611e07ecdcc96256ae8d5b80,611e720299336d0627fa34a3,0.3215,
,,,,space,,0,183,183,224,1,W, , , , ,space,1500,1.5,58f3b92052ac63000154a9ff,001,2021-08-19_16h00.46.594,natb3,2021.2.3,Win32,60.13590715,58f3b92052ac63000154a9ff,611e07ecdcc96256ae8d5b80,611e720299336d0627fa34a3,0.323,
,,,,space,,0,184,184,117,1,T, , , , ,space,2500,2.5,58f3b92052ac63000154a9ff,001,2021-08-19_16h00.46.594,natb3,2021.2.3,Win32,60.13590715,58f3b92052ac63000154a9ff,611e07ecdcc96256ae8d5b80,611e720299336d0627fa34a3,0.3305,
,,,,,,0,185,185,218,1,X,1,3, ,8,,1500,1.5,58f3b92052ac63000154a9ff,001,2021-08-19_16h00.46.594,natb3,2021.2.3,Win32,60.13590715,58f3b92052ac63000154a9ff,611e07ecdcc96256ae8d5b80,611e720299336d0627fa34a3,,
,,,,space,,0,186,186,56,1,J, , , , ,space,1500,1.5,58f3b92052ac63000154a9ff,001,2021-08-19_16h00.46.594,natb3,2021.2.3,Win32,60.13590715,58f3b92052ac63000154a9ff,611e07ecdcc96256ae8d5b80,611e720299336d0627fa34a3,0.3451,
,,,,space,,0,187,187,260,1,R, , , , ,space,2000,2,58f3b92052ac63000154a9ff,001,2021-08-19_16h00.46.594,natb3,2021.2.3,Win32,60.13590715,58f3b92052ac63000154a9ff,611e07ecdcc96256ae8d5b80,611e720299336d0627fa34a3,0.3615,
,,,,space,,0,188,188,53,1,G, , , , ,space,2500,2.5,58f3b92052ac63000154a9ff,001,2021-08-19_16h00.46.594,natb3,2021.2.3,Win32,60.13590715,58f3b92052ac63000154a9ff,611e07ecdcc96256ae8d5b80,611e720299336d0627fa34a3,0.4437,
,,,,space,,0,189,189,220,1,U, , , , ,space,2500,2.5,58f3b92052ac63000154a9ff,001,2021-08-19_16h00.46.594,natb3,2021.2.3,Win32,60.13590715,58f3b92052ac63000154a9ff,611e07ecdcc96256ae8d5b80,611e720299336d0627fa34a3,0.2874,
,,,,space,,0,190,190,73,1,Y, , , , ,space,2000,2,58f3b92052ac63000154a9ff,001,2021-08-19_16h00.46.594,natb3,2021.2.3,Win32,60.13590715,58f3b92052ac63000154a9ff,611e07ecdcc96256ae8d5b80,611e720299336d0627fa34a3,0.3018,
,,,,,,0,191,191,74,1,X, ,4,3,2,,1500,1.5,58f3b92052ac63000154a9ff,001,2021-08-19_16h00.46.594,natb3,2021.2.3,Win32,60.13590715,58f3b92052ac63000154a9ff,611e07ecdcc96256ae8d5b80,611e720299336d0627fa34a3,,
,,,,,,0,192,192,164,1,H, , , , ,space,2500,2.5,58f3b92052ac63000154a9ff,001,2021-08-19_16h00.46.594,natb3,2021.2.3,Win32,60.13590715,58f3b92052ac63000154a9ff,611e07ecdcc96256ae8d5b80,611e720299336d0627fa34a3,,
,,,,space,,0,193,193,67,1,Q, , , , ,space,2000,2,58f3b92052ac63000154a9ff,001,2021-08-19_16h00.46.594,natb3,2021.2.3,Win32,60.13590715,58f3b92052ac63000154a9ff,611e07ecdcc96256ae8d5b80,611e720299336d0627fa34a3,0.3036,
,,,,space,,0,194,194,121,1,I, , , , ,space,2000,2,58f3b92052ac63000154a9ff,001,2021-08-19_16h00.46.594,natb3,2021.2.3,Win32,60.13590715,58f3b92052ac63000154a9ff,611e07ecdcc96256ae8d5b80,611e720299336d0627fa34a3,0.4075,
,,,,space,,0,195,195,230,1,U, , , , ,space,1500,1.5,58f3b92052ac63000154a9ff,001,2021-08-19_16h00.46.594,natb3,2021.2.3,Win32,60.13590715,58f3b92052ac63000154a9ff,611e07ecdcc96256ae8d5b80,611e720299336d0627fa34a3,0.3004,
,,,,space,,0,196,196,85,1,F, , , , ,space,2500,2.5,58f3b92052ac63000154a9ff,001,2021-08-19_16h00.46.594,natb3,2021.2.3,Win32,60.13590715,58f3b92052ac63000154a9ff,611e07ecdcc96256ae8d5b80,611e720299336d0627fa34a3,0.3204,
,,,,,,0,197,197,271,1,X, , , , ,,2500,2.5,58f3b92052ac63000154a9ff,001,2021-08-19_16h00.46.594,natb3,2021.2.3,Win32,60.13590715,58f3b92052ac63000154a9ff,611e07ecdcc96256ae8d5b80,611e720299336d0627fa34a3,,
,,,,space,,0,198,198,249,1,C, , , , ,space,2000,2,58f3b92052ac63000154a9ff,001,2021-08-19_16h00.46.594,natb3,2021.2.3,Win32,60.13590715,58f3b92052ac63000154a9ff,611e07ecdcc96256ae8d5b80,611e720299336d0627fa34a3,0.3192,
,,,,space,,0,199,199,54,1,X, , , , ,,2000,2,58f3b92052ac63000154a9ff,001,2021-08-19_16h00.46.594,natb3,2021.2.3,Win32,60.13590715,58f3b92052ac63000154a9ff,611e07ecdcc96256ae8d5b80,611e720299336d0627fa34a3,0.3815,
,,,,,,0,200,200,268,1,X,6, ,3, ,,2500,2.5,58f3b92052ac63000154a9ff,001,2021-08-19_16h00.46.594,natb3,2021.2.3,Win32,60.13590715,58f3b92052ac63000154a9ff,611e07ecdcc96256ae8d5b80,611e720299336d0627fa34a3,,
,,,,,,0,201,201,98,1,X, , , , ,,2500,2.5,58f3b92052ac63000154a9ff,001,2021-08-19_16h00.46.594,natb3,2021.2.3,Win32,60.13590715,58f3b92052ac63000154a9ff,611e07ecdcc96256ae8d5b80,611e720299336d0627fa34a3,,
,,,,space,,0,202,202,331,1,Y, , , , ,space,2500,2.5,58f3b92052ac63000154a9ff,001,2021-08-19_16h00.46.594,natb3,2021.2.3,Win32,60.13590715,58f3b92052ac63000154a9ff,611e07ecdcc96256ae8d5b80,611e720299336d0627fa34a3,0.399,
,,,,space,,0,203,203,320,1,B, , , , ,space,1500,1.5,58f3b92052ac63000154a9ff,001,2021-08-19_16h00.46.594,natb3,2021.2.3,Win32,60.13590715,58f3b92052ac63000154a9ff,611e07ecdcc96256ae8d5b80,611e720299336d0627fa34a3,0.3537,
,,,,space,,0,204,204,101,1,Q, , , , ,space,2500,2.5,58f3b92052ac63000154a9ff,001,2021-08-19_16h00.46.594,natb3,2021.2.3,Win32,60.13590715,58f3b92052ac63000154a9ff,611e07ecdcc96256ae8d5b80,611e720299336d0627fa34a3,0.3433,
,,,,space,,0,205,205,212,1,Q, , , , ,space,2500,2.5,58f3b92052ac63000154a9ff,001,2021-08-19_16h00.46.594,natb3,2021.2.3,Win32,60.13590715,58f3b92052ac63000154a9ff,611e07ecdcc96256ae8d5b80,611e720299336d0627fa34a3,0.3513,
,,,,space,,0,206,206,202,1,L, , , , ,space,2500,2.5,58f3b92052ac63000154a9ff,001,2021-08-19_16h00.46.594,natb3,2021.2.3,Win32,60.13590715,58f3b92052ac63000154a9ff,611e07ecdcc96256ae8d5b80,611e720299336d0627fa34a3,0.3713,
,,,,space,,0,207,207,288,1,M, , , , ,space,1500,1.5,58f3b92052ac63000154a9ff,001,2021-08-19_16h00.46.594,natb3,2021.2.3,Win32,60.13590715,58f3b92052ac63000154a9ff,611e07ecdcc96256ae8d5b80,611e720299336d0627fa34a3,0.3674,
,,,,space,,0,208,208,103,1,W, , , , ,space,2000,2,58f3b92052ac63000154a9ff,001,2021-08-19_16h00.46.594,natb3,2021.2.3,Win32,60.13590715,58f3b92052ac63000154a9ff,611e07ecdcc96256ae8d5b80,611e720299336d0627fa34a3,0.5133,
,,,,,,0,209,209,179,1,X, ,9, ,2,,1500,1.5,58f3b92052ac63000154a9ff,001,2021-08-19_16h00.46.594,natb3,2021.2.3,Win32,60.13590715,58f3b92052ac63000154a9ff,611e07ecdcc96256ae8d5b80,611e720299336d0627fa34a3,,
,,,,space,,0,210,210,127,1,S, , , , ,space,2500,2.5,58f3b92052ac63000154a9ff,001,2021-08-19_16h00.46.594,natb3,2021.2.3,Win32,60.13590715,58f3b92052ac63000154a9ff,611e07ecdcc96256ae8d5b80,611e720299336d0627fa34a3,0.3192,
,,,,space,,0,211,211,113,1,W, , , , ,space,2500,2.5,58f3b92052ac63000154a9ff,001,2021-08-19_16h00.46.594,natb3,2021.2.3,Win32,60.13590715,58f3b92052ac63000154a9ff,611e07ecdcc96256ae8d5b80,611e720299336d0627fa34a3,0.3538,
,,,,space,,0,212,212,328,1,R, , , , ,space,1500,1.5,58f3b92052ac63000154a9ff,001,2021-08-19_16h00.46.594,natb3,2021.2.3,Win32,60.13590715,58f3b92052ac63000154a9ff,611e07ecdcc96256ae8d5b80,611e720299336d0627fa34a3,0.3295,
,,,,space,,0,213,213,279,1,K, , , , ,space,2500,2.5,58f3b92052ac63000154a9ff,001,2021-08-19_16h00.46.594,natb3,2021.2.3,Win32,60.13590715,58f3b92052ac63000154a9ff,611e07ecdcc96256ae8d5b80,611e720299336d0627fa34a3,0.3138,
,,,,space,,0,214,214,326,1,W, , , , ,space,2000,2,58f3b92052ac63000154a9ff,001,2021-08-19_16h00.46.594,natb3,2021.2.3,Win32,60.13590715,58f3b92052ac63000154a9ff,611e07ecdcc96256ae8d5b80,611e720299336d0627fa34a3,0.4218,
,,,,space,,0,215,215,151,1,Y, , , , ,space,2500,2.5,58f3b92052ac63000154a9ff,001,2021-08-19_16h00.46.594,natb3,2021.2.3,Win32,60.13590715,58f3b92052ac63000154a9ff,611e07ecdcc96256ae8d5b80,611e720299336d0627fa34a3,0.2477,
,,,,space,,0,216,216,149,1,R, , , , ,space,2000,2,58f3b92052ac63000154a9ff,001,2021-08-19_16h00.46.594,natb3,2021.2.3,Win32,60.13590715,58f3b92052ac63000154a9ff,611e07ecdcc96256ae8d5b80,611e720299336d0627fa34a3,0.3337,
,,,,space,,0,217,217,96,1,X, , , , ,,1500,1.5,58f3b92052ac63000154a9ff,001,2021-08-19_16h00.46.594,natb3,2021.2.3,Win32,60.13590715,58f3b92052ac63000154a9ff,611e07ecdcc96256ae8d5b80,611e720299336d0627fa34a3,0.282,
,,,,space,,0,218,218,145,1,X, , , , ,,2000,2,58f3b92052ac63000154a9ff,001,2021-08-19_16h00.46.594,natb3,2021.2.3,Win32,60.13590715,58f3b92052ac63000154a9ff,611e07ecdcc96256ae8d5b80,611e720299336d0627fa34a3,0.3075,
,,,,,,0,219,219,311,1,X,1,2,7,3,,2500,2.5,58f3b92052ac63000154a9ff,001,2021-08-19_16h00.46.594,natb3,2021.2.3,Win32,60.13590715,58f3b92052ac63000154a9ff,611e07ecdcc96256ae8d5b80,611e720299336d0627fa34a3,,
,,,,,,0,220,220,191,1,X,1, ,3,4,,2500,2.5,58f3b92052ac63000154a9ff,001,2021-08-19_16h00.46.594,natb3,2021.2.3,Win32,60.13590715,58f3b92052ac63000154a9ff,611e07ecdcc96256ae8d5b80,611e720299336d0627fa34a3,,
,,,,,,0,221,221,4,1,X, , , , ,,2000,2,58f3b92052ac63000154a9ff,001,2021-08-19_16h00.46.594,natb3,2021.2.3,Win32,60.13590715,58f3b92052ac63000154a9ff,611e07ecdcc96256ae8d5b80,611e720299336d0627fa34a3,,
,,,,space,,0,222,222,177,1,M, , , , ,space,2500,2.5,58f3b92052ac63000154a9ff,001,2021-08-19_16h00.46.594,natb3,2021.2.3,Win32,60.13590715,58f3b92052ac63000154a9ff,611e07ecdcc96256ae8d5b80,611e720299336d0627fa34a3,0.4191,
,,,,space,,0,223,223,284,1,V, , , , ,space,2500,2.5,58f3b92052ac63000154a9ff,001,2021-08-19_16h00.46.594,natb3,2021.2.3,Win32,60.13590715,58f3b92052ac63000154a9ff,611e07ecdcc96256ae8d5b80,611e720299336d0627fa34a3,0.6608,
,,,,space,,0,224,224,234,1,P, , , , ,space,2000,2,58f3b92052ac63000154a9ff,001,2021-08-19_16h00.46.594,natb3,2021.2.3,Win32,60.13590715,58f3b92052ac63000154a9ff,611e07ecdcc96256ae8d5b80,611e720299336d0627fa34a3,0.3143,
,,,,space,,0,225,225,217,1,T, , , , ,space,2500,2.5,58f3b92052ac63000154a9ff,001,2021-08-19_16h00.46.594,natb3,2021.2.3,Win32,60.13590715,58f3b92052ac63000154a9ff,611e07ecdcc96256ae8d5b80,611e720299336d0627fa34a3,0.3544,
,,,,space,,0,226,226,206,1,V, , , , ,space,2000,2,58f3b92052ac63000154a9ff,001,2021-08-19_16h00.46.594,natb3,2021.2.3,Win32,60.13590715,58f3b92052ac63000154a9ff,611e07ecdcc96256ae8d5b80,611e720299336d0627fa34a3,0.3299,
,,,,space,,0,227,227,14,1,S, , , , ,space,2500,2.5,58f3b92052ac63000154a9ff,001,2021-08-19_16h00.46.594,natb3,2021.2.3,Win32,60.13590715,58f3b92052ac63000154a9ff,611e07ecdcc96256ae8d5b80,611e720299336d0627fa34a3,0.3189,
,,,,space,,0,228,228,80,1,A, , , , ,space,2000,2,58f3b92052ac63000154a9ff,001,2021-08-19_16h00.46.594,natb3,2021.2.3,Win32,60.13590715,58f3b92052ac63000154a9ff,611e07ecdcc96256ae8d5b80,611e720299336d0627fa34a3,0.3205,
,,,,space,,0,229,229,216,1,R, , , , ,space,1500,1.5,58f3b92052ac63000154a9ff,001,2021-08-19_16h00.46.594,natb3,2021.2.3,Win32,60.13590715,58f3b92052ac63000154a9ff,611e07ecdcc96256ae8d5b80,611e720299336d0627fa34a3,0.6845,
,,,,space,,0,230,230,90,1,K, , , , ,space,2000,2,58f3b92052ac63000154a9ff,001,2021-08-19_16h00.46.594,natb3,2021.2.3,Win32,60.13590715,58f3b92052ac63000154a9ff,611e07ecdcc96256ae8d5b80,611e720299336d0627fa34a3,0.7456,
,,,,space,,0,231,231,325,1,X, , , , ,,2500,2.5,58f3b92052ac63000154a9ff,001,2021-08-19_16h00.46.594,natb3,2021.2.3,Win32,60.13590715,58f3b92052ac63000154a9ff,611e07ecdcc96256ae8d5b80,611e720299336d0627fa34a3,0.3915,
,,,,space,,0,232,232,316,1,Z, , , , ,space,1500,1.5,58f3b92052ac63000154a9ff,001,2021-08-19_16h00.46.594,natb3,2021.2.3,Win32,60.13590715,58f3b92052ac63000154a9ff,611e07ecdcc96256ae8d5b80,611e720299336d0627fa34a3,0.3276,
,,,,space,,0,233,233,261,1,T, , , , ,space,2000,2,58f3b92052ac63000154a9ff,001,2021-08-19_16h00.46.594,natb3,2021.2.3,Win32,60.13590715,58f3b92052ac63000154a9ff,611e07ecdcc96256ae8d5b80,611e720299336d0627fa34a3,0.3071,
,,,,space,,0,234,234,19,1,G, , , , ,space,1500,1.5,58f3b92052ac63000154a9ff,001,2021-08-19_16h00.46.594,natb3,2021.2.3,Win32,60.13590715,58f3b92052ac63000154a9ff,611e07ecdcc96256ae8d5b80,611e720299336d0627fa34a3,0.3196,
,,,,space,,0,235,235,95,1,V, , , , ,space,1500,1.5,58f3b92052ac63000154a9ff,001,2021-08-19_16h00.46.594,natb3,2021.2.3,Win32,60.13590715,58f3b92052ac63000154a9ff,611e07ecdcc96256ae8d5b80,611e720299336d0627fa34a3,0.3814,
,,,,space,,0,236,236,65,1,M, , , , ,space,1500,1.5,58f3b92052ac63000154a9ff,001,2021-08-19_16h00.46.594,natb3,2021.2.3,Win32,60.13590715,58f3b92052ac63000154a9ff,611e07ecdcc96256ae8d5b80,611e720299336d0627fa34a3,0.3223,
,,,,space,,0,237,237,188,1,I, , , , ,space,2500,2.5,58f3b92052ac63000154a9ff,001,2021-08-19_16h00.46.594,natb3,2021.2.3,Win32,60.13590715,58f3b92052ac63000154a9ff,611e07ecdcc96256ae8d5b80,611e720299336d0627fa34a3,0.9675,
,,,,,,0,238,238,266,1,O, , , , ,space,1500,1.5,58f3b92052ac63000154a9ff,001,2021-08-19_16h00.46.594,natb3,2021.2.3,Win32,60.13590715,58f3b92052ac63000154a9ff,611e07ecdcc96256ae8d5b80,611e720299336d0627fa34a3,,
,,,,space,,0,239,239,290,1,W, , , , ,space,1500,1.5,58f3b92052ac63000154a9ff,001,2021-08-19_16h00.46.594,natb3,2021.2.3,Win32,60.13590715,58f3b92052ac63000154a9ff,611e07ecdcc96256ae8d5b80,611e720299336d0627fa34a3,0.3185,
,,,,space,,0,240,240,68,1,W, , , , ,space,2500,2.5,58f3b92052ac63000154a9ff,001,2021-08-19_16h00.46.594,natb3,2021.2.3,Win32,60.13590715,58f3b92052ac63000154a9ff,611e07ecdcc96256ae8d5b80,611e720299336d0627fa34a3,0.4044,
,,,,space,,0,241,241,3,1,R, , , , ,space,2000,2,58f3b92052ac63000154a9ff,001,2021-08-19_16h00.46.594,natb3,2021.2.3,Win32,60.13590715,58f3b92052ac63000154a9ff,611e07ecdcc96256ae8d5b80,611e720299336d0627fa34a3,0.3345,
,,,,space,,0,242,242,1,1,W, , , , ,space,2000,2,58f3b92052ac63000154a9ff,001,2021-08-19_16h00.46.594,natb3,2021.2.3,Win32,60.13590715,58f3b92052ac63000154a9ff,611e07ecdcc96256ae8d5b80,611e720299336d0627fa34a3,0.3344,
,,,,space,,0,243,243,58,1,L, , , , ,space,2000,2,58f3b92052ac63000154a9ff,001,2021-08-19_16h00.46.594,natb3,2021.2.3,Win32,60.13590715,58f3b92052ac63000154a9ff,611e07ecdcc96256ae8d5b80,611e720299336d0627fa34a3,0.5583,
,,,,space,,0,244,244,272,1,D, , , , ,space,2000,2,58f3b92052ac63000154a9ff,001,2021-08-19_16h00.46.594,natb3,2021.2.3,Win32,60.13590715,58f3b92052ac63000154a9ff,611e07ecdcc96256ae8d5b80,611e720299336d0627fa34a3,0.3048,
,,,,space,,0,245,245,87,1,H, , , , ,space,1500,1.5,58f3b92052ac63000154a9ff,001,2021-08-19_16h00.46.594,natb3,2021.2.3,Win32,60.13590715,58f3b92052ac63000154a9ff,611e07ecdcc96256ae8d5b80,611e720299336d0627fa34a3,0.3837,
,,,,,,0,246,246,295,1,X,8,7,5, ,,2500,2.5,58f3b92052ac63000154a9ff,001,2021-08-19_16h00.46.594,natb3,2021.2.3,Win32,60.13590715,58f3b92052ac63000154a9ff,611e07ecdcc96256ae8d5b80,611e720299336d0627fa34a3,,
,,,,,,0,247,247,15,1,X, , , , ,,1500,1.5,58f3b92052ac63000154a9ff,001,2021-08-19_16h00.46.594,natb3,2021.2.3,Win32,60.13590715,58f3b92052ac63000154a9ff,611e07ecdcc96256ae8d5b80,611e720299336d0627fa34a3,,
,,,,space,,0,248,248,321,1,N, , , , ,space,2000,2,58f3b92052ac63000154a9ff,001,2021-08-19_16h00.46.594,natb3,2021.2.3,Win32,60.13590715,58f3b92052ac63000154a9ff,611e07ecdcc96256ae8d5b80,611e720299336d0627fa34a3,0.4396,
,,,,space,,0,249,249,154,1,I, , , , ,space,2500,2.5,58f3b92052ac63000154a9ff,001,2021-08-19_16h00.46.594,natb3,2021.2.3,Win32,60.13590715,58f3b92052ac63000154a9ff,611e07ecdcc96256ae8d5b80,611e720299336d0627fa34a3,0.3691,
,,,,space,,0,250,250,75,1,U, , , , ,space,1500,1.5,58f3b92052ac63000154a9ff,001,2021-08-19_16h00.46.594,natb3,2021.2.3,Win32,60.13590715,58f3b92052ac63000154a9ff,611e07ecdcc96256ae8d5b80,611e720299336d0627fa34a3,0.3613,
,,,,space,,0,251,251,92,1,Z, , , , ,space,1500,1.5,58f3b92052ac63000154a9ff,001,2021-08-19_16h00.46.594,natb3,2021.2.3,Win32,60.13590715,58f3b92052ac63000154a9ff,611e07ecdcc96256ae8d5b80,611e720299336d0627fa34a3,0.3511,
,,,,space,,0,252,252,32,1,M, , , , ,space,1500,1.5,58f3b92052ac63000154a9ff,001,2021-08-19_16h00.46.594,natb3,2021.2.3,Win32,60.13590715,58f3b92052ac63000154a9ff,611e07ecdcc96256ae8d5b80,611e720299336d0627fa34a3,0.3094,
,,,,space,,0,253,253,112,1,Q, , , , ,space,2500,2.5,58f3b92052ac63000154a9ff,001,2021-08-19_16h00.46.594,natb3,2021.2.3,Win32,60.13590715,58f3b92052ac63000154a9ff,611e07ecdcc96256ae8d5b80,611e720299336d0627fa34a3,0.393,
,,,,space,,0,254,254,258,1,E, , , , ,space,1500,1.5,58f3b92052ac63000154a9ff,001,2021-08-19_16h00.46.594,natb3,2021.2.3,Win32,60.13590715,58f3b92052ac63000154a9ff,611e07ecdcc96256ae8d5b80,611e720299336d0627fa34a3,0.3341,
,,,,space,,0,255,255,223,1,Q, , , , ,space,2000,2,58f3b92052ac63000154a9ff,001,2021-08-19_16h00.46.594,natb3,2021.2.3,Win32,60.13590715,58f3b92052ac63000154a9ff,611e07ecdcc96256ae8d5b80,611e720299336d0627fa34a3,0.3265,
,,,,space,,0,256,256,195,1,X, , , , ,,1500,1.5,58f3b92052ac63000154a9ff,001,2021-08-19_16h00.46.594,natb3,2021.2.3,Win32,60.13590715,58f3b92052ac63000154a9ff,611e07ecdcc96256ae8d5b80,611e720299336d0627fa34a3,0.3315,
,,,,space,,0,257,257,81,1,S, , , , ,space,2000,2,58f3b92052ac63000154a9ff,001,2021-08-19_16h00.46.594,natb3,2021.2.3,Win32,60.13590715,58f3b92052ac63000154a9ff,611e07ecdcc96256ae8d5b80,611e720299336d0627fa34a3,0.4367,
,,,,space,,0,258,258,157,1,A, , , , ,space,2500,2.5,58f3b92052ac63000154a9ff,001,2021-08-19_16h00.46.594,natb3,2021.2.3,Win32,60.13590715,58f3b92052ac63000154a9ff,611e07ecdcc96256ae8d5b80,611e720299336d0627fa34a3,0.339,
,,,,space,,0,259,259,175,1,X,7, ,4,2,,1500,1.5,58f3b92052ac63000154a9ff,001,2021-08-19_16h00.46.594,natb3,2021.2.3,Win32,60.13590715,58f3b92052ac63000154a9ff,611e07ecdcc96256ae8d5b80,611e720299336d0627fa34a3,0.6473,
,,,,space,,0,260,260,323,1,M, , , , ,space,2500,2.5,58f3b92052ac63000154a9ff,001,2021-08-19_16h00.46.594,natb3,2021.2.3,Win32,60.13590715,58f3b92052ac63000154a9ff,611e07ecdcc96256ae8d5b80,611e720299336d0627fa34a3,0.3918,
,,,,,,0,261,261,162,1,X,1,6, ,2,,1500,1.5,58f3b92052ac63000154a9ff,001,2021-08-19_16h00.46.594,natb3,2021.2.3,Win32,60.13590715,58f3b92052ac63000154a9ff,611e07ecdcc96256ae8d5b80,611e720299336d0627fa34a3,,
,,,,space,,0,262,262,152,1,U, , , , ,space,2000,2,58f3b92052ac63000154a9ff,001,2021-08-19_16h00.46.594,natb3,2021.2.3,Win32,60.13590715,58f3b92052ac63000154a9ff,611e07ecdcc96256ae8d5b80,611e720299336d0627fa34a3,0.3569,
,,,,space,,0,263,263,198,1,H, , , , ,space,2500,2.5,58f3b92052ac63000154a9ff,001,2021-08-19_16h00.46.594,natb3,2021.2.3,Win32,60.13590715,58f3b92052ac63000154a9ff,611e07ecdcc96256ae8d5b80,611e720299336d0627fa34a3,0.3821,
,,,,space,,0,264,264,142,1,N, , , , ,space,2500,2.5,58f3b92052ac63000154a9ff,001,2021-08-19_16h00.46.594,natb3,2021.2.3,Win32,60.13590715,58f3b92052ac63000154a9ff,611e07ecdcc96256ae8d5b80,611e720299336d0627fa34a3,0.358,
,,,,space,,0,265,265,241,1,G, , , , ,space,2500,2.5,58f3b92052ac63000154a9ff,001,2021-08-19_16h00.46.594,natb3,2021.2.3,Win32,60.13590715,58f3b92052ac63000154a9ff,611e07ecdcc96256ae8d5b80,611e720299336d0627fa34a3,0.3222,
,,,,,,0,266,266,129,1,X,2,3,5, ,,1500,1.5,58f3b92052ac63000154a9ff,001,2021-08-19_16h00.46.594,natb3,2021.2.3,Win32,60.13590715,58f3b92052ac63000154a9ff,611e07ecdcc96256ae8d5b80,611e720299336d0627fa34a3,,
,,,,space,,0,267,267,235,1,A, , , , ,space,1500,1.5,58f3b92052ac63000154a9ff,001,2021-08-19_16h00.46.594,natb3,2021.2.3,Win32,60.13590715,58f3b92052ac63000154a9ff,611e07ecdcc96256ae8d5b80,611e720299336d0627fa34a3,0.3686,
,,,,,,0,268,268,66,1,X, ,4,7, ,,2000,2,58f3b92052ac63000154a9ff,001,2021-08-19_16h00.46.594,natb3,2021.2.3,Win32,60.13590715,58f3b92052ac63000154a9ff,611e07ecdcc96256ae8d5b80,611e720299336d0627fa34a3,,
,,,,space,,0,269,269,2,1,E, , , , ,space,2500,2.5,58f3b92052ac63000154a9ff,001,2021-08-19_16h00.46.594,natb3,2021.2.3,Win32,60.13590715,58f3b92052ac63000154a9ff,611e07ecdcc96256ae8d5b80,611e720299336d0627fa34a3,0.4663,
,,,,,,0,270,270,187,1,X, ,3,7,4,,1500,1.5,58f3b92052ac63000154a9ff,001,2021-08-19_16h00.46.594,natb3,2021.2.3,Win32,60.13590715,58f3b92052ac63000154a9ff,611e07ecdcc96256ae8d5b80,611e720299336d0627fa34a3,,
,,,,space,,0,271,271,275,1,G, , , , ,space,1500,1.5,58f3b92052ac63000154a9ff,001,2021-08-19_16h00.46.594,natb3,2021.2.3,Win32,60.13590715,58f3b92052ac63000154a9ff,611e07ecdcc96256ae8d5b80,611e720299336d0627fa34a3,0.4211,
,,,,space,,0,272,272,26,1,C, , , , ,space,2000,2,58f3b92052ac63000154a9ff,001,2021-08-19_16h00.46.594,natb3,2021.2.3,Win32,60.13590715,58f3b92052ac63000154a9ff,611e07ecdcc96256ae8d5b80,611e720299336d0627fa34a3,0.4503,
,,,,space,,0,273,273,110,1,I, , , , ,space,1500,1.5,58f3b92052ac63000154a9ff,001,2021-08-19_16h00.46.594,natb3,2021.2.3,Win32,60.13590715,58f3b92052ac63000154a9ff,611e07ecdcc96256ae8d5b80,611e720299336d0627fa34a3,0.4794,
,,,,,,0,274,274,51,1,X,7,5,8, ,,1500,1.5,58f3b92052ac63000154a9ff,001,2021-08-19_16h00.46.594,natb3,2021.2.3,Win32,60.13590715,58f3b92052ac63000154a9ff,611e07ecdcc96256ae8d5b80,611e720299336d0627fa34a3,,
,,,,space,,0,275,275,41,1,Y, , , , ,space,2500,2.5,58f3b92052ac63000154a9ff,001,2021-08-19_16h00.46.594,natb3,2021.2.3,Win32,60.13590715,58f3b92052ac63000154a9ff,611e07ecdcc96256ae8d5b80,611e720299336d0627fa34a3,0.3955,
,,,,space,,0,276,276,37,1,E, , , , ,space,2500,2.5,58f3b92052ac63000154a9ff,001,2021-08-19_16h00.46.594,natb3,2021.2.3,Win32,60.13590715,58f3b92052ac63000154a9ff,611e07ecdcc96256ae8d5b80,611e720299336d0627fa34a3,0.3845,
,,,,,,0,277,277,329,1,X,3,4, ,2,,2500,2.5,58f3b92052ac63000154a9ff,001,2021-08-19_16h00.46.594,natb3,2021.2.3,Win32,60.13590715,58f3b92052ac63000154a9ff,611e07ecdcc96256ae8d5b80,611e720299336d0627fa34a3,,
,,,,space,,0,278,278,6,1,Y, , , , ,space,2500,2.5,58f3b92052ac63000154a9ff,001,2021-08-19_16h00.46.594,natb3,2021.2.3,Win32,60.13590715,58f3b92052ac63000154a9ff,611e07ecdcc96256ae8d5b80,611e720299336d0627fa34a3,0.3884,
,,,,space,,0,279,279,158,1,X, , , , ,,1500,1.5,58f3b92052ac63000154a9ff,001,2021-08-19_16h00.46.594,natb3,2021.2.3,Win32,60.13590715,58f3b92052ac63000154a9ff,611e07ecdcc96256ae8d5b80,611e720299336d0627fa34a3,0.3146,
,,,,space,,0,280,280,86,1,G, , , , ,space,2000,2,58f3b92052ac63000154a9ff,001,2021-08-19_16h00.46.594,natb3,2021.2.3,Win32,60.13590715,58f3b92052ac63000154a9ff,611e07ecdcc96256ae8d5b80,611e720299336d0627fa34a3,0.3664,
,,,,space,,0,281,281,150,1,T, , , , ,space,2500,2.5,58f3b92052ac63000154a9ff,001,2021-08-19_16h00.46.594,natb3,2021.2.3,Win32,60.13590715,58f3b92052ac63000154a9ff,611e07ecdcc96256ae8d5b80,611e720299336d0627fa34a3,0.3161,
,,,,space,,0,282,282,34,1,Q, , , , ,space,2500,2.5,58f3b92052ac63000154a9ff,001,2021-08-19_16h00.46.594,natb3,2021.2.3,Win32,60.13590715,58f3b92052ac63000154a9ff,611e07ecdcc96256ae8d5b80,611e720299336d0627fa34a3,0.5027,
,,,,,,0,283,283,102,1,X, ,6, , ,,1500,1.5,58f3b92052ac63000154a9ff,001,2021-08-19_16h00.46.594,natb3,2021.2.3,Win32,60.13590715,58f3b92052ac63000154a9ff,611e07ecdcc96256ae8d5b80,611e720299336d0627fa34a3,,
,,,,space,,0,284,284,91,1,L, , , , ,space,2000,2,58f3b92052ac63000154a9ff,001,2021-08-19_16h00.46.594,natb3,2021.2.3,Win32,60.13590715,58f3b92052ac63000154a9ff,611e07ecdcc96256ae8d5b80,611e720299336d0627fa34a3,0.3744,
,,,,space,,0,285,285,124,1,P, , , , ,space,2000,2,58f3b92052ac63000154a9ff,001,2021-08-19_16h00.46.594,natb3,2021.2.3,Win32,60.13590715,58f3b92052ac63000154a9ff,611e07ecdcc96256ae8d5b80,611e720299336d0627fa34a3,0.4522,
,,,,,,0,286,286,43,1,X, ,6, ,2,,2500,2.5,58f3b92052ac63000154a9ff,001,2021-08-19_16h00.46.594,natb3,2021.2.3,Win32,60.13590715,58f3b92052ac63000154a9ff,611e07ecdcc96256ae8d5b80,611e720299336d0627fa34a3,,
,,,,space,,0,287,287,327,1,E, , , , ,space,1500,1.5,58f3b92052ac63000154a9ff,001,2021-08-19_16h00.46.594,natb3,2021.2.3,Win32,60.13590715,58f3b92052ac63000154a9ff,611e07ecdcc96256ae8d5b80,611e720299336d0627fa34a3,0.3027,
,,,,space,,0,288,288,197,1,G, , , , ,space,2500,2.5,58f3b92052ac63000154a9ff,001,2021-08-19_16h00.46.594,natb3,2021.2.3,Win32,60.13590715,58f3b92052ac63000154a9ff,611e07ecdcc96256ae8d5b80,611e720299336d0627fa34a3,0.3002,
,,,,,,0,289,289,322,1,X, , ,1,6,,2000,2,58f3b92052ac63000154a9ff,001,2021-08-19_16h00.46.594,natb3,2021.2.3,Win32,60.13590715,58f3b92052ac63000154a9ff,611e07ecdcc96256ae8d5b80,611e720299336d0627fa34a3,,
,,,,space,,0,290,290,135,1,K, , , , ,space,1500,1.5,58f3b92052ac63000154a9ff,001,2021-08-19_16h00.46.594,natb3,2021.2.3,Win32,60.13590715,58f3b92052ac63000154a9ff,611e07ecdcc96256ae8d5b80,611e720299336d0627fa34a3,0.6007,
,,,,space,,0,291,291,251,1,B, , , , ,space,1500,1.5,58f3b92052ac63000154a9ff,001,2021-08-19_16h00.46.594,natb3,2021.2.3,Win32,60.13590715,58f3b92052ac63000154a9ff,611e07ecdcc96256ae8d5b80,611e720299336d0627fa34a3,0.4179,
,,,,,,0,292,292,263,1,X,4, ,6, ,,1500,1.5,58f3b92052ac63000154a9ff,001,2021-08-19_16h00.46.594,natb3,2021.2.3,Win32,60.13590715,58f3b92052ac63000154a9ff,611e07ecdcc96256ae8d5b80,611e720299336d0627fa34a3,,
,,,,space,,0,293,293,30,1,N, , , , ,space,2500,2.5,58f3b92052ac63000154a9ff,001,2021-08-19_16h00.46.594,natb3,2021.2.3,Win32,60.13590715,58f3b92052ac63000154a9ff,611e07ecdcc96256ae8d5b80,611e720299336d0627fa34a3,0.3182,
,,,,space,,0,294,294,253,1,N, , , , ,space,2500,2.5,58f3b92052ac63000154a9ff,001,2021-08-19_16h00.46.594,natb3,2021.2.3,Win32,60.13590715,58f3b92052ac63000154a9ff,611e07ecdcc96256ae8d5b80,611e720299336d0627fa34a3,0.3511,
,,,,space,,0,295,295,137,1,C, , , , ,space,2500,2.5,58f3b92052ac63000154a9ff,001,2021-08-19_16h00.46.594,natb3,2021.2.3,Win32,60.13590715,58f3b92052ac63000154a9ff,611e07ecdcc96256ae8d5b80,611e720299336d0627fa34a3,0.3735,
,,,,space,,0,296,296,300,1,O, , , , ,space,2500,2.5,58f3b92052ac63000154a9ff,001,2021-08-19_16h00.46.594,natb3,2021.2.3,Win32,60.13590715,58f3b92052ac63000154a9ff,611e07ecdcc96256ae8d5b80,611e720299336d0627fa34a3,0.3087,
,,,,space,,0,297,297,269,1,A, , , , ,space,2500,2.5,58f3b92052ac63000154a9ff,001,2021-08-19_16h00.46.594,natb3,2021.2.3,Win32,60.13590715,58f3b92052ac63000154a9ff,611e07ecdcc96256ae8d5b80,611e720299336d0627fa34a3,0.3148,
,,,,space,,0,298,298,193,1,S, , , , ,space,2500,2.5,58f3b92052ac63000154a9ff,001,2021-08-19_16h00.46.594,natb3,2021.2.3,Win32,60.13590715,58f3b92052ac63000154a9ff,611e07ecdcc96256ae8d5b80,611e720299336d0627fa34a3,0.3882,
,,,,space,,0,299,299,205,1,C, , , , ,space,2000,2,58f3b92052ac63000154a9ff,001,2021-08-19_16h00.46.594,natb3,2021.2.3,Win32,60.13590715,58f3b92052ac63000154a9ff,611e07ecdcc96256ae8d5b80,611e720299336d0627fa34a3,0.3376,
,,,,space,,0,300,300,298,1,I, , , , ,space,2000,2,58f3b92052ac63000154a9ff,001,2021-08-19_16h00.46.594,natb3,2021.2.3,Win32,60.13590715,58f3b92052ac63000154a9ff,611e07ecdcc96256ae8d5b80,611e720299336d0627fa34a3,0.389,
,,,,space,,0,301,301,304,1,S, , , , ,space,2000,2,58f3b92052ac63000154a9ff,001,2021-08-19_16h00.46.594,natb3,2021.2.3,Win32,60.13590715,58f3b92052ac63000154a9ff,611e07ecdcc96256ae8d5b80,611e720299336d0627fa34a3,0.3352,
,,,,,,0,302,302,201,1,K, , , , ,space,1500,1.5,58f3b92052ac63000154a9ff,001,2021-08-19_16h00.46.594,natb3,2021.2.3,Win32,60.13590715,58f3b92052ac63000154a9ff,611e07ecdcc96256ae8d5b80,611e720299336d0627fa34a3,,
,,,,space,,0,303,303,13,1,A, , , , ,space,2000,2,58f3b92052ac63000154a9ff,001,2021-08-19_16h00.46.594,natb3,2021.2.3,Win32,60.13590715,58f3b92052ac63000154a9ff,611e07ecdcc96256ae8d5b80,611e720299336d0627fa34a3,0.3509,
,,,,space,,0,304,304,181,1,E, , , , ,space,1500,1.5,58f3b92052ac63000154a9ff,001,2021-08-19_16h00.46.594,natb3,2021.2.3,Win32,60.13590715,58f3b92052ac63000154a9ff,611e07ecdcc96256ae8d5b80,611e720299336d0627fa34a3,0.3317,
,,,,,,0,305,305,199,1,J, , , , ,space,2500,2.5,58f3b92052ac63000154a9ff,001,2021-08-19_16h00.46.594,natb3,2021.2.3,Win32,60.13590715,58f3b92052ac63000154a9ff,611e07ecdcc96256ae8d5b80,611e720299336d0627fa34a3,,
,,,,space,,0,306,306,256,1,Q, , , , ,space,2000,2,58f3b92052ac63000154a9ff,001,2021-08-19_16h00.46.594,natb3,2021.2.3,Win32,60.13590715,58f3b92052ac63000154a9ff,611e07ecdcc96256ae8d5b80,611e720299336d0627fa34a3,0.4926,
,,,,space,,0,307,307,248,1,X, ,1,5, ,,1500,1.5,58f3b92052ac63000154a9ff,001,2021-08-19_16h00.46.594,natb3,2021.2.3,Win32,60.13590715,58f3b92052ac63000154a9ff,611e07ecdcc96256ae8d5b80,611e720299336d0627fa34a3,0.2998,
,,,,space,,0,308,308,83,1,D, , , , ,space,2000,2,58f3b92052ac63000154a9ff,001,2021-08-19_16h00.46.594,natb3,2021.2.3,Win32,60.13590715,58f3b92052ac63000154a9ff,611e07ecdcc96256ae8d5b80,611e720299336d0627fa34a3,0.3045,
,,,,,,0,309,309,138,1,X,8,5, ,3,,2000,2,58f3b92052ac63000154a9ff,001,2021-08-19_16h00.46.594,natb3,2021.2.3,Win32,60.13590715,58f3b92052ac63000154a9ff,611e07ecdcc96256ae8d5b80,611e720299336d0627fa34a3,,
,,,,space,,0,310,310,0,1,Q, , , , ,space,1500,1.5,58f3b92052ac63000154a9ff,001,2021-08-19_16h00.46.594,natb3,2021.2.3,Win32,60.13590715,58f3b92052ac63000154a9ff,611e07ecdcc96256ae8d5b80,611e720299336d0627fa34a3,0.317,
,,,,space,,0,311,311,25,1,Z, , , , ,space,2500,2.5,58f3b92052ac63000154a9ff,001,2021-08-19_16h00.46.594,natb3,2021.2.3,Win32,60.13590715,58f3b92052ac63000154a9ff,611e07ecdcc96256ae8d5b80,611e720299336d0627fa34a3,0.3197,
,,,,space,,0,312,312,238,1,D, , , , ,space,1500,1.5,58f3b92052ac63000154a9ff,001,2021-08-19_16h00.46.594,natb3,2021.2.3,Win32,60.13590715,58f3b92052ac63000154a9ff,611e07ecdcc96256ae8d5b80,611e720299336d0627fa34a3,0.5971,
,,,,space,,0,313,313,78,1,X, , , , ,,2000,2,58f3b92052ac63000154a9ff,001,2021-08-19_16h00.46.594,natb3,2021.2.3,Win32,60.13590715,58f3b92052ac63000154a9ff,611e07ecdcc96256ae8d5b80,611e720299336d0627fa34a3,0.3168,
,,,,space,,0,314,314,169,1,L, , , , ,space,2500,2.5,58f3b92052ac63000154a9ff,001,2021-08-19_16h00.46.594,natb3,2021.2.3,Win32,60.13590715,58f3b92052ac63000154a9ff,611e07ecdcc96256ae8d5b80,611e720299336d0627fa34a3,0.3856,
,,,,space,,0,315,315,128,1,D, , , , ,space,2500,2.5,58f3b92052ac63000154a9ff,001,2021-08-19_16h00.46.594,natb3,2021.2.3,Win32,60.13590715,58f3b92052ac63000154a9ff,611e07ecdcc96256ae8d5b80,611e720299336d0627fa34a3,0.3787,
,,,,space,,0,316,316,294,1,T, , , , ,space,2000,2,58f3b92052ac63000154a9ff,001,2021-08-19_16h00.46.594,natb3,2021.2.3,Win32,60.13590715,58f3b92052ac63000154a9ff,611e07ecdcc96256ae8d5b80,611e720299336d0627fa34a3,0.3777,
,,,,space,,0,317,317,250,1,V, , , , ,space,2000,2,58f3b92052ac63000154a9ff,001,2021-08-19_16h00.46.594,natb3,2021.2.3,Win32,60.13590715,58f3b92052ac63000154a9ff,611e07ecdcc96256ae8d5b80,611e720299336d0627fa34a3,0.3637,
,,,,space,,0,318,318,226,1,R, , , , ,space,2000,2,58f3b92052ac63000154a9ff,001,2021-08-19_16h00.46.594,natb3,2021.2.3,Win32,60.13590715,58f3b92052ac63000154a9ff,611e07ecdcc96256ae8d5b80,611e720299336d0627fa34a3,0.8654,
,,,,space,,0,319,319,5,1,T, , , , ,space,2000,2,58f3b92052ac63000154a9ff,001,2021-08-19_16h00.46.594,natb3,2021.2.3,Win32,60.13590715,58f3b92052ac63000154a9ff,611e07ecdcc96256ae8d5b80,611e720299336d0627fa34a3,0.4883,
,,,,,,0,320,320,243,1,X, , , , ,,2500,2.5,58f3b92052ac63000154a9ff,001,2021-08-19_16h00.46.594,natb3,2021.2.3,Win32,60.13590715,58f3b92052ac63000154a9ff,611e07ecdcc96256ae8d5b80,611e720299336d0627fa34a3,,
,,,,space,,0,321,321,189,1,O, , , , ,space,1500,1.5,58f3b92052ac63000154a9ff,001,2021-08-19_16h00.46.594,natb3,2021.2.3,Win32,60.13590715,58f3b92052ac63000154a9ff,611e07ecdcc96256ae8d5b80,611e720299336d0627fa34a3,0.3974,
,,,,space,,0,322,322,77,1,O, , , , ,space,2000,2,58f3b92052ac63000154a9ff,001,2021-08-19_16h00.46.594,natb3,2021.2.3,Win32,60.13590715,58f3b92052ac63000154a9ff,611e07ecdcc96256ae8d5b80,611e720299336d0627fa34a3,0.401,
,,,,space,,0,323,323,310,1,J, , , , ,space,2500,2.5,58f3b92052ac63000154a9ff,001,2021-08-19_16h00.46.594,natb3,2021.2.3,Win32,60.13590715,58f3b92052ac63000154a9ff,611e07ecdcc96256ae8d5b80,611e720299336d0627fa34a3,0.3472,
,,,,space,,0,324,324,184,1,T, , , , ,space,2000,2,58f3b92052ac63000154a9ff,001,2021-08-19_16h00.46.594,natb3,2021.2.3,Win32,60.13590715,58f3b92052ac63000154a9ff,611e07ecdcc96256ae8d5b80,611e720299336d0627fa34a3,0.3391,
,,,,space,,0,325,325,134,1,J, , , , ,space,2000,2,58f3b92052ac63000154a9ff,001,2021-08-19_16h00.46.594,natb3,2021.2.3,Win32,60.13590715,58f3b92052ac63000154a9ff,611e07ecdcc96256ae8d5b80,611e720299336d0627fa34a3,0.3515,
,,,,space,,0,326,326,283,1,C, , , , ,space,1500,1.5,58f3b92052ac63000154a9ff,001,2021-08-19_16h00.46.594,natb3,2021.2.3,Win32,60.13590715,58f3b92052ac63000154a9ff,611e07ecdcc96256ae8d5b80,611e720299336d0627fa34a3,0.756,
,,,,space,,0,327,327,62,1,V, , , , ,space,1500,1.5,58f3b92052ac63000154a9ff,001,2021-08-19_16h00.46.594,natb3,2021.2.3,Win32,60.13590715,58f3b92052ac63000154a9ff,611e07ecdcc96256ae8d5b80,611e720299336d0627fa34a3,0.2976,
,,,,space,,0,328,328,265,1,I, , , , ,space,2000,2,58f3b92052ac63000154a9ff,001,2021-08-19_16h00.46.594,natb3,2021.2.3,Win32,60.13590715,58f3b92052ac63000154a9ff,611e07ecdcc96256ae8d5b80,611e720299336d0627fa34a3,0.2922,
,,,,,,0,329,329,89,1,X,3, , , ,,2000,2,58f3b92052ac63000154a9ff,001,2021-08-19_16h00.46.594,natb3,2021.2.3,Win32,60.13590715,58f3b92052ac63000154a9ff,611e07ecdcc96256ae8d5b80,611e720299336d0627fa34a3,,
,,,,space,,0,330,330,97,1,B, , , , ,space,2500,2.5,58f3b92052ac63000154a9ff,001,2021-08-19_16h00.46.594,natb3,2021.2.3,Win32,60.13590715,58f3b92052ac63000154a9ff,611e07ecdcc96256ae8d5b80,611e720299336d0627fa34a3,0.3449,
,,,,,,0,331,331,168,1,X, , , , ,,2500,2.5,58f3b92052ac63000154a9ff,001,2021-08-19_16h00.46.594,natb3,2021.2.3,Win32,60.13590715,58f3b92052ac63000154a9ff,611e07ecdcc96256ae8d5b80,611e720299336d0627fa34a3,,
,,,,space,,0,332,332,72,1,T, , , , ,space,1500,1.5,58f3b92052ac63000154a9ff,001,2021-08-19_16h00.46.594,natb3,2021.2.3,Win32,60.13590715,58f3b92052ac63000154a9ff,611e07ecdcc96256ae8d5b80,611e720299336d0627fa34a3,0.4304,
,,,,,,0,333,333,291,1,X, , , , ,,2000,2,58f3b92052ac63000154a9ff,001,2021-08-19_16h00.46.594,natb3,2021.2.3,Win32,60.13590715,58f3b92052ac63000154a9ff,611e07ecdcc96256ae8d5b80,611e720299336d0627fa34a3,,
,,,,,,0,334,334,93,1,X,5, ,7, ,,2500,2.5,58f3b92052ac63000154a9ff,001,2021-08-19_16h00.46.594,natb3,2021.2.3,Win32,60.13590715,58f3b92052ac63000154a9ff,611e07ecdcc96256ae8d5b80,611e720299336d0627fa34a3,,
,,,,space,,0,335,335,71,1,R, , , , ,space,2500,2.5,58f3b92052ac63000154a9ff,001,2021-08-19_16h00.46.594,natb3,2021.2.3,Win32,60.13590715,58f3b92052ac63000154a9ff,611e07ecdcc96256ae8d5b80,611e720299336d0627fa34a3,0.3846,
