key_resp_2.keys,key_resp_2.rt,key_resp_3.keys,key_resp_3.rt,key_resp.keys,key_resp.rt,key_resp_4.keys,trials.thisRepN,trials.thisTrialN,trials.thisN,trials.thisIndex,trials.ran,stimulus,distractor1,distractor2,distractor3,distractor4,CorrAns,isi_duration,isi_dur_in_seconds,participant,session,date,expName,psychopyVersion,OS,frameRate,PROLIFIC_PID,STUDY_ID,SESSION_ID,key_resp_4.rt
return,14.392,space,12.014,space,0.561,,0,0,0,76,1,I, , , , ,space,2000,2,5a270159c40dc70001824243,001,2021-08-19_16h15.27,natb3,2021.2.3,MacIntel,62.5,5a270159c40dc70001824243,611e07ecdcc96256ae8d5b80,611e757f538d4480c86d3ee5,
,,,,,,,0,1,1,33,1,X, , , , ,,1500,1.5,5a270159c40dc70001824243,001,2021-08-19_16h15.27,natb3,2021.2.3,MacIntel,62.5,5a270159c40dc70001824243,611e07ecdcc96256ae8d5b80,611e757f538d4480c86d3ee5,
,,,,,,,0,2,2,302,1,X, , , , ,,2000,2,5a270159c40dc70001824243,001,2021-08-19_16h15.27,natb3,2021.2.3,MacIntel,62.5,5a270159c40dc70001824243,611e07ecdcc96256ae8d5b80,611e757f538d4480c86d3ee5,
,,,,space,0.448,,0,3,3,169,1,L, , , , ,space,2500,2.5,5a270159c40dc70001824243,001,2021-08-19_16h15.27,natb3,2021.2.3,MacIntel,62.5,5a270159c40dc70001824243,611e07ecdcc96256ae8d5b80,611e757f538d4480c86d3ee5,
,,,,space,0.401,,0,4,4,276,1,H, , , , ,space,2000,2,5a270159c40dc70001824243,001,2021-08-19_16h15.27,natb3,2021.2.3,MacIntel,62.5,5a270159c40dc70001824243,611e07ecdcc96256ae8d5b80,611e757f538d4480c86d3ee5,
,,,,space,0.351,,0,5,5,163,1,G, , , , ,space,2500,2.5,5a270159c40dc70001824243,001,2021-08-19_16h15.27,natb3,2021.2.3,MacIntel,62.5,5a270159c40dc70001824243,611e07ecdcc96256ae8d5b80,611e757f538d4480c86d3ee5,
,,,,space,0.3,,0,6,6,284,1,V, , , , ,space,2500,2.5,5a270159c40dc70001824243,001,2021-08-19_16h15.27,natb3,2021.2.3,MacIntel,62.5,5a270159c40dc70001824243,611e07ecdcc96256ae8d5b80,611e757f538d4480c86d3ee5,
,,,,space,0.388,,0,7,7,237,1,S, , , , ,space,1500,1.5,5a270159c40dc70001824243,001,2021-08-19_16h15.27,natb3,2021.2.3,MacIntel,62.5,5a270159c40dc70001824243,611e07ecdcc96256ae8d5b80,611e757f538d4480c86d3ee5,
,,,,space,0.432,,0,8,8,185,1,Y, , , , ,space,2500,2.5,5a270159c40dc70001824243,001,2021-08-19_16h15.27,natb3,2021.2.3,MacIntel,62.5,5a270159c40dc70001824243,611e07ecdcc96256ae8d5b80,611e757f538d4480c86d3ee5,
,,,,,,,0,9,9,243,1,X, , , , ,,2500,2.5,5a270159c40dc70001824243,001,2021-08-19_16h15.27,natb3,2021.2.3,MacIntel,62.5,5a270159c40dc70001824243,611e07ecdcc96256ae8d5b80,611e757f538d4480c86d3ee5,
,,,,space,0.505,,0,10,10,136,1,Z, , , , ,space,2500,2.5,5a270159c40dc70001824243,001,2021-08-19_16h15.27,natb3,2021.2.3,MacIntel,62.5,5a270159c40dc70001824243,611e07ecdcc96256ae8d5b80,611e757f538d4480c86d3ee5,
,,,,space,0.369,,0,11,11,31,1,X, , , , ,,1500,1.5,5a270159c40dc70001824243,001,2021-08-19_16h15.27,natb3,2021.2.3,MacIntel,62.5,5a270159c40dc70001824243,611e07ecdcc96256ae8d5b80,611e757f538d4480c86d3ee5,
,,,,space,0.416,,0,12,12,326,1,W, , , , ,space,2000,2,5a270159c40dc70001824243,001,2021-08-19_16h15.27,natb3,2021.2.3,MacIntel,62.5,5a270159c40dc70001824243,611e07ecdcc96256ae8d5b80,611e757f538d4480c86d3ee5,
,,,,space,0.426,,0,13,13,240,1,F, , , , ,space,2500,2.5,5a270159c40dc70001824243,001,2021-08-19_16h15.27,natb3,2021.2.3,MacIntel,62.5,5a270159c40dc70001824243,611e07ecdcc96256ae8d5b80,611e757f538d4480c86d3ee5,
,,,,space,0.432,,0,14,14,90,1,K, , , , ,space,2000,2,5a270159c40dc70001824243,001,2021-08-19_16h15.27,natb3,2021.2.3,MacIntel,62.5,5a270159c40dc70001824243,611e07ecdcc96256ae8d5b80,611e757f538d4480c86d3ee5,
,,,,space,0.391,,0,15,15,330,1,T, , , , ,space,2500,2.5,5a270159c40dc70001824243,001,2021-08-19_16h15.27,natb3,2021.2.3,MacIntel,62.5,5a270159c40dc70001824243,611e07ecdcc96256ae8d5b80,611e757f538d4480c86d3ee5,
,,,,space,0.374,,0,16,16,242,1,H, , , , ,space,2500,2.5,5a270159c40dc70001824243,001,2021-08-19_16h15.27,natb3,2021.2.3,MacIntel,62.5,5a270159c40dc70001824243,611e07ecdcc96256ae8d5b80,611e757f538d4480c86d3ee5,
,,,,space,0.398,,0,17,17,61,1,C, , , , ,space,2000,2,5a270159c40dc70001824243,001,2021-08-19_16h15.27,natb3,2021.2.3,MacIntel,62.5,5a270159c40dc70001824243,611e07ecdcc96256ae8d5b80,611e757f538d4480c86d3ee5,
,,,,space,0.456,,0,18,18,49,1,S, , , , ,space,1500,1.5,5a270159c40dc70001824243,001,2021-08-19_16h15.27,natb3,2021.2.3,MacIntel,62.5,5a270159c40dc70001824243,611e07ecdcc96256ae8d5b80,611e757f538d4480c86d3ee5,
,,,,,,,0,19,19,195,1,X, , , , ,,1500,1.5,5a270159c40dc70001824243,001,2021-08-19_16h15.27,natb3,2021.2.3,MacIntel,62.5,5a270159c40dc70001824243,611e07ecdcc96256ae8d5b80,611e757f538d4480c86d3ee5,
,,,,space,0.382,,0,20,20,70,1,E, , , , ,space,2500,2.5,5a270159c40dc70001824243,001,2021-08-19_16h15.27,natb3,2021.2.3,MacIntel,62.5,5a270159c40dc70001824243,611e07ecdcc96256ae8d5b80,611e757f538d4480c86d3ee5,
,,,,space,0.352,,0,21,21,307,1,F, , , , ,space,2500,2.5,5a270159c40dc70001824243,001,2021-08-19_16h15.27,natb3,2021.2.3,MacIntel,62.5,5a270159c40dc70001824243,611e07ecdcc96256ae8d5b80,611e757f538d4480c86d3ee5,
,,,,,,,0,22,22,273,1,X, , , , ,,2000,2,5a270159c40dc70001824243,001,2021-08-19_16h15.27,natb3,2021.2.3,MacIntel,62.5,5a270159c40dc70001824243,611e07ecdcc96256ae8d5b80,611e757f538d4480c86d3ee5,
,,,,space,0.434,,0,23,23,92,1,Z, , , , ,space,1500,1.5,5a270159c40dc70001824243,001,2021-08-19_16h15.27,natb3,2021.2.3,MacIntel,62.5,5a270159c40dc70001824243,611e07ecdcc96256ae8d5b80,611e757f538d4480c86d3ee5,
,,,,space,0.533,,0,24,24,156,1,P, , , , ,space,1500,1.5,5a270159c40dc70001824243,001,2021-08-19_16h15.27,natb3,2021.2.3,MacIntel,62.5,5a270159c40dc70001824243,611e07ecdcc96256ae8d5b80,611e757f538d4480c86d3ee5,
,,,,space,0.354,,0,25,25,126,1,A, , , , ,space,2500,2.5,5a270159c40dc70001824243,001,2021-08-19_16h15.27,natb3,2021.2.3,MacIntel,62.5,5a270159c40dc70001824243,611e07ecdcc96256ae8d5b80,611e757f538d4480c86d3ee5,
,,,,,,,0,26,26,93,1,X,5, ,7, ,,2500,2.5,5a270159c40dc70001824243,001,2021-08-19_16h15.27,natb3,2021.2.3,MacIntel,62.5,5a270159c40dc70001824243,611e07ecdcc96256ae8d5b80,611e757f538d4480c86d3ee5,
,,,,,,,0,27,27,248,1,X, ,1,5, ,,1500,1.5,5a270159c40dc70001824243,001,2021-08-19_16h15.27,natb3,2021.2.3,MacIntel,62.5,5a270159c40dc70001824243,611e07ecdcc96256ae8d5b80,611e757f538d4480c86d3ee5,
,,,,space,0.411,,0,28,28,301,1,P, , , , ,space,1500,1.5,5a270159c40dc70001824243,001,2021-08-19_16h15.27,natb3,2021.2.3,MacIntel,62.5,5a270159c40dc70001824243,611e07ecdcc96256ae8d5b80,611e757f538d4480c86d3ee5,
,,,,space,0.358,,0,29,29,130,1,F, , , , ,space,2000,2,5a270159c40dc70001824243,001,2021-08-19_16h15.27,natb3,2021.2.3,MacIntel,62.5,5a270159c40dc70001824243,611e07ecdcc96256ae8d5b80,611e757f538d4480c86d3ee5,
,,,,space,0.352,,0,30,30,85,1,F, , , , ,space,2500,2.5,5a270159c40dc70001824243,001,2021-08-19_16h15.27,natb3,2021.2.3,MacIntel,62.5,5a270159c40dc70001824243,611e07ecdcc96256ae8d5b80,611e757f538d4480c86d3ee5,
,,,,space,0.398,,0,31,31,94,1,C, , , , ,space,2000,2,5a270159c40dc70001824243,001,2021-08-19_16h15.27,natb3,2021.2.3,MacIntel,62.5,5a270159c40dc70001824243,611e07ecdcc96256ae8d5b80,611e757f538d4480c86d3ee5,
,,,,space,0.392,,0,32,32,79,1,P, , , , ,space,2000,2,5a270159c40dc70001824243,001,2021-08-19_16h15.27,natb3,2021.2.3,MacIntel,62.5,5a270159c40dc70001824243,611e07ecdcc96256ae8d5b80,611e757f538d4480c86d3ee5,
,,,,space,0.334,,0,33,33,251,1,B, , , , ,space,1500,1.5,5a270159c40dc70001824243,001,2021-08-19_16h15.27,natb3,2021.2.3,MacIntel,62.5,5a270159c40dc70001824243,611e07ecdcc96256ae8d5b80,611e757f538d4480c86d3ee5,
,,,,space,0.358,,0,34,34,164,1,H, , , , ,space,2500,2.5,5a270159c40dc70001824243,001,2021-08-19_16h15.27,natb3,2021.2.3,MacIntel,62.5,5a270159c40dc70001824243,611e07ecdcc96256ae8d5b80,611e757f538d4480c86d3ee5,
,,,,space,0.559,,0,35,35,123,1,O, , , , ,space,1500,1.5,5a270159c40dc70001824243,001,2021-08-19_16h15.27,natb3,2021.2.3,MacIntel,62.5,5a270159c40dc70001824243,611e07ecdcc96256ae8d5b80,611e757f538d4480c86d3ee5,
,,,,space,0.808,,0,36,36,15,1,X, , , , ,,1500,1.5,5a270159c40dc70001824243,001,2021-08-19_16h15.27,natb3,2021.2.3,MacIntel,62.5,5a270159c40dc70001824243,611e07ecdcc96256ae8d5b80,611e757f538d4480c86d3ee5,
,,,,space,0.308,,0,37,37,113,1,W, , , , ,space,2500,2.5,5a270159c40dc70001824243,001,2021-08-19_16h15.27,natb3,2021.2.3,MacIntel,62.5,5a270159c40dc70001824243,611e07ecdcc96256ae8d5b80,611e757f538d4480c86d3ee5,
,,,,,,,0,38,38,153,1,X,4,7, ,6,,2000,2,5a270159c40dc70001824243,001,2021-08-19_16h15.27,natb3,2021.2.3,MacIntel,62.5,5a270159c40dc70001824243,611e07ecdcc96256ae8d5b80,611e757f538d4480c86d3ee5,
,,,,space,0.375,,0,39,39,258,1,E, , , , ,space,1500,1.5,5a270159c40dc70001824243,001,2021-08-19_16h15.27,natb3,2021.2.3,MacIntel,62.5,5a270159c40dc70001824243,611e07ecdcc96256ae8d5b80,611e757f538d4480c86d3ee5,
,,,,space,0.499,,0,40,40,278,1,J, , , , ,space,2000,2,5a270159c40dc70001824243,001,2021-08-19_16h15.27,natb3,2021.2.3,MacIntel,62.5,5a270159c40dc70001824243,611e07ecdcc96256ae8d5b80,611e757f538d4480c86d3ee5,
,,,,,,,0,41,41,98,1,X, , , , ,,2500,2.5,5a270159c40dc70001824243,001,2021-08-19_16h15.27,natb3,2021.2.3,MacIntel,62.5,5a270159c40dc70001824243,611e07ecdcc96256ae8d5b80,611e757f538d4480c86d3ee5,
,,,,space,0.651,,0,42,42,87,1,H, , , , ,space,1500,1.5,5a270159c40dc70001824243,001,2021-08-19_16h15.27,natb3,2021.2.3,MacIntel,62.5,5a270159c40dc70001824243,611e07ecdcc96256ae8d5b80,611e757f538d4480c86d3ee5,
,,,,,,,0,43,43,7,1,X, , , , ,,1500,1.5,5a270159c40dc70001824243,001,2021-08-19_16h15.27,natb3,2021.2.3,MacIntel,62.5,5a270159c40dc70001824243,611e07ecdcc96256ae8d5b80,611e757f538d4480c86d3ee5,
,,,,,,,0,44,44,295,1,X,8,7,5, ,,2500,2.5,5a270159c40dc70001824243,001,2021-08-19_16h15.27,natb3,2021.2.3,MacIntel,62.5,5a270159c40dc70001824243,611e07ecdcc96256ae8d5b80,611e757f538d4480c86d3ee5,
,,,,space,0.582,,0,45,45,73,1,Y, , , , ,space,2000,2,5a270159c40dc70001824243,001,2021-08-19_16h15.27,natb3,2021.2.3,MacIntel,62.5,5a270159c40dc70001824243,611e07ecdcc96256ae8d5b80,611e757f538d4480c86d3ee5,
,,,,,,,0,46,46,305,1,X, , , , ,,1500,1.5,5a270159c40dc70001824243,001,2021-08-19_16h15.27,natb3,2021.2.3,MacIntel,62.5,5a270159c40dc70001824243,611e07ecdcc96256ae8d5b80,611e757f538d4480c86d3ee5,
,,,,,,,0,47,47,313,1,X, , , , ,,2500,2.5,5a270159c40dc70001824243,001,2021-08-19_16h15.27,natb3,2021.2.3,MacIntel,62.5,5a270159c40dc70001824243,611e07ecdcc96256ae8d5b80,611e757f538d4480c86d3ee5,
,,,,space,0.367,,0,48,48,127,1,S, , , , ,space,2500,2.5,5a270159c40dc70001824243,001,2021-08-19_16h15.27,natb3,2021.2.3,MacIntel,62.5,5a270159c40dc70001824243,611e07ecdcc96256ae8d5b80,611e757f538d4480c86d3ee5,
,,,,space,0.802,,0,49,49,234,1,P, , , , ,space,2000,2,5a270159c40dc70001824243,001,2021-08-19_16h15.27,natb3,2021.2.3,MacIntel,62.5,5a270159c40dc70001824243,611e07ecdcc96256ae8d5b80,611e757f538d4480c86d3ee5,
,,,,space,0.525,,0,50,50,16,1,D, , , , ,space,1500,1.5,5a270159c40dc70001824243,001,2021-08-19_16h15.27,natb3,2021.2.3,MacIntel,62.5,5a270159c40dc70001824243,611e07ecdcc96256ae8d5b80,611e757f538d4480c86d3ee5,
,,,,space,0.375,,0,51,51,199,1,J, , , , ,space,2500,2.5,5a270159c40dc70001824243,001,2021-08-19_16h15.27,natb3,2021.2.3,MacIntel,62.5,5a270159c40dc70001824243,611e07ecdcc96256ae8d5b80,611e757f538d4480c86d3ee5,
,,,,space,0.391,,0,52,52,208,1,B, , , , ,space,1500,1.5,5a270159c40dc70001824243,001,2021-08-19_16h15.27,natb3,2021.2.3,MacIntel,62.5,5a270159c40dc70001824243,611e07ecdcc96256ae8d5b80,611e757f538d4480c86d3ee5,
,,,,space,0.359,,0,53,53,309,1,H, , , , ,space,2500,2.5,5a270159c40dc70001824243,001,2021-08-19_16h15.27,natb3,2021.2.3,MacIntel,62.5,5a270159c40dc70001824243,611e07ecdcc96256ae8d5b80,611e757f538d4480c86d3ee5,
,,,,space,0.372,,0,54,54,192,1,A, , , , ,space,2000,2,5a270159c40dc70001824243,001,2021-08-19_16h15.27,natb3,2021.2.3,MacIntel,62.5,5a270159c40dc70001824243,611e07ecdcc96256ae8d5b80,611e757f538d4480c86d3ee5,
,,,,space,0.364,,0,55,55,304,1,S, , , , ,space,2000,2,5a270159c40dc70001824243,001,2021-08-19_16h15.27,natb3,2021.2.3,MacIntel,62.5,5a270159c40dc70001824243,611e07ecdcc96256ae8d5b80,611e757f538d4480c86d3ee5,
,,,,space,0.348,,0,56,56,256,1,Q, , , , ,space,2000,2,5a270159c40dc70001824243,001,2021-08-19_16h15.27,natb3,2021.2.3,MacIntel,62.5,5a270159c40dc70001824243,611e07ecdcc96256ae8d5b80,611e757f538d4480c86d3ee5,
,,,,space,0.544,,0,57,57,152,1,U, , , , ,space,2000,2,5a270159c40dc70001824243,001,2021-08-19_16h15.27,natb3,2021.2.3,MacIntel,62.5,5a270159c40dc70001824243,611e07ecdcc96256ae8d5b80,611e757f538d4480c86d3ee5,
,,,,space,0.384,,0,58,58,147,1,E, , , , ,space,2000,2,5a270159c40dc70001824243,001,2021-08-19_16h15.27,natb3,2021.2.3,MacIntel,62.5,5a270159c40dc70001824243,611e07ecdcc96256ae8d5b80,611e757f538d4480c86d3ee5,
,,,,,,,0,59,59,89,1,X,3, , , ,,2000,2,5a270159c40dc70001824243,001,2021-08-19_16h15.27,natb3,2021.2.3,MacIntel,62.5,5a270159c40dc70001824243,611e07ecdcc96256ae8d5b80,611e757f538d4480c86d3ee5,
,,,,space,0.468,,0,60,60,37,1,E, , , , ,space,2500,2.5,5a270159c40dc70001824243,001,2021-08-19_16h15.27,natb3,2021.2.3,MacIntel,62.5,5a270159c40dc70001824243,611e07ecdcc96256ae8d5b80,611e757f538d4480c86d3ee5,
,,,,space,0.475,,0,61,61,143,1,M, , , , ,space,2500,2.5,5a270159c40dc70001824243,001,2021-08-19_16h15.27,natb3,2021.2.3,MacIntel,62.5,5a270159c40dc70001824243,611e07ecdcc96256ae8d5b80,611e757f538d4480c86d3ee5,
,,,,space,0.407,,0,62,62,97,1,B, , , , ,space,2500,2.5,5a270159c40dc70001824243,001,2021-08-19_16h15.27,natb3,2021.2.3,MacIntel,62.5,5a270159c40dc70001824243,611e07ecdcc96256ae8d5b80,611e757f538d4480c86d3ee5,
,,,,space,0.422,,0,63,63,132,1,H, , , , ,space,2500,2.5,5a270159c40dc70001824243,001,2021-08-19_16h15.27,natb3,2021.2.3,MacIntel,62.5,5a270159c40dc70001824243,611e07ecdcc96256ae8d5b80,611e757f538d4480c86d3ee5,
,,,,,,,0,64,64,311,1,X,1,2,7,3,,2500,2.5,5a270159c40dc70001824243,001,2021-08-19_16h15.27,natb3,2021.2.3,MacIntel,62.5,5a270159c40dc70001824243,611e07ecdcc96256ae8d5b80,611e757f538d4480c86d3ee5,
,,,,space,0.401,,0,65,65,236,1,X,3, ,4,7,,2500,2.5,5a270159c40dc70001824243,001,2021-08-19_16h15.27,natb3,2021.2.3,MacIntel,62.5,5a270159c40dc70001824243,611e07ecdcc96256ae8d5b80,611e757f538d4480c86d3ee5,
,,,,,,,0,66,66,270,1,S, , , , ,space,1500,1.5,5a270159c40dc70001824243,001,2021-08-19_16h15.27,natb3,2021.2.3,MacIntel,62.5,5a270159c40dc70001824243,611e07ecdcc96256ae8d5b80,611e757f538d4480c86d3ee5,
,,,,,,,0,67,67,23,1,X,1, ,5, ,,2000,2,5a270159c40dc70001824243,001,2021-08-19_16h15.27,natb3,2021.2.3,MacIntel,62.5,5a270159c40dc70001824243,611e07ecdcc96256ae8d5b80,611e757f538d4480c86d3ee5,
,,,,space,0.654,,0,68,68,260,1,R, , , , ,space,2000,2,5a270159c40dc70001824243,001,2021-08-19_16h15.27,natb3,2021.2.3,MacIntel,62.5,5a270159c40dc70001824243,611e07ecdcc96256ae8d5b80,611e757f538d4480c86d3ee5,
,,,,space,0.558,,0,69,69,261,1,T, , , , ,space,2000,2,5a270159c40dc70001824243,001,2021-08-19_16h15.27,natb3,2021.2.3,MacIntel,62.5,5a270159c40dc70001824243,611e07ecdcc96256ae8d5b80,611e757f538d4480c86d3ee5,
,,,,space,0.427,,0,70,70,111,1,O, , , , ,space,2000,2,5a270159c40dc70001824243,001,2021-08-19_16h15.27,natb3,2021.2.3,MacIntel,62.5,5a270159c40dc70001824243,611e07ecdcc96256ae8d5b80,611e757f538d4480c86d3ee5,
,,,,space,0.953,,0,71,71,65,1,M, , , , ,space,1500,1.5,5a270159c40dc70001824243,001,2021-08-19_16h15.27,natb3,2021.2.3,MacIntel,62.5,5a270159c40dc70001824243,611e07ecdcc96256ae8d5b80,611e757f538d4480c86d3ee5,
,,,,space,0.394,,0,72,72,145,1,X, , , , ,,2000,2,5a270159c40dc70001824243,001,2021-08-19_16h15.27,natb3,2021.2.3,MacIntel,62.5,5a270159c40dc70001824243,611e07ecdcc96256ae8d5b80,611e757f538d4480c86d3ee5,
,,,,space,0.4,,0,73,73,131,1,G, , , , ,space,1500,1.5,5a270159c40dc70001824243,001,2021-08-19_16h15.27,natb3,2021.2.3,MacIntel,62.5,5a270159c40dc70001824243,611e07ecdcc96256ae8d5b80,611e757f538d4480c86d3ee5,
,,,,space,0.475,,0,74,74,249,1,C, , , , ,space,2000,2,5a270159c40dc70001824243,001,2021-08-19_16h15.27,natb3,2021.2.3,MacIntel,62.5,5a270159c40dc70001824243,611e07ecdcc96256ae8d5b80,611e757f538d4480c86d3ee5,
,,,,space,0.757,,0,75,75,182,1,X, , , , ,,1500,1.5,5a270159c40dc70001824243,001,2021-08-19_16h15.27,natb3,2021.2.3,MacIntel,62.5,5a270159c40dc70001824243,611e07ecdcc96256ae8d5b80,611e757f538d4480c86d3ee5,
,,,,,,,0,76,76,264,1,U, , , , ,space,2000,2,5a270159c40dc70001824243,001,2021-08-19_16h15.27,natb3,2021.2.3,MacIntel,62.5,5a270159c40dc70001824243,611e07ecdcc96256ae8d5b80,611e757f538d4480c86d3ee5,
,,,,space,0.492,,0,77,77,274,1,F, , , , ,space,2000,2,5a270159c40dc70001824243,001,2021-08-19_16h15.27,natb3,2021.2.3,MacIntel,62.5,5a270159c40dc70001824243,611e07ecdcc96256ae8d5b80,611e757f538d4480c86d3ee5,
,,,,space,0.427,,0,78,78,120,1,U, , , , ,space,1500,1.5,5a270159c40dc70001824243,001,2021-08-19_16h15.27,natb3,2021.2.3,MacIntel,62.5,5a270159c40dc70001824243,611e07ecdcc96256ae8d5b80,611e757f538d4480c86d3ee5,
,,,,space,0.592,,0,79,79,298,1,I, , , , ,space,2000,2,5a270159c40dc70001824243,001,2021-08-19_16h15.27,natb3,2021.2.3,MacIntel,62.5,5a270159c40dc70001824243,611e07ecdcc96256ae8d5b80,611e757f538d4480c86d3ee5,
,,,,space,0.85,,0,80,80,235,1,A, , , , ,space,1500,1.5,5a270159c40dc70001824243,001,2021-08-19_16h15.27,natb3,2021.2.3,MacIntel,62.5,5a270159c40dc70001824243,611e07ecdcc96256ae8d5b80,611e757f538d4480c86d3ee5,
,,,,space,0.572,,0,81,81,238,1,D, , , , ,space,1500,1.5,5a270159c40dc70001824243,001,2021-08-19_16h15.27,natb3,2021.2.3,MacIntel,62.5,5a270159c40dc70001824243,611e07ecdcc96256ae8d5b80,611e757f538d4480c86d3ee5,
,,,,,,,0,82,82,39,1,X,6,2, , ,,1500,1.5,5a270159c40dc70001824243,001,2021-08-19_16h15.27,natb3,2021.2.3,MacIntel,62.5,5a270159c40dc70001824243,611e07ecdcc96256ae8d5b80,611e757f538d4480c86d3ee5,
,,,,space,0.628,,0,83,83,40,1,T, , , , ,space,1500,1.5,5a270159c40dc70001824243,001,2021-08-19_16h15.27,natb3,2021.2.3,MacIntel,62.5,5a270159c40dc70001824243,611e07ecdcc96256ae8d5b80,611e757f538d4480c86d3ee5,
,,,,space,0.658,,0,84,84,38,1,R, , , , ,space,2500,2.5,5a270159c40dc70001824243,001,2021-08-19_16h15.27,natb3,2021.2.3,MacIntel,62.5,5a270159c40dc70001824243,611e07ecdcc96256ae8d5b80,611e757f538d4480c86d3ee5,
,,,,space,0.384,,0,85,85,205,1,C, , , , ,space,2000,2,5a270159c40dc70001824243,001,2021-08-19_16h15.27,natb3,2021.2.3,MacIntel,62.5,5a270159c40dc70001824243,611e07ecdcc96256ae8d5b80,611e757f538d4480c86d3ee5,
,,,,space,0.423,,0,86,86,167,1,K, , , , ,space,1500,1.5,5a270159c40dc70001824243,001,2021-08-19_16h15.27,natb3,2021.2.3,MacIntel,62.5,5a270159c40dc70001824243,611e07ecdcc96256ae8d5b80,611e757f538d4480c86d3ee5,
,,,,space,0.834,,0,87,87,114,1,E, , , , ,space,2000,2,5a270159c40dc70001824243,001,2021-08-19_16h15.27,natb3,2021.2.3,MacIntel,62.5,5a270159c40dc70001824243,611e07ecdcc96256ae8d5b80,611e757f538d4480c86d3ee5,
,,,,space,0.719,,0,88,88,29,1,B, , , , ,space,1500,1.5,5a270159c40dc70001824243,001,2021-08-19_16h15.27,natb3,2021.2.3,MacIntel,62.5,5a270159c40dc70001824243,611e07ecdcc96256ae8d5b80,611e757f538d4480c86d3ee5,
,,,,space,0.374,,0,89,89,280,1,L, , , , ,space,1500,1.5,5a270159c40dc70001824243,001,2021-08-19_16h15.27,natb3,2021.2.3,MacIntel,62.5,5a270159c40dc70001824243,611e07ecdcc96256ae8d5b80,611e757f538d4480c86d3ee5,
,,,,space,0.476,,0,90,90,283,1,C, , , , ,space,1500,1.5,5a270159c40dc70001824243,001,2021-08-19_16h15.27,natb3,2021.2.3,MacIntel,62.5,5a270159c40dc70001824243,611e07ecdcc96256ae8d5b80,611e757f538d4480c86d3ee5,
,,,,space,0.592,,0,91,91,254,1,M, , , , ,space,1500,1.5,5a270159c40dc70001824243,001,2021-08-19_16h15.27,natb3,2021.2.3,MacIntel,62.5,5a270159c40dc70001824243,611e07ecdcc96256ae8d5b80,611e757f538d4480c86d3ee5,
,,,,space,0.449,,0,92,92,223,1,Q, , , , ,space,2000,2,5a270159c40dc70001824243,001,2021-08-19_16h15.27,natb3,2021.2.3,MacIntel,62.5,5a270159c40dc70001824243,611e07ecdcc96256ae8d5b80,611e757f538d4480c86d3ee5,
,,,,space,0.35,,0,93,93,45,1,O, , , , ,space,2000,2,5a270159c40dc70001824243,001,2021-08-19_16h15.27,natb3,2021.2.3,MacIntel,62.5,5a270159c40dc70001824243,611e07ecdcc96256ae8d5b80,611e757f538d4480c86d3ee5,
,,,,space,0.389,,0,94,94,10,1,O, , , , ,space,2000,2,5a270159c40dc70001824243,001,2021-08-19_16h15.27,natb3,2021.2.3,MacIntel,62.5,5a270159c40dc70001824243,611e07ecdcc96256ae8d5b80,611e757f538d4480c86d3ee5,
,,,,space,0.419,,0,95,95,117,1,T, , , , ,space,2500,2.5,5a270159c40dc70001824243,001,2021-08-19_16h15.27,natb3,2021.2.3,MacIntel,62.5,5a270159c40dc70001824243,611e07ecdcc96256ae8d5b80,611e757f538d4480c86d3ee5,
,,,,space,0.517,,0,96,96,297,1,U, , , , ,space,2000,2,5a270159c40dc70001824243,001,2021-08-19_16h15.27,natb3,2021.2.3,MacIntel,62.5,5a270159c40dc70001824243,611e07ecdcc96256ae8d5b80,611e757f538d4480c86d3ee5,
,,,,space,0.71,,0,97,97,219,1,Y, , , , ,space,2000,2,5a270159c40dc70001824243,001,2021-08-19_16h15.27,natb3,2021.2.3,MacIntel,62.5,5a270159c40dc70001824243,611e07ecdcc96256ae8d5b80,611e757f538d4480c86d3ee5,
,,,,,,,0,98,98,168,1,X, , , , ,,2500,2.5,5a270159c40dc70001824243,001,2021-08-19_16h15.27,natb3,2021.2.3,MacIntel,62.5,5a270159c40dc70001824243,611e07ecdcc96256ae8d5b80,611e757f538d4480c86d3ee5,
,,,,space,0.632,,0,99,99,6,1,Y, , , , ,space,2500,2.5,5a270159c40dc70001824243,001,2021-08-19_16h15.27,natb3,2021.2.3,MacIntel,62.5,5a270159c40dc70001824243,611e07ecdcc96256ae8d5b80,611e757f538d4480c86d3ee5,
,,,,space,0.536,,0,100,100,44,1,I, , , , ,space,2500,2.5,5a270159c40dc70001824243,001,2021-08-19_16h15.27,natb3,2021.2.3,MacIntel,62.5,5a270159c40dc70001824243,611e07ecdcc96256ae8d5b80,611e757f538d4480c86d3ee5,
,,,,space,0.516,,0,101,101,324,1,Q, , , , ,space,2000,2,5a270159c40dc70001824243,001,2021-08-19_16h15.27,natb3,2021.2.3,MacIntel,62.5,5a270159c40dc70001824243,611e07ecdcc96256ae8d5b80,611e757f538d4480c86d3ee5,
,,,,space,0.41,,0,102,102,3,1,R, , , , ,space,2000,2,5a270159c40dc70001824243,001,2021-08-19_16h15.27,natb3,2021.2.3,MacIntel,62.5,5a270159c40dc70001824243,611e07ecdcc96256ae8d5b80,611e757f538d4480c86d3ee5,
,,,,,,,0,103,103,122,1,X,1, , ,8,,1500,1.5,5a270159c40dc70001824243,001,2021-08-19_16h15.27,natb3,2021.2.3,MacIntel,62.5,5a270159c40dc70001824243,611e07ecdcc96256ae8d5b80,611e757f538d4480c86d3ee5,
,,,,,,,0,104,104,78,1,X, , , , ,,2000,2,5a270159c40dc70001824243,001,2021-08-19_16h15.27,natb3,2021.2.3,MacIntel,62.5,5a270159c40dc70001824243,611e07ecdcc96256ae8d5b80,611e757f538d4480c86d3ee5,
,,,,space,0.485,,0,105,105,265,1,I, , , , ,space,2000,2,5a270159c40dc70001824243,001,2021-08-19_16h15.27,natb3,2021.2.3,MacIntel,62.5,5a270159c40dc70001824243,611e07ecdcc96256ae8d5b80,611e757f538d4480c86d3ee5,
,,,,space,0.668,,0,106,106,140,1,B, , , , ,space,2500,2.5,5a270159c40dc70001824243,001,2021-08-19_16h15.27,natb3,2021.2.3,MacIntel,62.5,5a270159c40dc70001824243,611e07ecdcc96256ae8d5b80,611e757f538d4480c86d3ee5,
,,,,space,0.852,,0,107,107,135,1,K, , , , ,space,1500,1.5,5a270159c40dc70001824243,001,2021-08-19_16h15.27,natb3,2021.2.3,MacIntel,62.5,5a270159c40dc70001824243,611e07ecdcc96256ae8d5b80,611e757f538d4480c86d3ee5,
,,,,space,0.374,,0,108,108,88,1,J, , , , ,space,2500,2.5,5a270159c40dc70001824243,001,2021-08-19_16h15.27,natb3,2021.2.3,MacIntel,62.5,5a270159c40dc70001824243,611e07ecdcc96256ae8d5b80,611e757f538d4480c86d3ee5,
,,,,space,0.375,,0,109,109,193,1,S, , , , ,space,2500,2.5,5a270159c40dc70001824243,001,2021-08-19_16h15.27,natb3,2021.2.3,MacIntel,62.5,5a270159c40dc70001824243,611e07ecdcc96256ae8d5b80,611e757f538d4480c86d3ee5,
,,,,space,0.349,,0,110,110,202,1,L, , , , ,space,2500,2.5,5a270159c40dc70001824243,001,2021-08-19_16h15.27,natb3,2021.2.3,MacIntel,62.5,5a270159c40dc70001824243,611e07ecdcc96256ae8d5b80,611e757f538d4480c86d3ee5,
,,,,,,,0,111,111,129,1,X,2,3,5, ,,1500,1.5,5a270159c40dc70001824243,001,2021-08-19_16h15.27,natb3,2021.2.3,MacIntel,62.5,5a270159c40dc70001824243,611e07ecdcc96256ae8d5b80,611e757f538d4480c86d3ee5,
,,,,space,0.499,,0,112,112,34,1,Q, , , , ,space,2500,2.5,5a270159c40dc70001824243,001,2021-08-19_16h15.27,natb3,2021.2.3,MacIntel,62.5,5a270159c40dc70001824243,611e07ecdcc96256ae8d5b80,611e757f538d4480c86d3ee5,
,,,,space,0.593,,0,113,113,154,1,I, , , , ,space,2500,2.5,5a270159c40dc70001824243,001,2021-08-19_16h15.27,natb3,2021.2.3,MacIntel,62.5,5a270159c40dc70001824243,611e07ecdcc96256ae8d5b80,611e757f538d4480c86d3ee5,
,,,,,,,0,114,114,107,1,X,9,3, ,2,,2000,2,5a270159c40dc70001824243,001,2021-08-19_16h15.27,natb3,2021.2.3,MacIntel,62.5,5a270159c40dc70001824243,611e07ecdcc96256ae8d5b80,611e757f538d4480c86d3ee5,
,,,,space,0.619,,0,115,115,269,1,A, , , , ,space,2500,2.5,5a270159c40dc70001824243,001,2021-08-19_16h15.27,natb3,2021.2.3,MacIntel,62.5,5a270159c40dc70001824243,611e07ecdcc96256ae8d5b80,611e757f538d4480c86d3ee5,
,,,,space,0.434,,0,116,116,227,1,T, , , , ,space,1500,1.5,5a270159c40dc70001824243,001,2021-08-19_16h15.27,natb3,2021.2.3,MacIntel,62.5,5a270159c40dc70001824243,611e07ecdcc96256ae8d5b80,611e757f538d4480c86d3ee5,
,,,,space,0.358,,0,117,117,214,1,W, , , , ,space,2000,2,5a270159c40dc70001824243,001,2021-08-19_16h15.27,natb3,2021.2.3,MacIntel,62.5,5a270159c40dc70001824243,611e07ecdcc96256ae8d5b80,611e757f538d4480c86d3ee5,
,,,,,,,0,118,118,179,1,X, ,9, ,2,,1500,1.5,5a270159c40dc70001824243,001,2021-08-19_16h15.27,natb3,2021.2.3,MacIntel,62.5,5a270159c40dc70001824243,611e07ecdcc96256ae8d5b80,611e757f538d4480c86d3ee5,
,,,,space,0.762,,0,119,119,161,1,F, , , , ,space,1500,1.5,5a270159c40dc70001824243,001,2021-08-19_16h15.27,natb3,2021.2.3,MacIntel,62.5,5a270159c40dc70001824243,611e07ecdcc96256ae8d5b80,611e757f538d4480c86d3ee5,
,,,,space,0.387,,0,120,120,99,1,N, , , , ,space,2500,2.5,5a270159c40dc70001824243,001,2021-08-19_16h15.27,natb3,2021.2.3,MacIntel,62.5,5a270159c40dc70001824243,611e07ecdcc96256ae8d5b80,611e757f538d4480c86d3ee5,
,,,,space,0.493,,0,121,121,72,1,T, , , , ,space,1500,1.5,5a270159c40dc70001824243,001,2021-08-19_16h15.27,natb3,2021.2.3,MacIntel,62.5,5a270159c40dc70001824243,611e07ecdcc96256ae8d5b80,611e757f538d4480c86d3ee5,
,,,,space,0.408,,0,122,122,1,1,W, , , , ,space,2000,2,5a270159c40dc70001824243,001,2021-08-19_16h15.27,natb3,2021.2.3,MacIntel,62.5,5a270159c40dc70001824243,611e07ecdcc96256ae8d5b80,611e757f538d4480c86d3ee5,
,,,,space,0.407,,0,123,123,108,1,Y, , , , ,space,2500,2.5,5a270159c40dc70001824243,001,2021-08-19_16h15.27,natb3,2021.2.3,MacIntel,62.5,5a270159c40dc70001824243,611e07ecdcc96256ae8d5b80,611e757f538d4480c86d3ee5,
,,,,space,0.449,,0,124,124,188,1,I, , , , ,space,2500,2.5,5a270159c40dc70001824243,001,2021-08-19_16h15.27,natb3,2021.2.3,MacIntel,62.5,5a270159c40dc70001824243,611e07ecdcc96256ae8d5b80,611e757f538d4480c86d3ee5,
,,,,space,0.442,,0,125,125,279,1,K, , , , ,space,2500,2.5,5a270159c40dc70001824243,001,2021-08-19_16h15.27,natb3,2021.2.3,MacIntel,62.5,5a270159c40dc70001824243,611e07ecdcc96256ae8d5b80,611e757f538d4480c86d3ee5,
,,,,space,0.615,,0,126,126,290,1,W, , , , ,space,1500,1.5,5a270159c40dc70001824243,001,2021-08-19_16h15.27,natb3,2021.2.3,MacIntel,62.5,5a270159c40dc70001824243,611e07ecdcc96256ae8d5b80,611e757f538d4480c86d3ee5,
,,,,space,0.558,,0,127,127,281,1,Z, , , , ,space,1500,1.5,5a270159c40dc70001824243,001,2021-08-19_16h15.27,natb3,2021.2.3,MacIntel,62.5,5a270159c40dc70001824243,611e07ecdcc96256ae8d5b80,611e757f538d4480c86d3ee5,
,,,,space,0.449,,0,128,128,173,1,V, , , , ,space,1500,1.5,5a270159c40dc70001824243,001,2021-08-19_16h15.27,natb3,2021.2.3,MacIntel,62.5,5a270159c40dc70001824243,611e07ecdcc96256ae8d5b80,611e757f538d4480c86d3ee5,
,,,,space,0.638,,0,129,129,57,1,K, , , , ,space,2500,2.5,5a270159c40dc70001824243,001,2021-08-19_16h15.27,natb3,2021.2.3,MacIntel,62.5,5a270159c40dc70001824243,611e07ecdcc96256ae8d5b80,611e757f538d4480c86d3ee5,
,,,,space,0.415,,0,130,130,197,1,G, , , , ,space,2500,2.5,5a270159c40dc70001824243,001,2021-08-19_16h15.27,natb3,2021.2.3,MacIntel,62.5,5a270159c40dc70001824243,611e07ecdcc96256ae8d5b80,611e757f538d4480c86d3ee5,
,,,,space,0.451,,0,131,131,320,1,B, , , , ,space,1500,1.5,5a270159c40dc70001824243,001,2021-08-19_16h15.27,natb3,2021.2.3,MacIntel,62.5,5a270159c40dc70001824243,611e07ecdcc96256ae8d5b80,611e757f538d4480c86d3ee5,
,,,,space,0.315,,0,132,132,5,1,T, , , , ,space,2000,2,5a270159c40dc70001824243,001,2021-08-19_16h15.27,natb3,2021.2.3,MacIntel,62.5,5a270159c40dc70001824243,611e07ecdcc96256ae8d5b80,611e757f538d4480c86d3ee5,
,,,,space,0.344,,0,133,133,47,1,P, , , , ,space,2000,2,5a270159c40dc70001824243,001,2021-08-19_16h15.27,natb3,2021.2.3,MacIntel,62.5,5a270159c40dc70001824243,611e07ecdcc96256ae8d5b80,611e757f538d4480c86d3ee5,
,,,,space,0.64,,0,134,134,333,1,I, , , , ,space,1500,1.5,5a270159c40dc70001824243,001,2021-08-19_16h15.27,natb3,2021.2.3,MacIntel,62.5,5a270159c40dc70001824243,611e07ecdcc96256ae8d5b80,611e757f538d4480c86d3ee5,
,,,,space,0.325,,0,135,135,257,1,W, , , , ,space,2000,2,5a270159c40dc70001824243,001,2021-08-19_16h15.27,natb3,2021.2.3,MacIntel,62.5,5a270159c40dc70001824243,611e07ecdcc96256ae8d5b80,611e757f538d4480c86d3ee5,
,,,,space,0.835,,0,136,136,187,1,X, ,3,7,4,,1500,1.5,5a270159c40dc70001824243,001,2021-08-19_16h15.27,natb3,2021.2.3,MacIntel,62.5,5a270159c40dc70001824243,611e07ecdcc96256ae8d5b80,611e757f538d4480c86d3ee5,
,,,,space,0.532,,0,137,137,50,1,D, , , , ,space,1500,1.5,5a270159c40dc70001824243,001,2021-08-19_16h15.27,natb3,2021.2.3,MacIntel,62.5,5a270159c40dc70001824243,611e07ecdcc96256ae8d5b80,611e757f538d4480c86d3ee5,
,,,,space,0.416,,0,138,138,217,1,T, , , , ,space,2500,2.5,5a270159c40dc70001824243,001,2021-08-19_16h15.27,natb3,2021.2.3,MacIntel,62.5,5a270159c40dc70001824243,611e07ecdcc96256ae8d5b80,611e757f538d4480c86d3ee5,
,,,,space,0.393,,0,139,139,317,1,C, , , , ,space,2000,2,5a270159c40dc70001824243,001,2021-08-19_16h15.27,natb3,2021.2.3,MacIntel,62.5,5a270159c40dc70001824243,611e07ecdcc96256ae8d5b80,611e757f538d4480c86d3ee5,
,,,,space,0.716,,0,140,140,232,1,O, , , , ,space,2500,2.5,5a270159c40dc70001824243,001,2021-08-19_16h15.27,natb3,2021.2.3,MacIntel,62.5,5a270159c40dc70001824243,611e07ecdcc96256ae8d5b80,611e757f538d4480c86d3ee5,
,,,,space,0.34,,0,141,141,220,1,U, , , , ,space,2500,2.5,5a270159c40dc70001824243,001,2021-08-19_16h15.27,natb3,2021.2.3,MacIntel,62.5,5a270159c40dc70001824243,611e07ecdcc96256ae8d5b80,611e757f538d4480c86d3ee5,
,,,,space,0.352,,0,142,142,186,1,U, , , , ,space,2500,2.5,5a270159c40dc70001824243,001,2021-08-19_16h15.27,natb3,2021.2.3,MacIntel,62.5,5a270159c40dc70001824243,611e07ecdcc96256ae8d5b80,611e757f538d4480c86d3ee5,
,,,,space,0.545,,0,143,143,207,1,X,9, ,2, ,,2500,2.5,5a270159c40dc70001824243,001,2021-08-19_16h15.27,natb3,2021.2.3,MacIntel,62.5,5a270159c40dc70001824243,611e07ecdcc96256ae8d5b80,611e757f538d4480c86d3ee5,
,,,,,,,0,144,144,74,1,X, ,4,3,2,,1500,1.5,5a270159c40dc70001824243,001,2021-08-19_16h15.27,natb3,2021.2.3,MacIntel,62.5,5a270159c40dc70001824243,611e07ecdcc96256ae8d5b80,611e757f538d4480c86d3ee5,
,,,,,,,0,145,145,191,1,X,1, ,3,4,,2500,2.5,5a270159c40dc70001824243,001,2021-08-19_16h15.27,natb3,2021.2.3,MacIntel,62.5,5a270159c40dc70001824243,611e07ecdcc96256ae8d5b80,611e757f538d4480c86d3ee5,
,,,,space,0.394,,0,146,146,19,1,G, , , , ,space,1500,1.5,5a270159c40dc70001824243,001,2021-08-19_16h15.27,natb3,2021.2.3,MacIntel,62.5,5a270159c40dc70001824243,611e07ecdcc96256ae8d5b80,611e757f538d4480c86d3ee5,
,,,,space,0.475,,0,147,147,165,1,J, , , , ,space,2500,2.5,5a270159c40dc70001824243,001,2021-08-19_16h15.27,natb3,2021.2.3,MacIntel,62.5,5a270159c40dc70001824243,611e07ecdcc96256ae8d5b80,611e757f538d4480c86d3ee5,
,,,,space,0.485,,0,148,148,221,1,I, , , , ,space,2500,2.5,5a270159c40dc70001824243,001,2021-08-19_16h15.27,natb3,2021.2.3,MacIntel,62.5,5a270159c40dc70001824243,611e07ecdcc96256ae8d5b80,611e757f538d4480c86d3ee5,
,,,,space,0.939,,0,149,149,285,1,B, , , , ,space,1500,1.5,5a270159c40dc70001824243,001,2021-08-19_16h15.27,natb3,2021.2.3,MacIntel,62.5,5a270159c40dc70001824243,611e07ecdcc96256ae8d5b80,611e757f538d4480c86d3ee5,
,,,,space,0.36,,0,150,150,245,1,K, , , , ,space,2000,2,5a270159c40dc70001824243,001,2021-08-19_16h15.27,natb3,2021.2.3,MacIntel,62.5,5a270159c40dc70001824243,611e07ecdcc96256ae8d5b80,611e757f538d4480c86d3ee5,
,,,,space,0.315,,0,151,151,323,1,M, , , , ,space,2500,2.5,5a270159c40dc70001824243,001,2021-08-19_16h15.27,natb3,2021.2.3,MacIntel,62.5,5a270159c40dc70001824243,611e07ecdcc96256ae8d5b80,611e757f538d4480c86d3ee5,
,,,,space,0.81,,0,152,152,144,1,Q, , , , ,space,2500,2.5,5a270159c40dc70001824243,001,2021-08-19_16h15.27,natb3,2021.2.3,MacIntel,62.5,5a270159c40dc70001824243,611e07ecdcc96256ae8d5b80,611e757f538d4480c86d3ee5,
,,,,space,0.533,,0,153,153,134,1,J, , , , ,space,2000,2,5a270159c40dc70001824243,001,2021-08-19_16h15.27,natb3,2021.2.3,MacIntel,62.5,5a270159c40dc70001824243,611e07ecdcc96256ae8d5b80,611e757f538d4480c86d3ee5,
,,,,space,0.386,,0,154,154,170,1,Z, , , , ,space,2000,2,5a270159c40dc70001824243,001,2021-08-19_16h15.27,natb3,2021.2.3,MacIntel,62.5,5a270159c40dc70001824243,611e07ecdcc96256ae8d5b80,611e757f538d4480c86d3ee5,
,,,,space,0.602,,0,155,155,303,1,A, , , , ,space,2000,2,5a270159c40dc70001824243,001,2021-08-19_16h15.27,natb3,2021.2.3,MacIntel,62.5,5a270159c40dc70001824243,611e07ecdcc96256ae8d5b80,611e757f538d4480c86d3ee5,
,,,,,,,0,156,156,46,1,X, , , , ,,2000,2,5a270159c40dc70001824243,001,2021-08-19_16h15.27,natb3,2021.2.3,MacIntel,62.5,5a270159c40dc70001824243,611e07ecdcc96256ae8d5b80,611e757f538d4480c86d3ee5,
,,,,space,0.489,,0,157,157,95,1,V, , , , ,space,1500,1.5,5a270159c40dc70001824243,001,2021-08-19_16h15.27,natb3,2021.2.3,MacIntel,62.5,5a270159c40dc70001824243,611e07ecdcc96256ae8d5b80,611e757f538d4480c86d3ee5,
,,,,,,,0,158,158,335,1,P,,,,,space,1500,1.5,5a270159c40dc70001824243,001,2021-08-19_16h15.27,natb3,2021.2.3,MacIntel,62.5,5a270159c40dc70001824243,611e07ecdcc96256ae8d5b80,611e757f538d4480c86d3ee5,
,,,,space,0.406,,0,159,159,183,1,R, , , , ,space,1500,1.5,5a270159c40dc70001824243,001,2021-08-19_16h15.27,natb3,2021.2.3,MacIntel,62.5,5a270159c40dc70001824243,611e07ecdcc96256ae8d5b80,611e757f538d4480c86d3ee5,
,,,,space,0.368,,0,160,160,64,1,N, , , , ,space,2000,2,5a270159c40dc70001824243,001,2021-08-19_16h15.27,natb3,2021.2.3,MacIntel,62.5,5a270159c40dc70001824243,611e07ecdcc96256ae8d5b80,611e757f538d4480c86d3ee5,
,,,,space,0.887,,0,161,161,296,1,Y, , , , ,space,2500,2.5,5a270159c40dc70001824243,001,2021-08-19_16h15.27,natb3,2021.2.3,MacIntel,62.5,5a270159c40dc70001824243,611e07ecdcc96256ae8d5b80,611e757f538d4480c86d3ee5,
,,,,space,0.344,,0,162,162,151,1,Y, , , , ,space,2500,2.5,5a270159c40dc70001824243,001,2021-08-19_16h15.27,natb3,2021.2.3,MacIntel,62.5,5a270159c40dc70001824243,611e07ecdcc96256ae8d5b80,611e757f538d4480c86d3ee5,
,,,,space,0.45,,0,163,163,106,1,T, , , , ,space,1500,1.5,5a270159c40dc70001824243,001,2021-08-19_16h15.27,natb3,2021.2.3,MacIntel,62.5,5a270159c40dc70001824243,611e07ecdcc96256ae8d5b80,611e757f538d4480c86d3ee5,
,,,,,,,0,164,164,255,1,X, , , , ,,1500,1.5,5a270159c40dc70001824243,001,2021-08-19_16h15.27,natb3,2021.2.3,MacIntel,62.5,5a270159c40dc70001824243,611e07ecdcc96256ae8d5b80,611e757f538d4480c86d3ee5,
,,,,space,0.408,,0,165,165,109,1,U, , , , ,space,1500,1.5,5a270159c40dc70001824243,001,2021-08-19_16h15.27,natb3,2021.2.3,MacIntel,62.5,5a270159c40dc70001824243,611e07ecdcc96256ae8d5b80,611e757f538d4480c86d3ee5,
,,,,space,0.427,,0,166,166,253,1,N, , , , ,space,2500,2.5,5a270159c40dc70001824243,001,2021-08-19_16h15.27,natb3,2021.2.3,MacIntel,62.5,5a270159c40dc70001824243,611e07ecdcc96256ae8d5b80,611e757f538d4480c86d3ee5,
,,,,space,0.399,space,0,167,167,198,1,H, , , , ,space,2500,2.5,5a270159c40dc70001824243,001,2021-08-19_16h15.27,natb3,2021.2.3,MacIntel,62.5,5a270159c40dc70001824243,611e07ecdcc96256ae8d5b80,611e757f538d4480c86d3ee5,2.193
,,,,,,,0,168,168,84,1,X, , , , ,,2000,2,5a270159c40dc70001824243,001,2021-08-19_16h15.27,natb3,2021.2.3,MacIntel,62.5,5a270159c40dc70001824243,611e07ecdcc96256ae8d5b80,611e757f538d4480c86d3ee5,
,,,,space,0.435,,0,169,169,190,1,P, , , , ,space,2000,2,5a270159c40dc70001824243,001,2021-08-19_16h15.27,natb3,2021.2.3,MacIntel,62.5,5a270159c40dc70001824243,611e07ecdcc96256ae8d5b80,611e757f538d4480c86d3ee5,
,,,,space,0.501,,0,170,170,178,1,Q, , , , ,space,1500,1.5,5a270159c40dc70001824243,001,2021-08-19_16h15.27,natb3,2021.2.3,MacIntel,62.5,5a270159c40dc70001824243,611e07ecdcc96256ae8d5b80,611e757f538d4480c86d3ee5,
,,,,space,0.399,,0,171,171,159,1,S, , , , ,space,2500,2.5,5a270159c40dc70001824243,001,2021-08-19_16h15.27,natb3,2021.2.3,MacIntel,62.5,5a270159c40dc70001824243,611e07ecdcc96256ae8d5b80,611e757f538d4480c86d3ee5,
,,,,,,,0,172,172,252,1,X,3, ,6,9,,2000,2,5a270159c40dc70001824243,001,2021-08-19_16h15.27,natb3,2021.2.3,MacIntel,62.5,5a270159c40dc70001824243,611e07ecdcc96256ae8d5b80,611e757f538d4480c86d3ee5,
,,,,,,,0,173,173,277,1,X,8,5, ,2,,2000,2,5a270159c40dc70001824243,001,2021-08-19_16h15.27,natb3,2021.2.3,MacIntel,62.5,5a270159c40dc70001824243,611e07ecdcc96256ae8d5b80,611e757f538d4480c86d3ee5,
,,,,space,0.403,,0,174,174,300,1,O, , , , ,space,2500,2.5,5a270159c40dc70001824243,001,2021-08-19_16h15.27,natb3,2021.2.3,MacIntel,62.5,5a270159c40dc70001824243,611e07ecdcc96256ae8d5b80,611e757f538d4480c86d3ee5,
,,,,space,0.501,,0,175,175,160,1,D, , , , ,space,1500,1.5,5a270159c40dc70001824243,001,2021-08-19_16h15.27,natb3,2021.2.3,MacIntel,62.5,5a270159c40dc70001824243,611e07ecdcc96256ae8d5b80,611e757f538d4480c86d3ee5,
,,,,,,,0,176,176,229,1,X,8, ,2,6,,2500,2.5,5a270159c40dc70001824243,001,2021-08-19_16h15.27,natb3,2021.2.3,MacIntel,62.5,5a270159c40dc70001824243,611e07ecdcc96256ae8d5b80,611e757f538d4480c86d3ee5,
,,,,space,0.426,,0,177,177,225,1,E, , , , ,space,2000,2,5a270159c40dc70001824243,001,2021-08-19_16h15.27,natb3,2021.2.3,MacIntel,62.5,5a270159c40dc70001824243,611e07ecdcc96256ae8d5b80,611e757f538d4480c86d3ee5,
,,,,,,,0,178,178,43,1,X, ,6, ,2,,2500,2.5,5a270159c40dc70001824243,001,2021-08-19_16h15.27,natb3,2021.2.3,MacIntel,62.5,5a270159c40dc70001824243,611e07ecdcc96256ae8d5b80,611e757f538d4480c86d3ee5,
,,,,space,0.363,,0,179,179,321,1,N, , , , ,space,2000,2,5a270159c40dc70001824243,001,2021-08-19_16h15.27,natb3,2021.2.3,MacIntel,62.5,5a270159c40dc70001824243,611e07ecdcc96256ae8d5b80,611e757f538d4480c86d3ee5,
,,,,space,0.454,,0,180,180,267,1,P, , , , ,space,2000,2,5a270159c40dc70001824243,001,2021-08-19_16h15.27,natb3,2021.2.3,MacIntel,62.5,5a270159c40dc70001824243,611e07ecdcc96256ae8d5b80,611e757f538d4480c86d3ee5,
,,,,,,,0,181,181,259,1,X,8, , ,3,,2500,2.5,5a270159c40dc70001824243,001,2021-08-19_16h15.27,natb3,2021.2.3,MacIntel,62.5,5a270159c40dc70001824243,611e07ecdcc96256ae8d5b80,611e757f538d4480c86d3ee5,
,,,,space,0.413,,0,182,182,215,1,E, , , , ,space,2500,2.5,5a270159c40dc70001824243,001,2021-08-19_16h15.27,natb3,2021.2.3,MacIntel,62.5,5a270159c40dc70001824243,611e07ecdcc96256ae8d5b80,611e757f538d4480c86d3ee5,
,,,,space,0.612,,0,183,183,306,1,D, , , , ,space,2000,2,5a270159c40dc70001824243,001,2021-08-19_16h15.27,natb3,2021.2.3,MacIntel,62.5,5a270159c40dc70001824243,611e07ecdcc96256ae8d5b80,611e757f538d4480c86d3ee5,
,,,,space,0.324,,0,184,184,177,1,M, , , , ,space,2500,2.5,5a270159c40dc70001824243,001,2021-08-19_16h15.27,natb3,2021.2.3,MacIntel,62.5,5a270159c40dc70001824243,611e07ecdcc96256ae8d5b80,611e757f538d4480c86d3ee5,
,,,,space,0.339,,0,185,185,213,1,X, , , , ,,2500,2.5,5a270159c40dc70001824243,001,2021-08-19_16h15.27,natb3,2021.2.3,MacIntel,62.5,5a270159c40dc70001824243,611e07ecdcc96256ae8d5b80,611e757f538d4480c86d3ee5,
,,,,,,,0,186,186,158,1,X, , , , ,,1500,1.5,5a270159c40dc70001824243,001,2021-08-19_16h15.27,natb3,2021.2.3,MacIntel,62.5,5a270159c40dc70001824243,611e07ecdcc96256ae8d5b80,611e757f538d4480c86d3ee5,
,,,,,,,0,187,187,166,1,X, , , , ,,2000,2,5a270159c40dc70001824243,001,2021-08-19_16h15.27,natb3,2021.2.3,MacIntel,62.5,5a270159c40dc70001824243,611e07ecdcc96256ae8d5b80,611e757f538d4480c86d3ee5,
,,,,space,0.483,,0,188,188,32,1,M, , , , ,space,1500,1.5,5a270159c40dc70001824243,001,2021-08-19_16h15.27,natb3,2021.2.3,MacIntel,62.5,5a270159c40dc70001824243,611e07ecdcc96256ae8d5b80,611e757f538d4480c86d3ee5,
,,,,space,0.71,,0,189,189,71,1,R, , , , ,space,2500,2.5,5a270159c40dc70001824243,001,2021-08-19_16h15.27,natb3,2021.2.3,MacIntel,62.5,5a270159c40dc70001824243,611e07ecdcc96256ae8d5b80,611e757f538d4480c86d3ee5,
,,,,space,0.326,,0,190,190,13,1,A, , , , ,space,2000,2,5a270159c40dc70001824243,001,2021-08-19_16h15.27,natb3,2021.2.3,MacIntel,62.5,5a270159c40dc70001824243,611e07ecdcc96256ae8d5b80,611e757f538d4480c86d3ee5,
,,,,,,,0,191,191,263,1,X,4, ,6, ,,1500,1.5,5a270159c40dc70001824243,001,2021-08-19_16h15.27,natb3,2021.2.3,MacIntel,62.5,5a270159c40dc70001824243,611e07ecdcc96256ae8d5b80,611e757f538d4480c86d3ee5,
,,,,space,0.504,,0,192,192,83,1,D, , , , ,space,2000,2,5a270159c40dc70001824243,001,2021-08-19_16h15.27,natb3,2021.2.3,MacIntel,62.5,5a270159c40dc70001824243,611e07ecdcc96256ae8d5b80,611e757f538d4480c86d3ee5,
,,,,space,0.481,,0,193,193,150,1,T, , , , ,space,2500,2.5,5a270159c40dc70001824243,001,2021-08-19_16h15.27,natb3,2021.2.3,MacIntel,62.5,5a270159c40dc70001824243,611e07ecdcc96256ae8d5b80,611e757f538d4480c86d3ee5,
,,,,,,,0,194,194,299,1,X, , , , ,,2500,2.5,5a270159c40dc70001824243,001,2021-08-19_16h15.27,natb3,2021.2.3,MacIntel,62.5,5a270159c40dc70001824243,611e07ecdcc96256ae8d5b80,611e757f538d4480c86d3ee5,
,,,,,,,0,195,195,4,1,X, , , , ,,2000,2,5a270159c40dc70001824243,001,2021-08-19_16h15.27,natb3,2021.2.3,MacIntel,62.5,5a270159c40dc70001824243,611e07ecdcc96256ae8d5b80,611e757f538d4480c86d3ee5,
,,,,space,0.466,,0,196,196,272,1,D, , , , ,space,2000,2,5a270159c40dc70001824243,001,2021-08-19_16h15.27,natb3,2021.2.3,MacIntel,62.5,5a270159c40dc70001824243,611e07ecdcc96256ae8d5b80,611e757f538d4480c86d3ee5,
,,,,,,,0,197,197,69,1,X, , , , ,,1500,1.5,5a270159c40dc70001824243,001,2021-08-19_16h15.27,natb3,2021.2.3,MacIntel,62.5,5a270159c40dc70001824243,611e07ecdcc96256ae8d5b80,611e757f538d4480c86d3ee5,
,,,,space,0.591,,0,198,198,128,1,D, , , , ,space,2500,2.5,5a270159c40dc70001824243,001,2021-08-19_16h15.27,natb3,2021.2.3,MacIntel,62.5,5a270159c40dc70001824243,611e07ecdcc96256ae8d5b80,611e757f538d4480c86d3ee5,
,,,,,,,0,199,199,133,1,X, ,4, ,6,,2500,2.5,5a270159c40dc70001824243,001,2021-08-19_16h15.27,natb3,2021.2.3,MacIntel,62.5,5a270159c40dc70001824243,611e07ecdcc96256ae8d5b80,611e757f538d4480c86d3ee5,
,,,,,,,0,200,200,54,1,X, , , , ,,2000,2,5a270159c40dc70001824243,001,2021-08-19_16h15.27,natb3,2021.2.3,MacIntel,62.5,5a270159c40dc70001824243,611e07ecdcc96256ae8d5b80,611e757f538d4480c86d3ee5,
,,,,space,0.466,,0,201,201,121,1,I, , , , ,space,2000,2,5a270159c40dc70001824243,001,2021-08-19_16h15.27,natb3,2021.2.3,MacIntel,62.5,5a270159c40dc70001824243,611e07ecdcc96256ae8d5b80,611e757f538d4480c86d3ee5,
,,,,space,0.921,,0,202,202,172,1,C, , , , ,space,1500,1.5,5a270159c40dc70001824243,001,2021-08-19_16h15.27,natb3,2021.2.3,MacIntel,62.5,5a270159c40dc70001824243,611e07ecdcc96256ae8d5b80,611e757f538d4480c86d3ee5,
,,,,space,0.717,,0,203,203,328,1,R, , , , ,space,1500,1.5,5a270159c40dc70001824243,001,2021-08-19_16h15.27,natb3,2021.2.3,MacIntel,62.5,5a270159c40dc70001824243,611e07ecdcc96256ae8d5b80,611e757f538d4480c86d3ee5,
,,,,space,0.484,,0,204,204,110,1,I, , , , ,space,1500,1.5,5a270159c40dc70001824243,001,2021-08-19_16h15.27,natb3,2021.2.3,MacIntel,62.5,5a270159c40dc70001824243,611e07ecdcc96256ae8d5b80,611e757f538d4480c86d3ee5,
,,,,space,0.625,,0,205,205,42,1,U, , , , ,space,1500,1.5,5a270159c40dc70001824243,001,2021-08-19_16h15.27,natb3,2021.2.3,MacIntel,62.5,5a270159c40dc70001824243,611e07ecdcc96256ae8d5b80,611e757f538d4480c86d3ee5,
,,,,,,,0,206,206,291,1,X, , , , ,,2000,2,5a270159c40dc70001824243,001,2021-08-19_16h15.27,natb3,2021.2.3,MacIntel,62.5,5a270159c40dc70001824243,611e07ecdcc96256ae8d5b80,611e757f538d4480c86d3ee5,
,,,,space,0.559,,0,207,207,86,1,G, , , , ,space,2000,2,5a270159c40dc70001824243,001,2021-08-19_16h15.27,natb3,2021.2.3,MacIntel,62.5,5a270159c40dc70001824243,611e07ecdcc96256ae8d5b80,611e757f538d4480c86d3ee5,
,,,,space,0.385,,0,208,208,231,1,I, , , , ,space,2500,2.5,5a270159c40dc70001824243,001,2021-08-19_16h15.27,natb3,2021.2.3,MacIntel,62.5,5a270159c40dc70001824243,611e07ecdcc96256ae8d5b80,611e757f538d4480c86d3ee5,
,,,,space,0.409,,0,209,209,230,1,U, , , , ,space,1500,1.5,5a270159c40dc70001824243,001,2021-08-19_16h15.27,natb3,2021.2.3,MacIntel,62.5,5a270159c40dc70001824243,611e07ecdcc96256ae8d5b80,611e757f538d4480c86d3ee5,
,,,,space,0.434,,0,210,210,224,1,W, , , , ,space,1500,1.5,5a270159c40dc70001824243,001,2021-08-19_16h15.27,natb3,2021.2.3,MacIntel,62.5,5a270159c40dc70001824243,611e07ecdcc96256ae8d5b80,611e757f538d4480c86d3ee5,
,,,,space,0.392,,0,211,211,75,1,U, , , , ,space,1500,1.5,5a270159c40dc70001824243,001,2021-08-19_16h15.27,natb3,2021.2.3,MacIntel,62.5,5a270159c40dc70001824243,611e07ecdcc96256ae8d5b80,611e757f538d4480c86d3ee5,
,,,,space,0.385,,0,212,212,310,1,J, , , , ,space,2500,2.5,5a270159c40dc70001824243,001,2021-08-19_16h15.27,natb3,2021.2.3,MacIntel,62.5,5a270159c40dc70001824243,611e07ecdcc96256ae8d5b80,611e757f538d4480c86d3ee5,
,,,,,,,0,213,213,203,1,X, , , , ,,2500,2.5,5a270159c40dc70001824243,001,2021-08-19_16h15.27,natb3,2021.2.3,MacIntel,62.5,5a270159c40dc70001824243,611e07ecdcc96256ae8d5b80,611e757f538d4480c86d3ee5,
,,,,space,0.456,,0,214,214,181,1,E, , , , ,space,1500,1.5,5a270159c40dc70001824243,001,2021-08-19_16h15.27,natb3,2021.2.3,MacIntel,62.5,5a270159c40dc70001824243,611e07ecdcc96256ae8d5b80,611e757f538d4480c86d3ee5,
,,,,space,0.45,,0,215,215,286,1,N, , , , ,space,1500,1.5,5a270159c40dc70001824243,001,2021-08-19_16h15.27,natb3,2021.2.3,MacIntel,62.5,5a270159c40dc70001824243,611e07ecdcc96256ae8d5b80,611e757f538d4480c86d3ee5,
,,,,space,0.737,,0,216,216,176,1,N, , , , ,space,1500,1.5,5a270159c40dc70001824243,001,2021-08-19_16h15.27,natb3,2021.2.3,MacIntel,62.5,5a270159c40dc70001824243,611e07ecdcc96256ae8d5b80,611e757f538d4480c86d3ee5,
,,,,space,0.406,,0,217,217,319,1,V, , , , ,space,2000,2,5a270159c40dc70001824243,001,2021-08-19_16h15.27,natb3,2021.2.3,MacIntel,62.5,5a270159c40dc70001824243,611e07ecdcc96256ae8d5b80,611e757f538d4480c86d3ee5,
,,,,,,,0,218,218,315,1,X, , , , ,,2500,2.5,5a270159c40dc70001824243,001,2021-08-19_16h15.27,natb3,2021.2.3,MacIntel,62.5,5a270159c40dc70001824243,611e07ecdcc96256ae8d5b80,611e757f538d4480c86d3ee5,
,,,,space,0.416,,0,219,219,105,1,R, , , , ,space,2500,2.5,5a270159c40dc70001824243,001,2021-08-19_16h15.27,natb3,2021.2.3,MacIntel,62.5,5a270159c40dc70001824243,611e07ecdcc96256ae8d5b80,611e757f538d4480c86d3ee5,
,,,,space,0.518,,0,220,220,142,1,N, , , , ,space,2500,2.5,5a270159c40dc70001824243,001,2021-08-19_16h15.27,natb3,2021.2.3,MacIntel,62.5,5a270159c40dc70001824243,611e07ecdcc96256ae8d5b80,611e757f538d4480c86d3ee5,
,,,,space,0.534,,0,221,221,14,1,S, , , , ,space,2500,2.5,5a270159c40dc70001824243,001,2021-08-19_16h15.27,natb3,2021.2.3,MacIntel,62.5,5a270159c40dc70001824243,611e07ecdcc96256ae8d5b80,611e757f538d4480c86d3ee5,
,,,,space,0.937,,0,222,222,48,1,A, , , , ,space,2500,2.5,5a270159c40dc70001824243,001,2021-08-19_16h15.27,natb3,2021.2.3,MacIntel,62.5,5a270159c40dc70001824243,611e07ecdcc96256ae8d5b80,611e757f538d4480c86d3ee5,
,,,,space,0.727,,0,223,223,63,1,B, , , , ,space,2000,2,5a270159c40dc70001824243,001,2021-08-19_16h15.27,natb3,2021.2.3,MacIntel,62.5,5a270159c40dc70001824243,611e07ecdcc96256ae8d5b80,611e757f538d4480c86d3ee5,
,,,,space,0.502,,0,224,224,26,1,C, , , , ,space,2000,2,5a270159c40dc70001824243,001,2021-08-19_16h15.27,natb3,2021.2.3,MacIntel,62.5,5a270159c40dc70001824243,611e07ecdcc96256ae8d5b80,611e757f538d4480c86d3ee5,
,,,,,,,0,225,225,266,1,O, , , , ,space,1500,1.5,5a270159c40dc70001824243,001,2021-08-19_16h15.27,natb3,2021.2.3,MacIntel,62.5,5a270159c40dc70001824243,611e07ecdcc96256ae8d5b80,611e757f538d4480c86d3ee5,
,,,,space,0.76,,0,226,226,271,1,X, , , , ,,2500,2.5,5a270159c40dc70001824243,001,2021-08-19_16h15.27,natb3,2021.2.3,MacIntel,62.5,5a270159c40dc70001824243,611e07ecdcc96256ae8d5b80,611e757f538d4480c86d3ee5,
,,,,,,,0,227,227,18,1,X, ,2,5,8,,2500,2.5,5a270159c40dc70001824243,001,2021-08-19_16h15.27,natb3,2021.2.3,MacIntel,62.5,5a270159c40dc70001824243,611e07ecdcc96256ae8d5b80,611e757f538d4480c86d3ee5,
,,,,,,,0,228,228,175,1,X,7, ,4,2,,1500,1.5,5a270159c40dc70001824243,001,2021-08-19_16h15.27,natb3,2021.2.3,MacIntel,62.5,5a270159c40dc70001824243,611e07ecdcc96256ae8d5b80,611e757f538d4480c86d3ee5,
,,,,space,0.448,,0,229,229,68,1,W, , , , ,space,2500,2.5,5a270159c40dc70001824243,001,2021-08-19_16h15.27,natb3,2021.2.3,MacIntel,62.5,5a270159c40dc70001824243,611e07ecdcc96256ae8d5b80,611e757f538d4480c86d3ee5,
,,,,space,0.717,,0,230,230,184,1,T, , , , ,space,2000,2,5a270159c40dc70001824243,001,2021-08-19_16h15.27,natb3,2021.2.3,MacIntel,62.5,5a270159c40dc70001824243,611e07ecdcc96256ae8d5b80,611e757f538d4480c86d3ee5,
,,,,space,0.525,,0,231,231,62,1,V, , , , ,space,1500,1.5,5a270159c40dc70001824243,001,2021-08-19_16h15.27,natb3,2021.2.3,MacIntel,62.5,5a270159c40dc70001824243,611e07ecdcc96256ae8d5b80,611e757f538d4480c86d3ee5,
,,,,space,0.591,,0,232,232,194,1,D, , , , ,space,2000,2,5a270159c40dc70001824243,001,2021-08-19_16h15.27,natb3,2021.2.3,MacIntel,62.5,5a270159c40dc70001824243,611e07ecdcc96256ae8d5b80,611e757f538d4480c86d3ee5,
,,,,space,0.532,,0,233,233,327,1,E, , , , ,space,1500,1.5,5a270159c40dc70001824243,001,2021-08-19_16h15.27,natb3,2021.2.3,MacIntel,62.5,5a270159c40dc70001824243,611e07ecdcc96256ae8d5b80,611e757f538d4480c86d3ee5,
,,,,space,0.507,,0,234,234,308,1,G, , , , ,space,1500,1.5,5a270159c40dc70001824243,001,2021-08-19_16h15.27,natb3,2021.2.3,MacIntel,62.5,5a270159c40dc70001824243,611e07ecdcc96256ae8d5b80,611e757f538d4480c86d3ee5,
,,,,space,0.37,,0,235,235,241,1,G, , , , ,space,2500,2.5,5a270159c40dc70001824243,001,2021-08-19_16h15.27,natb3,2021.2.3,MacIntel,62.5,5a270159c40dc70001824243,611e07ecdcc96256ae8d5b80,611e757f538d4480c86d3ee5,
,,,,,,,0,236,236,103,1,W, , , , ,space,2000,2,5a270159c40dc70001824243,001,2021-08-19_16h15.27,natb3,2021.2.3,MacIntel,62.5,5a270159c40dc70001824243,611e07ecdcc96256ae8d5b80,611e757f538d4480c86d3ee5,
,,,,space,0.399,,0,237,237,210,1,M, , , , ,space,1500,1.5,5a270159c40dc70001824243,001,2021-08-19_16h15.27,natb3,2021.2.3,MacIntel,62.5,5a270159c40dc70001824243,611e07ecdcc96256ae8d5b80,611e757f538d4480c86d3ee5,
,,,,space,0.385,,0,238,238,289,1,Q, , , , ,space,2000,2,5a270159c40dc70001824243,001,2021-08-19_16h15.27,natb3,2021.2.3,MacIntel,62.5,5a270159c40dc70001824243,611e07ecdcc96256ae8d5b80,611e757f538d4480c86d3ee5,
,,,,space,0.37,,0,239,239,25,1,Z, , , , ,space,2500,2.5,5a270159c40dc70001824243,001,2021-08-19_16h15.27,natb3,2021.2.3,MacIntel,62.5,5a270159c40dc70001824243,611e07ecdcc96256ae8d5b80,611e757f538d4480c86d3ee5,
,,,,space,0.4,,0,240,240,262,1,Y, , , , ,space,2500,2.5,5a270159c40dc70001824243,001,2021-08-19_16h15.27,natb3,2021.2.3,MacIntel,62.5,5a270159c40dc70001824243,611e07ecdcc96256ae8d5b80,611e757f538d4480c86d3ee5,
,,,,space,0.825,,0,241,241,318,1,X, , , , ,,1500,1.5,5a270159c40dc70001824243,001,2021-08-19_16h15.27,natb3,2021.2.3,MacIntel,62.5,5a270159c40dc70001824243,611e07ecdcc96256ae8d5b80,611e757f538d4480c86d3ee5,
,,,,space,0.708,,0,242,242,0,1,Q, , , , ,space,1500,1.5,5a270159c40dc70001824243,001,2021-08-19_16h15.27,natb3,2021.2.3,MacIntel,62.5,5a270159c40dc70001824243,611e07ecdcc96256ae8d5b80,611e757f538d4480c86d3ee5,
,,,,space,0.499,,0,243,243,21,1,J, , , , ,space,1500,1.5,5a270159c40dc70001824243,001,2021-08-19_16h15.27,natb3,2021.2.3,MacIntel,62.5,5a270159c40dc70001824243,611e07ecdcc96256ae8d5b80,611e757f538d4480c86d3ee5,
,,,,space,0.42,,0,244,244,334,1,O, , , , ,space,1500,1.5,5a270159c40dc70001824243,001,2021-08-19_16h15.27,natb3,2021.2.3,MacIntel,62.5,5a270159c40dc70001824243,611e07ecdcc96256ae8d5b80,611e757f538d4480c86d3ee5,
,,,,,,,0,245,245,329,1,X,3,4, ,2,,2500,2.5,5a270159c40dc70001824243,001,2021-08-19_16h15.27,natb3,2021.2.3,MacIntel,62.5,5a270159c40dc70001824243,611e07ecdcc96256ae8d5b80,611e757f538d4480c86d3ee5,
,,,,space,0.364,,0,246,246,53,1,G, , , , ,space,2500,2.5,5a270159c40dc70001824243,001,2021-08-19_16h15.27,natb3,2021.2.3,MacIntel,62.5,5a270159c40dc70001824243,611e07ecdcc96256ae8d5b80,611e757f538d4480c86d3ee5,
,,,,space,0.383,,0,247,247,91,1,L, , , , ,space,2000,2,5a270159c40dc70001824243,001,2021-08-19_16h15.27,natb3,2021.2.3,MacIntel,62.5,5a270159c40dc70001824243,611e07ecdcc96256ae8d5b80,611e757f538d4480c86d3ee5,
,,,,space,0.545,,0,248,248,314,1,L, , , , ,space,1500,1.5,5a270159c40dc70001824243,001,2021-08-19_16h15.27,natb3,2021.2.3,MacIntel,62.5,5a270159c40dc70001824243,611e07ecdcc96256ae8d5b80,611e757f538d4480c86d3ee5,
,,,,space,0.342,,0,249,249,52,1,F, , , , ,space,1500,1.5,5a270159c40dc70001824243,001,2021-08-19_16h15.27,natb3,2021.2.3,MacIntel,62.5,5a270159c40dc70001824243,611e07ecdcc96256ae8d5b80,611e757f538d4480c86d3ee5,
,,,,space,0.593,,0,250,250,209,1,N, , , , ,space,2000,2,5a270159c40dc70001824243,001,2021-08-19_16h15.27,natb3,2021.2.3,MacIntel,62.5,5a270159c40dc70001824243,611e07ecdcc96256ae8d5b80,611e757f538d4480c86d3ee5,
,,,,,,,0,251,251,322,1,X, , ,1,6,,2000,2,5a270159c40dc70001824243,001,2021-08-19_16h15.27,natb3,2021.2.3,MacIntel,62.5,5a270159c40dc70001824243,611e07ecdcc96256ae8d5b80,611e757f538d4480c86d3ee5,
,,,,space,0.698,,0,252,252,116,1,X, , , , ,,2000,2,5a270159c40dc70001824243,001,2021-08-19_16h15.27,natb3,2021.2.3,MacIntel,62.5,5a270159c40dc70001824243,611e07ecdcc96256ae8d5b80,611e757f538d4480c86d3ee5,
,,,,space,0.785,,0,253,253,41,1,Y, , , , ,space,2500,2.5,5a270159c40dc70001824243,001,2021-08-19_16h15.27,natb3,2021.2.3,MacIntel,62.5,5a270159c40dc70001824243,611e07ecdcc96256ae8d5b80,611e757f538d4480c86d3ee5,
,,,,space,0.96,,0,254,254,81,1,S, , , , ,space,2000,2,5a270159c40dc70001824243,001,2021-08-19_16h15.27,natb3,2021.2.3,MacIntel,62.5,5a270159c40dc70001824243,611e07ecdcc96256ae8d5b80,611e757f538d4480c86d3ee5,
,,,,space,0.455,,0,255,255,294,1,T, , , , ,space,2000,2,5a270159c40dc70001824243,001,2021-08-19_16h15.27,natb3,2021.2.3,MacIntel,62.5,5a270159c40dc70001824243,611e07ecdcc96256ae8d5b80,611e757f538d4480c86d3ee5,
,,,,,,,0,256,256,102,1,X, ,6, , ,,1500,1.5,5a270159c40dc70001824243,001,2021-08-19_16h15.27,natb3,2021.2.3,MacIntel,62.5,5a270159c40dc70001824243,611e07ecdcc96256ae8d5b80,611e757f538d4480c86d3ee5,
,,,,space,0.389,,0,257,257,189,1,O, , , , ,space,1500,1.5,5a270159c40dc70001824243,001,2021-08-19_16h15.27,natb3,2021.2.3,MacIntel,62.5,5a270159c40dc70001824243,611e07ecdcc96256ae8d5b80,611e757f538d4480c86d3ee5,
,,,,space,0.386,,0,258,258,204,1,Z, , , , ,space,2000,2,5a270159c40dc70001824243,001,2021-08-19_16h15.27,natb3,2021.2.3,MacIntel,62.5,5a270159c40dc70001824243,611e07ecdcc96256ae8d5b80,611e757f538d4480c86d3ee5,
,,,,,,,0,259,259,148,1,X, , , , ,,2000,2,5a270159c40dc70001824243,001,2021-08-19_16h15.27,natb3,2021.2.3,MacIntel,62.5,5a270159c40dc70001824243,611e07ecdcc96256ae8d5b80,611e757f538d4480c86d3ee5,
,,,,space,0.317,,0,260,260,8,1,U, , , , ,space,1500,1.5,5a270159c40dc70001824243,001,2021-08-19_16h15.27,natb3,2021.2.3,MacIntel,62.5,5a270159c40dc70001824243,611e07ecdcc96256ae8d5b80,611e757f538d4480c86d3ee5,
,,,,,,,0,261,261,138,1,X,8,5, ,3,,2000,2,5a270159c40dc70001824243,001,2021-08-19_16h15.27,natb3,2021.2.3,MacIntel,62.5,5a270159c40dc70001824243,611e07ecdcc96256ae8d5b80,611e757f538d4480c86d3ee5,
,,,,space,0.52,,0,262,262,28,1,V, , , , ,space,1500,1.5,5a270159c40dc70001824243,001,2021-08-19_16h15.27,natb3,2021.2.3,MacIntel,62.5,5a270159c40dc70001824243,611e07ecdcc96256ae8d5b80,611e757f538d4480c86d3ee5,
,,,,,,,0,263,263,118,1,X, , , , ,,2000,2,5a270159c40dc70001824243,001,2021-08-19_16h15.27,natb3,2021.2.3,MacIntel,62.5,5a270159c40dc70001824243,611e07ecdcc96256ae8d5b80,611e757f538d4480c86d3ee5,
,,,,space,0.399,,0,264,264,112,1,Q, , , , ,space,2500,2.5,5a270159c40dc70001824243,001,2021-08-19_16h15.27,natb3,2021.2.3,MacIntel,62.5,5a270159c40dc70001824243,611e07ecdcc96256ae8d5b80,611e757f538d4480c86d3ee5,
,,,,space,0.626,,0,265,265,100,1,M, , , , ,space,2000,2,5a270159c40dc70001824243,001,2021-08-19_16h15.27,natb3,2021.2.3,MacIntel,62.5,5a270159c40dc70001824243,611e07ecdcc96256ae8d5b80,611e757f538d4480c86d3ee5,
,,,,,,,0,266,266,149,1,R, , , , ,space,2000,2,5a270159c40dc70001824243,001,2021-08-19_16h15.27,natb3,2021.2.3,MacIntel,62.5,5a270159c40dc70001824243,611e07ecdcc96256ae8d5b80,611e757f538d4480c86d3ee5,
,,,,,,,0,267,267,200,1,X,7, ,5,3,,1500,1.5,5a270159c40dc70001824243,001,2021-08-19_16h15.27,natb3,2021.2.3,MacIntel,62.5,5a270159c40dc70001824243,611e07ecdcc96256ae8d5b80,611e757f538d4480c86d3ee5,
,,,,space,0.536,,0,268,268,35,1,X, , , , ,,2500,2.5,5a270159c40dc70001824243,001,2021-08-19_16h15.27,natb3,2021.2.3,MacIntel,62.5,5a270159c40dc70001824243,611e07ecdcc96256ae8d5b80,611e757f538d4480c86d3ee5,
,,,,space,0.502,,0,269,269,17,1,F, , , , ,space,2500,2.5,5a270159c40dc70001824243,001,2021-08-19_16h15.27,natb3,2021.2.3,MacIntel,62.5,5a270159c40dc70001824243,611e07ecdcc96256ae8d5b80,611e757f538d4480c86d3ee5,
,,,,space,0.489,,0,270,270,312,1,K, , , , ,space,2000,2,5a270159c40dc70001824243,001,2021-08-19_16h15.27,natb3,2021.2.3,MacIntel,62.5,5a270159c40dc70001824243,611e07ecdcc96256ae8d5b80,611e757f538d4480c86d3ee5,
,,,,space,0.458,,0,271,271,124,1,P, , , , ,space,2000,2,5a270159c40dc70001824243,001,2021-08-19_16h15.27,natb3,2021.2.3,MacIntel,62.5,5a270159c40dc70001824243,611e07ecdcc96256ae8d5b80,611e757f538d4480c86d3ee5,
,,,,space,0.443,,0,272,272,58,1,L, , , , ,space,2000,2,5a270159c40dc70001824243,001,2021-08-19_16h15.27,natb3,2021.2.3,MacIntel,62.5,5a270159c40dc70001824243,611e07ecdcc96256ae8d5b80,611e757f538d4480c86d3ee5,
,,,,space,0.705,,0,273,273,228,1,Y, , , , ,space,2000,2,5a270159c40dc70001824243,001,2021-08-19_16h15.27,natb3,2021.2.3,MacIntel,62.5,5a270159c40dc70001824243,611e07ecdcc96256ae8d5b80,611e757f538d4480c86d3ee5,
,,,,,,,0,274,274,66,1,X, ,4,7, ,,2000,2,5a270159c40dc70001824243,001,2021-08-19_16h15.27,natb3,2021.2.3,MacIntel,62.5,5a270159c40dc70001824243,611e07ecdcc96256ae8d5b80,611e757f538d4480c86d3ee5,
,,,,space,0.56,,0,275,275,222,1,O, , , , ,space,2000,2,5a270159c40dc70001824243,001,2021-08-19_16h15.27,natb3,2021.2.3,MacIntel,62.5,5a270159c40dc70001824243,611e07ecdcc96256ae8d5b80,611e757f538d4480c86d3ee5,
,,,,,,,0,276,276,287,1,X, ,2, ,9,,2000,2,5a270159c40dc70001824243,001,2021-08-19_16h15.27,natb3,2021.2.3,MacIntel,62.5,5a270159c40dc70001824243,611e07ecdcc96256ae8d5b80,611e757f538d4480c86d3ee5,
,,,,space,0.521,,0,277,277,22,1,K, , , , ,space,2000,2,5a270159c40dc70001824243,001,2021-08-19_16h15.27,natb3,2021.2.3,MacIntel,62.5,5a270159c40dc70001824243,611e07ecdcc96256ae8d5b80,611e757f538d4480c86d3ee5,
,,,,space,0.424,,0,278,278,137,1,C, , , , ,space,2500,2.5,5a270159c40dc70001824243,001,2021-08-19_16h15.27,natb3,2021.2.3,MacIntel,62.5,5a270159c40dc70001824243,611e07ecdcc96256ae8d5b80,611e757f538d4480c86d3ee5,
,,,,,,,0,279,279,141,1,X,1, ,4,6,,1500,1.5,5a270159c40dc70001824243,001,2021-08-19_16h15.27,natb3,2021.2.3,MacIntel,62.5,5a270159c40dc70001824243,611e07ecdcc96256ae8d5b80,611e757f538d4480c86d3ee5,
,,,,space,0.647,,0,280,280,216,1,R, , , , ,space,1500,1.5,5a270159c40dc70001824243,001,2021-08-19_16h15.27,natb3,2021.2.3,MacIntel,62.5,5a270159c40dc70001824243,611e07ecdcc96256ae8d5b80,611e757f538d4480c86d3ee5,
,,,,space,0.869,,0,281,281,80,1,A, , , , ,space,2000,2,5a270159c40dc70001824243,001,2021-08-19_16h15.27,natb3,2021.2.3,MacIntel,62.5,5a270159c40dc70001824243,611e07ecdcc96256ae8d5b80,611e757f538d4480c86d3ee5,
,,,,,,,0,282,282,233,1,X, ,2, ,5,,1500,1.5,5a270159c40dc70001824243,001,2021-08-19_16h15.27,natb3,2021.2.3,MacIntel,62.5,5a270159c40dc70001824243,611e07ecdcc96256ae8d5b80,611e757f538d4480c86d3ee5,
,,,,,,,0,283,283,282,1,X, , , , ,,2500,2.5,5a270159c40dc70001824243,001,2021-08-19_16h15.27,natb3,2021.2.3,MacIntel,62.5,5a270159c40dc70001824243,611e07ecdcc96256ae8d5b80,611e757f538d4480c86d3ee5,
,,,,space,0.786,,0,284,284,104,1,E, , , , ,space,2000,2,5a270159c40dc70001824243,001,2021-08-19_16h15.27,natb3,2021.2.3,MacIntel,62.5,5a270159c40dc70001824243,611e07ecdcc96256ae8d5b80,611e757f538d4480c86d3ee5,
,,,,space,0.841,,0,285,285,239,1,X, , , , ,,2000,2,5a270159c40dc70001824243,001,2021-08-19_16h15.27,natb3,2021.2.3,MacIntel,62.5,5a270159c40dc70001824243,611e07ecdcc96256ae8d5b80,611e757f538d4480c86d3ee5,
,,,,space,0.532,,0,286,286,332,1,U, , , , ,space,2000,2,5a270159c40dc70001824243,001,2021-08-19_16h15.27,natb3,2021.2.3,MacIntel,62.5,5a270159c40dc70001824243,611e07ecdcc96256ae8d5b80,611e757f538d4480c86d3ee5,
,,,,space,0.583,,0,287,287,119,1,Y, , , , ,space,2500,2.5,5a270159c40dc70001824243,001,2021-08-19_16h15.27,natb3,2021.2.3,MacIntel,62.5,5a270159c40dc70001824243,611e07ecdcc96256ae8d5b80,611e757f538d4480c86d3ee5,
,,,,,,,0,288,288,27,1,X,5, ,1,3,,1500,1.5,5a270159c40dc70001824243,001,2021-08-19_16h15.27,natb3,2021.2.3,MacIntel,62.5,5a270159c40dc70001824243,611e07ecdcc96256ae8d5b80,611e757f538d4480c86d3ee5,
,,,,space,0.475,,0,289,289,288,1,M, , , , ,space,1500,1.5,5a270159c40dc70001824243,001,2021-08-19_16h15.27,natb3,2021.2.3,MacIntel,62.5,5a270159c40dc70001824243,611e07ecdcc96256ae8d5b80,611e757f538d4480c86d3ee5,
,,,,space,0.725,,0,290,290,56,1,J, , , , ,space,1500,1.5,5a270159c40dc70001824243,001,2021-08-19_16h15.27,natb3,2021.2.3,MacIntel,62.5,5a270159c40dc70001824243,611e07ecdcc96256ae8d5b80,611e757f538d4480c86d3ee5,
,,,,space,0.392,,0,291,291,30,1,N, , , , ,space,2500,2.5,5a270159c40dc70001824243,001,2021-08-19_16h15.27,natb3,2021.2.3,MacIntel,62.5,5a270159c40dc70001824243,611e07ecdcc96256ae8d5b80,611e757f538d4480c86d3ee5,
,,,,space,0.801,,0,292,292,201,1,K, , , , ,space,1500,1.5,5a270159c40dc70001824243,001,2021-08-19_16h15.27,natb3,2021.2.3,MacIntel,62.5,5a270159c40dc70001824243,611e07ecdcc96256ae8d5b80,611e757f538d4480c86d3ee5,
,,,,space,0.786,,0,293,293,146,1,W, , , , ,space,1500,1.5,5a270159c40dc70001824243,001,2021-08-19_16h15.27,natb3,2021.2.3,MacIntel,62.5,5a270159c40dc70001824243,611e07ecdcc96256ae8d5b80,611e757f538d4480c86d3ee5,
,,,,space,0.424,,0,294,294,246,1,L, , , , ,space,2500,2.5,5a270159c40dc70001824243,001,2021-08-19_16h15.27,natb3,2021.2.3,MacIntel,62.5,5a270159c40dc70001824243,611e07ecdcc96256ae8d5b80,611e757f538d4480c86d3ee5,
,,,,space,0.542,,0,295,295,292,1,E, , , , ,space,2000,2,5a270159c40dc70001824243,001,2021-08-19_16h15.27,natb3,2021.2.3,MacIntel,62.5,5a270159c40dc70001824243,611e07ecdcc96256ae8d5b80,611e757f538d4480c86d3ee5,
,,,,space,0.357,,0,296,296,139,1,V, , , , ,space,2000,2,5a270159c40dc70001824243,001,2021-08-19_16h15.27,natb3,2021.2.3,MacIntel,62.5,5a270159c40dc70001824243,611e07ecdcc96256ae8d5b80,611e757f538d4480c86d3ee5,
,,,,space,0.544,,0,297,297,9,1,I, , , , ,space,1500,1.5,5a270159c40dc70001824243,001,2021-08-19_16h15.27,natb3,2021.2.3,MacIntel,62.5,5a270159c40dc70001824243,611e07ecdcc96256ae8d5b80,611e757f538d4480c86d3ee5,
,,,,space,0.417,,0,298,298,125,1,X, , , , ,,2000,2,5a270159c40dc70001824243,001,2021-08-19_16h15.27,natb3,2021.2.3,MacIntel,62.5,5a270159c40dc70001824243,611e07ecdcc96256ae8d5b80,611e757f538d4480c86d3ee5,
,,,,space,0.39,,0,299,299,174,1,B, , , , ,space,2500,2.5,5a270159c40dc70001824243,001,2021-08-19_16h15.27,natb3,2021.2.3,MacIntel,62.5,5a270159c40dc70001824243,611e07ecdcc96256ae8d5b80,611e757f538d4480c86d3ee5,
,,,,space,0.568,,0,300,300,331,1,Y, , , , ,space,2500,2.5,5a270159c40dc70001824243,001,2021-08-19_16h15.27,natb3,2021.2.3,MacIntel,62.5,5a270159c40dc70001824243,611e07ecdcc96256ae8d5b80,611e757f538d4480c86d3ee5,
,,,,,,,0,301,301,51,1,X,7,5,8, ,,1500,1.5,5a270159c40dc70001824243,001,2021-08-19_16h15.27,natb3,2021.2.3,MacIntel,62.5,5a270159c40dc70001824243,611e07ecdcc96256ae8d5b80,611e757f538d4480c86d3ee5,
,,,,,,,0,302,302,211,1,X, , , , ,,2500,2.5,5a270159c40dc70001824243,001,2021-08-19_16h15.27,natb3,2021.2.3,MacIntel,62.5,5a270159c40dc70001824243,611e07ecdcc96256ae8d5b80,611e757f538d4480c86d3ee5,
,,,,space,0.458,,0,303,303,20,1,H, , , , ,space,1500,1.5,5a270159c40dc70001824243,001,2021-08-19_16h15.27,natb3,2021.2.3,MacIntel,62.5,5a270159c40dc70001824243,611e07ecdcc96256ae8d5b80,611e757f538d4480c86d3ee5,
,,,,,,,0,304,304,12,1,X, , , , ,,1500,1.5,5a270159c40dc70001824243,001,2021-08-19_16h15.27,natb3,2021.2.3,MacIntel,62.5,5a270159c40dc70001824243,611e07ecdcc96256ae8d5b80,611e757f538d4480c86d3ee5,
,,,,,,,0,305,305,162,1,X,1,6, ,2,,1500,1.5,5a270159c40dc70001824243,001,2021-08-19_16h15.27,natb3,2021.2.3,MacIntel,62.5,5a270159c40dc70001824243,611e07ecdcc96256ae8d5b80,611e757f538d4480c86d3ee5,
,,,,space,0.483,,0,306,306,247,1,Z, , , , ,space,1500,1.5,5a270159c40dc70001824243,001,2021-08-19_16h15.27,natb3,2021.2.3,MacIntel,62.5,5a270159c40dc70001824243,611e07ecdcc96256ae8d5b80,611e757f538d4480c86d3ee5,
,,,,space,0.885,,0,307,307,155,1,O, , , , ,space,1500,1.5,5a270159c40dc70001824243,001,2021-08-19_16h15.27,natb3,2021.2.3,MacIntel,62.5,5a270159c40dc70001824243,611e07ecdcc96256ae8d5b80,611e757f538d4480c86d3ee5,
,,,,space,0.4,,0,308,308,11,1,P, , , , ,space,2500,2.5,5a270159c40dc70001824243,001,2021-08-19_16h15.27,natb3,2021.2.3,MacIntel,62.5,5a270159c40dc70001824243,611e07ecdcc96256ae8d5b80,611e757f538d4480c86d3ee5,
,,,,space,0.56,,0,309,309,293,1,R, , , , ,space,2500,2.5,5a270159c40dc70001824243,001,2021-08-19_16h15.27,natb3,2021.2.3,MacIntel,62.5,5a270159c40dc70001824243,611e07ecdcc96256ae8d5b80,611e757f538d4480c86d3ee5,
,,,,,,,0,310,310,171,1,X, , , , ,,1500,1.5,5a270159c40dc70001824243,001,2021-08-19_16h15.27,natb3,2021.2.3,MacIntel,62.5,5a270159c40dc70001824243,611e07ecdcc96256ae8d5b80,611e757f538d4480c86d3ee5,
,,,,space,0.416,,0,311,311,67,1,Q, , , , ,space,2000,2,5a270159c40dc70001824243,001,2021-08-19_16h15.27,natb3,2021.2.3,MacIntel,62.5,5a270159c40dc70001824243,611e07ecdcc96256ae8d5b80,611e757f538d4480c86d3ee5,
,,,,space,0.791,,0,312,312,180,1,W, , , , ,space,2000,2,5a270159c40dc70001824243,001,2021-08-19_16h15.27,natb3,2021.2.3,MacIntel,62.5,5a270159c40dc70001824243,611e07ecdcc96256ae8d5b80,611e757f538d4480c86d3ee5,
,,,,,,,0,313,313,325,1,X, , , , ,,2500,2.5,5a270159c40dc70001824243,001,2021-08-19_16h15.27,natb3,2021.2.3,MacIntel,62.5,5a270159c40dc70001824243,611e07ecdcc96256ae8d5b80,611e757f538d4480c86d3ee5,
,,,,space,0.377,,0,314,314,115,1,R, , , , ,space,1500,1.5,5a270159c40dc70001824243,001,2021-08-19_16h15.27,natb3,2021.2.3,MacIntel,62.5,5a270159c40dc70001824243,611e07ecdcc96256ae8d5b80,611e757f538d4480c86d3ee5,
,,,,,,,0,315,315,96,1,X, , , , ,,1500,1.5,5a270159c40dc70001824243,001,2021-08-19_16h15.27,natb3,2021.2.3,MacIntel,62.5,5a270159c40dc70001824243,611e07ecdcc96256ae8d5b80,611e757f538d4480c86d3ee5,
,,,,space,0.394,,0,316,316,250,1,V, , , , ,space,2000,2,5a270159c40dc70001824243,001,2021-08-19_16h15.27,natb3,2021.2.3,MacIntel,62.5,5a270159c40dc70001824243,611e07ecdcc96256ae8d5b80,611e757f538d4480c86d3ee5,
,,,,space,0.666,,0,317,317,2,1,E, , , , ,space,2500,2.5,5a270159c40dc70001824243,001,2021-08-19_16h15.27,natb3,2021.2.3,MacIntel,62.5,5a270159c40dc70001824243,611e07ecdcc96256ae8d5b80,611e757f538d4480c86d3ee5,
,,,,space,0.4,,0,318,318,244,1,J, , , , ,space,1500,1.5,5a270159c40dc70001824243,001,2021-08-19_16h15.27,natb3,2021.2.3,MacIntel,62.5,5a270159c40dc70001824243,611e07ecdcc96256ae8d5b80,611e757f538d4480c86d3ee5,
,,,,space,0.443,,0,319,319,275,1,G, , , , ,space,1500,1.5,5a270159c40dc70001824243,001,2021-08-19_16h15.27,natb3,2021.2.3,MacIntel,62.5,5a270159c40dc70001824243,611e07ecdcc96256ae8d5b80,611e757f538d4480c86d3ee5,
,,,,space,0.349,,0,320,320,59,1,Z, , , , ,space,2000,2,5a270159c40dc70001824243,001,2021-08-19_16h15.27,natb3,2021.2.3,MacIntel,62.5,5a270159c40dc70001824243,611e07ecdcc96256ae8d5b80,611e757f538d4480c86d3ee5,
,,,,space,0.542,,0,321,321,316,1,Z, , , , ,space,1500,1.5,5a270159c40dc70001824243,001,2021-08-19_16h15.27,natb3,2021.2.3,MacIntel,62.5,5a270159c40dc70001824243,611e07ecdcc96256ae8d5b80,611e757f538d4480c86d3ee5,
,,,,space,0.499,,0,322,322,24,1,L, , , , ,space,2500,2.5,5a270159c40dc70001824243,001,2021-08-19_16h15.27,natb3,2021.2.3,MacIntel,62.5,5a270159c40dc70001824243,611e07ecdcc96256ae8d5b80,611e757f538d4480c86d3ee5,
,,,,,,,0,323,323,82,1,X,4,6,1,7,,2000,2,5a270159c40dc70001824243,001,2021-08-19_16h15.27,natb3,2021.2.3,MacIntel,62.5,5a270159c40dc70001824243,611e07ecdcc96256ae8d5b80,611e757f538d4480c86d3ee5,
,,,,space,0.598,,0,324,324,36,1,W, , , , ,space,2000,2,5a270159c40dc70001824243,001,2021-08-19_16h15.27,natb3,2021.2.3,MacIntel,62.5,5a270159c40dc70001824243,611e07ecdcc96256ae8d5b80,611e757f538d4480c86d3ee5,
,,,,,,,0,325,325,196,1,F, , , , ,space,1500,1.5,5a270159c40dc70001824243,001,2021-08-19_16h15.27,natb3,2021.2.3,MacIntel,62.5,5a270159c40dc70001824243,611e07ecdcc96256ae8d5b80,611e757f538d4480c86d3ee5,
,,,,space,0.501,,0,326,326,226,1,R, , , , ,space,2000,2,5a270159c40dc70001824243,001,2021-08-19_16h15.27,natb3,2021.2.3,MacIntel,62.5,5a270159c40dc70001824243,611e07ecdcc96256ae8d5b80,611e757f538d4480c86d3ee5,
,,,,space,0.467,,0,327,327,77,1,O, , , , ,space,2000,2,5a270159c40dc70001824243,001,2021-08-19_16h15.27,natb3,2021.2.3,MacIntel,62.5,5a270159c40dc70001824243,611e07ecdcc96256ae8d5b80,611e757f538d4480c86d3ee5,
,,,,,,,0,328,328,268,1,X,6, ,3, ,,2500,2.5,5a270159c40dc70001824243,001,2021-08-19_16h15.27,natb3,2021.2.3,MacIntel,62.5,5a270159c40dc70001824243,611e07ecdcc96256ae8d5b80,611e757f538d4480c86d3ee5,
,,,,space,0.421,,0,329,329,55,1,H, , , , ,space,2500,2.5,5a270159c40dc70001824243,001,2021-08-19_16h15.27,natb3,2021.2.3,MacIntel,62.5,5a270159c40dc70001824243,611e07ecdcc96256ae8d5b80,611e757f538d4480c86d3ee5,
,,,,,,,0,330,330,218,1,X,1,3, ,8,,1500,1.5,5a270159c40dc70001824243,001,2021-08-19_16h15.27,natb3,2021.2.3,MacIntel,62.5,5a270159c40dc70001824243,611e07ecdcc96256ae8d5b80,611e757f538d4480c86d3ee5,
,,,,space,0.636,,0,331,331,206,1,V, , , , ,space,2000,2,5a270159c40dc70001824243,001,2021-08-19_16h15.27,natb3,2021.2.3,MacIntel,62.5,5a270159c40dc70001824243,611e07ecdcc96256ae8d5b80,611e757f538d4480c86d3ee5,
,,,,,,,0,332,332,60,1,X,7,3,5, ,,1500,1.5,5a270159c40dc70001824243,001,2021-08-19_16h15.27,natb3,2021.2.3,MacIntel,62.5,5a270159c40dc70001824243,611e07ecdcc96256ae8d5b80,611e757f538d4480c86d3ee5,
,,,,,,,0,333,333,101,1,Q, , , , ,space,2500,2.5,5a270159c40dc70001824243,001,2021-08-19_16h15.27,natb3,2021.2.3,MacIntel,62.5,5a270159c40dc70001824243,611e07ecdcc96256ae8d5b80,611e757f538d4480c86d3ee5,
,,,,space,0.85,,0,334,334,157,1,A, , , , ,space,2500,2.5,5a270159c40dc70001824243,001,2021-08-19_16h15.27,natb3,2021.2.3,MacIntel,62.5,5a270159c40dc70001824243,611e07ecdcc96256ae8d5b80,611e757f538d4480c86d3ee5,
,,,,space,0.416,,0,335,335,212,1,Q, , , , ,space,2500,2.5,5a270159c40dc70001824243,001,2021-08-19_16h15.27,natb3,2021.2.3,MacIntel,62.5,5a270159c40dc70001824243,611e07ecdcc96256ae8d5b80,611e757f538d4480c86d3ee5,
