key_resp_2.keys,key_resp_2.rt,key_resp_3.keys,key_resp_3.rt,key_resp.keys,key_resp_4.keys,trials.thisRepN,trials.thisTrialN,trials.thisN,trials.thisIndex,trials.ran,stimulus,distractor1,distractor2,distractor3,distractor4,CorrAns,isi_duration,isi_dur_in_seconds,participant,session,date,expName,psychopyVersion,OS,frameRate,PROLIFIC_PID,STUDY_ID,SESSION_ID,key_resp.rt,key_resp_4.rt
return,60.196,space,14.7443,,,0,0,0,106,1,T, , , , ,space,1500,1.5,5a5aa4eaacc75b00017a52b8,001,2021-08-19_16h42.37.588,natb3,2021.2.3,Win32,59.91252771,5a5aa4eaacc75b00017a52b8,611e07ecdcc96256ae8d5b80,611e7bd634cf67f6bde2f44f,,
,,,,space,,0,1,1,205,1,C, , , , ,space,2000,2,5a5aa4eaacc75b00017a52b8,001,2021-08-19_16h42.37.588,natb3,2021.2.3,Win32,59.91252771,5a5aa4eaacc75b00017a52b8,611e07ecdcc96256ae8d5b80,611e7bd634cf67f6bde2f44f,0.3181,
,,,,space,,0,2,2,85,1,F, , , , ,space,2500,2.5,5a5aa4eaacc75b00017a52b8,001,2021-08-19_16h42.37.588,natb3,2021.2.3,Win32,59.91252771,5a5aa4eaacc75b00017a52b8,611e07ecdcc96256ae8d5b80,611e7bd634cf67f6bde2f44f,0.4176,
,,,,space,,0,3,3,198,1,H, , , , ,space,2500,2.5,5a5aa4eaacc75b00017a52b8,001,2021-08-19_16h42.37.588,natb3,2021.2.3,Win32,59.91252771,5a5aa4eaacc75b00017a52b8,611e07ecdcc96256ae8d5b80,611e7bd634cf67f6bde2f44f,0.3549,
,,,,,,0,4,4,89,1,X,3, , , ,,2000,2,5a5aa4eaacc75b00017a52b8,001,2021-08-19_16h42.37.588,natb3,2021.2.3,Win32,59.91252771,5a5aa4eaacc75b00017a52b8,611e07ecdcc96256ae8d5b80,611e7bd634cf67f6bde2f44f,,
,,,,space,,0,5,5,257,1,W, , , , ,space,2000,2,5a5aa4eaacc75b00017a52b8,001,2021-08-19_16h42.37.588,natb3,2021.2.3,Win32,59.91252771,5a5aa4eaacc75b00017a52b8,611e07ecdcc96256ae8d5b80,611e7bd634cf67f6bde2f44f,0.7183,
,,,,,,0,6,6,107,1,X,9,3, ,2,,2000,2,5a5aa4eaacc75b00017a52b8,001,2021-08-19_16h42.37.588,natb3,2021.2.3,Win32,59.91252771,5a5aa4eaacc75b00017a52b8,611e07ecdcc96256ae8d5b80,611e7bd634cf67f6bde2f44f,,
,,,,space,,0,7,7,80,1,A, , , , ,space,2000,2,5a5aa4eaacc75b00017a52b8,001,2021-08-19_16h42.37.588,natb3,2021.2.3,Win32,59.91252771,5a5aa4eaacc75b00017a52b8,611e07ecdcc96256ae8d5b80,611e7bd634cf67f6bde2f44f,0.6073,
,,,,,,0,8,8,277,1,X,8,5, ,2,,2000,2,5a5aa4eaacc75b00017a52b8,001,2021-08-19_16h42.37.588,natb3,2021.2.3,Win32,59.91252771,5a5aa4eaacc75b00017a52b8,611e07ecdcc96256ae8d5b80,611e7bd634cf67f6bde2f44f,,
,,,,space,,0,9,9,256,1,Q, , , , ,space,2000,2,5a5aa4eaacc75b00017a52b8,001,2021-08-19_16h42.37.588,natb3,2021.2.3,Win32,59.91252771,5a5aa4eaacc75b00017a52b8,611e07ecdcc96256ae8d5b80,611e7bd634cf67f6bde2f44f,0.5061,
,,,,,,0,10,10,175,1,X,7, ,4,2,,1500,1.5,5a5aa4eaacc75b00017a52b8,001,2021-08-19_16h42.37.588,natb3,2021.2.3,Win32,59.91252771,5a5aa4eaacc75b00017a52b8,611e07ecdcc96256ae8d5b80,611e7bd634cf67f6bde2f44f,,
,,,,space,,0,11,11,316,1,Z, , , , ,space,1500,1.5,5a5aa4eaacc75b00017a52b8,001,2021-08-19_16h42.37.588,natb3,2021.2.3,Win32,59.91252771,5a5aa4eaacc75b00017a52b8,611e07ecdcc96256ae8d5b80,611e7bd634cf67f6bde2f44f,0.4072,
,,,,space,,0,12,12,330,1,T, , , , ,space,2500,2.5,5a5aa4eaacc75b00017a52b8,001,2021-08-19_16h42.37.588,natb3,2021.2.3,Win32,59.91252771,5a5aa4eaacc75b00017a52b8,611e07ecdcc96256ae8d5b80,611e7bd634cf67f6bde2f44f,0.4719,
,,,,space,,0,13,13,123,1,O, , , , ,space,1500,1.5,5a5aa4eaacc75b00017a52b8,001,2021-08-19_16h42.37.588,natb3,2021.2.3,Win32,59.91252771,5a5aa4eaacc75b00017a52b8,611e07ecdcc96256ae8d5b80,611e7bd634cf67f6bde2f44f,0.9395,
,,,,,,0,14,14,281,1,Z, , , , ,space,1500,1.5,5a5aa4eaacc75b00017a52b8,001,2021-08-19_16h42.37.588,natb3,2021.2.3,Win32,59.91252771,5a5aa4eaacc75b00017a52b8,611e07ecdcc96256ae8d5b80,611e7bd634cf67f6bde2f44f,,
,,,,space,,0,15,15,270,1,S, , , , ,space,1500,1.5,5a5aa4eaacc75b00017a52b8,001,2021-08-19_16h42.37.588,natb3,2021.2.3,Win32,59.91252771,5a5aa4eaacc75b00017a52b8,611e07ecdcc96256ae8d5b80,611e7bd634cf67f6bde2f44f,0.6651,
,,,,space,,0,16,16,232,1,O, , , , ,space,2500,2.5,5a5aa4eaacc75b00017a52b8,001,2021-08-19_16h42.37.588,natb3,2021.2.3,Win32,59.91252771,5a5aa4eaacc75b00017a52b8,611e07ecdcc96256ae8d5b80,611e7bd634cf67f6bde2f44f,0.5217,
,,,,space,,0,17,17,126,1,A, , , , ,space,2500,2.5,5a5aa4eaacc75b00017a52b8,001,2021-08-19_16h42.37.588,natb3,2021.2.3,Win32,59.91252771,5a5aa4eaacc75b00017a52b8,611e07ecdcc96256ae8d5b80,611e7bd634cf67f6bde2f44f,0.3613,
,,,,space,,0,18,18,121,1,I, , , , ,space,2000,2,5a5aa4eaacc75b00017a52b8,001,2021-08-19_16h42.37.588,natb3,2021.2.3,Win32,59.91252771,5a5aa4eaacc75b00017a52b8,611e07ecdcc96256ae8d5b80,611e7bd634cf67f6bde2f44f,0.5517,
,,,,,,0,19,19,92,1,Z, , , , ,space,1500,1.5,5a5aa4eaacc75b00017a52b8,001,2021-08-19_16h42.37.588,natb3,2021.2.3,Win32,59.91252771,5a5aa4eaacc75b00017a52b8,611e07ecdcc96256ae8d5b80,611e7bd634cf67f6bde2f44f,,
,,,,,,0,20,20,179,1,X, ,9, ,2,,1500,1.5,5a5aa4eaacc75b00017a52b8,001,2021-08-19_16h42.37.588,natb3,2021.2.3,Win32,59.91252771,5a5aa4eaacc75b00017a52b8,611e07ecdcc96256ae8d5b80,611e7bd634cf67f6bde2f44f,,
,,,,space,,0,21,21,132,1,H, , , , ,space,2500,2.5,5a5aa4eaacc75b00017a52b8,001,2021-08-19_16h42.37.588,natb3,2021.2.3,Win32,59.91252771,5a5aa4eaacc75b00017a52b8,611e07ecdcc96256ae8d5b80,611e7bd634cf67f6bde2f44f,0.3121,
,,,,space,,0,22,22,61,1,C, , , , ,space,2000,2,5a5aa4eaacc75b00017a52b8,001,2021-08-19_16h42.37.588,natb3,2021.2.3,Win32,59.91252771,5a5aa4eaacc75b00017a52b8,611e07ecdcc96256ae8d5b80,611e7bd634cf67f6bde2f44f,0.4312,
,,,,space,,0,23,23,234,1,P, , , , ,space,2000,2,5a5aa4eaacc75b00017a52b8,001,2021-08-19_16h42.37.588,natb3,2021.2.3,Win32,59.91252771,5a5aa4eaacc75b00017a52b8,611e07ecdcc96256ae8d5b80,611e7bd634cf67f6bde2f44f,0.5172,
,,,,,,0,24,24,84,1,X, , , , ,,2000,2,5a5aa4eaacc75b00017a52b8,001,2021-08-19_16h42.37.588,natb3,2021.2.3,Win32,59.91252771,5a5aa4eaacc75b00017a52b8,611e07ecdcc96256ae8d5b80,611e7bd634cf67f6bde2f44f,,
,,,,space,,0,25,25,327,1,E, , , , ,space,1500,1.5,5a5aa4eaacc75b00017a52b8,001,2021-08-19_16h42.37.588,natb3,2021.2.3,Win32,59.91252771,5a5aa4eaacc75b00017a52b8,611e07ecdcc96256ae8d5b80,611e7bd634cf67f6bde2f44f,0.402,
,,,,space,,0,26,26,332,1,U, , , , ,space,2000,2,5a5aa4eaacc75b00017a52b8,001,2021-08-19_16h42.37.588,natb3,2021.2.3,Win32,59.91252771,5a5aa4eaacc75b00017a52b8,611e07ecdcc96256ae8d5b80,611e7bd634cf67f6bde2f44f,0.4509,
,,,,,,0,27,27,295,1,X,8,7,5, ,,2500,2.5,5a5aa4eaacc75b00017a52b8,001,2021-08-19_16h42.37.588,natb3,2021.2.3,Win32,59.91252771,5a5aa4eaacc75b00017a52b8,611e07ecdcc96256ae8d5b80,611e7bd634cf67f6bde2f44f,,
,,,,space,,0,28,28,260,1,R, , , , ,space,2000,2,5a5aa4eaacc75b00017a52b8,001,2021-08-19_16h42.37.588,natb3,2021.2.3,Win32,59.91252771,5a5aa4eaacc75b00017a52b8,611e07ecdcc96256ae8d5b80,611e7bd634cf67f6bde2f44f,0.374,
,,,,space,,0,29,29,149,1,R, , , , ,space,2000,2,5a5aa4eaacc75b00017a52b8,001,2021-08-19_16h42.37.588,natb3,2021.2.3,Win32,59.91252771,5a5aa4eaacc75b00017a52b8,611e07ecdcc96256ae8d5b80,611e7bd634cf67f6bde2f44f,0.587,
,,,,space,,0,30,30,321,1,N, , , , ,space,2000,2,5a5aa4eaacc75b00017a52b8,001,2021-08-19_16h42.37.588,natb3,2021.2.3,Win32,59.91252771,5a5aa4eaacc75b00017a52b8,611e07ecdcc96256ae8d5b80,611e7bd634cf67f6bde2f44f,0.4453,
,,,,space,,0,31,31,261,1,T, , , , ,space,2000,2,5a5aa4eaacc75b00017a52b8,001,2021-08-19_16h42.37.588,natb3,2021.2.3,Win32,59.91252771,5a5aa4eaacc75b00017a52b8,611e07ecdcc96256ae8d5b80,611e7bd634cf67f6bde2f44f,0.3085,
,,,,space,,0,32,32,117,1,T, , , , ,space,2500,2.5,5a5aa4eaacc75b00017a52b8,001,2021-08-19_16h42.37.588,natb3,2021.2.3,Win32,59.91252771,5a5aa4eaacc75b00017a52b8,611e07ecdcc96256ae8d5b80,611e7bd634cf67f6bde2f44f,0.301,
,,,,space,,0,33,33,55,1,H, , , , ,space,2500,2.5,5a5aa4eaacc75b00017a52b8,001,2021-08-19_16h42.37.588,natb3,2021.2.3,Win32,59.91252771,5a5aa4eaacc75b00017a52b8,611e07ecdcc96256ae8d5b80,611e7bd634cf67f6bde2f44f,0.3318,
,,,,space,,0,34,34,269,1,A, , , , ,space,2500,2.5,5a5aa4eaacc75b00017a52b8,001,2021-08-19_16h42.37.588,natb3,2021.2.3,Win32,59.91252771,5a5aa4eaacc75b00017a52b8,611e07ecdcc96256ae8d5b80,611e7bd634cf67f6bde2f44f,0.4989,
,,,,space,,0,35,35,81,1,S, , , , ,space,2000,2,5a5aa4eaacc75b00017a52b8,001,2021-08-19_16h42.37.588,natb3,2021.2.3,Win32,59.91252771,5a5aa4eaacc75b00017a52b8,611e07ecdcc96256ae8d5b80,611e7bd634cf67f6bde2f44f,0.3024,
,,,,space,,0,36,36,160,1,D, , , , ,space,1500,1.5,5a5aa4eaacc75b00017a52b8,001,2021-08-19_16h42.37.588,natb3,2021.2.3,Win32,59.91252771,5a5aa4eaacc75b00017a52b8,611e07ecdcc96256ae8d5b80,611e7bd634cf67f6bde2f44f,0.3832,
,,,,space,,0,37,37,135,1,K, , , , ,space,1500,1.5,5a5aa4eaacc75b00017a52b8,001,2021-08-19_16h42.37.588,natb3,2021.2.3,Win32,59.91252771,5a5aa4eaacc75b00017a52b8,611e07ecdcc96256ae8d5b80,611e7bd634cf67f6bde2f44f,0.3682,
,,,,space,,0,38,38,28,1,V, , , , ,space,1500,1.5,5a5aa4eaacc75b00017a52b8,001,2021-08-19_16h42.37.588,natb3,2021.2.3,Win32,59.91252771,5a5aa4eaacc75b00017a52b8,611e07ecdcc96256ae8d5b80,611e7bd634cf67f6bde2f44f,0.3016,
,,,,space,,0,39,39,278,1,J, , , , ,space,2000,2,5a5aa4eaacc75b00017a52b8,001,2021-08-19_16h42.37.588,natb3,2021.2.3,Win32,59.91252771,5a5aa4eaacc75b00017a52b8,611e07ecdcc96256ae8d5b80,611e7bd634cf67f6bde2f44f,0.3681,
,,,,space,,0,40,40,253,1,N, , , , ,space,2500,2.5,5a5aa4eaacc75b00017a52b8,001,2021-08-19_16h42.37.588,natb3,2021.2.3,Win32,59.91252771,5a5aa4eaacc75b00017a52b8,611e07ecdcc96256ae8d5b80,611e7bd634cf67f6bde2f44f,0.3183,
,,,,space,,0,41,41,114,1,E, , , , ,space,2000,2,5a5aa4eaacc75b00017a52b8,001,2021-08-19_16h42.37.588,natb3,2021.2.3,Win32,59.91252771,5a5aa4eaacc75b00017a52b8,611e07ecdcc96256ae8d5b80,611e7bd634cf67f6bde2f44f,0.3729,
,,,,space,,0,42,42,242,1,H, , , , ,space,2500,2.5,5a5aa4eaacc75b00017a52b8,001,2021-08-19_16h42.37.588,natb3,2021.2.3,Win32,59.91252771,5a5aa4eaacc75b00017a52b8,611e07ecdcc96256ae8d5b80,611e7bd634cf67f6bde2f44f,0.2899,
,,,,space,,0,43,43,334,1,O, , , , ,space,1500,1.5,5a5aa4eaacc75b00017a52b8,001,2021-08-19_16h42.37.588,natb3,2021.2.3,Win32,59.91252771,5a5aa4eaacc75b00017a52b8,611e07ecdcc96256ae8d5b80,611e7bd634cf67f6bde2f44f,0.371,
,,,,space,,0,44,44,113,1,W, , , , ,space,2500,2.5,5a5aa4eaacc75b00017a52b8,001,2021-08-19_16h42.37.588,natb3,2021.2.3,Win32,59.91252771,5a5aa4eaacc75b00017a52b8,611e07ecdcc96256ae8d5b80,611e7bd634cf67f6bde2f44f,0.285,
,,,,space,,0,45,45,241,1,G, , , , ,space,2500,2.5,5a5aa4eaacc75b00017a52b8,001,2021-08-19_16h42.37.588,natb3,2021.2.3,Win32,59.91252771,5a5aa4eaacc75b00017a52b8,611e07ecdcc96256ae8d5b80,611e7bd634cf67f6bde2f44f,0.301,
,,,,space,,0,46,46,184,1,T, , , , ,space,2000,2,5a5aa4eaacc75b00017a52b8,001,2021-08-19_16h42.37.588,natb3,2021.2.3,Win32,59.91252771,5a5aa4eaacc75b00017a52b8,611e07ecdcc96256ae8d5b80,611e7bd634cf67f6bde2f44f,0.3343,
,,,,space,,0,47,47,21,1,J, , , , ,space,1500,1.5,5a5aa4eaacc75b00017a52b8,001,2021-08-19_16h42.37.588,natb3,2021.2.3,Win32,59.91252771,5a5aa4eaacc75b00017a52b8,611e07ecdcc96256ae8d5b80,611e7bd634cf67f6bde2f44f,0.3512,
,,,,space,,0,48,48,189,1,O, , , , ,space,1500,1.5,5a5aa4eaacc75b00017a52b8,001,2021-08-19_16h42.37.588,natb3,2021.2.3,Win32,59.91252771,5a5aa4eaacc75b00017a52b8,611e07ecdcc96256ae8d5b80,611e7bd634cf67f6bde2f44f,0.334,
,,,,,,0,49,49,271,1,X, , , , ,,2500,2.5,5a5aa4eaacc75b00017a52b8,001,2021-08-19_16h42.37.588,natb3,2021.2.3,Win32,59.91252771,5a5aa4eaacc75b00017a52b8,611e07ecdcc96256ae8d5b80,611e7bd634cf67f6bde2f44f,,
,,,,space,,0,50,50,95,1,V, , , , ,space,1500,1.5,5a5aa4eaacc75b00017a52b8,001,2021-08-19_16h42.37.588,natb3,2021.2.3,Win32,59.91252771,5a5aa4eaacc75b00017a52b8,611e07ecdcc96256ae8d5b80,611e7bd634cf67f6bde2f44f,0.3187,
,,,,,,0,51,51,27,1,X,5, ,1,3,,1500,1.5,5a5aa4eaacc75b00017a52b8,001,2021-08-19_16h42.37.588,natb3,2021.2.3,Win32,59.91252771,5a5aa4eaacc75b00017a52b8,611e07ecdcc96256ae8d5b80,611e7bd634cf67f6bde2f44f,,
,,,,space,,0,52,52,57,1,K, , , , ,space,2500,2.5,5a5aa4eaacc75b00017a52b8,001,2021-08-19_16h42.37.588,natb3,2021.2.3,Win32,59.91252771,5a5aa4eaacc75b00017a52b8,611e07ecdcc96256ae8d5b80,611e7bd634cf67f6bde2f44f,0.4853,
,,,,space,,0,53,53,73,1,Y, , , , ,space,2000,2,5a5aa4eaacc75b00017a52b8,001,2021-08-19_16h42.37.588,natb3,2021.2.3,Win32,59.91252771,5a5aa4eaacc75b00017a52b8,611e07ecdcc96256ae8d5b80,611e7bd634cf67f6bde2f44f,0.5013,
,,,,,,0,54,54,335,1,P,,,,,space,1500,1.5,5a5aa4eaacc75b00017a52b8,001,2021-08-19_16h42.37.588,natb3,2021.2.3,Win32,59.91252771,5a5aa4eaacc75b00017a52b8,611e07ecdcc96256ae8d5b80,611e7bd634cf67f6bde2f44f,,
,,,,space,,0,55,55,173,1,V, , , , ,space,1500,1.5,5a5aa4eaacc75b00017a52b8,001,2021-08-19_16h42.37.588,natb3,2021.2.3,Win32,59.91252771,5a5aa4eaacc75b00017a52b8,611e07ecdcc96256ae8d5b80,611e7bd634cf67f6bde2f44f,0.4524,
,,,,space,,0,56,56,155,1,O, , , , ,space,1500,1.5,5a5aa4eaacc75b00017a52b8,001,2021-08-19_16h42.37.588,natb3,2021.2.3,Win32,59.91252771,5a5aa4eaacc75b00017a52b8,611e07ecdcc96256ae8d5b80,611e7bd634cf67f6bde2f44f,0.4159,
,,,,space,,0,57,57,323,1,M, , , , ,space,2500,2.5,5a5aa4eaacc75b00017a52b8,001,2021-08-19_16h42.37.588,natb3,2021.2.3,Win32,59.91252771,5a5aa4eaacc75b00017a52b8,611e07ecdcc96256ae8d5b80,611e7bd634cf67f6bde2f44f,0.3376,
,,,,space,,0,58,58,216,1,R, , , , ,space,1500,1.5,5a5aa4eaacc75b00017a52b8,001,2021-08-19_16h42.37.588,natb3,2021.2.3,Win32,59.91252771,5a5aa4eaacc75b00017a52b8,611e07ecdcc96256ae8d5b80,611e7bd634cf67f6bde2f44f,0.3272,
,,,,space,,0,59,59,313,1,X, , , , ,,2500,2.5,5a5aa4eaacc75b00017a52b8,001,2021-08-19_16h42.37.588,natb3,2021.2.3,Win32,59.91252771,5a5aa4eaacc75b00017a52b8,611e07ecdcc96256ae8d5b80,611e7bd634cf67f6bde2f44f,0.3843,
,,,,space,,0,60,60,264,1,U, , , , ,space,2000,2,5a5aa4eaacc75b00017a52b8,001,2021-08-19_16h42.37.588,natb3,2021.2.3,Win32,59.91252771,5a5aa4eaacc75b00017a52b8,611e07ecdcc96256ae8d5b80,611e7bd634cf67f6bde2f44f,0.318,
,,,,space,,0,61,61,103,1,W, , , , ,space,2000,2,5a5aa4eaacc75b00017a52b8,001,2021-08-19_16h42.37.588,natb3,2021.2.3,Win32,59.91252771,5a5aa4eaacc75b00017a52b8,611e07ecdcc96256ae8d5b80,611e7bd634cf67f6bde2f44f,0.3836,
,,,,space,,0,62,62,176,1,N, , , , ,space,1500,1.5,5a5aa4eaacc75b00017a52b8,001,2021-08-19_16h42.37.588,natb3,2021.2.3,Win32,59.91252771,5a5aa4eaacc75b00017a52b8,611e07ecdcc96256ae8d5b80,611e7bd634cf67f6bde2f44f,0.4843,
,,,,,,0,63,63,60,1,X,7,3,5, ,,1500,1.5,5a5aa4eaacc75b00017a52b8,001,2021-08-19_16h42.37.588,natb3,2021.2.3,Win32,59.91252771,5a5aa4eaacc75b00017a52b8,611e07ecdcc96256ae8d5b80,611e7bd634cf67f6bde2f44f,,
,,,,space,,0,64,64,308,1,G, , , , ,space,1500,1.5,5a5aa4eaacc75b00017a52b8,001,2021-08-19_16h42.37.588,natb3,2021.2.3,Win32,59.91252771,5a5aa4eaacc75b00017a52b8,611e07ecdcc96256ae8d5b80,611e7bd634cf67f6bde2f44f,0.4006,
,,,,space,,0,65,65,87,1,H, , , , ,space,1500,1.5,5a5aa4eaacc75b00017a52b8,001,2021-08-19_16h42.37.588,natb3,2021.2.3,Win32,59.91252771,5a5aa4eaacc75b00017a52b8,611e07ecdcc96256ae8d5b80,611e7bd634cf67f6bde2f44f,0.3849,
,,,,space,,0,66,66,183,1,R, , , , ,space,1500,1.5,5a5aa4eaacc75b00017a52b8,001,2021-08-19_16h42.37.588,natb3,2021.2.3,Win32,59.91252771,5a5aa4eaacc75b00017a52b8,611e07ecdcc96256ae8d5b80,611e7bd634cf67f6bde2f44f,0.421,
,,,,,,0,67,67,311,1,X,1,2,7,3,,2500,2.5,5a5aa4eaacc75b00017a52b8,001,2021-08-19_16h42.37.588,natb3,2021.2.3,Win32,59.91252771,5a5aa4eaacc75b00017a52b8,611e07ecdcc96256ae8d5b80,611e7bd634cf67f6bde2f44f,,
,,,,space,,0,68,68,204,1,Z, , , , ,space,2000,2,5a5aa4eaacc75b00017a52b8,001,2021-08-19_16h42.37.588,natb3,2021.2.3,Win32,59.91252771,5a5aa4eaacc75b00017a52b8,611e07ecdcc96256ae8d5b80,611e7bd634cf67f6bde2f44f,0.4311,
,,,,,,0,69,69,263,1,X,4, ,6, ,,1500,1.5,5a5aa4eaacc75b00017a52b8,001,2021-08-19_16h42.37.588,natb3,2021.2.3,Win32,59.91252771,5a5aa4eaacc75b00017a52b8,611e07ecdcc96256ae8d5b80,611e7bd634cf67f6bde2f44f,,
,,,,space,,0,70,70,280,1,L, , , , ,space,1500,1.5,5a5aa4eaacc75b00017a52b8,001,2021-08-19_16h42.37.588,natb3,2021.2.3,Win32,59.91252771,5a5aa4eaacc75b00017a52b8,611e07ecdcc96256ae8d5b80,611e7bd634cf67f6bde2f44f,0.4048,
,,,,space,,0,71,71,29,1,B, , , , ,space,1500,1.5,5a5aa4eaacc75b00017a52b8,001,2021-08-19_16h42.37.588,natb3,2021.2.3,Win32,59.91252771,5a5aa4eaacc75b00017a52b8,611e07ecdcc96256ae8d5b80,611e7bd634cf67f6bde2f44f,0.3647,
,,,,space,,0,72,72,118,1,X, , , , ,,2000,2,5a5aa4eaacc75b00017a52b8,001,2021-08-19_16h42.37.588,natb3,2021.2.3,Win32,59.91252771,5a5aa4eaacc75b00017a52b8,611e07ecdcc96256ae8d5b80,611e7bd634cf67f6bde2f44f,0.3358,
,,,,space,,0,73,73,196,1,F, , , , ,space,1500,1.5,5a5aa4eaacc75b00017a52b8,001,2021-08-19_16h42.37.588,natb3,2021.2.3,Win32,59.91252771,5a5aa4eaacc75b00017a52b8,611e07ecdcc96256ae8d5b80,611e7bd634cf67f6bde2f44f,0.4197,
,,,,,,0,74,74,102,1,X, ,6, , ,,1500,1.5,5a5aa4eaacc75b00017a52b8,001,2021-08-19_16h42.37.588,natb3,2021.2.3,Win32,59.91252771,5a5aa4eaacc75b00017a52b8,611e07ecdcc96256ae8d5b80,611e7bd634cf67f6bde2f44f,,
,,,,space,,0,75,75,226,1,R, , , , ,space,2000,2,5a5aa4eaacc75b00017a52b8,001,2021-08-19_16h42.37.588,natb3,2021.2.3,Win32,59.91252771,5a5aa4eaacc75b00017a52b8,611e07ecdcc96256ae8d5b80,611e7bd634cf67f6bde2f44f,0.5351,
,,,,space,,0,76,76,319,1,V, , , , ,space,2000,2,5a5aa4eaacc75b00017a52b8,001,2021-08-19_16h42.37.588,natb3,2021.2.3,Win32,59.91252771,5a5aa4eaacc75b00017a52b8,611e07ecdcc96256ae8d5b80,611e7bd634cf67f6bde2f44f,0.4358,
,,,,space,,0,77,77,94,1,C, , , , ,space,2000,2,5a5aa4eaacc75b00017a52b8,001,2021-08-19_16h42.37.588,natb3,2021.2.3,Win32,59.91252771,5a5aa4eaacc75b00017a52b8,611e07ecdcc96256ae8d5b80,611e7bd634cf67f6bde2f44f,0.3676,
,,,,space,,0,78,78,171,1,X, , , , ,,1500,1.5,5a5aa4eaacc75b00017a52b8,001,2021-08-19_16h42.37.588,natb3,2021.2.3,Win32,59.91252771,5a5aa4eaacc75b00017a52b8,611e07ecdcc96256ae8d5b80,611e7bd634cf67f6bde2f44f,0.4506,
,,,,space,,0,79,79,143,1,M, , , , ,space,2500,2.5,5a5aa4eaacc75b00017a52b8,001,2021-08-19_16h42.37.588,natb3,2021.2.3,Win32,59.91252771,5a5aa4eaacc75b00017a52b8,611e07ecdcc96256ae8d5b80,611e7bd634cf67f6bde2f44f,0.3351,
,,,,space,,0,80,80,267,1,P, , , , ,space,2000,2,5a5aa4eaacc75b00017a52b8,001,2021-08-19_16h42.37.588,natb3,2021.2.3,Win32,59.91252771,5a5aa4eaacc75b00017a52b8,611e07ecdcc96256ae8d5b80,611e7bd634cf67f6bde2f44f,0.389,
,,,,,,0,81,81,252,1,X,3, ,6,9,,2000,2,5a5aa4eaacc75b00017a52b8,001,2021-08-19_16h42.37.588,natb3,2021.2.3,Win32,59.91252771,5a5aa4eaacc75b00017a52b8,611e07ecdcc96256ae8d5b80,611e7bd634cf67f6bde2f44f,,
,,,,space,,0,82,82,14,1,S, , , , ,space,2500,2.5,5a5aa4eaacc75b00017a52b8,001,2021-08-19_16h42.37.588,natb3,2021.2.3,Win32,59.91252771,5a5aa4eaacc75b00017a52b8,611e07ecdcc96256ae8d5b80,611e7bd634cf67f6bde2f44f,0.3911,
,,,,,,0,83,83,35,1,X, , , , ,,2500,2.5,5a5aa4eaacc75b00017a52b8,001,2021-08-19_16h42.37.588,natb3,2021.2.3,Win32,59.91252771,5a5aa4eaacc75b00017a52b8,611e07ecdcc96256ae8d5b80,611e7bd634cf67f6bde2f44f,,
,,,,space,,0,84,84,8,1,U, , , , ,space,1500,1.5,5a5aa4eaacc75b00017a52b8,001,2021-08-19_16h42.37.588,natb3,2021.2.3,Win32,59.91252771,5a5aa4eaacc75b00017a52b8,611e07ecdcc96256ae8d5b80,611e7bd634cf67f6bde2f44f,0.5588,
,,,,space,,0,85,85,146,1,W, , , , ,space,1500,1.5,5a5aa4eaacc75b00017a52b8,001,2021-08-19_16h42.37.588,natb3,2021.2.3,Win32,59.91252771,5a5aa4eaacc75b00017a52b8,611e07ecdcc96256ae8d5b80,611e7bd634cf67f6bde2f44f,0.3746,
,,,,space,,0,86,86,188,1,I, , , , ,space,2500,2.5,5a5aa4eaacc75b00017a52b8,001,2021-08-19_16h42.37.588,natb3,2021.2.3,Win32,59.91252771,5a5aa4eaacc75b00017a52b8,611e07ecdcc96256ae8d5b80,611e7bd634cf67f6bde2f44f,0.3718,
,,,,space,,0,87,87,64,1,N, , , , ,space,2000,2,5a5aa4eaacc75b00017a52b8,001,2021-08-19_16h42.37.588,natb3,2021.2.3,Win32,59.91252771,5a5aa4eaacc75b00017a52b8,611e07ecdcc96256ae8d5b80,611e7bd634cf67f6bde2f44f,0.4415,
,,,,space,,0,88,88,30,1,N, , , , ,space,2500,2.5,5a5aa4eaacc75b00017a52b8,001,2021-08-19_16h42.37.588,natb3,2021.2.3,Win32,59.91252771,5a5aa4eaacc75b00017a52b8,611e07ecdcc96256ae8d5b80,611e7bd634cf67f6bde2f44f,0.3526,
,,,,space,,0,89,89,70,1,E, , , , ,space,2500,2.5,5a5aa4eaacc75b00017a52b8,001,2021-08-19_16h42.37.588,natb3,2021.2.3,Win32,59.91252771,5a5aa4eaacc75b00017a52b8,611e07ecdcc96256ae8d5b80,611e7bd634cf67f6bde2f44f,0.3645,
,,,,space,,0,90,90,328,1,R, , , , ,space,1500,1.5,5a5aa4eaacc75b00017a52b8,001,2021-08-19_16h42.37.588,natb3,2021.2.3,Win32,59.91252771,5a5aa4eaacc75b00017a52b8,611e07ecdcc96256ae8d5b80,611e7bd634cf67f6bde2f44f,0.5365,
,,,,space,,0,91,91,279,1,K, , , , ,space,2500,2.5,5a5aa4eaacc75b00017a52b8,001,2021-08-19_16h42.37.588,natb3,2021.2.3,Win32,59.91252771,5a5aa4eaacc75b00017a52b8,611e07ecdcc96256ae8d5b80,611e7bd634cf67f6bde2f44f,0.3671,
,,,,space,,0,92,92,97,1,B, , , , ,space,2500,2.5,5a5aa4eaacc75b00017a52b8,001,2021-08-19_16h42.37.588,natb3,2021.2.3,Win32,59.91252771,5a5aa4eaacc75b00017a52b8,611e07ecdcc96256ae8d5b80,611e7bd634cf67f6bde2f44f,0.3705,
,,,,space,,0,93,93,245,1,K, , , , ,space,2000,2,5a5aa4eaacc75b00017a52b8,001,2021-08-19_16h42.37.588,natb3,2021.2.3,Win32,59.91252771,5a5aa4eaacc75b00017a52b8,611e07ecdcc96256ae8d5b80,611e7bd634cf67f6bde2f44f,0.3053,
,,,,space,,0,94,94,76,1,I, , , , ,space,2000,2,5a5aa4eaacc75b00017a52b8,001,2021-08-19_16h42.37.588,natb3,2021.2.3,Win32,59.91252771,5a5aa4eaacc75b00017a52b8,611e07ecdcc96256ae8d5b80,611e7bd634cf67f6bde2f44f,0.3692,
,,,,space,,0,95,95,23,1,X,1, ,5, ,,2000,2,5a5aa4eaacc75b00017a52b8,001,2021-08-19_16h42.37.588,natb3,2021.2.3,Win32,59.91252771,5a5aa4eaacc75b00017a52b8,611e07ecdcc96256ae8d5b80,611e7bd634cf67f6bde2f44f,0.3604,
,,,,space,,0,96,96,299,1,X, , , , ,,2500,2.5,5a5aa4eaacc75b00017a52b8,001,2021-08-19_16h42.37.588,natb3,2021.2.3,Win32,59.91252771,5a5aa4eaacc75b00017a52b8,611e07ecdcc96256ae8d5b80,611e7bd634cf67f6bde2f44f,0.2932,
,,,,space,,0,97,97,52,1,F, , , , ,space,1500,1.5,5a5aa4eaacc75b00017a52b8,001,2021-08-19_16h42.37.588,natb3,2021.2.3,Win32,59.91252771,5a5aa4eaacc75b00017a52b8,611e07ecdcc96256ae8d5b80,611e7bd634cf67f6bde2f44f,0.9649,
,,,,,,0,98,98,116,1,X, , , , ,,2000,2,5a5aa4eaacc75b00017a52b8,001,2021-08-19_16h42.37.588,natb3,2021.2.3,Win32,59.91252771,5a5aa4eaacc75b00017a52b8,611e07ecdcc96256ae8d5b80,611e7bd634cf67f6bde2f44f,,
,,,,space,,0,99,99,314,1,L, , , , ,space,1500,1.5,5a5aa4eaacc75b00017a52b8,001,2021-08-19_16h42.37.588,natb3,2021.2.3,Win32,59.91252771,5a5aa4eaacc75b00017a52b8,611e07ecdcc96256ae8d5b80,611e7bd634cf67f6bde2f44f,0.6467,
,,,,space,,0,100,100,7,1,X, , , , ,,1500,1.5,5a5aa4eaacc75b00017a52b8,001,2021-08-19_16h42.37.588,natb3,2021.2.3,Win32,59.91252771,5a5aa4eaacc75b00017a52b8,611e07ecdcc96256ae8d5b80,611e7bd634cf67f6bde2f44f,0.4154,
,,,,,,0,101,101,96,1,X, , , , ,,1500,1.5,5a5aa4eaacc75b00017a52b8,001,2021-08-19_16h42.37.588,natb3,2021.2.3,Win32,59.91252771,5a5aa4eaacc75b00017a52b8,611e07ecdcc96256ae8d5b80,611e7bd634cf67f6bde2f44f,,
,,,,,,0,102,102,325,1,X, , , , ,,2500,2.5,5a5aa4eaacc75b00017a52b8,001,2021-08-19_16h42.37.588,natb3,2021.2.3,Win32,59.91252771,5a5aa4eaacc75b00017a52b8,611e07ecdcc96256ae8d5b80,611e7bd634cf67f6bde2f44f,,
,,,,space,,0,103,103,209,1,N, , , , ,space,2000,2,5a5aa4eaacc75b00017a52b8,001,2021-08-19_16h42.37.588,natb3,2021.2.3,Win32,59.91252771,5a5aa4eaacc75b00017a52b8,611e07ecdcc96256ae8d5b80,611e7bd634cf67f6bde2f44f,0.4002,
,,,,space,,0,104,104,24,1,L, , , , ,space,2500,2.5,5a5aa4eaacc75b00017a52b8,001,2021-08-19_16h42.37.588,natb3,2021.2.3,Win32,59.91252771,5a5aa4eaacc75b00017a52b8,611e07ecdcc96256ae8d5b80,611e7bd634cf67f6bde2f44f,0.4512,
,,,,,,0,105,105,125,1,X, , , , ,,2000,2,5a5aa4eaacc75b00017a52b8,001,2021-08-19_16h42.37.588,natb3,2021.2.3,Win32,59.91252771,5a5aa4eaacc75b00017a52b8,611e07ecdcc96256ae8d5b80,611e7bd634cf67f6bde2f44f,,
,,,,space,,0,106,106,283,1,C, , , , ,space,1500,1.5,5a5aa4eaacc75b00017a52b8,001,2021-08-19_16h42.37.588,natb3,2021.2.3,Win32,59.91252771,5a5aa4eaacc75b00017a52b8,611e07ecdcc96256ae8d5b80,611e7bd634cf67f6bde2f44f,0.5179,
,,,,space,,0,107,107,193,1,S, , , , ,space,2500,2.5,5a5aa4eaacc75b00017a52b8,001,2021-08-19_16h42.37.588,natb3,2021.2.3,Win32,59.91252771,5a5aa4eaacc75b00017a52b8,611e07ecdcc96256ae8d5b80,611e7bd634cf67f6bde2f44f,0.4512,
,,,,space,,0,108,108,167,1,K, , , , ,space,1500,1.5,5a5aa4eaacc75b00017a52b8,001,2021-08-19_16h42.37.588,natb3,2021.2.3,Win32,59.91252771,5a5aa4eaacc75b00017a52b8,611e07ecdcc96256ae8d5b80,611e7bd634cf67f6bde2f44f,0.5846,
,,,,space,,0,109,109,211,1,X, , , , ,,2500,2.5,5a5aa4eaacc75b00017a52b8,001,2021-08-19_16h42.37.588,natb3,2021.2.3,Win32,59.91252771,5a5aa4eaacc75b00017a52b8,611e07ecdcc96256ae8d5b80,611e7bd634cf67f6bde2f44f,0.3674,
,,,,space,,0,110,110,238,1,D, , , , ,space,1500,1.5,5a5aa4eaacc75b00017a52b8,001,2021-08-19_16h42.37.588,natb3,2021.2.3,Win32,59.91252771,5a5aa4eaacc75b00017a52b8,611e07ecdcc96256ae8d5b80,611e7bd634cf67f6bde2f44f,0.3347,
,,,,space,,0,111,111,91,1,L, , , , ,space,2000,2,5a5aa4eaacc75b00017a52b8,001,2021-08-19_16h42.37.588,natb3,2021.2.3,Win32,59.91252771,5a5aa4eaacc75b00017a52b8,611e07ecdcc96256ae8d5b80,611e7bd634cf67f6bde2f44f,0.3848,
,,,,space,,0,112,112,223,1,Q, , , , ,space,2000,2,5a5aa4eaacc75b00017a52b8,001,2021-08-19_16h42.37.588,natb3,2021.2.3,Win32,59.91252771,5a5aa4eaacc75b00017a52b8,611e07ecdcc96256ae8d5b80,611e7bd634cf67f6bde2f44f,0.4012,
,,,,space,,0,113,113,178,1,Q, , , , ,space,1500,1.5,5a5aa4eaacc75b00017a52b8,001,2021-08-19_16h42.37.588,natb3,2021.2.3,Win32,59.91252771,5a5aa4eaacc75b00017a52b8,611e07ecdcc96256ae8d5b80,611e7bd634cf67f6bde2f44f,0.4346,
,,,,space,,0,114,114,225,1,E, , , , ,space,2000,2,5a5aa4eaacc75b00017a52b8,001,2021-08-19_16h42.37.588,natb3,2021.2.3,Win32,59.91252771,5a5aa4eaacc75b00017a52b8,611e07ecdcc96256ae8d5b80,611e7bd634cf67f6bde2f44f,0.4852,
,,,,space,,0,115,115,290,1,W, , , , ,space,1500,1.5,5a5aa4eaacc75b00017a52b8,001,2021-08-19_16h42.37.588,natb3,2021.2.3,Win32,59.91252771,5a5aa4eaacc75b00017a52b8,611e07ecdcc96256ae8d5b80,611e7bd634cf67f6bde2f44f,0.4333,
,,,,space,,0,116,116,16,1,D, , , , ,space,1500,1.5,5a5aa4eaacc75b00017a52b8,001,2021-08-19_16h42.37.588,natb3,2021.2.3,Win32,59.91252771,5a5aa4eaacc75b00017a52b8,611e07ecdcc96256ae8d5b80,611e7bd634cf67f6bde2f44f,0.4693,
,,,,,,0,117,117,148,1,X, , , , ,,2000,2,5a5aa4eaacc75b00017a52b8,001,2021-08-19_16h42.37.588,natb3,2021.2.3,Win32,59.91252771,5a5aa4eaacc75b00017a52b8,611e07ecdcc96256ae8d5b80,611e7bd634cf67f6bde2f44f,,
,,,,space,,0,118,118,156,1,P, , , , ,space,1500,1.5,5a5aa4eaacc75b00017a52b8,001,2021-08-19_16h42.37.588,natb3,2021.2.3,Win32,59.91252771,5a5aa4eaacc75b00017a52b8,611e07ecdcc96256ae8d5b80,611e7bd634cf67f6bde2f44f,0.4289,
,,,,,,0,119,119,182,1,X, , , , ,,1500,1.5,5a5aa4eaacc75b00017a52b8,001,2021-08-19_16h42.37.588,natb3,2021.2.3,Win32,59.91252771,5a5aa4eaacc75b00017a52b8,611e07ecdcc96256ae8d5b80,611e7bd634cf67f6bde2f44f,,
,,,,space,,0,120,120,10,1,O, , , , ,space,2000,2,5a5aa4eaacc75b00017a52b8,001,2021-08-19_16h42.37.588,natb3,2021.2.3,Win32,59.91252771,5a5aa4eaacc75b00017a52b8,611e07ecdcc96256ae8d5b80,611e7bd634cf67f6bde2f44f,0.3275,
,,,,space,,0,121,121,3,1,R, , , , ,space,2000,2,5a5aa4eaacc75b00017a52b8,001,2021-08-19_16h42.37.588,natb3,2021.2.3,Win32,59.91252771,5a5aa4eaacc75b00017a52b8,611e07ecdcc96256ae8d5b80,611e7bd634cf67f6bde2f44f,0.4101,
,,,,space,,0,122,122,140,1,B, , , , ,space,2500,2.5,5a5aa4eaacc75b00017a52b8,001,2021-08-19_16h42.37.588,natb3,2021.2.3,Win32,59.91252771,5a5aa4eaacc75b00017a52b8,611e07ecdcc96256ae8d5b80,611e7bd634cf67f6bde2f44f,0.3195,
,,,,space,,0,123,123,293,1,R, , , , ,space,2500,2.5,5a5aa4eaacc75b00017a52b8,001,2021-08-19_16h42.37.588,natb3,2021.2.3,Win32,59.91252771,5a5aa4eaacc75b00017a52b8,611e07ecdcc96256ae8d5b80,611e7bd634cf67f6bde2f44f,0.4946,
,,,,space,,0,124,124,34,1,Q, , , , ,space,2500,2.5,5a5aa4eaacc75b00017a52b8,001,2021-08-19_16h42.37.588,natb3,2021.2.3,Win32,59.91252771,5a5aa4eaacc75b00017a52b8,611e07ecdcc96256ae8d5b80,611e7bd634cf67f6bde2f44f,0.412,
,,,,,,0,125,125,66,1,X, ,4,7, ,,2000,2,5a5aa4eaacc75b00017a52b8,001,2021-08-19_16h42.37.588,natb3,2021.2.3,Win32,59.91252771,5a5aa4eaacc75b00017a52b8,611e07ecdcc96256ae8d5b80,611e7bd634cf67f6bde2f44f,,
,,,,space,,0,126,126,42,1,U, , , , ,space,1500,1.5,5a5aa4eaacc75b00017a52b8,001,2021-08-19_16h42.37.588,natb3,2021.2.3,Win32,59.91252771,5a5aa4eaacc75b00017a52b8,611e07ecdcc96256ae8d5b80,611e7bd634cf67f6bde2f44f,0.5612,
,,,,space,,0,127,127,304,1,S, , , , ,space,2000,2,5a5aa4eaacc75b00017a52b8,001,2021-08-19_16h42.37.588,natb3,2021.2.3,Win32,59.91252771,5a5aa4eaacc75b00017a52b8,611e07ecdcc96256ae8d5b80,611e7bd634cf67f6bde2f44f,0.3286,
,,,,space,,0,128,128,127,1,S, , , , ,space,2500,2.5,5a5aa4eaacc75b00017a52b8,001,2021-08-19_16h42.37.588,natb3,2021.2.3,Win32,59.91252771,5a5aa4eaacc75b00017a52b8,611e07ecdcc96256ae8d5b80,611e7bd634cf67f6bde2f44f,0.3818,
,,,,space,,0,129,129,166,1,X, , , , ,,2000,2,5a5aa4eaacc75b00017a52b8,001,2021-08-19_16h42.37.588,natb3,2021.2.3,Win32,59.91252771,5a5aa4eaacc75b00017a52b8,611e07ecdcc96256ae8d5b80,611e7bd634cf67f6bde2f44f,0.361,
,,,,space,,0,130,130,298,1,I, , , , ,space,2000,2,5a5aa4eaacc75b00017a52b8,001,2021-08-19_16h42.37.588,natb3,2021.2.3,Win32,59.91252771,5a5aa4eaacc75b00017a52b8,611e07ecdcc96256ae8d5b80,611e7bd634cf67f6bde2f44f,0.3847,
,,,,space,,0,131,131,274,1,F, , , , ,space,2000,2,5a5aa4eaacc75b00017a52b8,001,2021-08-19_16h42.37.588,natb3,2021.2.3,Win32,59.91252771,5a5aa4eaacc75b00017a52b8,611e07ecdcc96256ae8d5b80,611e7bd634cf67f6bde2f44f,0.3988,
,,,,space,,0,132,132,134,1,J, , , , ,space,2000,2,5a5aa4eaacc75b00017a52b8,001,2021-08-19_16h42.37.588,natb3,2021.2.3,Win32,59.91252771,5a5aa4eaacc75b00017a52b8,611e07ecdcc96256ae8d5b80,611e7bd634cf67f6bde2f44f,0.3362,
,,,,space,,0,133,133,115,1,R, , , , ,space,1500,1.5,5a5aa4eaacc75b00017a52b8,001,2021-08-19_16h42.37.588,natb3,2021.2.3,Win32,59.91252771,5a5aa4eaacc75b00017a52b8,611e07ecdcc96256ae8d5b80,611e7bd634cf67f6bde2f44f,0.3372,
,,,,space,,0,134,134,224,1,W, , , , ,space,1500,1.5,5a5aa4eaacc75b00017a52b8,001,2021-08-19_16h42.37.588,natb3,2021.2.3,Win32,59.91252771,5a5aa4eaacc75b00017a52b8,611e07ecdcc96256ae8d5b80,611e7bd634cf67f6bde2f44f,0.3618,
,,,,space,,0,135,135,217,1,T, , , , ,space,2500,2.5,5a5aa4eaacc75b00017a52b8,001,2021-08-19_16h42.37.588,natb3,2021.2.3,Win32,59.91252771,5a5aa4eaacc75b00017a52b8,611e07ecdcc96256ae8d5b80,611e7bd634cf67f6bde2f44f,0.3203,
,,,,space,,0,136,136,124,1,P, , , , ,space,2000,2,5a5aa4eaacc75b00017a52b8,001,2021-08-19_16h42.37.588,natb3,2021.2.3,Win32,59.91252771,5a5aa4eaacc75b00017a52b8,611e07ecdcc96256ae8d5b80,611e7bd634cf67f6bde2f44f,0.3844,
,,,,,,0,137,137,93,1,X,5, ,7, ,,2500,2.5,5a5aa4eaacc75b00017a52b8,001,2021-08-19_16h42.37.588,natb3,2021.2.3,Win32,59.91252771,5a5aa4eaacc75b00017a52b8,611e07ecdcc96256ae8d5b80,611e7bd634cf67f6bde2f44f,,
,,,,space,,0,138,138,50,1,D, , , , ,space,1500,1.5,5a5aa4eaacc75b00017a52b8,001,2021-08-19_16h42.37.588,natb3,2021.2.3,Win32,59.91252771,5a5aa4eaacc75b00017a52b8,611e07ecdcc96256ae8d5b80,611e7bd634cf67f6bde2f44f,0.6224,
,,,,space,,0,139,139,128,1,D, , , , ,space,2500,2.5,5a5aa4eaacc75b00017a52b8,001,2021-08-19_16h42.37.588,natb3,2021.2.3,Win32,59.91252771,5a5aa4eaacc75b00017a52b8,611e07ecdcc96256ae8d5b80,611e7bd634cf67f6bde2f44f,0.4015,
,,,,,,0,140,140,229,1,X,8, ,2,6,,2500,2.5,5a5aa4eaacc75b00017a52b8,001,2021-08-19_16h42.37.588,natb3,2021.2.3,Win32,59.91252771,5a5aa4eaacc75b00017a52b8,611e07ecdcc96256ae8d5b80,611e7bd634cf67f6bde2f44f,,
,,,,,,0,141,141,4,1,X, , , , ,,2000,2,5a5aa4eaacc75b00017a52b8,001,2021-08-19_16h42.37.588,natb3,2021.2.3,Win32,59.91252771,5a5aa4eaacc75b00017a52b8,611e07ecdcc96256ae8d5b80,611e7bd634cf67f6bde2f44f,,
,,,,space,,0,142,142,307,1,F, , , , ,space,2500,2.5,5a5aa4eaacc75b00017a52b8,001,2021-08-19_16h42.37.588,natb3,2021.2.3,Win32,59.91252771,5a5aa4eaacc75b00017a52b8,611e07ecdcc96256ae8d5b80,611e7bd634cf67f6bde2f44f,0.4105,
,,,,space,,0,143,143,249,1,C, , , , ,space,2000,2,5a5aa4eaacc75b00017a52b8,001,2021-08-19_16h42.37.588,natb3,2021.2.3,Win32,59.91252771,5a5aa4eaacc75b00017a52b8,611e07ecdcc96256ae8d5b80,611e7bd634cf67f6bde2f44f,0.3951,
,,,,space,,0,144,144,306,1,D, , , , ,space,2000,2,5a5aa4eaacc75b00017a52b8,001,2021-08-19_16h42.37.588,natb3,2021.2.3,Win32,59.91252771,5a5aa4eaacc75b00017a52b8,611e07ecdcc96256ae8d5b80,611e7bd634cf67f6bde2f44f,0.4278,
,,,,space,,0,145,145,212,1,Q, , , , ,space,2500,2.5,5a5aa4eaacc75b00017a52b8,001,2021-08-19_16h42.37.588,natb3,2021.2.3,Win32,59.91252771,5a5aa4eaacc75b00017a52b8,611e07ecdcc96256ae8d5b80,611e7bd634cf67f6bde2f44f,0.3499,
,,,,,,0,146,146,133,1,X, ,4, ,6,,2500,2.5,5a5aa4eaacc75b00017a52b8,001,2021-08-19_16h42.37.588,natb3,2021.2.3,Win32,59.91252771,5a5aa4eaacc75b00017a52b8,611e07ecdcc96256ae8d5b80,611e7bd634cf67f6bde2f44f,,
,,,,space,,0,147,147,37,1,E, , , , ,space,2500,2.5,5a5aa4eaacc75b00017a52b8,001,2021-08-19_16h42.37.588,natb3,2021.2.3,Win32,59.91252771,5a5aa4eaacc75b00017a52b8,611e07ecdcc96256ae8d5b80,611e7bd634cf67f6bde2f44f,0.3616,
,,,,space,,0,148,148,161,1,F, , , , ,space,1500,1.5,5a5aa4eaacc75b00017a52b8,001,2021-08-19_16h42.37.588,natb3,2021.2.3,Win32,59.91252771,5a5aa4eaacc75b00017a52b8,611e07ecdcc96256ae8d5b80,611e7bd634cf67f6bde2f44f,0.4211,
,,,,,,0,149,149,51,1,X,7,5,8, ,,1500,1.5,5a5aa4eaacc75b00017a52b8,001,2021-08-19_16h42.37.588,natb3,2021.2.3,Win32,59.91252771,5a5aa4eaacc75b00017a52b8,611e07ecdcc96256ae8d5b80,611e7bd634cf67f6bde2f44f,,
,,,,space,,0,150,150,144,1,Q, , , , ,space,2500,2.5,5a5aa4eaacc75b00017a52b8,001,2021-08-19_16h42.37.588,natb3,2021.2.3,Win32,59.91252771,5a5aa4eaacc75b00017a52b8,611e07ecdcc96256ae8d5b80,611e7bd634cf67f6bde2f44f,0.8234,
,,,,space,,0,151,151,251,1,B, , , , ,space,1500,1.5,5a5aa4eaacc75b00017a52b8,001,2021-08-19_16h42.37.588,natb3,2021.2.3,Win32,59.91252771,5a5aa4eaacc75b00017a52b8,611e07ecdcc96256ae8d5b80,611e7bd634cf67f6bde2f44f,0.3678,
,,,,space,,0,152,152,38,1,R, , , , ,space,2500,2.5,5a5aa4eaacc75b00017a52b8,001,2021-08-19_16h42.37.588,natb3,2021.2.3,Win32,59.91252771,5a5aa4eaacc75b00017a52b8,611e07ecdcc96256ae8d5b80,611e7bd634cf67f6bde2f44f,0.3703,
,,,,space,,0,153,153,305,1,X, , , , ,,1500,1.5,5a5aa4eaacc75b00017a52b8,001,2021-08-19_16h42.37.588,natb3,2021.2.3,Win32,59.91252771,5a5aa4eaacc75b00017a52b8,611e07ecdcc96256ae8d5b80,611e7bd634cf67f6bde2f44f,0.3653,
,,,,space,,0,154,154,110,1,I, , , , ,space,1500,1.5,5a5aa4eaacc75b00017a52b8,001,2021-08-19_16h42.37.588,natb3,2021.2.3,Win32,59.91252771,5a5aa4eaacc75b00017a52b8,611e07ecdcc96256ae8d5b80,611e7bd634cf67f6bde2f44f,0.3137,
,,,,space,,0,155,155,137,1,C, , , , ,space,2500,2.5,5a5aa4eaacc75b00017a52b8,001,2021-08-19_16h42.37.588,natb3,2021.2.3,Win32,59.91252771,5a5aa4eaacc75b00017a52b8,611e07ecdcc96256ae8d5b80,611e7bd634cf67f6bde2f44f,0.3694,
,,,,space,,0,156,156,157,1,A, , , , ,space,2500,2.5,5a5aa4eaacc75b00017a52b8,001,2021-08-19_16h42.37.588,natb3,2021.2.3,Win32,59.91252771,5a5aa4eaacc75b00017a52b8,611e07ecdcc96256ae8d5b80,611e7bd634cf67f6bde2f44f,0.3644,
,,,,,,0,157,157,259,1,X,8, , ,3,,2500,2.5,5a5aa4eaacc75b00017a52b8,001,2021-08-19_16h42.37.588,natb3,2021.2.3,Win32,59.91252771,5a5aa4eaacc75b00017a52b8,611e07ecdcc96256ae8d5b80,611e7bd634cf67f6bde2f44f,,
,,,,space,,0,158,158,119,1,Y, , , , ,space,2500,2.5,5a5aa4eaacc75b00017a52b8,001,2021-08-19_16h42.37.588,natb3,2021.2.3,Win32,59.91252771,5a5aa4eaacc75b00017a52b8,611e07ecdcc96256ae8d5b80,611e7bd634cf67f6bde2f44f,0.3614,
,,,,space,,0,159,159,282,1,X, , , , ,,2500,2.5,5a5aa4eaacc75b00017a52b8,001,2021-08-19_16h42.37.588,natb3,2021.2.3,Win32,59.91252771,5a5aa4eaacc75b00017a52b8,611e07ecdcc96256ae8d5b80,611e7bd634cf67f6bde2f44f,0.3785,
,,,,space,,0,160,160,254,1,M, , , , ,space,1500,1.5,5a5aa4eaacc75b00017a52b8,001,2021-08-19_16h42.37.588,natb3,2021.2.3,Win32,59.91252771,5a5aa4eaacc75b00017a52b8,611e07ecdcc96256ae8d5b80,611e7bd634cf67f6bde2f44f,0.3833,
,,,,,,0,161,161,318,1,X, , , , ,,1500,1.5,5a5aa4eaacc75b00017a52b8,001,2021-08-19_16h42.37.588,natb3,2021.2.3,Win32,59.91252771,5a5aa4eaacc75b00017a52b8,611e07ecdcc96256ae8d5b80,611e7bd634cf67f6bde2f44f,,
,,,,space,,0,162,162,68,1,W, , , , ,space,2500,2.5,5a5aa4eaacc75b00017a52b8,001,2021-08-19_16h42.37.588,natb3,2021.2.3,Win32,59.91252771,5a5aa4eaacc75b00017a52b8,611e07ecdcc96256ae8d5b80,611e7bd634cf67f6bde2f44f,0.3483,
,,,,space,,0,163,163,246,1,L, , , , ,space,2500,2.5,5a5aa4eaacc75b00017a52b8,001,2021-08-19_16h42.37.588,natb3,2021.2.3,Win32,59.91252771,5a5aa4eaacc75b00017a52b8,611e07ecdcc96256ae8d5b80,611e7bd634cf67f6bde2f44f,0.4789,
,,,,space,,0,164,164,296,1,Y, , , , ,space,2500,2.5,5a5aa4eaacc75b00017a52b8,001,2021-08-19_16h42.37.588,natb3,2021.2.3,Win32,59.91252771,5a5aa4eaacc75b00017a52b8,611e07ecdcc96256ae8d5b80,611e7bd634cf67f6bde2f44f,0.378,
,,,,space,,0,165,165,88,1,J, , , , ,space,2500,2.5,5a5aa4eaacc75b00017a52b8,001,2021-08-19_16h42.37.588,natb3,2021.2.3,Win32,59.91252771,5a5aa4eaacc75b00017a52b8,611e07ecdcc96256ae8d5b80,611e7bd634cf67f6bde2f44f,0.3823,
,,,,space,,0,166,166,63,1,B, , , , ,space,2000,2,5a5aa4eaacc75b00017a52b8,001,2021-08-19_16h42.37.588,natb3,2021.2.3,Win32,59.91252771,5a5aa4eaacc75b00017a52b8,611e07ecdcc96256ae8d5b80,611e7bd634cf67f6bde2f44f,0.3821,
,,,,space,space,0,167,167,266,1,O, , , , ,space,1500,1.5,5a5aa4eaacc75b00017a52b8,001,2021-08-19_16h42.37.588,natb3,2021.2.3,Win32,59.91252771,5a5aa4eaacc75b00017a52b8,611e07ecdcc96256ae8d5b80,611e7bd634cf67f6bde2f44f,0.4326,93.3813
,,,,space,,0,168,168,47,1,P, , , , ,space,2000,2,5a5aa4eaacc75b00017a52b8,001,2021-08-19_16h42.37.588,natb3,2021.2.3,Win32,59.91252771,5a5aa4eaacc75b00017a52b8,611e07ecdcc96256ae8d5b80,611e7bd634cf67f6bde2f44f,0.6513,
,,,,space,,0,169,169,265,1,I, , , , ,space,2000,2,5a5aa4eaacc75b00017a52b8,001,2021-08-19_16h42.37.588,natb3,2021.2.3,Win32,59.91252771,5a5aa4eaacc75b00017a52b8,611e07ecdcc96256ae8d5b80,611e7bd634cf67f6bde2f44f,0.6173,
,,,,space,,0,170,170,169,1,L, , , , ,space,2500,2.5,5a5aa4eaacc75b00017a52b8,001,2021-08-19_16h42.37.588,natb3,2021.2.3,Win32,59.91252771,5a5aa4eaacc75b00017a52b8,611e07ecdcc96256ae8d5b80,611e7bd634cf67f6bde2f44f,0.6189,
,,,,space,,0,171,171,86,1,G, , , , ,space,2000,2,5a5aa4eaacc75b00017a52b8,001,2021-08-19_16h42.37.588,natb3,2021.2.3,Win32,59.91252771,5a5aa4eaacc75b00017a52b8,611e07ecdcc96256ae8d5b80,611e7bd634cf67f6bde2f44f,0.5211,
,,,,space,,0,172,172,41,1,Y, , , , ,space,2500,2.5,5a5aa4eaacc75b00017a52b8,001,2021-08-19_16h42.37.588,natb3,2021.2.3,Win32,59.91252771,5a5aa4eaacc75b00017a52b8,611e07ecdcc96256ae8d5b80,611e7bd634cf67f6bde2f44f,0.6009,
,,,,space,,0,173,173,292,1,E, , , , ,space,2000,2,5a5aa4eaacc75b00017a52b8,001,2021-08-19_16h42.37.588,natb3,2021.2.3,Win32,59.91252771,5a5aa4eaacc75b00017a52b8,611e07ecdcc96256ae8d5b80,611e7bd634cf67f6bde2f44f,0.5842,
,,,,space,,0,174,174,139,1,V, , , , ,space,2000,2,5a5aa4eaacc75b00017a52b8,001,2021-08-19_16h42.37.588,natb3,2021.2.3,Win32,59.91252771,5a5aa4eaacc75b00017a52b8,611e07ecdcc96256ae8d5b80,611e7bd634cf67f6bde2f44f,0.6181,
,,,,,,0,175,175,195,1,X, , , , ,,1500,1.5,5a5aa4eaacc75b00017a52b8,001,2021-08-19_16h42.37.588,natb3,2021.2.3,Win32,59.91252771,5a5aa4eaacc75b00017a52b8,611e07ecdcc96256ae8d5b80,611e7bd634cf67f6bde2f44f,,
,,,,space,,0,176,176,250,1,V, , , , ,space,2000,2,5a5aa4eaacc75b00017a52b8,001,2021-08-19_16h42.37.588,natb3,2021.2.3,Win32,59.91252771,5a5aa4eaacc75b00017a52b8,611e07ecdcc96256ae8d5b80,611e7bd634cf67f6bde2f44f,0.6348,
,,,,space,,0,177,177,244,1,J, , , , ,space,1500,1.5,5a5aa4eaacc75b00017a52b8,001,2021-08-19_16h42.37.588,natb3,2021.2.3,Win32,59.91252771,5a5aa4eaacc75b00017a52b8,611e07ecdcc96256ae8d5b80,611e7bd634cf67f6bde2f44f,0.8144,
,,,,,,0,178,178,218,1,X,1,3, ,8,,1500,1.5,5a5aa4eaacc75b00017a52b8,001,2021-08-19_16h42.37.588,natb3,2021.2.3,Win32,59.91252771,5a5aa4eaacc75b00017a52b8,611e07ecdcc96256ae8d5b80,611e7bd634cf67f6bde2f44f,,
,,,,space,,0,179,179,220,1,U, , , , ,space,2500,2.5,5a5aa4eaacc75b00017a52b8,001,2021-08-19_16h42.37.588,natb3,2021.2.3,Win32,59.91252771,5a5aa4eaacc75b00017a52b8,611e07ecdcc96256ae8d5b80,611e7bd634cf67f6bde2f44f,0.5915,
,,,,space,,0,180,180,20,1,H, , , , ,space,1500,1.5,5a5aa4eaacc75b00017a52b8,001,2021-08-19_16h42.37.588,natb3,2021.2.3,Win32,59.91252771,5a5aa4eaacc75b00017a52b8,611e07ecdcc96256ae8d5b80,611e7bd634cf67f6bde2f44f,0.463,
,,,,space,,0,181,181,48,1,A, , , , ,space,2500,2.5,5a5aa4eaacc75b00017a52b8,001,2021-08-19_16h42.37.588,natb3,2021.2.3,Win32,59.91252771,5a5aa4eaacc75b00017a52b8,611e07ecdcc96256ae8d5b80,611e7bd634cf67f6bde2f44f,0.3823,
,,,,space,,0,182,182,170,1,Z, , , , ,space,2000,2,5a5aa4eaacc75b00017a52b8,001,2021-08-19_16h42.37.588,natb3,2021.2.3,Win32,59.91252771,5a5aa4eaacc75b00017a52b8,611e07ecdcc96256ae8d5b80,611e7bd634cf67f6bde2f44f,0.5844,
,,,,space,,0,183,183,56,1,J, , , , ,space,1500,1.5,5a5aa4eaacc75b00017a52b8,001,2021-08-19_16h42.37.588,natb3,2021.2.3,Win32,59.91252771,5a5aa4eaacc75b00017a52b8,611e07ecdcc96256ae8d5b80,611e7bd634cf67f6bde2f44f,0.5527,
,,,,,,0,184,184,268,1,X,6, ,3, ,,2500,2.5,5a5aa4eaacc75b00017a52b8,001,2021-08-19_16h42.37.588,natb3,2021.2.3,Win32,59.91252771,5a5aa4eaacc75b00017a52b8,611e07ecdcc96256ae8d5b80,611e7bd634cf67f6bde2f44f,,
,,,,space,,0,185,185,221,1,I, , , , ,space,2500,2.5,5a5aa4eaacc75b00017a52b8,001,2021-08-19_16h42.37.588,natb3,2021.2.3,Win32,59.91252771,5a5aa4eaacc75b00017a52b8,611e07ecdcc96256ae8d5b80,611e7bd634cf67f6bde2f44f,0.3584,
,,,,space,,0,186,186,231,1,I, , , , ,space,2500,2.5,5a5aa4eaacc75b00017a52b8,001,2021-08-19_16h42.37.588,natb3,2021.2.3,Win32,59.91252771,5a5aa4eaacc75b00017a52b8,611e07ecdcc96256ae8d5b80,611e7bd634cf67f6bde2f44f,0.3677,
,,,,,,0,187,187,141,1,X,1, ,4,6,,1500,1.5,5a5aa4eaacc75b00017a52b8,001,2021-08-19_16h42.37.588,natb3,2021.2.3,Win32,59.91252771,5a5aa4eaacc75b00017a52b8,611e07ecdcc96256ae8d5b80,611e7bd634cf67f6bde2f44f,,
,,,,space,,0,188,188,19,1,G, , , , ,space,1500,1.5,5a5aa4eaacc75b00017a52b8,001,2021-08-19_16h42.37.588,natb3,2021.2.3,Win32,59.91252771,5a5aa4eaacc75b00017a52b8,611e07ecdcc96256ae8d5b80,611e7bd634cf67f6bde2f44f,0.3595,
,,,,,,0,189,189,147,1,E, , , , ,space,2000,2,5a5aa4eaacc75b00017a52b8,001,2021-08-19_16h42.37.588,natb3,2021.2.3,Win32,59.91252771,5a5aa4eaacc75b00017a52b8,611e07ecdcc96256ae8d5b80,611e7bd634cf67f6bde2f44f,,
,,,,space,,0,190,190,286,1,N, , , , ,space,1500,1.5,5a5aa4eaacc75b00017a52b8,001,2021-08-19_16h42.37.588,natb3,2021.2.3,Win32,59.91252771,5a5aa4eaacc75b00017a52b8,611e07ecdcc96256ae8d5b80,611e7bd634cf67f6bde2f44f,0.3644,
,,,,space,,0,191,191,194,1,D, , , , ,space,2000,2,5a5aa4eaacc75b00017a52b8,001,2021-08-19_16h42.37.588,natb3,2021.2.3,Win32,59.91252771,5a5aa4eaacc75b00017a52b8,611e07ecdcc96256ae8d5b80,611e7bd634cf67f6bde2f44f,0.8884,
,,,,space,,0,192,192,11,1,P, , , , ,space,2500,2.5,5a5aa4eaacc75b00017a52b8,001,2021-08-19_16h42.37.588,natb3,2021.2.3,Win32,59.91252771,5a5aa4eaacc75b00017a52b8,611e07ecdcc96256ae8d5b80,611e7bd634cf67f6bde2f44f,0.3319,
,,,,space,,0,193,193,111,1,O, , , , ,space,2000,2,5a5aa4eaacc75b00017a52b8,001,2021-08-19_16h42.37.588,natb3,2021.2.3,Win32,59.91252771,5a5aa4eaacc75b00017a52b8,611e07ecdcc96256ae8d5b80,611e7bd634cf67f6bde2f44f,0.3343,
,,,,space,,0,194,194,150,1,T, , , , ,space,2500,2.5,5a5aa4eaacc75b00017a52b8,001,2021-08-19_16h42.37.588,natb3,2021.2.3,Win32,59.91252771,5a5aa4eaacc75b00017a52b8,611e07ecdcc96256ae8d5b80,611e7bd634cf67f6bde2f44f,0.351,
,,,,space,,0,195,195,258,1,E, , , , ,space,1500,1.5,5a5aa4eaacc75b00017a52b8,001,2021-08-19_16h42.37.588,natb3,2021.2.3,Win32,59.91252771,5a5aa4eaacc75b00017a52b8,611e07ecdcc96256ae8d5b80,611e7bd634cf67f6bde2f44f,0.3517,
,,,,space,,0,196,196,49,1,S, , , , ,space,1500,1.5,5a5aa4eaacc75b00017a52b8,001,2021-08-19_16h42.37.588,natb3,2021.2.3,Win32,59.91252771,5a5aa4eaacc75b00017a52b8,611e07ecdcc96256ae8d5b80,611e7bd634cf67f6bde2f44f,0.3687,
,,,,space,,0,197,197,294,1,T, , , , ,space,2000,2,5a5aa4eaacc75b00017a52b8,001,2021-08-19_16h42.37.588,natb3,2021.2.3,Win32,59.91252771,5a5aa4eaacc75b00017a52b8,611e07ecdcc96256ae8d5b80,611e7bd634cf67f6bde2f44f,0.3515,
,,,,space,,0,198,198,44,1,I, , , , ,space,2500,2.5,5a5aa4eaacc75b00017a52b8,001,2021-08-19_16h42.37.588,natb3,2021.2.3,Win32,59.91252771,5a5aa4eaacc75b00017a52b8,611e07ecdcc96256ae8d5b80,611e7bd634cf67f6bde2f44f,0.3011,
,,,,,,0,199,199,187,1,X, ,3,7,4,,1500,1.5,5a5aa4eaacc75b00017a52b8,001,2021-08-19_16h42.37.588,natb3,2021.2.3,Win32,59.91252771,5a5aa4eaacc75b00017a52b8,611e07ecdcc96256ae8d5b80,611e7bd634cf67f6bde2f44f,,
,,,,space,,0,200,200,326,1,W, , , , ,space,2000,2,5a5aa4eaacc75b00017a52b8,001,2021-08-19_16h42.37.588,natb3,2021.2.3,Win32,59.91252771,5a5aa4eaacc75b00017a52b8,611e07ecdcc96256ae8d5b80,611e7bd634cf67f6bde2f44f,0.3205,
,,,,,,0,201,201,168,1,X, , , , ,,2500,2.5,5a5aa4eaacc75b00017a52b8,001,2021-08-19_16h42.37.588,natb3,2021.2.3,Win32,59.91252771,5a5aa4eaacc75b00017a52b8,611e07ecdcc96256ae8d5b80,611e7bd634cf67f6bde2f44f,,
,,,,space,,0,202,202,219,1,Y, , , , ,space,2000,2,5a5aa4eaacc75b00017a52b8,001,2021-08-19_16h42.37.588,natb3,2021.2.3,Win32,59.91252771,5a5aa4eaacc75b00017a52b8,611e07ecdcc96256ae8d5b80,611e7bd634cf67f6bde2f44f,0.3207,
,,,,space,,0,203,203,324,1,Q, , , , ,space,2000,2,5a5aa4eaacc75b00017a52b8,001,2021-08-19_16h42.37.588,natb3,2021.2.3,Win32,59.91252771,5a5aa4eaacc75b00017a52b8,611e07ecdcc96256ae8d5b80,611e7bd634cf67f6bde2f44f,0.4009,
,,,,space,,0,204,204,288,1,M, , , , ,space,1500,1.5,5a5aa4eaacc75b00017a52b8,001,2021-08-19_16h42.37.588,natb3,2021.2.3,Win32,59.91252771,5a5aa4eaacc75b00017a52b8,611e07ecdcc96256ae8d5b80,611e7bd634cf67f6bde2f44f,0.3329,
,,,,space,,0,205,205,142,1,N, , , , ,space,2500,2.5,5a5aa4eaacc75b00017a52b8,001,2021-08-19_16h42.37.588,natb3,2021.2.3,Win32,59.91252771,5a5aa4eaacc75b00017a52b8,611e07ecdcc96256ae8d5b80,611e7bd634cf67f6bde2f44f,0.2914,
,,,,space,,0,206,206,227,1,T, , , , ,space,1500,1.5,5a5aa4eaacc75b00017a52b8,001,2021-08-19_16h42.37.588,natb3,2021.2.3,Win32,59.91252771,5a5aa4eaacc75b00017a52b8,611e07ecdcc96256ae8d5b80,611e7bd634cf67f6bde2f44f,0.3545,
,,,,space,,0,207,207,181,1,E, , , , ,space,1500,1.5,5a5aa4eaacc75b00017a52b8,001,2021-08-19_16h42.37.588,natb3,2021.2.3,Win32,59.91252771,5a5aa4eaacc75b00017a52b8,611e07ecdcc96256ae8d5b80,611e7bd634cf67f6bde2f44f,0.3017,
,,,,space,,0,208,208,202,1,L, , , , ,space,2500,2.5,5a5aa4eaacc75b00017a52b8,001,2021-08-19_16h42.37.588,natb3,2021.2.3,Win32,59.91252771,5a5aa4eaacc75b00017a52b8,611e07ecdcc96256ae8d5b80,611e7bd634cf67f6bde2f44f,0.2994,
,,,,space,,0,209,209,297,1,U, , , , ,space,2000,2,5a5aa4eaacc75b00017a52b8,001,2021-08-19_16h42.37.588,natb3,2021.2.3,Win32,59.91252771,5a5aa4eaacc75b00017a52b8,611e07ecdcc96256ae8d5b80,611e7bd634cf67f6bde2f44f,0.3159,
,,,,space,,0,210,210,78,1,X, , , , ,,2000,2,5a5aa4eaacc75b00017a52b8,001,2021-08-19_16h42.37.588,natb3,2021.2.3,Win32,59.91252771,5a5aa4eaacc75b00017a52b8,611e07ecdcc96256ae8d5b80,611e7bd634cf67f6bde2f44f,0.2869,
,,,,space,,0,211,211,112,1,Q, , , , ,space,2500,2.5,5a5aa4eaacc75b00017a52b8,001,2021-08-19_16h42.37.588,natb3,2021.2.3,Win32,59.91252771,5a5aa4eaacc75b00017a52b8,611e07ecdcc96256ae8d5b80,611e7bd634cf67f6bde2f44f,0.2826,
,,,,space,,0,212,212,53,1,G, , , , ,space,2500,2.5,5a5aa4eaacc75b00017a52b8,001,2021-08-19_16h42.37.588,natb3,2021.2.3,Win32,59.91252771,5a5aa4eaacc75b00017a52b8,611e07ecdcc96256ae8d5b80,611e7bd634cf67f6bde2f44f,0.3199,
,,,,space,,0,213,213,138,1,X,8,5, ,3,,2000,2,5a5aa4eaacc75b00017a52b8,001,2021-08-19_16h42.37.588,natb3,2021.2.3,Win32,59.91252771,5a5aa4eaacc75b00017a52b8,611e07ecdcc96256ae8d5b80,611e7bd634cf67f6bde2f44f,0.2606,
,,,,space,,0,214,214,214,1,W, , , , ,space,2000,2,5a5aa4eaacc75b00017a52b8,001,2021-08-19_16h42.37.588,natb3,2021.2.3,Win32,59.91252771,5a5aa4eaacc75b00017a52b8,611e07ecdcc96256ae8d5b80,611e7bd634cf67f6bde2f44f,0.2764,
,,,,,,0,215,215,233,1,X, ,2, ,5,,1500,1.5,5a5aa4eaacc75b00017a52b8,001,2021-08-19_16h42.37.588,natb3,2021.2.3,Win32,59.91252771,5a5aa4eaacc75b00017a52b8,611e07ecdcc96256ae8d5b80,611e7bd634cf67f6bde2f44f,,
,,,,,,0,216,216,287,1,X, ,2, ,9,,2000,2,5a5aa4eaacc75b00017a52b8,001,2021-08-19_16h42.37.588,natb3,2021.2.3,Win32,59.91252771,5a5aa4eaacc75b00017a52b8,611e07ecdcc96256ae8d5b80,611e7bd634cf67f6bde2f44f,,
,,,,,,0,217,217,243,1,X, , , , ,,2500,2.5,5a5aa4eaacc75b00017a52b8,001,2021-08-19_16h42.37.588,natb3,2021.2.3,Win32,59.91252771,5a5aa4eaacc75b00017a52b8,611e07ecdcc96256ae8d5b80,611e7bd634cf67f6bde2f44f,,
,,,,,,0,218,218,39,1,X,6,2, , ,,1500,1.5,5a5aa4eaacc75b00017a52b8,001,2021-08-19_16h42.37.588,natb3,2021.2.3,Win32,59.91252771,5a5aa4eaacc75b00017a52b8,611e07ecdcc96256ae8d5b80,611e7bd634cf67f6bde2f44f,,
,,,,space,,0,219,219,333,1,I, , , , ,space,1500,1.5,5a5aa4eaacc75b00017a52b8,001,2021-08-19_16h42.37.588,natb3,2021.2.3,Win32,59.91252771,5a5aa4eaacc75b00017a52b8,611e07ecdcc96256ae8d5b80,611e7bd634cf67f6bde2f44f,0.4521,
,,,,space,,0,220,220,72,1,T, , , , ,space,1500,1.5,5a5aa4eaacc75b00017a52b8,001,2021-08-19_16h42.37.588,natb3,2021.2.3,Win32,59.91252771,5a5aa4eaacc75b00017a52b8,611e07ecdcc96256ae8d5b80,611e7bd634cf67f6bde2f44f,0.5499,
,,,,space,,0,221,221,45,1,O, , , , ,space,2000,2,5a5aa4eaacc75b00017a52b8,001,2021-08-19_16h42.37.588,natb3,2021.2.3,Win32,59.91252771,5a5aa4eaacc75b00017a52b8,611e07ecdcc96256ae8d5b80,611e7bd634cf67f6bde2f44f,0.3538,
,,,,,,0,222,222,74,1,X, ,4,3,2,,1500,1.5,5a5aa4eaacc75b00017a52b8,001,2021-08-19_16h42.37.588,natb3,2021.2.3,Win32,59.91252771,5a5aa4eaacc75b00017a52b8,611e07ecdcc96256ae8d5b80,611e7bd634cf67f6bde2f44f,,
,,,,space,,0,223,223,228,1,Y, , , , ,space,2000,2,5a5aa4eaacc75b00017a52b8,001,2021-08-19_16h42.37.588,natb3,2021.2.3,Win32,59.91252771,5a5aa4eaacc75b00017a52b8,611e07ecdcc96256ae8d5b80,611e7bd634cf67f6bde2f44f,0.464,
,,,,space,,0,224,224,320,1,B, , , , ,space,1500,1.5,5a5aa4eaacc75b00017a52b8,001,2021-08-19_16h42.37.588,natb3,2021.2.3,Win32,59.91252771,5a5aa4eaacc75b00017a52b8,611e07ecdcc96256ae8d5b80,611e7bd634cf67f6bde2f44f,0.467,
,,,,space,,0,225,225,58,1,L, , , , ,space,2000,2,5a5aa4eaacc75b00017a52b8,001,2021-08-19_16h42.37.588,natb3,2021.2.3,Win32,59.91252771,5a5aa4eaacc75b00017a52b8,611e07ecdcc96256ae8d5b80,611e7bd634cf67f6bde2f44f,0.4116,
,,,,space,,0,226,226,71,1,R, , , , ,space,2500,2.5,5a5aa4eaacc75b00017a52b8,001,2021-08-19_16h42.37.588,natb3,2021.2.3,Win32,59.91252771,5a5aa4eaacc75b00017a52b8,611e07ecdcc96256ae8d5b80,611e7bd634cf67f6bde2f44f,0.5525,
,,,,space,,0,227,227,303,1,A, , , , ,space,2000,2,5a5aa4eaacc75b00017a52b8,001,2021-08-19_16h42.37.588,natb3,2021.2.3,Win32,59.91252771,5a5aa4eaacc75b00017a52b8,611e07ecdcc96256ae8d5b80,611e7bd634cf67f6bde2f44f,0.3651,
,,,,space,,0,228,228,272,1,D, , , , ,space,2000,2,5a5aa4eaacc75b00017a52b8,001,2021-08-19_16h42.37.588,natb3,2021.2.3,Win32,59.91252771,5a5aa4eaacc75b00017a52b8,611e07ecdcc96256ae8d5b80,611e7bd634cf67f6bde2f44f,0.3649,
,,,,space,,0,229,229,136,1,Z, , , , ,space,2500,2.5,5a5aa4eaacc75b00017a52b8,001,2021-08-19_16h42.37.588,natb3,2021.2.3,Win32,59.91252771,5a5aa4eaacc75b00017a52b8,611e07ecdcc96256ae8d5b80,611e7bd634cf67f6bde2f44f,0.3205,
,,,,space,,0,230,230,152,1,U, , , , ,space,2000,2,5a5aa4eaacc75b00017a52b8,001,2021-08-19_16h42.37.588,natb3,2021.2.3,Win32,59.91252771,5a5aa4eaacc75b00017a52b8,611e07ecdcc96256ae8d5b80,611e7bd634cf67f6bde2f44f,0.3981,
,,,,,,0,231,231,329,1,X,3,4, ,2,,2500,2.5,5a5aa4eaacc75b00017a52b8,001,2021-08-19_16h42.37.588,natb3,2021.2.3,Win32,59.91252771,5a5aa4eaacc75b00017a52b8,611e07ecdcc96256ae8d5b80,611e7bd634cf67f6bde2f44f,,
,,,,space,,0,232,232,62,1,V, , , , ,space,1500,1.5,5a5aa4eaacc75b00017a52b8,001,2021-08-19_16h42.37.588,natb3,2021.2.3,Win32,59.91252771,5a5aa4eaacc75b00017a52b8,611e07ecdcc96256ae8d5b80,611e7bd634cf67f6bde2f44f,0.3592,
,,,,space,,0,233,233,54,1,X, , , , ,,2000,2,5a5aa4eaacc75b00017a52b8,001,2021-08-19_16h42.37.588,natb3,2021.2.3,Win32,59.91252771,5a5aa4eaacc75b00017a52b8,611e07ecdcc96256ae8d5b80,611e7bd634cf67f6bde2f44f,0.3317,
,,,,space,,0,234,234,165,1,J, , , , ,space,2500,2.5,5a5aa4eaacc75b00017a52b8,001,2021-08-19_16h42.37.588,natb3,2021.2.3,Win32,59.91252771,5a5aa4eaacc75b00017a52b8,611e07ecdcc96256ae8d5b80,611e7bd634cf67f6bde2f44f,0.3039,
,,,,space,,0,235,235,59,1,Z, , , , ,space,2000,2,5a5aa4eaacc75b00017a52b8,001,2021-08-19_16h42.37.588,natb3,2021.2.3,Win32,59.91252771,5a5aa4eaacc75b00017a52b8,611e07ecdcc96256ae8d5b80,611e7bd634cf67f6bde2f44f,0.3284,
,,,,space,,0,236,236,77,1,O, , , , ,space,2000,2,5a5aa4eaacc75b00017a52b8,001,2021-08-19_16h42.37.588,natb3,2021.2.3,Win32,59.91252771,5a5aa4eaacc75b00017a52b8,611e07ecdcc96256ae8d5b80,611e7bd634cf67f6bde2f44f,0.4031,
,,,,space,,0,237,237,291,1,X, , , , ,,2000,2,5a5aa4eaacc75b00017a52b8,001,2021-08-19_16h42.37.588,natb3,2021.2.3,Win32,59.91252771,5a5aa4eaacc75b00017a52b8,611e07ecdcc96256ae8d5b80,611e7bd634cf67f6bde2f44f,0.3505,
,,,,space,,0,238,238,159,1,S, , , , ,space,2500,2.5,5a5aa4eaacc75b00017a52b8,001,2021-08-19_16h42.37.588,natb3,2021.2.3,Win32,59.91252771,5a5aa4eaacc75b00017a52b8,611e07ecdcc96256ae8d5b80,611e7bd634cf67f6bde2f44f,0.3349,
,,,,space,,0,239,239,262,1,Y, , , , ,space,2500,2.5,5a5aa4eaacc75b00017a52b8,001,2021-08-19_16h42.37.588,natb3,2021.2.3,Win32,59.91252771,5a5aa4eaacc75b00017a52b8,611e07ecdcc96256ae8d5b80,611e7bd634cf67f6bde2f44f,0.4792,
,,,,,,0,240,240,82,1,X,4,6,1,7,,2000,2,5a5aa4eaacc75b00017a52b8,001,2021-08-19_16h42.37.588,natb3,2021.2.3,Win32,59.91252771,5a5aa4eaacc75b00017a52b8,611e07ecdcc96256ae8d5b80,611e7bd634cf67f6bde2f44f,,
,,,,space,,0,241,241,5,1,T, , , , ,space,2000,2,5a5aa4eaacc75b00017a52b8,001,2021-08-19_16h42.37.588,natb3,2021.2.3,Win32,59.91252771,5a5aa4eaacc75b00017a52b8,611e07ecdcc96256ae8d5b80,611e7bd634cf67f6bde2f44f,0.3281,
,,,,space,,0,242,242,199,1,J, , , , ,space,2500,2.5,5a5aa4eaacc75b00017a52b8,001,2021-08-19_16h42.37.588,natb3,2021.2.3,Win32,59.91252771,5a5aa4eaacc75b00017a52b8,611e07ecdcc96256ae8d5b80,611e7bd634cf67f6bde2f44f,0.3434,
,,,,space,,0,243,243,12,1,X, , , , ,,1500,1.5,5a5aa4eaacc75b00017a52b8,001,2021-08-19_16h42.37.588,natb3,2021.2.3,Win32,59.91252771,5a5aa4eaacc75b00017a52b8,611e07ecdcc96256ae8d5b80,611e7bd634cf67f6bde2f44f,0.3297,
,,,,space,,0,244,244,153,1,X,4,7, ,6,,2000,2,5a5aa4eaacc75b00017a52b8,001,2021-08-19_16h42.37.588,natb3,2021.2.3,Win32,59.91252771,5a5aa4eaacc75b00017a52b8,611e07ecdcc96256ae8d5b80,611e7bd634cf67f6bde2f44f,0.3638,
,,,,space,,0,245,245,309,1,H, , , , ,space,2500,2.5,5a5aa4eaacc75b00017a52b8,001,2021-08-19_16h42.37.588,natb3,2021.2.3,Win32,59.91252771,5a5aa4eaacc75b00017a52b8,611e07ecdcc96256ae8d5b80,611e7bd634cf67f6bde2f44f,0.2992,
,,,,space,,0,246,246,101,1,Q, , , , ,space,2500,2.5,5a5aa4eaacc75b00017a52b8,001,2021-08-19_16h42.37.588,natb3,2021.2.3,Win32,59.91252771,5a5aa4eaacc75b00017a52b8,611e07ecdcc96256ae8d5b80,611e7bd634cf67f6bde2f44f,0.3183,
,,,,space,,0,247,247,190,1,P, , , , ,space,2000,2,5a5aa4eaacc75b00017a52b8,001,2021-08-19_16h42.37.588,natb3,2021.2.3,Win32,59.91252771,5a5aa4eaacc75b00017a52b8,611e07ecdcc96256ae8d5b80,611e7bd634cf67f6bde2f44f,0.3545,
,,,,,,0,248,248,43,1,X, ,6, ,2,,2500,2.5,5a5aa4eaacc75b00017a52b8,001,2021-08-19_16h42.37.588,natb3,2021.2.3,Win32,59.91252771,5a5aa4eaacc75b00017a52b8,611e07ecdcc96256ae8d5b80,611e7bd634cf67f6bde2f44f,,
,,,,space,,0,249,249,130,1,F, , , , ,space,2000,2,5a5aa4eaacc75b00017a52b8,001,2021-08-19_16h42.37.588,natb3,2021.2.3,Win32,59.91252771,5a5aa4eaacc75b00017a52b8,611e07ecdcc96256ae8d5b80,611e7bd634cf67f6bde2f44f,0.3907,
,,,,space,,0,250,250,177,1,M, , , , ,space,2500,2.5,5a5aa4eaacc75b00017a52b8,001,2021-08-19_16h42.37.588,natb3,2021.2.3,Win32,59.91252771,5a5aa4eaacc75b00017a52b8,611e07ecdcc96256ae8d5b80,611e7bd634cf67f6bde2f44f,0.4684,
,,,,space,,0,251,251,109,1,U, , , , ,space,1500,1.5,5a5aa4eaacc75b00017a52b8,001,2021-08-19_16h42.37.588,natb3,2021.2.3,Win32,59.91252771,5a5aa4eaacc75b00017a52b8,611e07ecdcc96256ae8d5b80,611e7bd634cf67f6bde2f44f,0.5554,
,,,,space,,0,252,252,180,1,W, , , , ,space,2000,2,5a5aa4eaacc75b00017a52b8,001,2021-08-19_16h42.37.588,natb3,2021.2.3,Win32,59.91252771,5a5aa4eaacc75b00017a52b8,611e07ecdcc96256ae8d5b80,611e7bd634cf67f6bde2f44f,0.3675,
,,,,,,0,253,253,122,1,X,1, , ,8,,1500,1.5,5a5aa4eaacc75b00017a52b8,001,2021-08-19_16h42.37.588,natb3,2021.2.3,Win32,59.91252771,5a5aa4eaacc75b00017a52b8,611e07ecdcc96256ae8d5b80,611e7bd634cf67f6bde2f44f,,
,,,,space,,0,254,254,108,1,Y, , , , ,space,2500,2.5,5a5aa4eaacc75b00017a52b8,001,2021-08-19_16h42.37.588,natb3,2021.2.3,Win32,59.91252771,5a5aa4eaacc75b00017a52b8,611e07ecdcc96256ae8d5b80,611e7bd634cf67f6bde2f44f,0.4405,
,,,,space,,0,255,255,151,1,Y, , , , ,space,2500,2.5,5a5aa4eaacc75b00017a52b8,001,2021-08-19_16h42.37.588,natb3,2021.2.3,Win32,59.91252771,5a5aa4eaacc75b00017a52b8,611e07ecdcc96256ae8d5b80,611e7bd634cf67f6bde2f44f,0.3777,
,,,,space,,0,256,256,25,1,Z, , , , ,space,2500,2.5,5a5aa4eaacc75b00017a52b8,001,2021-08-19_16h42.37.588,natb3,2021.2.3,Win32,59.91252771,5a5aa4eaacc75b00017a52b8,611e07ecdcc96256ae8d5b80,611e7bd634cf67f6bde2f44f,0.5506,
,,,,space,,0,257,257,13,1,A, , , , ,space,2000,2,5a5aa4eaacc75b00017a52b8,001,2021-08-19_16h42.37.588,natb3,2021.2.3,Win32,59.91252771,5a5aa4eaacc75b00017a52b8,611e07ecdcc96256ae8d5b80,611e7bd634cf67f6bde2f44f,0.6486,
,,,,space,,0,258,258,230,1,U, , , , ,space,1500,1.5,5a5aa4eaacc75b00017a52b8,001,2021-08-19_16h42.37.588,natb3,2021.2.3,Win32,59.91252771,5a5aa4eaacc75b00017a52b8,611e07ecdcc96256ae8d5b80,611e7bd634cf67f6bde2f44f,0.383,
,,,,space,,0,259,259,17,1,F, , , , ,space,2500,2.5,5a5aa4eaacc75b00017a52b8,001,2021-08-19_16h42.37.588,natb3,2021.2.3,Win32,59.91252771,5a5aa4eaacc75b00017a52b8,611e07ecdcc96256ae8d5b80,611e7bd634cf67f6bde2f44f,0.3619,
,,,,space,,0,260,260,158,1,X, , , , ,,1500,1.5,5a5aa4eaacc75b00017a52b8,001,2021-08-19_16h42.37.588,natb3,2021.2.3,Win32,59.91252771,5a5aa4eaacc75b00017a52b8,611e07ecdcc96256ae8d5b80,611e7bd634cf67f6bde2f44f,0.5255,
,,,,,,0,261,261,129,1,X,2,3,5, ,,1500,1.5,5a5aa4eaacc75b00017a52b8,001,2021-08-19_16h42.37.588,natb3,2021.2.3,Win32,59.91252771,5a5aa4eaacc75b00017a52b8,611e07ecdcc96256ae8d5b80,611e7bd634cf67f6bde2f44f,,
,,,,space,,0,262,262,79,1,P, , , , ,space,2000,2,5a5aa4eaacc75b00017a52b8,001,2021-08-19_16h42.37.588,natb3,2021.2.3,Win32,59.91252771,5a5aa4eaacc75b00017a52b8,611e07ecdcc96256ae8d5b80,611e7bd634cf67f6bde2f44f,0.3842,
,,,,space,,0,263,263,331,1,Y, , , , ,space,2500,2.5,5a5aa4eaacc75b00017a52b8,001,2021-08-19_16h42.37.588,natb3,2021.2.3,Win32,59.91252771,5a5aa4eaacc75b00017a52b8,611e07ecdcc96256ae8d5b80,611e7bd634cf67f6bde2f44f,0.3695,
,,,,space,,0,264,264,301,1,P, , , , ,space,1500,1.5,5a5aa4eaacc75b00017a52b8,001,2021-08-19_16h42.37.588,natb3,2021.2.3,Win32,59.91252771,5a5aa4eaacc75b00017a52b8,611e07ecdcc96256ae8d5b80,611e7bd634cf67f6bde2f44f,0.5105,
,,,,space,,0,265,265,174,1,B, , , , ,space,2500,2.5,5a5aa4eaacc75b00017a52b8,001,2021-08-19_16h42.37.588,natb3,2021.2.3,Win32,59.91252771,5a5aa4eaacc75b00017a52b8,611e07ecdcc96256ae8d5b80,611e7bd634cf67f6bde2f44f,0.386,
,,,,space,,0,266,266,2,1,E, , , , ,space,2500,2.5,5a5aa4eaacc75b00017a52b8,001,2021-08-19_16h42.37.588,natb3,2021.2.3,Win32,59.91252771,5a5aa4eaacc75b00017a52b8,611e07ecdcc96256ae8d5b80,611e7bd634cf67f6bde2f44f,0.3237,
,,,,space,,0,267,267,206,1,V, , , , ,space,2000,2,5a5aa4eaacc75b00017a52b8,001,2021-08-19_16h42.37.588,natb3,2021.2.3,Win32,59.91252771,5a5aa4eaacc75b00017a52b8,611e07ecdcc96256ae8d5b80,611e7bd634cf67f6bde2f44f,0.3658,
,,,,,,0,268,268,315,1,X, , , , ,,2500,2.5,5a5aa4eaacc75b00017a52b8,001,2021-08-19_16h42.37.588,natb3,2021.2.3,Win32,59.91252771,5a5aa4eaacc75b00017a52b8,611e07ecdcc96256ae8d5b80,611e7bd634cf67f6bde2f44f,,
,,,,space,,0,269,269,322,1,X, , ,1,6,,2000,2,5a5aa4eaacc75b00017a52b8,001,2021-08-19_16h42.37.588,natb3,2021.2.3,Win32,59.91252771,5a5aa4eaacc75b00017a52b8,611e07ecdcc96256ae8d5b80,611e7bd634cf67f6bde2f44f,0.3368,
,,,,,,0,270,270,236,1,X,3, ,4,7,,2500,2.5,5a5aa4eaacc75b00017a52b8,001,2021-08-19_16h42.37.588,natb3,2021.2.3,Win32,59.91252771,5a5aa4eaacc75b00017a52b8,611e07ecdcc96256ae8d5b80,611e7bd634cf67f6bde2f44f,,
,,,,space,,0,271,271,197,1,G, , , , ,space,2500,2.5,5a5aa4eaacc75b00017a52b8,001,2021-08-19_16h42.37.588,natb3,2021.2.3,Win32,59.91252771,5a5aa4eaacc75b00017a52b8,611e07ecdcc96256ae8d5b80,611e7bd634cf67f6bde2f44f,0.3795,
,,,,space,,0,272,272,6,1,Y, , , , ,space,2500,2.5,5a5aa4eaacc75b00017a52b8,001,2021-08-19_16h42.37.588,natb3,2021.2.3,Win32,59.91252771,5a5aa4eaacc75b00017a52b8,611e07ecdcc96256ae8d5b80,611e7bd634cf67f6bde2f44f,0.3669,
,,,,,,0,273,273,273,1,X, , , , ,,2000,2,5a5aa4eaacc75b00017a52b8,001,2021-08-19_16h42.37.588,natb3,2021.2.3,Win32,59.91252771,5a5aa4eaacc75b00017a52b8,611e07ecdcc96256ae8d5b80,611e7bd634cf67f6bde2f44f,,
,,,,,,0,274,274,213,1,X, , , , ,,2500,2.5,5a5aa4eaacc75b00017a52b8,001,2021-08-19_16h42.37.588,natb3,2021.2.3,Win32,59.91252771,5a5aa4eaacc75b00017a52b8,611e07ecdcc96256ae8d5b80,611e7bd634cf67f6bde2f44f,,
,,,,space,,0,275,275,105,1,R, , , , ,space,2500,2.5,5a5aa4eaacc75b00017a52b8,001,2021-08-19_16h42.37.588,natb3,2021.2.3,Win32,59.91252771,5a5aa4eaacc75b00017a52b8,611e07ecdcc96256ae8d5b80,611e7bd634cf67f6bde2f44f,0.3587,
,,,,space,,0,276,276,201,1,K, , , , ,space,1500,1.5,5a5aa4eaacc75b00017a52b8,001,2021-08-19_16h42.37.588,natb3,2021.2.3,Win32,59.91252771,5a5aa4eaacc75b00017a52b8,611e07ecdcc96256ae8d5b80,611e7bd634cf67f6bde2f44f,0.4397,
,,,,,,0,277,277,69,1,X, , , , ,,1500,1.5,5a5aa4eaacc75b00017a52b8,001,2021-08-19_16h42.37.588,natb3,2021.2.3,Win32,59.91252771,5a5aa4eaacc75b00017a52b8,611e07ecdcc96256ae8d5b80,611e7bd634cf67f6bde2f44f,,
,,,,space,,0,278,278,162,1,X,1,6, ,2,,1500,1.5,5a5aa4eaacc75b00017a52b8,001,2021-08-19_16h42.37.588,natb3,2021.2.3,Win32,59.91252771,5a5aa4eaacc75b00017a52b8,611e07ecdcc96256ae8d5b80,611e7bd634cf67f6bde2f44f,0.3564,
,,,,space,,0,279,279,100,1,M, , , , ,space,2000,2,5a5aa4eaacc75b00017a52b8,001,2021-08-19_16h42.37.588,natb3,2021.2.3,Win32,59.91252771,5a5aa4eaacc75b00017a52b8,611e07ecdcc96256ae8d5b80,611e7bd634cf67f6bde2f44f,0.465,
,,,,space,,0,280,280,185,1,Y, , , , ,space,2500,2.5,5a5aa4eaacc75b00017a52b8,001,2021-08-19_16h42.37.588,natb3,2021.2.3,Win32,59.91252771,5a5aa4eaacc75b00017a52b8,611e07ecdcc96256ae8d5b80,611e7bd634cf67f6bde2f44f,0.5986,
,,,,space,,0,281,281,32,1,M, , , , ,space,1500,1.5,5a5aa4eaacc75b00017a52b8,001,2021-08-19_16h42.37.588,natb3,2021.2.3,Win32,59.91252771,5a5aa4eaacc75b00017a52b8,611e07ecdcc96256ae8d5b80,611e7bd634cf67f6bde2f44f,0.3847,
,,,,,,0,282,282,191,1,X,1, ,3,4,,2500,2.5,5a5aa4eaacc75b00017a52b8,001,2021-08-19_16h42.37.588,natb3,2021.2.3,Win32,59.91252771,5a5aa4eaacc75b00017a52b8,611e07ecdcc96256ae8d5b80,611e7bd634cf67f6bde2f44f,,
,,,,space,,0,283,283,65,1,M, , , , ,space,1500,1.5,5a5aa4eaacc75b00017a52b8,001,2021-08-19_16h42.37.588,natb3,2021.2.3,Win32,59.91252771,5a5aa4eaacc75b00017a52b8,611e07ecdcc96256ae8d5b80,611e7bd634cf67f6bde2f44f,0.8739,
,,,,space,,0,284,284,222,1,O, , , , ,space,2000,2,5a5aa4eaacc75b00017a52b8,001,2021-08-19_16h42.37.588,natb3,2021.2.3,Win32,59.91252771,5a5aa4eaacc75b00017a52b8,611e07ecdcc96256ae8d5b80,611e7bd634cf67f6bde2f44f,0.7603,
,,,,space,,0,285,285,164,1,H, , , , ,space,2500,2.5,5a5aa4eaacc75b00017a52b8,001,2021-08-19_16h42.37.588,natb3,2021.2.3,Win32,59.91252771,5a5aa4eaacc75b00017a52b8,611e07ecdcc96256ae8d5b80,611e7bd634cf67f6bde2f44f,0.7474,
,,,,space,,0,286,286,99,1,N, , , , ,space,2500,2.5,5a5aa4eaacc75b00017a52b8,001,2021-08-19_16h42.37.588,natb3,2021.2.3,Win32,59.91252771,5a5aa4eaacc75b00017a52b8,611e07ecdcc96256ae8d5b80,611e7bd634cf67f6bde2f44f,0.4411,
,,,,space,,0,287,287,1,1,W, , , , ,space,2000,2,5a5aa4eaacc75b00017a52b8,001,2021-08-19_16h42.37.588,natb3,2021.2.3,Win32,59.91252771,5a5aa4eaacc75b00017a52b8,611e07ecdcc96256ae8d5b80,611e7bd634cf67f6bde2f44f,0.5623,
,,,,space,,0,288,288,46,1,X, , , , ,,2000,2,5a5aa4eaacc75b00017a52b8,001,2021-08-19_16h42.37.588,natb3,2021.2.3,Win32,59.91252771,5a5aa4eaacc75b00017a52b8,611e07ecdcc96256ae8d5b80,611e7bd634cf67f6bde2f44f,0.8309,
,,,,space,,0,289,289,40,1,T, , , , ,space,1500,1.5,5a5aa4eaacc75b00017a52b8,001,2021-08-19_16h42.37.588,natb3,2021.2.3,Win32,59.91252771,5a5aa4eaacc75b00017a52b8,611e07ecdcc96256ae8d5b80,611e7bd634cf67f6bde2f44f,0.3178,
,,,,space,,0,290,290,172,1,C, , , , ,space,1500,1.5,5a5aa4eaacc75b00017a52b8,001,2021-08-19_16h42.37.588,natb3,2021.2.3,Win32,59.91252771,5a5aa4eaacc75b00017a52b8,611e07ecdcc96256ae8d5b80,611e7bd634cf67f6bde2f44f,0.3605,
,,,,space,,0,291,291,90,1,K, , , , ,space,2000,2,5a5aa4eaacc75b00017a52b8,001,2021-08-19_16h42.37.588,natb3,2021.2.3,Win32,59.91252771,5a5aa4eaacc75b00017a52b8,611e07ecdcc96256ae8d5b80,611e7bd634cf67f6bde2f44f,0.3864,
,,,,space,,0,292,292,186,1,U, , , , ,space,2500,2.5,5a5aa4eaacc75b00017a52b8,001,2021-08-19_16h42.37.588,natb3,2021.2.3,Win32,59.91252771,5a5aa4eaacc75b00017a52b8,611e07ecdcc96256ae8d5b80,611e7bd634cf67f6bde2f44f,0.4281,
,,,,space,,0,293,293,284,1,V, , , , ,space,2500,2.5,5a5aa4eaacc75b00017a52b8,001,2021-08-19_16h42.37.588,natb3,2021.2.3,Win32,59.91252771,5a5aa4eaacc75b00017a52b8,611e07ecdcc96256ae8d5b80,611e7bd634cf67f6bde2f44f,0.4088,
,,,,space,,0,294,294,67,1,Q, , , , ,space,2000,2,5a5aa4eaacc75b00017a52b8,001,2021-08-19_16h42.37.588,natb3,2021.2.3,Win32,59.91252771,5a5aa4eaacc75b00017a52b8,611e07ecdcc96256ae8d5b80,611e7bd634cf67f6bde2f44f,0.4391,
,,,,,,0,295,295,302,1,X, , , , ,,2000,2,5a5aa4eaacc75b00017a52b8,001,2021-08-19_16h42.37.588,natb3,2021.2.3,Win32,59.91252771,5a5aa4eaacc75b00017a52b8,611e07ecdcc96256ae8d5b80,611e7bd634cf67f6bde2f44f,,
,,,,space,,0,296,296,0,1,Q, , , , ,space,1500,1.5,5a5aa4eaacc75b00017a52b8,001,2021-08-19_16h42.37.588,natb3,2021.2.3,Win32,59.91252771,5a5aa4eaacc75b00017a52b8,611e07ecdcc96256ae8d5b80,611e7bd634cf67f6bde2f44f,0.5442,
,,,,,,0,297,297,33,1,X, , , , ,,1500,1.5,5a5aa4eaacc75b00017a52b8,001,2021-08-19_16h42.37.588,natb3,2021.2.3,Win32,59.91252771,5a5aa4eaacc75b00017a52b8,611e07ecdcc96256ae8d5b80,611e7bd634cf67f6bde2f44f,,
,,,,space,,0,298,298,131,1,G, , , , ,space,1500,1.5,5a5aa4eaacc75b00017a52b8,001,2021-08-19_16h42.37.588,natb3,2021.2.3,Win32,59.91252771,5a5aa4eaacc75b00017a52b8,611e07ecdcc96256ae8d5b80,611e7bd634cf67f6bde2f44f,0.47,
,,,,space,,0,299,299,9,1,I, , , , ,space,1500,1.5,5a5aa4eaacc75b00017a52b8,001,2021-08-19_16h42.37.588,natb3,2021.2.3,Win32,59.91252771,5a5aa4eaacc75b00017a52b8,611e07ecdcc96256ae8d5b80,611e7bd634cf67f6bde2f44f,0.4675,
,,,,,,0,300,300,31,1,X, , , , ,,1500,1.5,5a5aa4eaacc75b00017a52b8,001,2021-08-19_16h42.37.588,natb3,2021.2.3,Win32,59.91252771,5a5aa4eaacc75b00017a52b8,611e07ecdcc96256ae8d5b80,611e7bd634cf67f6bde2f44f,,
,,,,space,,0,301,301,235,1,A, , , , ,space,1500,1.5,5a5aa4eaacc75b00017a52b8,001,2021-08-19_16h42.37.588,natb3,2021.2.3,Win32,59.91252771,5a5aa4eaacc75b00017a52b8,611e07ecdcc96256ae8d5b80,611e7bd634cf67f6bde2f44f,0.5532,
,,,,space,,0,302,302,208,1,B, , , , ,space,1500,1.5,5a5aa4eaacc75b00017a52b8,001,2021-08-19_16h42.37.588,natb3,2021.2.3,Win32,59.91252771,5a5aa4eaacc75b00017a52b8,611e07ecdcc96256ae8d5b80,611e7bd634cf67f6bde2f44f,0.4674,
,,,,,,0,303,303,15,1,X, , , , ,,1500,1.5,5a5aa4eaacc75b00017a52b8,001,2021-08-19_16h42.37.588,natb3,2021.2.3,Win32,59.91252771,5a5aa4eaacc75b00017a52b8,611e07ecdcc96256ae8d5b80,611e7bd634cf67f6bde2f44f,,
,,,,space,,0,304,304,98,1,X, , , , ,,2500,2.5,5a5aa4eaacc75b00017a52b8,001,2021-08-19_16h42.37.588,natb3,2021.2.3,Win32,59.91252771,5a5aa4eaacc75b00017a52b8,611e07ecdcc96256ae8d5b80,611e7bd634cf67f6bde2f44f,0.355,
,,,,space,,0,305,305,210,1,M, , , , ,space,1500,1.5,5a5aa4eaacc75b00017a52b8,001,2021-08-19_16h42.37.588,natb3,2021.2.3,Win32,59.91252771,5a5aa4eaacc75b00017a52b8,611e07ecdcc96256ae8d5b80,611e7bd634cf67f6bde2f44f,0.3848,
,,,,,,0,306,306,275,1,G, , , , ,space,1500,1.5,5a5aa4eaacc75b00017a52b8,001,2021-08-19_16h42.37.588,natb3,2021.2.3,Win32,59.91252771,5a5aa4eaacc75b00017a52b8,611e07ecdcc96256ae8d5b80,611e7bd634cf67f6bde2f44f,,
,,,,space,,0,307,307,240,1,F, , , , ,space,2500,2.5,5a5aa4eaacc75b00017a52b8,001,2021-08-19_16h42.37.588,natb3,2021.2.3,Win32,59.91252771,5a5aa4eaacc75b00017a52b8,611e07ecdcc96256ae8d5b80,611e7bd634cf67f6bde2f44f,0.7125,
,,,,space,,0,308,308,247,1,Z, , , , ,space,1500,1.5,5a5aa4eaacc75b00017a52b8,001,2021-08-19_16h42.37.588,natb3,2021.2.3,Win32,59.91252771,5a5aa4eaacc75b00017a52b8,611e07ecdcc96256ae8d5b80,611e7bd634cf67f6bde2f44f,0.4258,
,,,,,,0,309,309,203,1,X, , , , ,,2500,2.5,5a5aa4eaacc75b00017a52b8,001,2021-08-19_16h42.37.588,natb3,2021.2.3,Win32,59.91252771,5a5aa4eaacc75b00017a52b8,611e07ecdcc96256ae8d5b80,611e7bd634cf67f6bde2f44f,,
,,,,space,,0,310,310,289,1,Q, , , , ,space,2000,2,5a5aa4eaacc75b00017a52b8,001,2021-08-19_16h42.37.588,natb3,2021.2.3,Win32,59.91252771,5a5aa4eaacc75b00017a52b8,611e07ecdcc96256ae8d5b80,611e7bd634cf67f6bde2f44f,0.4463,
,,,,space,,0,311,311,310,1,J, , , , ,space,2500,2.5,5a5aa4eaacc75b00017a52b8,001,2021-08-19_16h42.37.588,natb3,2021.2.3,Win32,59.91252771,5a5aa4eaacc75b00017a52b8,611e07ecdcc96256ae8d5b80,611e7bd634cf67f6bde2f44f,0.3653,
,,,,space,,0,312,312,237,1,S, , , , ,space,1500,1.5,5a5aa4eaacc75b00017a52b8,001,2021-08-19_16h42.37.588,natb3,2021.2.3,Win32,59.91252771,5a5aa4eaacc75b00017a52b8,611e07ecdcc96256ae8d5b80,611e7bd634cf67f6bde2f44f,0.5677,
,,,,space,,0,313,313,312,1,K, , , , ,space,2000,2,5a5aa4eaacc75b00017a52b8,001,2021-08-19_16h42.37.588,natb3,2021.2.3,Win32,59.91252771,5a5aa4eaacc75b00017a52b8,611e07ecdcc96256ae8d5b80,611e7bd634cf67f6bde2f44f,0.504,
,,,,space,,0,314,314,22,1,K, , , , ,space,2000,2,5a5aa4eaacc75b00017a52b8,001,2021-08-19_16h42.37.588,natb3,2021.2.3,Win32,59.91252771,5a5aa4eaacc75b00017a52b8,611e07ecdcc96256ae8d5b80,611e7bd634cf67f6bde2f44f,0.4351,
,,,,space,,0,315,315,285,1,B, , , , ,space,1500,1.5,5a5aa4eaacc75b00017a52b8,001,2021-08-19_16h42.37.588,natb3,2021.2.3,Win32,59.91252771,5a5aa4eaacc75b00017a52b8,611e07ecdcc96256ae8d5b80,611e7bd634cf67f6bde2f44f,0.4441,
,,,,,,0,316,316,145,1,X, , , , ,,2000,2,5a5aa4eaacc75b00017a52b8,001,2021-08-19_16h42.37.588,natb3,2021.2.3,Win32,59.91252771,5a5aa4eaacc75b00017a52b8,611e07ecdcc96256ae8d5b80,611e7bd634cf67f6bde2f44f,,
,,,,space,,0,317,317,36,1,W, , , , ,space,2000,2,5a5aa4eaacc75b00017a52b8,001,2021-08-19_16h42.37.588,natb3,2021.2.3,Win32,59.91252771,5a5aa4eaacc75b00017a52b8,611e07ecdcc96256ae8d5b80,611e7bd634cf67f6bde2f44f,0.4616,
,,,,,,0,318,318,18,1,X, ,2,5,8,,2500,2.5,5a5aa4eaacc75b00017a52b8,001,2021-08-19_16h42.37.588,natb3,2021.2.3,Win32,59.91252771,5a5aa4eaacc75b00017a52b8,611e07ecdcc96256ae8d5b80,611e7bd634cf67f6bde2f44f,,
,,,,space,,0,319,319,192,1,A, , , , ,space,2000,2,5a5aa4eaacc75b00017a52b8,001,2021-08-19_16h42.37.588,natb3,2021.2.3,Win32,59.91252771,5a5aa4eaacc75b00017a52b8,611e07ecdcc96256ae8d5b80,611e7bd634cf67f6bde2f44f,0.4626,
,,,,,,0,320,320,200,1,X,7, ,5,3,,1500,1.5,5a5aa4eaacc75b00017a52b8,001,2021-08-19_16h42.37.588,natb3,2021.2.3,Win32,59.91252771,5a5aa4eaacc75b00017a52b8,611e07ecdcc96256ae8d5b80,611e7bd634cf67f6bde2f44f,,
,,,,space,,0,321,321,75,1,U, , , , ,space,1500,1.5,5a5aa4eaacc75b00017a52b8,001,2021-08-19_16h42.37.588,natb3,2021.2.3,Win32,59.91252771,5a5aa4eaacc75b00017a52b8,611e07ecdcc96256ae8d5b80,611e7bd634cf67f6bde2f44f,0.4977,
,,,,space,,0,322,322,120,1,U, , , , ,space,1500,1.5,5a5aa4eaacc75b00017a52b8,001,2021-08-19_16h42.37.588,natb3,2021.2.3,Win32,59.91252771,5a5aa4eaacc75b00017a52b8,611e07ecdcc96256ae8d5b80,611e7bd634cf67f6bde2f44f,0.742,
,,,,space,,0,323,323,276,1,H, , , , ,space,2000,2,5a5aa4eaacc75b00017a52b8,001,2021-08-19_16h42.37.588,natb3,2021.2.3,Win32,59.91252771,5a5aa4eaacc75b00017a52b8,611e07ecdcc96256ae8d5b80,611e7bd634cf67f6bde2f44f,0.4616,
,,,,space,,0,324,324,163,1,G, , , , ,space,2500,2.5,5a5aa4eaacc75b00017a52b8,001,2021-08-19_16h42.37.588,natb3,2021.2.3,Win32,59.91252771,5a5aa4eaacc75b00017a52b8,611e07ecdcc96256ae8d5b80,611e7bd634cf67f6bde2f44f,0.3779,
,,,,,,0,325,325,207,1,X,9, ,2, ,,2500,2.5,5a5aa4eaacc75b00017a52b8,001,2021-08-19_16h42.37.588,natb3,2021.2.3,Win32,59.91252771,5a5aa4eaacc75b00017a52b8,611e07ecdcc96256ae8d5b80,611e7bd634cf67f6bde2f44f,,
,,,,space,,0,326,326,104,1,E, , , , ,space,2000,2,5a5aa4eaacc75b00017a52b8,001,2021-08-19_16h42.37.588,natb3,2021.2.3,Win32,59.91252771,5a5aa4eaacc75b00017a52b8,611e07ecdcc96256ae8d5b80,611e7bd634cf67f6bde2f44f,0.3139,
,,,,,,0,327,327,215,1,E, , , , ,space,2500,2.5,5a5aa4eaacc75b00017a52b8,001,2021-08-19_16h42.37.588,natb3,2021.2.3,Win32,59.91252771,5a5aa4eaacc75b00017a52b8,611e07ecdcc96256ae8d5b80,611e7bd634cf67f6bde2f44f,,
,,,,space,,0,328,328,255,1,X, , , , ,,1500,1.5,5a5aa4eaacc75b00017a52b8,001,2021-08-19_16h42.37.588,natb3,2021.2.3,Win32,59.91252771,5a5aa4eaacc75b00017a52b8,611e07ecdcc96256ae8d5b80,611e7bd634cf67f6bde2f44f,0.3225,
,,,,,,0,329,329,248,1,X, ,1,5, ,,1500,1.5,5a5aa4eaacc75b00017a52b8,001,2021-08-19_16h42.37.588,natb3,2021.2.3,Win32,59.91252771,5a5aa4eaacc75b00017a52b8,611e07ecdcc96256ae8d5b80,611e7bd634cf67f6bde2f44f,,
,,,,space,,0,330,330,317,1,C, , , , ,space,2000,2,5a5aa4eaacc75b00017a52b8,001,2021-08-19_16h42.37.588,natb3,2021.2.3,Win32,59.91252771,5a5aa4eaacc75b00017a52b8,611e07ecdcc96256ae8d5b80,611e7bd634cf67f6bde2f44f,0.6415,
,,,,space,,0,331,331,300,1,O, , , , ,space,2500,2.5,5a5aa4eaacc75b00017a52b8,001,2021-08-19_16h42.37.588,natb3,2021.2.3,Win32,59.91252771,5a5aa4eaacc75b00017a52b8,611e07ecdcc96256ae8d5b80,611e7bd634cf67f6bde2f44f,0.4216,
,,,,space,,0,332,332,83,1,D, , , , ,space,2000,2,5a5aa4eaacc75b00017a52b8,001,2021-08-19_16h42.37.588,natb3,2021.2.3,Win32,59.91252771,5a5aa4eaacc75b00017a52b8,611e07ecdcc96256ae8d5b80,611e7bd634cf67f6bde2f44f,0.5396,
,,,,,,0,333,333,239,1,X, , , , ,,2000,2,5a5aa4eaacc75b00017a52b8,001,2021-08-19_16h42.37.588,natb3,2021.2.3,Win32,59.91252771,5a5aa4eaacc75b00017a52b8,611e07ecdcc96256ae8d5b80,611e7bd634cf67f6bde2f44f,,
,,,,space,,0,334,334,154,1,I, , , , ,space,2500,2.5,5a5aa4eaacc75b00017a52b8,001,2021-08-19_16h42.37.588,natb3,2021.2.3,Win32,59.91252771,5a5aa4eaacc75b00017a52b8,611e07ecdcc96256ae8d5b80,611e7bd634cf67f6bde2f44f,0.5202,
,,,,space,,0,335,335,26,1,C, , , , ,space,2000,2,5a5aa4eaacc75b00017a52b8,001,2021-08-19_16h42.37.588,natb3,2021.2.3,Win32,59.91252771,5a5aa4eaacc75b00017a52b8,611e07ecdcc96256ae8d5b80,611e7bd634cf67f6bde2f44f,0.3683,
