key_resp_2.keys,key_resp_2.rt,key_resp_3.keys,key_resp_3.rt,key_resp.keys,key_resp.rt,key_resp_4.keys,trials.thisRepN,trials.thisTrialN,trials.thisN,trials.thisIndex,trials.ran,stimulus,distractor1,distractor2,distractor3,distractor4,CorrAns,isi_duration,isi_dur_in_seconds,participant,session,date,expName,psychopyVersion,OS,frameRate,PROLIFIC_PID,STUDY_ID,SESSION_ID,key_resp_4.rt
return,4.3526,space,41.5818,space,0.3295,,0,0,0,171,1,X, , , , ,,1500,1.5,5a6b2c0d9d65ec00017e715e,001,2021-08-19_16h21.06.991,natb3,2021.2.3,Win32,144.0507058,5a6b2c0d9d65ec00017e715e,611e07ecdcc96256ae8d5b80,611e76d396703c86488f228a,
,,,,space,0.2105,,0,1,1,156,1,P, , , , ,space,1500,1.5,5a6b2c0d9d65ec00017e715e,001,2021-08-19_16h21.06.991,natb3,2021.2.3,Win32,144.0507058,5a6b2c0d9d65ec00017e715e,611e07ecdcc96256ae8d5b80,611e76d396703c86488f228a,
,,,,,,,0,2,2,222,1,O, , , , ,space,2000,2,5a6b2c0d9d65ec00017e715e,001,2021-08-19_16h21.06.991,natb3,2021.2.3,Win32,144.0507058,5a6b2c0d9d65ec00017e715e,611e07ecdcc96256ae8d5b80,611e76d396703c86488f228a,
,,,,,,,0,3,3,43,1,X, ,6, ,2,,2500,2.5,5a6b2c0d9d65ec00017e715e,001,2021-08-19_16h21.06.991,natb3,2021.2.3,Win32,144.0507058,5a6b2c0d9d65ec00017e715e,611e07ecdcc96256ae8d5b80,611e76d396703c86488f228a,
,,,,,,,0,4,4,15,1,X, , , , ,,1500,1.5,5a6b2c0d9d65ec00017e715e,001,2021-08-19_16h21.06.991,natb3,2021.2.3,Win32,144.0507058,5a6b2c0d9d65ec00017e715e,611e07ecdcc96256ae8d5b80,611e76d396703c86488f228a,
,,,,,,,0,5,5,335,1,P,,,,,space,1500,1.5,5a6b2c0d9d65ec00017e715e,001,2021-08-19_16h21.06.991,natb3,2021.2.3,Win32,144.0507058,5a6b2c0d9d65ec00017e715e,611e07ecdcc96256ae8d5b80,611e76d396703c86488f228a,
,,,,,,,0,6,6,128,1,D, , , , ,space,2500,2.5,5a6b2c0d9d65ec00017e715e,001,2021-08-19_16h21.06.991,natb3,2021.2.3,Win32,144.0507058,5a6b2c0d9d65ec00017e715e,611e07ecdcc96256ae8d5b80,611e76d396703c86488f228a,
,,,,space,0.4513,,0,7,7,63,1,B, , , , ,space,2000,2,5a6b2c0d9d65ec00017e715e,001,2021-08-19_16h21.06.991,natb3,2021.2.3,Win32,144.0507058,5a6b2c0d9d65ec00017e715e,611e07ecdcc96256ae8d5b80,611e76d396703c86488f228a,
,,,,space,0.3061,,0,8,8,193,1,S, , , , ,space,2500,2.5,5a6b2c0d9d65ec00017e715e,001,2021-08-19_16h21.06.991,natb3,2021.2.3,Win32,144.0507058,5a6b2c0d9d65ec00017e715e,611e07ecdcc96256ae8d5b80,611e76d396703c86488f228a,
,,,,space,0.3916,,0,9,9,56,1,J, , , , ,space,1500,1.5,5a6b2c0d9d65ec00017e715e,001,2021-08-19_16h21.06.991,natb3,2021.2.3,Win32,144.0507058,5a6b2c0d9d65ec00017e715e,611e07ecdcc96256ae8d5b80,611e76d396703c86488f228a,
,,,,space,0.2573,,0,10,10,151,1,Y, , , , ,space,2500,2.5,5a6b2c0d9d65ec00017e715e,001,2021-08-19_16h21.06.991,natb3,2021.2.3,Win32,144.0507058,5a6b2c0d9d65ec00017e715e,611e07ecdcc96256ae8d5b80,611e76d396703c86488f228a,
,,,,space,0.3407,,0,11,11,21,1,J, , , , ,space,1500,1.5,5a6b2c0d9d65ec00017e715e,001,2021-08-19_16h21.06.991,natb3,2021.2.3,Win32,144.0507058,5a6b2c0d9d65ec00017e715e,611e07ecdcc96256ae8d5b80,611e76d396703c86488f228a,
,,,,space,0.2621,,0,12,12,135,1,K, , , , ,space,1500,1.5,5a6b2c0d9d65ec00017e715e,001,2021-08-19_16h21.06.991,natb3,2021.2.3,Win32,144.0507058,5a6b2c0d9d65ec00017e715e,611e07ecdcc96256ae8d5b80,611e76d396703c86488f228a,
,,,,,,,0,13,13,277,1,X,8,5, ,2,,2000,2,5a6b2c0d9d65ec00017e715e,001,2021-08-19_16h21.06.991,natb3,2021.2.3,Win32,144.0507058,5a6b2c0d9d65ec00017e715e,611e07ecdcc96256ae8d5b80,611e76d396703c86488f228a,
,,,,space,0.2116,,0,14,14,321,1,N, , , , ,space,2000,2,5a6b2c0d9d65ec00017e715e,001,2021-08-19_16h21.06.991,natb3,2021.2.3,Win32,144.0507058,5a6b2c0d9d65ec00017e715e,611e07ecdcc96256ae8d5b80,611e76d396703c86488f228a,
,,,,space,0.2157,,0,15,15,219,1,Y, , , , ,space,2000,2,5a6b2c0d9d65ec00017e715e,001,2021-08-19_16h21.06.991,natb3,2021.2.3,Win32,144.0507058,5a6b2c0d9d65ec00017e715e,611e07ecdcc96256ae8d5b80,611e76d396703c86488f228a,
,,,,space,0.2325,,0,16,16,315,1,X, , , , ,,2500,2.5,5a6b2c0d9d65ec00017e715e,001,2021-08-19_16h21.06.991,natb3,2021.2.3,Win32,144.0507058,5a6b2c0d9d65ec00017e715e,611e07ecdcc96256ae8d5b80,611e76d396703c86488f228a,
,,,,space,0.3462,,0,17,17,298,1,I, , , , ,space,2000,2,5a6b2c0d9d65ec00017e715e,001,2021-08-19_16h21.06.991,natb3,2021.2.3,Win32,144.0507058,5a6b2c0d9d65ec00017e715e,611e07ecdcc96256ae8d5b80,611e76d396703c86488f228a,
,,,,space,0.3253,,0,18,18,279,1,K, , , , ,space,2500,2.5,5a6b2c0d9d65ec00017e715e,001,2021-08-19_16h21.06.991,natb3,2021.2.3,Win32,144.0507058,5a6b2c0d9d65ec00017e715e,611e07ecdcc96256ae8d5b80,611e76d396703c86488f228a,
,,,,space,0.308,,0,19,19,90,1,K, , , , ,space,2000,2,5a6b2c0d9d65ec00017e715e,001,2021-08-19_16h21.06.991,natb3,2021.2.3,Win32,144.0507058,5a6b2c0d9d65ec00017e715e,611e07ecdcc96256ae8d5b80,611e76d396703c86488f228a,
,,,,space,0.3688,,0,20,20,112,1,Q, , , , ,space,2500,2.5,5a6b2c0d9d65ec00017e715e,001,2021-08-19_16h21.06.991,natb3,2021.2.3,Win32,144.0507058,5a6b2c0d9d65ec00017e715e,611e07ecdcc96256ae8d5b80,611e76d396703c86488f228a,
,,,,,,,0,21,21,311,1,X,1,2,7,3,,2500,2.5,5a6b2c0d9d65ec00017e715e,001,2021-08-19_16h21.06.991,natb3,2021.2.3,Win32,144.0507058,5a6b2c0d9d65ec00017e715e,611e07ecdcc96256ae8d5b80,611e76d396703c86488f228a,
,,,,space,0.2702,,0,22,22,30,1,N, , , , ,space,2500,2.5,5a6b2c0d9d65ec00017e715e,001,2021-08-19_16h21.06.991,natb3,2021.2.3,Win32,144.0507058,5a6b2c0d9d65ec00017e715e,611e07ecdcc96256ae8d5b80,611e76d396703c86488f228a,
,,,,space,0.4285,,0,23,23,320,1,B, , , , ,space,1500,1.5,5a6b2c0d9d65ec00017e715e,001,2021-08-19_16h21.06.991,natb3,2021.2.3,Win32,144.0507058,5a6b2c0d9d65ec00017e715e,611e07ecdcc96256ae8d5b80,611e76d396703c86488f228a,
,,,,space,0.3359,,0,24,24,103,1,W, , , , ,space,2000,2,5a6b2c0d9d65ec00017e715e,001,2021-08-19_16h21.06.991,natb3,2021.2.3,Win32,144.0507058,5a6b2c0d9d65ec00017e715e,611e07ecdcc96256ae8d5b80,611e76d396703c86488f228a,
,,,,space,0.4581,,0,25,25,237,1,S, , , , ,space,1500,1.5,5a6b2c0d9d65ec00017e715e,001,2021-08-19_16h21.06.991,natb3,2021.2.3,Win32,144.0507058,5a6b2c0d9d65ec00017e715e,611e07ecdcc96256ae8d5b80,611e76d396703c86488f228a,
,,,,space,0.3353,,0,26,26,100,1,M, , , , ,space,2000,2,5a6b2c0d9d65ec00017e715e,001,2021-08-19_16h21.06.991,natb3,2021.2.3,Win32,144.0507058,5a6b2c0d9d65ec00017e715e,611e07ecdcc96256ae8d5b80,611e76d396703c86488f228a,
,,,,space,0.3331,,0,27,27,217,1,T, , , , ,space,2500,2.5,5a6b2c0d9d65ec00017e715e,001,2021-08-19_16h21.06.991,natb3,2021.2.3,Win32,144.0507058,5a6b2c0d9d65ec00017e715e,611e07ecdcc96256ae8d5b80,611e76d396703c86488f228a,
,,,,space,0.3433,,0,28,28,67,1,Q, , , , ,space,2000,2,5a6b2c0d9d65ec00017e715e,001,2021-08-19_16h21.06.991,natb3,2021.2.3,Win32,144.0507058,5a6b2c0d9d65ec00017e715e,611e07ecdcc96256ae8d5b80,611e76d396703c86488f228a,
,,,,space,0.3473,,0,29,29,55,1,H, , , , ,space,2500,2.5,5a6b2c0d9d65ec00017e715e,001,2021-08-19_16h21.06.991,natb3,2021.2.3,Win32,144.0507058,5a6b2c0d9d65ec00017e715e,611e07ecdcc96256ae8d5b80,611e76d396703c86488f228a,
,,,,space,0.3283,,0,30,30,317,1,C, , , , ,space,2000,2,5a6b2c0d9d65ec00017e715e,001,2021-08-19_16h21.06.991,natb3,2021.2.3,Win32,144.0507058,5a6b2c0d9d65ec00017e715e,611e07ecdcc96256ae8d5b80,611e76d396703c86488f228a,
,,,,space,0.3711,,0,31,31,73,1,Y, , , , ,space,2000,2,5a6b2c0d9d65ec00017e715e,001,2021-08-19_16h21.06.991,natb3,2021.2.3,Win32,144.0507058,5a6b2c0d9d65ec00017e715e,611e07ecdcc96256ae8d5b80,611e76d396703c86488f228a,
,,,,space,0.3572,,0,32,32,285,1,B, , , , ,space,1500,1.5,5a6b2c0d9d65ec00017e715e,001,2021-08-19_16h21.06.991,natb3,2021.2.3,Win32,144.0507058,5a6b2c0d9d65ec00017e715e,611e07ecdcc96256ae8d5b80,611e76d396703c86488f228a,
,,,,space,0.2233,,0,33,33,29,1,B, , , , ,space,1500,1.5,5a6b2c0d9d65ec00017e715e,001,2021-08-19_16h21.06.991,natb3,2021.2.3,Win32,144.0507058,5a6b2c0d9d65ec00017e715e,611e07ecdcc96256ae8d5b80,611e76d396703c86488f228a,
,,,,space,0.2443,,0,34,34,17,1,F, , , , ,space,2500,2.5,5a6b2c0d9d65ec00017e715e,001,2021-08-19_16h21.06.991,natb3,2021.2.3,Win32,144.0507058,5a6b2c0d9d65ec00017e715e,611e07ecdcc96256ae8d5b80,611e76d396703c86488f228a,
,,,,space,0.1595,,0,35,35,199,1,J, , , , ,space,2500,2.5,5a6b2c0d9d65ec00017e715e,001,2021-08-19_16h21.06.991,natb3,2021.2.3,Win32,144.0507058,5a6b2c0d9d65ec00017e715e,611e07ecdcc96256ae8d5b80,611e76d396703c86488f228a,
,,,,space,0.229,,0,36,36,249,1,C, , , , ,space,2000,2,5a6b2c0d9d65ec00017e715e,001,2021-08-19_16h21.06.991,natb3,2021.2.3,Win32,144.0507058,5a6b2c0d9d65ec00017e715e,611e07ecdcc96256ae8d5b80,611e76d396703c86488f228a,
,,,,space,0.2538,,0,37,37,202,1,L, , , , ,space,2500,2.5,5a6b2c0d9d65ec00017e715e,001,2021-08-19_16h21.06.991,natb3,2021.2.3,Win32,144.0507058,5a6b2c0d9d65ec00017e715e,611e07ecdcc96256ae8d5b80,611e76d396703c86488f228a,
,,,,,,,0,38,38,259,1,X,8, , ,3,,2500,2.5,5a6b2c0d9d65ec00017e715e,001,2021-08-19_16h21.06.991,natb3,2021.2.3,Win32,144.0507058,5a6b2c0d9d65ec00017e715e,611e07ecdcc96256ae8d5b80,611e76d396703c86488f228a,
,,,,space,0.3957,,0,39,39,216,1,R, , , , ,space,1500,1.5,5a6b2c0d9d65ec00017e715e,001,2021-08-19_16h21.06.991,natb3,2021.2.3,Win32,144.0507058,5a6b2c0d9d65ec00017e715e,611e07ecdcc96256ae8d5b80,611e76d396703c86488f228a,
,,,,,,,0,40,40,271,1,X, , , , ,,2500,2.5,5a6b2c0d9d65ec00017e715e,001,2021-08-19_16h21.06.991,natb3,2021.2.3,Win32,144.0507058,5a6b2c0d9d65ec00017e715e,611e07ecdcc96256ae8d5b80,611e76d396703c86488f228a,
,,,,space,0.3338,,0,41,41,134,1,J, , , , ,space,2000,2,5a6b2c0d9d65ec00017e715e,001,2021-08-19_16h21.06.991,natb3,2021.2.3,Win32,144.0507058,5a6b2c0d9d65ec00017e715e,611e07ecdcc96256ae8d5b80,611e76d396703c86488f228a,
,,,,,,,0,42,42,54,1,X, , , , ,,2000,2,5a6b2c0d9d65ec00017e715e,001,2021-08-19_16h21.06.991,natb3,2021.2.3,Win32,144.0507058,5a6b2c0d9d65ec00017e715e,611e07ecdcc96256ae8d5b80,611e76d396703c86488f228a,
,,,,space,0.3601,,0,43,43,313,1,X, , , , ,,2500,2.5,5a6b2c0d9d65ec00017e715e,001,2021-08-19_16h21.06.991,natb3,2021.2.3,Win32,144.0507058,5a6b2c0d9d65ec00017e715e,611e07ecdcc96256ae8d5b80,611e76d396703c86488f228a,
,,,,space,0.4467,,0,44,44,104,1,E, , , , ,space,2000,2,5a6b2c0d9d65ec00017e715e,001,2021-08-19_16h21.06.991,natb3,2021.2.3,Win32,144.0507058,5a6b2c0d9d65ec00017e715e,611e07ecdcc96256ae8d5b80,611e76d396703c86488f228a,
,,,,space,0.4236,,0,45,45,38,1,R, , , , ,space,2500,2.5,5a6b2c0d9d65ec00017e715e,001,2021-08-19_16h21.06.991,natb3,2021.2.3,Win32,144.0507058,5a6b2c0d9d65ec00017e715e,611e07ecdcc96256ae8d5b80,611e76d396703c86488f228a,
,,,,space,0.3152,,0,46,46,92,1,Z, , , , ,space,1500,1.5,5a6b2c0d9d65ec00017e715e,001,2021-08-19_16h21.06.991,natb3,2021.2.3,Win32,144.0507058,5a6b2c0d9d65ec00017e715e,611e07ecdcc96256ae8d5b80,611e76d396703c86488f228a,
,,,,space,0.3331,,0,47,47,224,1,W, , , , ,space,1500,1.5,5a6b2c0d9d65ec00017e715e,001,2021-08-19_16h21.06.991,natb3,2021.2.3,Win32,144.0507058,5a6b2c0d9d65ec00017e715e,611e07ecdcc96256ae8d5b80,611e76d396703c86488f228a,
,,,,space,0.2914,,0,48,48,331,1,Y, , , , ,space,2500,2.5,5a6b2c0d9d65ec00017e715e,001,2021-08-19_16h21.06.991,natb3,2021.2.3,Win32,144.0507058,5a6b2c0d9d65ec00017e715e,611e07ecdcc96256ae8d5b80,611e76d396703c86488f228a,
,,,,space,0.7985,,0,49,49,101,1,Q, , , , ,space,2500,2.5,5a6b2c0d9d65ec00017e715e,001,2021-08-19_16h21.06.991,natb3,2021.2.3,Win32,144.0507058,5a6b2c0d9d65ec00017e715e,611e07ecdcc96256ae8d5b80,611e76d396703c86488f228a,
,,,,space,0.3299,,0,50,50,164,1,H, , , , ,space,2500,2.5,5a6b2c0d9d65ec00017e715e,001,2021-08-19_16h21.06.991,natb3,2021.2.3,Win32,144.0507058,5a6b2c0d9d65ec00017e715e,611e07ecdcc96256ae8d5b80,611e76d396703c86488f228a,
,,,,space,0.2731,,0,51,51,132,1,H, , , , ,space,2500,2.5,5a6b2c0d9d65ec00017e715e,001,2021-08-19_16h21.06.991,natb3,2021.2.3,Win32,144.0507058,5a6b2c0d9d65ec00017e715e,611e07ecdcc96256ae8d5b80,611e76d396703c86488f228a,
,,,,space,0.3401,,0,52,52,314,1,L, , , , ,space,1500,1.5,5a6b2c0d9d65ec00017e715e,001,2021-08-19_16h21.06.991,natb3,2021.2.3,Win32,144.0507058,5a6b2c0d9d65ec00017e715e,611e07ecdcc96256ae8d5b80,611e76d396703c86488f228a,
,,,,space,0.2671,,0,53,53,288,1,M, , , , ,space,1500,1.5,5a6b2c0d9d65ec00017e715e,001,2021-08-19_16h21.06.991,natb3,2021.2.3,Win32,144.0507058,5a6b2c0d9d65ec00017e715e,611e07ecdcc96256ae8d5b80,611e76d396703c86488f228a,
,,,,space,0.243,,0,54,54,323,1,M, , , , ,space,2500,2.5,5a6b2c0d9d65ec00017e715e,001,2021-08-19_16h21.06.991,natb3,2021.2.3,Win32,144.0507058,5a6b2c0d9d65ec00017e715e,611e07ecdcc96256ae8d5b80,611e76d396703c86488f228a,
,,,,space,0.2638,,0,55,55,278,1,J, , , , ,space,2000,2,5a6b2c0d9d65ec00017e715e,001,2021-08-19_16h21.06.991,natb3,2021.2.3,Win32,144.0507058,5a6b2c0d9d65ec00017e715e,611e07ecdcc96256ae8d5b80,611e76d396703c86488f228a,
,,,,space,0.258,,0,56,56,275,1,G, , , , ,space,1500,1.5,5a6b2c0d9d65ec00017e715e,001,2021-08-19_16h21.06.991,natb3,2021.2.3,Win32,144.0507058,5a6b2c0d9d65ec00017e715e,611e07ecdcc96256ae8d5b80,611e76d396703c86488f228a,
,,,,space,0.2382,,0,57,57,27,1,X,5, ,1,3,,1500,1.5,5a6b2c0d9d65ec00017e715e,001,2021-08-19_16h21.06.991,natb3,2021.2.3,Win32,144.0507058,5a6b2c0d9d65ec00017e715e,611e07ecdcc96256ae8d5b80,611e76d396703c86488f228a,
,,,,space,0.3751,,0,58,58,160,1,D, , , , ,space,1500,1.5,5a6b2c0d9d65ec00017e715e,001,2021-08-19_16h21.06.991,natb3,2021.2.3,Win32,144.0507058,5a6b2c0d9d65ec00017e715e,611e07ecdcc96256ae8d5b80,611e76d396703c86488f228a,
,,,,space,0.4194,,0,59,59,110,1,I, , , , ,space,1500,1.5,5a6b2c0d9d65ec00017e715e,001,2021-08-19_16h21.06.991,natb3,2021.2.3,Win32,144.0507058,5a6b2c0d9d65ec00017e715e,611e07ecdcc96256ae8d5b80,611e76d396703c86488f228a,
,,,,space,0.3193,,0,60,60,251,1,B, , , , ,space,1500,1.5,5a6b2c0d9d65ec00017e715e,001,2021-08-19_16h21.06.991,natb3,2021.2.3,Win32,144.0507058,5a6b2c0d9d65ec00017e715e,611e07ecdcc96256ae8d5b80,611e76d396703c86488f228a,
,,,,space,0.2886,,0,61,61,86,1,G, , , , ,space,2000,2,5a6b2c0d9d65ec00017e715e,001,2021-08-19_16h21.06.991,natb3,2021.2.3,Win32,144.0507058,5a6b2c0d9d65ec00017e715e,611e07ecdcc96256ae8d5b80,611e76d396703c86488f228a,
,,,,,,,0,62,62,162,1,X,1,6, ,2,,1500,1.5,5a6b2c0d9d65ec00017e715e,001,2021-08-19_16h21.06.991,natb3,2021.2.3,Win32,144.0507058,5a6b2c0d9d65ec00017e715e,611e07ecdcc96256ae8d5b80,611e76d396703c86488f228a,
,,,,space,0.4133,,0,63,63,149,1,R, , , , ,space,2000,2,5a6b2c0d9d65ec00017e715e,001,2021-08-19_16h21.06.991,natb3,2021.2.3,Win32,144.0507058,5a6b2c0d9d65ec00017e715e,611e07ecdcc96256ae8d5b80,611e76d396703c86488f228a,
,,,,space,0.3265,,0,64,64,72,1,T, , , , ,space,1500,1.5,5a6b2c0d9d65ec00017e715e,001,2021-08-19_16h21.06.991,natb3,2021.2.3,Win32,144.0507058,5a6b2c0d9d65ec00017e715e,611e07ecdcc96256ae8d5b80,611e76d396703c86488f228a,
,,,,space,0.3728,,0,65,65,95,1,V, , , , ,space,1500,1.5,5a6b2c0d9d65ec00017e715e,001,2021-08-19_16h21.06.991,natb3,2021.2.3,Win32,144.0507058,5a6b2c0d9d65ec00017e715e,611e07ecdcc96256ae8d5b80,611e76d396703c86488f228a,
,,,,,,,0,66,66,263,1,X,4, ,6, ,,1500,1.5,5a6b2c0d9d65ec00017e715e,001,2021-08-19_16h21.06.991,natb3,2021.2.3,Win32,144.0507058,5a6b2c0d9d65ec00017e715e,611e07ecdcc96256ae8d5b80,611e76d396703c86488f228a,
,,,,space,0.3497,,0,67,67,184,1,T, , , , ,space,2000,2,5a6b2c0d9d65ec00017e715e,001,2021-08-19_16h21.06.991,natb3,2021.2.3,Win32,144.0507058,5a6b2c0d9d65ec00017e715e,611e07ecdcc96256ae8d5b80,611e76d396703c86488f228a,
,,,,space,0.3539,,0,68,68,138,1,X,8,5, ,3,,2000,2,5a6b2c0d9d65ec00017e715e,001,2021-08-19_16h21.06.991,natb3,2021.2.3,Win32,144.0507058,5a6b2c0d9d65ec00017e715e,611e07ecdcc96256ae8d5b80,611e76d396703c86488f228a,
,,,,space,0.4556,,0,69,69,14,1,S, , , , ,space,2500,2.5,5a6b2c0d9d65ec00017e715e,001,2021-08-19_16h21.06.991,natb3,2021.2.3,Win32,144.0507058,5a6b2c0d9d65ec00017e715e,611e07ecdcc96256ae8d5b80,611e76d396703c86488f228a,
,,,,,,,0,70,70,82,1,X,4,6,1,7,,2000,2,5a6b2c0d9d65ec00017e715e,001,2021-08-19_16h21.06.991,natb3,2021.2.3,Win32,144.0507058,5a6b2c0d9d65ec00017e715e,611e07ecdcc96256ae8d5b80,611e76d396703c86488f228a,
,,,,space,0.2428,,0,71,71,265,1,I, , , , ,space,2000,2,5a6b2c0d9d65ec00017e715e,001,2021-08-19_16h21.06.991,natb3,2021.2.3,Win32,144.0507058,5a6b2c0d9d65ec00017e715e,611e07ecdcc96256ae8d5b80,611e76d396703c86488f228a,
,,,,space,0.341,,0,72,72,188,1,I, , , , ,space,2500,2.5,5a6b2c0d9d65ec00017e715e,001,2021-08-19_16h21.06.991,natb3,2021.2.3,Win32,144.0507058,5a6b2c0d9d65ec00017e715e,611e07ecdcc96256ae8d5b80,611e76d396703c86488f228a,
,,,,space,0.338,,0,73,73,124,1,P, , , , ,space,2000,2,5a6b2c0d9d65ec00017e715e,001,2021-08-19_16h21.06.991,natb3,2021.2.3,Win32,144.0507058,5a6b2c0d9d65ec00017e715e,611e07ecdcc96256ae8d5b80,611e76d396703c86488f228a,
,,,,space,0.3296,,0,74,74,213,1,X, , , , ,,2500,2.5,5a6b2c0d9d65ec00017e715e,001,2021-08-19_16h21.06.991,natb3,2021.2.3,Win32,144.0507058,5a6b2c0d9d65ec00017e715e,611e07ecdcc96256ae8d5b80,611e76d396703c86488f228a,
,,,,space,0.3826,,0,75,75,246,1,L, , , , ,space,2500,2.5,5a6b2c0d9d65ec00017e715e,001,2021-08-19_16h21.06.991,natb3,2021.2.3,Win32,144.0507058,5a6b2c0d9d65ec00017e715e,611e07ecdcc96256ae8d5b80,611e76d396703c86488f228a,
,,,,space,0.4829,,0,76,76,260,1,R, , , , ,space,2000,2,5a6b2c0d9d65ec00017e715e,001,2021-08-19_16h21.06.991,natb3,2021.2.3,Win32,144.0507058,5a6b2c0d9d65ec00017e715e,611e07ecdcc96256ae8d5b80,611e76d396703c86488f228a,
,,,,space,0.4837,,0,77,77,290,1,W, , , , ,space,1500,1.5,5a6b2c0d9d65ec00017e715e,001,2021-08-19_16h21.06.991,natb3,2021.2.3,Win32,144.0507058,5a6b2c0d9d65ec00017e715e,611e07ecdcc96256ae8d5b80,611e76d396703c86488f228a,
,,,,space,0.4096,,0,78,78,52,1,F, , , , ,space,1500,1.5,5a6b2c0d9d65ec00017e715e,001,2021-08-19_16h21.06.991,natb3,2021.2.3,Win32,144.0507058,5a6b2c0d9d65ec00017e715e,611e07ecdcc96256ae8d5b80,611e76d396703c86488f228a,
,,,,space,0.2953,,0,79,79,97,1,B, , , , ,space,2500,2.5,5a6b2c0d9d65ec00017e715e,001,2021-08-19_16h21.06.991,natb3,2021.2.3,Win32,144.0507058,5a6b2c0d9d65ec00017e715e,611e07ecdcc96256ae8d5b80,611e76d396703c86488f228a,
,,,,space,0.4513,,0,80,80,8,1,U, , , , ,space,1500,1.5,5a6b2c0d9d65ec00017e715e,001,2021-08-19_16h21.06.991,natb3,2021.2.3,Win32,144.0507058,5a6b2c0d9d65ec00017e715e,611e07ecdcc96256ae8d5b80,611e76d396703c86488f228a,
,,,,space,0.3499,,0,81,81,11,1,P, , , , ,space,2500,2.5,5a6b2c0d9d65ec00017e715e,001,2021-08-19_16h21.06.991,natb3,2021.2.3,Win32,144.0507058,5a6b2c0d9d65ec00017e715e,611e07ecdcc96256ae8d5b80,611e76d396703c86488f228a,
,,,,space,0.6327,,0,82,82,121,1,I, , , , ,space,2000,2,5a6b2c0d9d65ec00017e715e,001,2021-08-19_16h21.06.991,natb3,2021.2.3,Win32,144.0507058,5a6b2c0d9d65ec00017e715e,611e07ecdcc96256ae8d5b80,611e76d396703c86488f228a,
,,,,space,0.323,,0,83,83,118,1,X, , , , ,,2000,2,5a6b2c0d9d65ec00017e715e,001,2021-08-19_16h21.06.991,natb3,2021.2.3,Win32,144.0507058,5a6b2c0d9d65ec00017e715e,611e07ecdcc96256ae8d5b80,611e76d396703c86488f228a,
,,,,space,0.3262,,0,84,84,306,1,D, , , , ,space,2000,2,5a6b2c0d9d65ec00017e715e,001,2021-08-19_16h21.06.991,natb3,2021.2.3,Win32,144.0507058,5a6b2c0d9d65ec00017e715e,611e07ecdcc96256ae8d5b80,611e76d396703c86488f228a,
,,,,space,0.2818,,0,85,85,284,1,V, , , , ,space,2500,2.5,5a6b2c0d9d65ec00017e715e,001,2021-08-19_16h21.06.991,natb3,2021.2.3,Win32,144.0507058,5a6b2c0d9d65ec00017e715e,611e07ecdcc96256ae8d5b80,611e76d396703c86488f228a,
,,,,space,0.362,,0,86,86,37,1,E, , , , ,space,2500,2.5,5a6b2c0d9d65ec00017e715e,001,2021-08-19_16h21.06.991,natb3,2021.2.3,Win32,144.0507058,5a6b2c0d9d65ec00017e715e,611e07ecdcc96256ae8d5b80,611e76d396703c86488f228a,
,,,,space,0.275,,0,87,87,143,1,M, , , , ,space,2500,2.5,5a6b2c0d9d65ec00017e715e,001,2021-08-19_16h21.06.991,natb3,2021.2.3,Win32,144.0507058,5a6b2c0d9d65ec00017e715e,611e07ecdcc96256ae8d5b80,611e76d396703c86488f228a,
,,,,,,,0,88,88,33,1,X, , , , ,,1500,1.5,5a6b2c0d9d65ec00017e715e,001,2021-08-19_16h21.06.991,natb3,2021.2.3,Win32,144.0507058,5a6b2c0d9d65ec00017e715e,611e07ecdcc96256ae8d5b80,611e76d396703c86488f228a,
,,,,space,0.4527,,0,89,89,46,1,X, , , , ,,2000,2,5a6b2c0d9d65ec00017e715e,001,2021-08-19_16h21.06.991,natb3,2021.2.3,Win32,144.0507058,5a6b2c0d9d65ec00017e715e,611e07ecdcc96256ae8d5b80,611e76d396703c86488f228a,
,,,,space,0.3993,,0,90,90,332,1,U, , , , ,space,2000,2,5a6b2c0d9d65ec00017e715e,001,2021-08-19_16h21.06.991,natb3,2021.2.3,Win32,144.0507058,5a6b2c0d9d65ec00017e715e,611e07ecdcc96256ae8d5b80,611e76d396703c86488f228a,
,,,,space,0.3817,,0,91,91,28,1,V, , , , ,space,1500,1.5,5a6b2c0d9d65ec00017e715e,001,2021-08-19_16h21.06.991,natb3,2021.2.3,Win32,144.0507058,5a6b2c0d9d65ec00017e715e,611e07ecdcc96256ae8d5b80,611e76d396703c86488f228a,
,,,,,,,0,92,92,168,1,X, , , , ,,2500,2.5,5a6b2c0d9d65ec00017e715e,001,2021-08-19_16h21.06.991,natb3,2021.2.3,Win32,144.0507058,5a6b2c0d9d65ec00017e715e,611e07ecdcc96256ae8d5b80,611e76d396703c86488f228a,
,,,,space,0.3529,,0,93,93,45,1,O, , , , ,space,2000,2,5a6b2c0d9d65ec00017e715e,001,2021-08-19_16h21.06.991,natb3,2021.2.3,Win32,144.0507058,5a6b2c0d9d65ec00017e715e,611e07ecdcc96256ae8d5b80,611e76d396703c86488f228a,
,,,,space,0.4374,,0,94,94,297,1,U, , , , ,space,2000,2,5a6b2c0d9d65ec00017e715e,001,2021-08-19_16h21.06.991,natb3,2021.2.3,Win32,144.0507058,5a6b2c0d9d65ec00017e715e,611e07ecdcc96256ae8d5b80,611e76d396703c86488f228a,
,,,,space,0.3138,,0,95,95,302,1,X, , , , ,,2000,2,5a6b2c0d9d65ec00017e715e,001,2021-08-19_16h21.06.991,natb3,2021.2.3,Win32,144.0507058,5a6b2c0d9d65ec00017e715e,611e07ecdcc96256ae8d5b80,611e76d396703c86488f228a,
,,,,,,,0,96,96,158,1,X, , , , ,,1500,1.5,5a6b2c0d9d65ec00017e715e,001,2021-08-19_16h21.06.991,natb3,2021.2.3,Win32,144.0507058,5a6b2c0d9d65ec00017e715e,611e07ecdcc96256ae8d5b80,611e76d396703c86488f228a,
,,,,space,0.2846,,0,97,97,300,1,O, , , , ,space,2500,2.5,5a6b2c0d9d65ec00017e715e,001,2021-08-19_16h21.06.991,natb3,2021.2.3,Win32,144.0507058,5a6b2c0d9d65ec00017e715e,611e07ecdcc96256ae8d5b80,611e76d396703c86488f228a,
,,,,space,0.3747,,0,98,98,3,1,R, , , , ,space,2000,2,5a6b2c0d9d65ec00017e715e,001,2021-08-19_16h21.06.991,natb3,2021.2.3,Win32,144.0507058,5a6b2c0d9d65ec00017e715e,611e07ecdcc96256ae8d5b80,611e76d396703c86488f228a,
,,,,,,,0,99,99,89,1,X,3, , , ,,2000,2,5a6b2c0d9d65ec00017e715e,001,2021-08-19_16h21.06.991,natb3,2021.2.3,Win32,144.0507058,5a6b2c0d9d65ec00017e715e,611e07ecdcc96256ae8d5b80,611e76d396703c86488f228a,
,,,,space,0.4515,,0,100,100,115,1,R, , , , ,space,1500,1.5,5a6b2c0d9d65ec00017e715e,001,2021-08-19_16h21.06.991,natb3,2021.2.3,Win32,144.0507058,5a6b2c0d9d65ec00017e715e,611e07ecdcc96256ae8d5b80,611e76d396703c86488f228a,
,,,,space,0.3956,,0,101,101,109,1,U, , , , ,space,1500,1.5,5a6b2c0d9d65ec00017e715e,001,2021-08-19_16h21.06.991,natb3,2021.2.3,Win32,144.0507058,5a6b2c0d9d65ec00017e715e,611e07ecdcc96256ae8d5b80,611e76d396703c86488f228a,
,,,,space,0.4806,,0,102,102,167,1,K, , , , ,space,1500,1.5,5a6b2c0d9d65ec00017e715e,001,2021-08-19_16h21.06.991,natb3,2021.2.3,Win32,144.0507058,5a6b2c0d9d65ec00017e715e,611e07ecdcc96256ae8d5b80,611e76d396703c86488f228a,
,,,,space,0.3236,,0,103,103,208,1,B, , , , ,space,1500,1.5,5a6b2c0d9d65ec00017e715e,001,2021-08-19_16h21.06.991,natb3,2021.2.3,Win32,144.0507058,5a6b2c0d9d65ec00017e715e,611e07ecdcc96256ae8d5b80,611e76d396703c86488f228a,
,,,,space,0.4334,,0,104,104,189,1,O, , , , ,space,1500,1.5,5a6b2c0d9d65ec00017e715e,001,2021-08-19_16h21.06.991,natb3,2021.2.3,Win32,144.0507058,5a6b2c0d9d65ec00017e715e,611e07ecdcc96256ae8d5b80,611e76d396703c86488f228a,
,,,,,,,0,105,105,229,1,X,8, ,2,6,,2500,2.5,5a6b2c0d9d65ec00017e715e,001,2021-08-19_16h21.06.991,natb3,2021.2.3,Win32,144.0507058,5a6b2c0d9d65ec00017e715e,611e07ecdcc96256ae8d5b80,611e76d396703c86488f228a,
,,,,space,0.3609,,0,106,106,273,1,X, , , , ,,2000,2,5a6b2c0d9d65ec00017e715e,001,2021-08-19_16h21.06.991,natb3,2021.2.3,Win32,144.0507058,5a6b2c0d9d65ec00017e715e,611e07ecdcc96256ae8d5b80,611e76d396703c86488f228a,
,,,,space,0.465,,0,107,107,274,1,F, , , , ,space,2000,2,5a6b2c0d9d65ec00017e715e,001,2021-08-19_16h21.06.991,natb3,2021.2.3,Win32,144.0507058,5a6b2c0d9d65ec00017e715e,611e07ecdcc96256ae8d5b80,611e76d396703c86488f228a,
,,,,space,0.3722,,0,108,108,205,1,C, , , , ,space,2000,2,5a6b2c0d9d65ec00017e715e,001,2021-08-19_16h21.06.991,natb3,2021.2.3,Win32,144.0507058,5a6b2c0d9d65ec00017e715e,611e07ecdcc96256ae8d5b80,611e76d396703c86488f228a,
,,,,space,0.4074,,0,109,109,310,1,J, , , , ,space,2500,2.5,5a6b2c0d9d65ec00017e715e,001,2021-08-19_16h21.06.991,natb3,2021.2.3,Win32,144.0507058,5a6b2c0d9d65ec00017e715e,611e07ecdcc96256ae8d5b80,611e76d396703c86488f228a,
,,,,space,0.3269,,0,110,110,212,1,Q, , , , ,space,2500,2.5,5a6b2c0d9d65ec00017e715e,001,2021-08-19_16h21.06.991,natb3,2021.2.3,Win32,144.0507058,5a6b2c0d9d65ec00017e715e,611e07ecdcc96256ae8d5b80,611e76d396703c86488f228a,
,,,,space,0.3609,,0,111,111,131,1,G, , , , ,space,1500,1.5,5a6b2c0d9d65ec00017e715e,001,2021-08-19_16h21.06.991,natb3,2021.2.3,Win32,144.0507058,5a6b2c0d9d65ec00017e715e,611e07ecdcc96256ae8d5b80,611e76d396703c86488f228a,
,,,,space,0.3438,,0,112,112,140,1,B, , , , ,space,2500,2.5,5a6b2c0d9d65ec00017e715e,001,2021-08-19_16h21.06.991,natb3,2021.2.3,Win32,144.0507058,5a6b2c0d9d65ec00017e715e,611e07ecdcc96256ae8d5b80,611e76d396703c86488f228a,
,,,,space,0.2808,,0,113,113,136,1,Z, , , , ,space,2500,2.5,5a6b2c0d9d65ec00017e715e,001,2021-08-19_16h21.06.991,natb3,2021.2.3,Win32,144.0507058,5a6b2c0d9d65ec00017e715e,611e07ecdcc96256ae8d5b80,611e76d396703c86488f228a,
,,,,space,0.3541,,0,114,114,5,1,T, , , , ,space,2000,2,5a6b2c0d9d65ec00017e715e,001,2021-08-19_16h21.06.991,natb3,2021.2.3,Win32,144.0507058,5a6b2c0d9d65ec00017e715e,611e07ecdcc96256ae8d5b80,611e76d396703c86488f228a,
,,,,space,0.2846,,0,115,115,206,1,V, , , , ,space,2000,2,5a6b2c0d9d65ec00017e715e,001,2021-08-19_16h21.06.991,natb3,2021.2.3,Win32,144.0507058,5a6b2c0d9d65ec00017e715e,611e07ecdcc96256ae8d5b80,611e76d396703c86488f228a,
,,,,,,,0,116,116,200,1,X,7, ,5,3,,1500,1.5,5a6b2c0d9d65ec00017e715e,001,2021-08-19_16h21.06.991,natb3,2021.2.3,Win32,144.0507058,5a6b2c0d9d65ec00017e715e,611e07ecdcc96256ae8d5b80,611e76d396703c86488f228a,
,,,,space,0.3917,,0,117,117,58,1,L, , , , ,space,2000,2,5a6b2c0d9d65ec00017e715e,001,2021-08-19_16h21.06.991,natb3,2021.2.3,Win32,144.0507058,5a6b2c0d9d65ec00017e715e,611e07ecdcc96256ae8d5b80,611e76d396703c86488f228a,
,,,,space,0.3631,,0,118,118,41,1,Y, , , , ,space,2500,2.5,5a6b2c0d9d65ec00017e715e,001,2021-08-19_16h21.06.991,natb3,2021.2.3,Win32,144.0507058,5a6b2c0d9d65ec00017e715e,611e07ecdcc96256ae8d5b80,611e76d396703c86488f228a,
,,,,space,0.3471,,0,119,119,238,1,D, , , , ,space,1500,1.5,5a6b2c0d9d65ec00017e715e,001,2021-08-19_16h21.06.991,natb3,2021.2.3,Win32,144.0507058,5a6b2c0d9d65ec00017e715e,611e07ecdcc96256ae8d5b80,611e76d396703c86488f228a,
,,,,space,0.3133,,0,120,120,22,1,K, , , , ,space,2000,2,5a6b2c0d9d65ec00017e715e,001,2021-08-19_16h21.06.991,natb3,2021.2.3,Win32,144.0507058,5a6b2c0d9d65ec00017e715e,611e07ecdcc96256ae8d5b80,611e76d396703c86488f228a,
,,,,space,0.2999,,0,121,121,70,1,E, , , , ,space,2500,2.5,5a6b2c0d9d65ec00017e715e,001,2021-08-19_16h21.06.991,natb3,2021.2.3,Win32,144.0507058,5a6b2c0d9d65ec00017e715e,611e07ecdcc96256ae8d5b80,611e76d396703c86488f228a,
,,,,,,,0,122,122,187,1,X, ,3,7,4,,1500,1.5,5a6b2c0d9d65ec00017e715e,001,2021-08-19_16h21.06.991,natb3,2021.2.3,Win32,144.0507058,5a6b2c0d9d65ec00017e715e,611e07ecdcc96256ae8d5b80,611e76d396703c86488f228a,
,,,,,,,0,123,123,122,1,X,1, , ,8,,1500,1.5,5a6b2c0d9d65ec00017e715e,001,2021-08-19_16h21.06.991,natb3,2021.2.3,Win32,144.0507058,5a6b2c0d9d65ec00017e715e,611e07ecdcc96256ae8d5b80,611e76d396703c86488f228a,
,,,,space,0.3719,,0,124,124,117,1,T, , , , ,space,2500,2.5,5a6b2c0d9d65ec00017e715e,001,2021-08-19_16h21.06.991,natb3,2021.2.3,Win32,144.0507058,5a6b2c0d9d65ec00017e715e,611e07ecdcc96256ae8d5b80,611e76d396703c86488f228a,
,,,,space,0.4582,,0,125,125,25,1,Z, , , , ,space,2500,2.5,5a6b2c0d9d65ec00017e715e,001,2021-08-19_16h21.06.991,natb3,2021.2.3,Win32,144.0507058,5a6b2c0d9d65ec00017e715e,611e07ecdcc96256ae8d5b80,611e76d396703c86488f228a,
,,,,space,0.4025,,0,126,126,267,1,P, , , , ,space,2000,2,5a6b2c0d9d65ec00017e715e,001,2021-08-19_16h21.06.991,natb3,2021.2.3,Win32,144.0507058,5a6b2c0d9d65ec00017e715e,611e07ecdcc96256ae8d5b80,611e76d396703c86488f228a,
,,,,space,0.307,,0,127,127,0,1,Q, , , , ,space,1500,1.5,5a6b2c0d9d65ec00017e715e,001,2021-08-19_16h21.06.991,natb3,2021.2.3,Win32,144.0507058,5a6b2c0d9d65ec00017e715e,611e07ecdcc96256ae8d5b80,611e76d396703c86488f228a,
,,,,space,0.3188,,0,128,128,99,1,N, , , , ,space,2500,2.5,5a6b2c0d9d65ec00017e715e,001,2021-08-19_16h21.06.991,natb3,2021.2.3,Win32,144.0507058,5a6b2c0d9d65ec00017e715e,611e07ecdcc96256ae8d5b80,611e76d396703c86488f228a,
,,,,space,0.5665,,0,129,129,201,1,K, , , , ,space,1500,1.5,5a6b2c0d9d65ec00017e715e,001,2021-08-19_16h21.06.991,natb3,2021.2.3,Win32,144.0507058,5a6b2c0d9d65ec00017e715e,611e07ecdcc96256ae8d5b80,611e76d396703c86488f228a,
,,,,,,,0,130,130,248,1,X, ,1,5, ,,1500,1.5,5a6b2c0d9d65ec00017e715e,001,2021-08-19_16h21.06.991,natb3,2021.2.3,Win32,144.0507058,5a6b2c0d9d65ec00017e715e,611e07ecdcc96256ae8d5b80,611e76d396703c86488f228a,
,,,,space,0.4622,,0,131,131,62,1,V, , , , ,space,1500,1.5,5a6b2c0d9d65ec00017e715e,001,2021-08-19_16h21.06.991,natb3,2021.2.3,Win32,144.0507058,5a6b2c0d9d65ec00017e715e,611e07ecdcc96256ae8d5b80,611e76d396703c86488f228a,
,,,,space,0.3782,,0,132,132,227,1,T, , , , ,space,1500,1.5,5a6b2c0d9d65ec00017e715e,001,2021-08-19_16h21.06.991,natb3,2021.2.3,Win32,144.0507058,5a6b2c0d9d65ec00017e715e,611e07ecdcc96256ae8d5b80,611e76d396703c86488f228a,
,,,,space,0.4276,,0,133,133,333,1,I, , , , ,space,1500,1.5,5a6b2c0d9d65ec00017e715e,001,2021-08-19_16h21.06.991,natb3,2021.2.3,Win32,144.0507058,5a6b2c0d9d65ec00017e715e,611e07ecdcc96256ae8d5b80,611e76d396703c86488f228a,
,,,,space,0.3331,,0,134,134,179,1,X, ,9, ,2,,1500,1.5,5a6b2c0d9d65ec00017e715e,001,2021-08-19_16h21.06.991,natb3,2021.2.3,Win32,144.0507058,5a6b2c0d9d65ec00017e715e,611e07ecdcc96256ae8d5b80,611e76d396703c86488f228a,
,,,,,,,0,135,135,218,1,X,1,3, ,8,,1500,1.5,5a6b2c0d9d65ec00017e715e,001,2021-08-19_16h21.06.991,natb3,2021.2.3,Win32,144.0507058,5a6b2c0d9d65ec00017e715e,611e07ecdcc96256ae8d5b80,611e76d396703c86488f228a,
,,,,space,0.3339,,0,136,136,294,1,T, , , , ,space,2000,2,5a6b2c0d9d65ec00017e715e,001,2021-08-19_16h21.06.991,natb3,2021.2.3,Win32,144.0507058,5a6b2c0d9d65ec00017e715e,611e07ecdcc96256ae8d5b80,611e76d396703c86488f228a,
,,,,space,0.3332,,0,137,137,169,1,L, , , , ,space,2500,2.5,5a6b2c0d9d65ec00017e715e,001,2021-08-19_16h21.06.991,natb3,2021.2.3,Win32,144.0507058,5a6b2c0d9d65ec00017e715e,611e07ecdcc96256ae8d5b80,611e76d396703c86488f228a,
,,,,space,0.396,,0,138,138,230,1,U, , , , ,space,1500,1.5,5a6b2c0d9d65ec00017e715e,001,2021-08-19_16h21.06.991,natb3,2021.2.3,Win32,144.0507058,5a6b2c0d9d65ec00017e715e,611e07ecdcc96256ae8d5b80,611e76d396703c86488f228a,
,,,,space,0.4193,,0,139,139,254,1,M, , , , ,space,1500,1.5,5a6b2c0d9d65ec00017e715e,001,2021-08-19_16h21.06.991,natb3,2021.2.3,Win32,144.0507058,5a6b2c0d9d65ec00017e715e,611e07ecdcc96256ae8d5b80,611e76d396703c86488f228a,
,,,,space,0.3487,,0,140,140,272,1,D, , , , ,space,2000,2,5a6b2c0d9d65ec00017e715e,001,2021-08-19_16h21.06.991,natb3,2021.2.3,Win32,144.0507058,5a6b2c0d9d65ec00017e715e,611e07ecdcc96256ae8d5b80,611e76d396703c86488f228a,
,,,,space,0.3646,,0,141,141,258,1,E, , , , ,space,1500,1.5,5a6b2c0d9d65ec00017e715e,001,2021-08-19_16h21.06.991,natb3,2021.2.3,Win32,144.0507058,5a6b2c0d9d65ec00017e715e,611e07ecdcc96256ae8d5b80,611e76d396703c86488f228a,
,,,,space,0.3585,,0,142,142,51,1,X,7,5,8, ,,1500,1.5,5a6b2c0d9d65ec00017e715e,001,2021-08-19_16h21.06.991,natb3,2021.2.3,Win32,144.0507058,5a6b2c0d9d65ec00017e715e,611e07ecdcc96256ae8d5b80,611e76d396703c86488f228a,
,,,,space,0.6949,,0,143,143,334,1,O, , , , ,space,1500,1.5,5a6b2c0d9d65ec00017e715e,001,2021-08-19_16h21.06.991,natb3,2021.2.3,Win32,144.0507058,5a6b2c0d9d65ec00017e715e,611e07ecdcc96256ae8d5b80,611e76d396703c86488f228a,
,,,,space,0.2814,,0,144,144,53,1,G, , , , ,space,2500,2.5,5a6b2c0d9d65ec00017e715e,001,2021-08-19_16h21.06.991,natb3,2021.2.3,Win32,144.0507058,5a6b2c0d9d65ec00017e715e,611e07ecdcc96256ae8d5b80,611e76d396703c86488f228a,
,,,,space,0.3541,,0,145,145,77,1,O, , , , ,space,2000,2,5a6b2c0d9d65ec00017e715e,001,2021-08-19_16h21.06.991,natb3,2021.2.3,Win32,144.0507058,5a6b2c0d9d65ec00017e715e,611e07ecdcc96256ae8d5b80,611e76d396703c86488f228a,
,,,,,,,0,146,146,207,1,X,9, ,2, ,,2500,2.5,5a6b2c0d9d65ec00017e715e,001,2021-08-19_16h21.06.991,natb3,2021.2.3,Win32,144.0507058,5a6b2c0d9d65ec00017e715e,611e07ecdcc96256ae8d5b80,611e76d396703c86488f228a,
,,,,space,0.3752,,0,147,147,235,1,A, , , , ,space,1500,1.5,5a6b2c0d9d65ec00017e715e,001,2021-08-19_16h21.06.991,natb3,2021.2.3,Win32,144.0507058,5a6b2c0d9d65ec00017e715e,611e07ecdcc96256ae8d5b80,611e76d396703c86488f228a,
,,,,space,0.4283,,0,148,148,126,1,A, , , , ,space,2500,2.5,5a6b2c0d9d65ec00017e715e,001,2021-08-19_16h21.06.991,natb3,2021.2.3,Win32,144.0507058,5a6b2c0d9d65ec00017e715e,611e07ecdcc96256ae8d5b80,611e76d396703c86488f228a,
,,,,space,0.3709,,0,149,149,234,1,P, , , , ,space,2000,2,5a6b2c0d9d65ec00017e715e,001,2021-08-19_16h21.06.991,natb3,2021.2.3,Win32,144.0507058,5a6b2c0d9d65ec00017e715e,611e07ecdcc96256ae8d5b80,611e76d396703c86488f228a,
,,,,space,0.4039,,0,150,150,304,1,S, , , , ,space,2000,2,5a6b2c0d9d65ec00017e715e,001,2021-08-19_16h21.06.991,natb3,2021.2.3,Win32,144.0507058,5a6b2c0d9d65ec00017e715e,611e07ecdcc96256ae8d5b80,611e76d396703c86488f228a,
,,,,space,0.34,,0,151,151,325,1,X, , , , ,,2500,2.5,5a6b2c0d9d65ec00017e715e,001,2021-08-19_16h21.06.991,natb3,2021.2.3,Win32,144.0507058,5a6b2c0d9d65ec00017e715e,611e07ecdcc96256ae8d5b80,611e76d396703c86488f228a,
,,,,space,0.3401,,0,152,152,111,1,O, , , , ,space,2000,2,5a6b2c0d9d65ec00017e715e,001,2021-08-19_16h21.06.991,natb3,2021.2.3,Win32,144.0507058,5a6b2c0d9d65ec00017e715e,611e07ecdcc96256ae8d5b80,611e76d396703c86488f228a,
,,,,,,,0,153,153,318,1,X, , , , ,,1500,1.5,5a6b2c0d9d65ec00017e715e,001,2021-08-19_16h21.06.991,natb3,2021.2.3,Win32,144.0507058,5a6b2c0d9d65ec00017e715e,611e07ecdcc96256ae8d5b80,611e76d396703c86488f228a,
,,,,space,0.2776,,0,154,154,127,1,S, , , , ,space,2500,2.5,5a6b2c0d9d65ec00017e715e,001,2021-08-19_16h21.06.991,natb3,2021.2.3,Win32,144.0507058,5a6b2c0d9d65ec00017e715e,611e07ecdcc96256ae8d5b80,611e76d396703c86488f228a,
,,,,space,0.4929,,0,155,155,293,1,R, , , , ,space,2500,2.5,5a6b2c0d9d65ec00017e715e,001,2021-08-19_16h21.06.991,natb3,2021.2.3,Win32,144.0507058,5a6b2c0d9d65ec00017e715e,611e07ecdcc96256ae8d5b80,611e76d396703c86488f228a,
,,,,space,0.5941,,0,156,156,185,1,Y, , , , ,space,2500,2.5,5a6b2c0d9d65ec00017e715e,001,2021-08-19_16h21.06.991,natb3,2021.2.3,Win32,144.0507058,5a6b2c0d9d65ec00017e715e,611e07ecdcc96256ae8d5b80,611e76d396703c86488f228a,
,,,,space,0.3471,,0,157,157,165,1,J, , , , ,space,2500,2.5,5a6b2c0d9d65ec00017e715e,001,2021-08-19_16h21.06.991,natb3,2021.2.3,Win32,144.0507058,5a6b2c0d9d65ec00017e715e,611e07ecdcc96256ae8d5b80,611e76d396703c86488f228a,
,,,,space,0.6771,,0,158,158,186,1,U, , , , ,space,2500,2.5,5a6b2c0d9d65ec00017e715e,001,2021-08-19_16h21.06.991,natb3,2021.2.3,Win32,144.0507058,5a6b2c0d9d65ec00017e715e,611e07ecdcc96256ae8d5b80,611e76d396703c86488f228a,
,,,,space,0.3278,,0,159,159,102,1,X, ,6, , ,,1500,1.5,5a6b2c0d9d65ec00017e715e,001,2021-08-19_16h21.06.991,natb3,2021.2.3,Win32,144.0507058,5a6b2c0d9d65ec00017e715e,611e07ecdcc96256ae8d5b80,611e76d396703c86488f228a,
,,,,space,0.4175,,0,160,160,244,1,J, , , , ,space,1500,1.5,5a6b2c0d9d65ec00017e715e,001,2021-08-19_16h21.06.991,natb3,2021.2.3,Win32,144.0507058,5a6b2c0d9d65ec00017e715e,611e07ecdcc96256ae8d5b80,611e76d396703c86488f228a,
,,,,space,0.3291,,0,161,161,166,1,X, , , , ,,2000,2,5a6b2c0d9d65ec00017e715e,001,2021-08-19_16h21.06.991,natb3,2021.2.3,Win32,144.0507058,5a6b2c0d9d65ec00017e715e,611e07ecdcc96256ae8d5b80,611e76d396703c86488f228a,
,,,,,,,0,162,162,39,1,X,6,2, , ,,1500,1.5,5a6b2c0d9d65ec00017e715e,001,2021-08-19_16h21.06.991,natb3,2021.2.3,Win32,144.0507058,5a6b2c0d9d65ec00017e715e,611e07ecdcc96256ae8d5b80,611e76d396703c86488f228a,
,,,,space,0.4178,,0,163,163,16,1,D, , , , ,space,1500,1.5,5a6b2c0d9d65ec00017e715e,001,2021-08-19_16h21.06.991,natb3,2021.2.3,Win32,144.0507058,5a6b2c0d9d65ec00017e715e,611e07ecdcc96256ae8d5b80,611e76d396703c86488f228a,
,,,,space,0.4096,,0,164,164,223,1,Q, , , , ,space,2000,2,5a6b2c0d9d65ec00017e715e,001,2021-08-19_16h21.06.991,natb3,2021.2.3,Win32,144.0507058,5a6b2c0d9d65ec00017e715e,611e07ecdcc96256ae8d5b80,611e76d396703c86488f228a,
,,,,space,0.4651,,0,165,165,210,1,M, , , , ,space,1500,1.5,5a6b2c0d9d65ec00017e715e,001,2021-08-19_16h21.06.991,natb3,2021.2.3,Win32,144.0507058,5a6b2c0d9d65ec00017e715e,611e07ecdcc96256ae8d5b80,611e76d396703c86488f228a,
,,,,space,0.3148,,0,166,166,42,1,U, , , , ,space,1500,1.5,5a6b2c0d9d65ec00017e715e,001,2021-08-19_16h21.06.991,natb3,2021.2.3,Win32,144.0507058,5a6b2c0d9d65ec00017e715e,611e07ecdcc96256ae8d5b80,611e76d396703c86488f228a,
,,,,space,0.4185,space,0,167,167,261,1,T, , , , ,space,2000,2,5a6b2c0d9d65ec00017e715e,001,2021-08-19_16h21.06.991,natb3,2021.2.3,Win32,144.0507058,5a6b2c0d9d65ec00017e715e,611e07ecdcc96256ae8d5b80,611e76d396703c86488f228a,28.4084
,,,,space,0.507,,0,168,168,242,1,H, , , , ,space,2500,2.5,5a6b2c0d9d65ec00017e715e,001,2021-08-19_16h21.06.991,natb3,2021.2.3,Win32,144.0507058,5a6b2c0d9d65ec00017e715e,611e07ecdcc96256ae8d5b80,611e76d396703c86488f228a,
,,,,space,0.3707,,0,169,169,231,1,I, , , , ,space,2500,2.5,5a6b2c0d9d65ec00017e715e,001,2021-08-19_16h21.06.991,natb3,2021.2.3,Win32,144.0507058,5a6b2c0d9d65ec00017e715e,611e07ecdcc96256ae8d5b80,611e76d396703c86488f228a,
,,,,space,0.3648,,0,170,170,308,1,G, , , , ,space,1500,1.5,5a6b2c0d9d65ec00017e715e,001,2021-08-19_16h21.06.991,natb3,2021.2.3,Win32,144.0507058,5a6b2c0d9d65ec00017e715e,611e07ecdcc96256ae8d5b80,611e76d396703c86488f228a,
,,,,space,0.3151,,0,171,171,326,1,W, , , , ,space,2000,2,5a6b2c0d9d65ec00017e715e,001,2021-08-19_16h21.06.991,natb3,2021.2.3,Win32,144.0507058,5a6b2c0d9d65ec00017e715e,611e07ecdcc96256ae8d5b80,611e76d396703c86488f228a,
,,,,space,0.4652,,0,172,172,142,1,N, , , , ,space,2500,2.5,5a6b2c0d9d65ec00017e715e,001,2021-08-19_16h21.06.991,natb3,2021.2.3,Win32,144.0507058,5a6b2c0d9d65ec00017e715e,611e07ecdcc96256ae8d5b80,611e76d396703c86488f228a,
,,,,space,0.3097,,0,173,173,253,1,N, , , , ,space,2500,2.5,5a6b2c0d9d65ec00017e715e,001,2021-08-19_16h21.06.991,natb3,2021.2.3,Win32,144.0507058,5a6b2c0d9d65ec00017e715e,611e07ecdcc96256ae8d5b80,611e76d396703c86488f228a,
,,,,space,0.2892,,0,174,174,18,1,X, ,2,5,8,,2500,2.5,5a6b2c0d9d65ec00017e715e,001,2021-08-19_16h21.06.991,natb3,2021.2.3,Win32,144.0507058,5a6b2c0d9d65ec00017e715e,611e07ecdcc96256ae8d5b80,611e76d396703c86488f228a,
,,,,space,0.3399,,0,175,175,198,1,H, , , , ,space,2500,2.5,5a6b2c0d9d65ec00017e715e,001,2021-08-19_16h21.06.991,natb3,2021.2.3,Win32,144.0507058,5a6b2c0d9d65ec00017e715e,611e07ecdcc96256ae8d5b80,611e76d396703c86488f228a,
,,,,space,0.3577,,0,176,176,159,1,S, , , , ,space,2500,2.5,5a6b2c0d9d65ec00017e715e,001,2021-08-19_16h21.06.991,natb3,2021.2.3,Win32,144.0507058,5a6b2c0d9d65ec00017e715e,611e07ecdcc96256ae8d5b80,611e76d396703c86488f228a,
,,,,space,0.3129,,0,177,177,262,1,Y, , , , ,space,2500,2.5,5a6b2c0d9d65ec00017e715e,001,2021-08-19_16h21.06.991,natb3,2021.2.3,Win32,144.0507058,5a6b2c0d9d65ec00017e715e,611e07ecdcc96256ae8d5b80,611e76d396703c86488f228a,
,,,,space,0.5305,,0,178,178,204,1,Z, , , , ,space,2000,2,5a6b2c0d9d65ec00017e715e,001,2021-08-19_16h21.06.991,natb3,2021.2.3,Win32,144.0507058,5a6b2c0d9d65ec00017e715e,611e07ecdcc96256ae8d5b80,611e76d396703c86488f228a,
,,,,space,0.342,,0,179,179,194,1,D, , , , ,space,2000,2,5a6b2c0d9d65ec00017e715e,001,2021-08-19_16h21.06.991,natb3,2021.2.3,Win32,144.0507058,5a6b2c0d9d65ec00017e715e,611e07ecdcc96256ae8d5b80,611e76d396703c86488f228a,
,,,,space,0.333,,0,180,180,93,1,X,5, ,7, ,,2500,2.5,5a6b2c0d9d65ec00017e715e,001,2021-08-19_16h21.06.991,natb3,2021.2.3,Win32,144.0507058,5a6b2c0d9d65ec00017e715e,611e07ecdcc96256ae8d5b80,611e76d396703c86488f228a,
,,,,space,0.3648,,0,181,181,225,1,E, , , , ,space,2000,2,5a6b2c0d9d65ec00017e715e,001,2021-08-19_16h21.06.991,natb3,2021.2.3,Win32,144.0507058,5a6b2c0d9d65ec00017e715e,611e07ecdcc96256ae8d5b80,611e76d396703c86488f228a,
,,,,space,0.4929,,0,182,182,68,1,W, , , , ,space,2500,2.5,5a6b2c0d9d65ec00017e715e,001,2021-08-19_16h21.06.991,natb3,2021.2.3,Win32,144.0507058,5a6b2c0d9d65ec00017e715e,611e07ecdcc96256ae8d5b80,611e76d396703c86488f228a,
,,,,space,0.3841,,0,183,183,119,1,Y, , , , ,space,2500,2.5,5a6b2c0d9d65ec00017e715e,001,2021-08-19_16h21.06.991,natb3,2021.2.3,Win32,144.0507058,5a6b2c0d9d65ec00017e715e,611e07ecdcc96256ae8d5b80,611e76d396703c86488f228a,
,,,,space,0.3573,,0,184,184,10,1,O, , , , ,space,2000,2,5a6b2c0d9d65ec00017e715e,001,2021-08-19_16h21.06.991,natb3,2021.2.3,Win32,144.0507058,5a6b2c0d9d65ec00017e715e,611e07ecdcc96256ae8d5b80,611e76d396703c86488f228a,
,,,,space,0.3054,,0,185,185,268,1,X,6, ,3, ,,2500,2.5,5a6b2c0d9d65ec00017e715e,001,2021-08-19_16h21.06.991,natb3,2021.2.3,Win32,144.0507058,5a6b2c0d9d65ec00017e715e,611e07ecdcc96256ae8d5b80,611e76d396703c86488f228a,
,,,,,,,0,186,186,12,1,X, , , , ,,1500,1.5,5a6b2c0d9d65ec00017e715e,001,2021-08-19_16h21.06.991,natb3,2021.2.3,Win32,144.0507058,5a6b2c0d9d65ec00017e715e,611e07ecdcc96256ae8d5b80,611e76d396703c86488f228a,
,,,,space,0.3932,,0,187,187,240,1,F, , , , ,space,2500,2.5,5a6b2c0d9d65ec00017e715e,001,2021-08-19_16h21.06.991,natb3,2021.2.3,Win32,144.0507058,5a6b2c0d9d65ec00017e715e,611e07ecdcc96256ae8d5b80,611e76d396703c86488f228a,
,,,,space,0.4074,,0,188,188,154,1,I, , , , ,space,2500,2.5,5a6b2c0d9d65ec00017e715e,001,2021-08-19_16h21.06.991,natb3,2021.2.3,Win32,144.0507058,5a6b2c0d9d65ec00017e715e,611e07ecdcc96256ae8d5b80,611e76d396703c86488f228a,
,,,,space,0.4998,,0,189,189,181,1,E, , , , ,space,1500,1.5,5a6b2c0d9d65ec00017e715e,001,2021-08-19_16h21.06.991,natb3,2021.2.3,Win32,144.0507058,5a6b2c0d9d65ec00017e715e,611e07ecdcc96256ae8d5b80,611e76d396703c86488f228a,
,,,,space,0.6532,,0,190,190,163,1,G, , , , ,space,2500,2.5,5a6b2c0d9d65ec00017e715e,001,2021-08-19_16h21.06.991,natb3,2021.2.3,Win32,144.0507058,5a6b2c0d9d65ec00017e715e,611e07ecdcc96256ae8d5b80,611e76d396703c86488f228a,
,,,,space,0.3997,,0,191,191,192,1,A, , , , ,space,2000,2,5a6b2c0d9d65ec00017e715e,001,2021-08-19_16h21.06.991,natb3,2021.2.3,Win32,144.0507058,5a6b2c0d9d65ec00017e715e,611e07ecdcc96256ae8d5b80,611e76d396703c86488f228a,
,,,,space,0.3749,,0,192,192,281,1,Z, , , , ,space,1500,1.5,5a6b2c0d9d65ec00017e715e,001,2021-08-19_16h21.06.991,natb3,2021.2.3,Win32,144.0507058,5a6b2c0d9d65ec00017e715e,611e07ecdcc96256ae8d5b80,611e76d396703c86488f228a,
,,,,space,0.354,,0,193,193,172,1,C, , , , ,space,1500,1.5,5a6b2c0d9d65ec00017e715e,001,2021-08-19_16h21.06.991,natb3,2021.2.3,Win32,144.0507058,5a6b2c0d9d65ec00017e715e,611e07ecdcc96256ae8d5b80,611e76d396703c86488f228a,
,,,,space,0.3541,,0,194,194,303,1,A, , , , ,space,2000,2,5a6b2c0d9d65ec00017e715e,001,2021-08-19_16h21.06.991,natb3,2021.2.3,Win32,144.0507058,5a6b2c0d9d65ec00017e715e,611e07ecdcc96256ae8d5b80,611e76d396703c86488f228a,
,,,,,,,0,195,195,31,1,X, , , , ,,1500,1.5,5a6b2c0d9d65ec00017e715e,001,2021-08-19_16h21.06.991,natb3,2021.2.3,Win32,144.0507058,5a6b2c0d9d65ec00017e715e,611e07ecdcc96256ae8d5b80,611e76d396703c86488f228a,
,,,,space,0.3713,,0,196,196,330,1,T, , , , ,space,2500,2.5,5a6b2c0d9d65ec00017e715e,001,2021-08-19_16h21.06.991,natb3,2021.2.3,Win32,144.0507058,5a6b2c0d9d65ec00017e715e,611e07ecdcc96256ae8d5b80,611e76d396703c86488f228a,
,,,,space,0.4332,,0,197,197,64,1,N, , , , ,space,2000,2,5a6b2c0d9d65ec00017e715e,001,2021-08-19_16h21.06.991,natb3,2021.2.3,Win32,144.0507058,5a6b2c0d9d65ec00017e715e,611e07ecdcc96256ae8d5b80,611e76d396703c86488f228a,
,,,,,,,0,198,198,287,1,X, ,2, ,9,,2000,2,5a6b2c0d9d65ec00017e715e,001,2021-08-19_16h21.06.991,natb3,2021.2.3,Win32,144.0507058,5a6b2c0d9d65ec00017e715e,611e07ecdcc96256ae8d5b80,611e76d396703c86488f228a,
,,,,space,0.354,,0,199,199,250,1,V, , , , ,space,2000,2,5a6b2c0d9d65ec00017e715e,001,2021-08-19_16h21.06.991,natb3,2021.2.3,Win32,144.0507058,5a6b2c0d9d65ec00017e715e,611e07ecdcc96256ae8d5b80,611e76d396703c86488f228a,
,,,,space,0.6943,,0,200,200,173,1,V, , , , ,space,1500,1.5,5a6b2c0d9d65ec00017e715e,001,2021-08-19_16h21.06.991,natb3,2021.2.3,Win32,144.0507058,5a6b2c0d9d65ec00017e715e,611e07ecdcc96256ae8d5b80,611e76d396703c86488f228a,
,,,,space,0.4652,,0,201,201,283,1,C, , , , ,space,1500,1.5,5a6b2c0d9d65ec00017e715e,001,2021-08-19_16h21.06.991,natb3,2021.2.3,Win32,144.0507058,5a6b2c0d9d65ec00017e715e,611e07ecdcc96256ae8d5b80,611e76d396703c86488f228a,
,,,,space,0.5147,,0,202,202,36,1,W, , , , ,space,2000,2,5a6b2c0d9d65ec00017e715e,001,2021-08-19_16h21.06.991,natb3,2021.2.3,Win32,144.0507058,5a6b2c0d9d65ec00017e715e,611e07ecdcc96256ae8d5b80,611e76d396703c86488f228a,
,,,,space,0.5801,,0,203,203,48,1,A, , , , ,space,2500,2.5,5a6b2c0d9d65ec00017e715e,001,2021-08-19_16h21.06.991,natb3,2021.2.3,Win32,144.0507058,5a6b2c0d9d65ec00017e715e,611e07ecdcc96256ae8d5b80,611e76d396703c86488f228a,
,,,,space,0.4401,,0,204,204,13,1,A, , , , ,space,2000,2,5a6b2c0d9d65ec00017e715e,001,2021-08-19_16h21.06.991,natb3,2021.2.3,Win32,144.0507058,5a6b2c0d9d65ec00017e715e,611e07ecdcc96256ae8d5b80,611e76d396703c86488f228a,
,,,,space,0.4958,,0,205,205,108,1,Y, , , , ,space,2500,2.5,5a6b2c0d9d65ec00017e715e,001,2021-08-19_16h21.06.991,natb3,2021.2.3,Win32,144.0507058,5a6b2c0d9d65ec00017e715e,611e07ecdcc96256ae8d5b80,611e76d396703c86488f228a,
,,,,,,,0,206,206,107,1,X,9,3, ,2,,2000,2,5a6b2c0d9d65ec00017e715e,001,2021-08-19_16h21.06.991,natb3,2021.2.3,Win32,144.0507058,5a6b2c0d9d65ec00017e715e,611e07ecdcc96256ae8d5b80,611e76d396703c86488f228a,
,,,,space,0.3898,,0,207,207,125,1,X, , , , ,,2000,2,5a6b2c0d9d65ec00017e715e,001,2021-08-19_16h21.06.991,natb3,2021.2.3,Win32,144.0507058,5a6b2c0d9d65ec00017e715e,611e07ecdcc96256ae8d5b80,611e76d396703c86488f228a,
,,,,space,0.2612,,0,208,208,309,1,H, , , , ,space,2500,2.5,5a6b2c0d9d65ec00017e715e,001,2021-08-19_16h21.06.991,natb3,2021.2.3,Win32,144.0507058,5a6b2c0d9d65ec00017e715e,611e07ecdcc96256ae8d5b80,611e76d396703c86488f228a,
,,,,space,0.3548,,0,209,209,152,1,U, , , , ,space,2000,2,5a6b2c0d9d65ec00017e715e,001,2021-08-19_16h21.06.991,natb3,2021.2.3,Win32,144.0507058,5a6b2c0d9d65ec00017e715e,611e07ecdcc96256ae8d5b80,611e76d396703c86488f228a,
,,,,space,0.472,,0,210,210,57,1,K, , , , ,space,2500,2.5,5a6b2c0d9d65ec00017e715e,001,2021-08-19_16h21.06.991,natb3,2021.2.3,Win32,144.0507058,5a6b2c0d9d65ec00017e715e,611e07ecdcc96256ae8d5b80,611e76d396703c86488f228a,
,,,,space,0.2815,,0,211,211,157,1,A, , , , ,space,2500,2.5,5a6b2c0d9d65ec00017e715e,001,2021-08-19_16h21.06.991,natb3,2021.2.3,Win32,144.0507058,5a6b2c0d9d65ec00017e715e,611e07ecdcc96256ae8d5b80,611e76d396703c86488f228a,
,,,,space,0.3781,,0,212,212,113,1,W, , , , ,space,2500,2.5,5a6b2c0d9d65ec00017e715e,001,2021-08-19_16h21.06.991,natb3,2021.2.3,Win32,144.0507058,5a6b2c0d9d65ec00017e715e,611e07ecdcc96256ae8d5b80,611e76d396703c86488f228a,
,,,,space,0.3682,,0,213,213,209,1,N, , , , ,space,2000,2,5a6b2c0d9d65ec00017e715e,001,2021-08-19_16h21.06.991,natb3,2021.2.3,Win32,144.0507058,5a6b2c0d9d65ec00017e715e,611e07ecdcc96256ae8d5b80,611e76d396703c86488f228a,
,,,,space,0.3504,,0,214,214,6,1,Y, , , , ,space,2500,2.5,5a6b2c0d9d65ec00017e715e,001,2021-08-19_16h21.06.991,natb3,2021.2.3,Win32,144.0507058,5a6b2c0d9d65ec00017e715e,611e07ecdcc96256ae8d5b80,611e76d396703c86488f228a,
,,,,,,,0,215,215,78,1,X, , , , ,,2000,2,5a6b2c0d9d65ec00017e715e,001,2021-08-19_16h21.06.991,natb3,2021.2.3,Win32,144.0507058,5a6b2c0d9d65ec00017e715e,611e07ecdcc96256ae8d5b80,611e76d396703c86488f228a,
,,,,space,0.4792,,0,216,216,266,1,O, , , , ,space,1500,1.5,5a6b2c0d9d65ec00017e715e,001,2021-08-19_16h21.06.991,natb3,2021.2.3,Win32,144.0507058,5a6b2c0d9d65ec00017e715e,611e07ecdcc96256ae8d5b80,611e76d396703c86488f228a,
,,,,,,,0,217,217,145,1,X, , , , ,,2000,2,5a6b2c0d9d65ec00017e715e,001,2021-08-19_16h21.06.991,natb3,2021.2.3,Win32,144.0507058,5a6b2c0d9d65ec00017e715e,611e07ecdcc96256ae8d5b80,611e76d396703c86488f228a,
,,,,space,0.4747,,0,218,218,87,1,H, , , , ,space,1500,1.5,5a6b2c0d9d65ec00017e715e,001,2021-08-19_16h21.06.991,natb3,2021.2.3,Win32,144.0507058,5a6b2c0d9d65ec00017e715e,611e07ecdcc96256ae8d5b80,611e76d396703c86488f228a,
,,,,space,0.3765,,0,219,219,232,1,O, , , , ,space,2500,2.5,5a6b2c0d9d65ec00017e715e,001,2021-08-19_16h21.06.991,natb3,2021.2.3,Win32,144.0507058,5a6b2c0d9d65ec00017e715e,611e07ecdcc96256ae8d5b80,611e76d396703c86488f228a,
,,,,space,0.347,,0,220,220,24,1,L, , , , ,space,2500,2.5,5a6b2c0d9d65ec00017e715e,001,2021-08-19_16h21.06.991,natb3,2021.2.3,Win32,144.0507058,5a6b2c0d9d65ec00017e715e,611e07ecdcc96256ae8d5b80,611e76d396703c86488f228a,
,,,,,,,0,221,221,175,1,X,7, ,4,2,,1500,1.5,5a6b2c0d9d65ec00017e715e,001,2021-08-19_16h21.06.991,natb3,2021.2.3,Win32,144.0507058,5a6b2c0d9d65ec00017e715e,611e07ecdcc96256ae8d5b80,611e76d396703c86488f228a,
,,,,,,,0,222,222,60,1,X,7,3,5, ,,1500,1.5,5a6b2c0d9d65ec00017e715e,001,2021-08-19_16h21.06.991,natb3,2021.2.3,Win32,144.0507058,5a6b2c0d9d65ec00017e715e,611e07ecdcc96256ae8d5b80,611e76d396703c86488f228a,
,,,,,,,0,223,223,96,1,X, , , , ,,1500,1.5,5a6b2c0d9d65ec00017e715e,001,2021-08-19_16h21.06.991,natb3,2021.2.3,Win32,144.0507058,5a6b2c0d9d65ec00017e715e,611e07ecdcc96256ae8d5b80,611e76d396703c86488f228a,
,,,,space,0.4521,,0,224,224,79,1,P, , , , ,space,2000,2,5a6b2c0d9d65ec00017e715e,001,2021-08-19_16h21.06.991,natb3,2021.2.3,Win32,144.0507058,5a6b2c0d9d65ec00017e715e,611e07ecdcc96256ae8d5b80,611e76d396703c86488f228a,
,,,,space,0.5089,,0,225,225,228,1,Y, , , , ,space,2000,2,5a6b2c0d9d65ec00017e715e,001,2021-08-19_16h21.06.991,natb3,2021.2.3,Win32,144.0507058,5a6b2c0d9d65ec00017e715e,611e07ecdcc96256ae8d5b80,611e76d396703c86488f228a,
,,,,space,0.441,,0,226,226,161,1,F, , , , ,space,1500,1.5,5a6b2c0d9d65ec00017e715e,001,2021-08-19_16h21.06.991,natb3,2021.2.3,Win32,144.0507058,5a6b2c0d9d65ec00017e715e,611e07ecdcc96256ae8d5b80,611e76d396703c86488f228a,
,,,,space,0.4457,,0,227,227,324,1,Q, , , , ,space,2000,2,5a6b2c0d9d65ec00017e715e,001,2021-08-19_16h21.06.991,natb3,2021.2.3,Win32,144.0507058,5a6b2c0d9d65ec00017e715e,611e07ecdcc96256ae8d5b80,611e76d396703c86488f228a,
,,,,space,0.5104,,0,228,228,1,1,W, , , , ,space,2000,2,5a6b2c0d9d65ec00017e715e,001,2021-08-19_16h21.06.991,natb3,2021.2.3,Win32,144.0507058,5a6b2c0d9d65ec00017e715e,611e07ecdcc96256ae8d5b80,611e76d396703c86488f228a,
,,,,space,0.4138,,0,229,229,196,1,F, , , , ,space,1500,1.5,5a6b2c0d9d65ec00017e715e,001,2021-08-19_16h21.06.991,natb3,2021.2.3,Win32,144.0507058,5a6b2c0d9d65ec00017e715e,611e07ecdcc96256ae8d5b80,611e76d396703c86488f228a,
,,,,space,0.3818,,0,230,230,327,1,E, , , , ,space,1500,1.5,5a6b2c0d9d65ec00017e715e,001,2021-08-19_16h21.06.991,natb3,2021.2.3,Win32,144.0507058,5a6b2c0d9d65ec00017e715e,611e07ecdcc96256ae8d5b80,611e76d396703c86488f228a,
,,,,space,0.3004,,0,231,231,150,1,T, , , , ,space,2500,2.5,5a6b2c0d9d65ec00017e715e,001,2021-08-19_16h21.06.991,natb3,2021.2.3,Win32,144.0507058,5a6b2c0d9d65ec00017e715e,611e07ecdcc96256ae8d5b80,611e76d396703c86488f228a,
,,,,space,0.2915,,0,232,232,139,1,V, , , , ,space,2000,2,5a6b2c0d9d65ec00017e715e,001,2021-08-19_16h21.06.991,natb3,2021.2.3,Win32,144.0507058,5a6b2c0d9d65ec00017e715e,611e07ecdcc96256ae8d5b80,611e76d396703c86488f228a,
,,,,space,0.4998,,0,233,233,65,1,M, , , , ,space,1500,1.5,5a6b2c0d9d65ec00017e715e,001,2021-08-19_16h21.06.991,natb3,2021.2.3,Win32,144.0507058,5a6b2c0d9d65ec00017e715e,611e07ecdcc96256ae8d5b80,611e76d396703c86488f228a,
,,,,space,0.3192,,0,234,234,94,1,C, , , , ,space,2000,2,5a6b2c0d9d65ec00017e715e,001,2021-08-19_16h21.06.991,natb3,2021.2.3,Win32,144.0507058,5a6b2c0d9d65ec00017e715e,611e07ecdcc96256ae8d5b80,611e76d396703c86488f228a,
,,,,space,0.3145,,0,235,235,243,1,X, , , , ,,2500,2.5,5a6b2c0d9d65ec00017e715e,001,2021-08-19_16h21.06.991,natb3,2021.2.3,Win32,144.0507058,5a6b2c0d9d65ec00017e715e,611e07ecdcc96256ae8d5b80,611e76d396703c86488f228a,
,,,,space,0.3473,,0,236,236,59,1,Z, , , , ,space,2000,2,5a6b2c0d9d65ec00017e715e,001,2021-08-19_16h21.06.991,natb3,2021.2.3,Win32,144.0507058,5a6b2c0d9d65ec00017e715e,611e07ecdcc96256ae8d5b80,611e76d396703c86488f228a,
,,,,,,,0,237,237,329,1,X,3,4, ,2,,2500,2.5,5a6b2c0d9d65ec00017e715e,001,2021-08-19_16h21.06.991,natb3,2021.2.3,Win32,144.0507058,5a6b2c0d9d65ec00017e715e,611e07ecdcc96256ae8d5b80,611e76d396703c86488f228a,
,,,,space,0.4515,,0,238,238,2,1,E, , , , ,space,2500,2.5,5a6b2c0d9d65ec00017e715e,001,2021-08-19_16h21.06.991,natb3,2021.2.3,Win32,144.0507058,5a6b2c0d9d65ec00017e715e,611e07ecdcc96256ae8d5b80,611e76d396703c86488f228a,
,,,,space,0.3682,,0,239,239,85,1,F, , , , ,space,2500,2.5,5a6b2c0d9d65ec00017e715e,001,2021-08-19_16h21.06.991,natb3,2021.2.3,Win32,144.0507058,5a6b2c0d9d65ec00017e715e,611e07ecdcc96256ae8d5b80,611e76d396703c86488f228a,
,,,,space,0.3554,,0,240,240,312,1,K, , , , ,space,2000,2,5a6b2c0d9d65ec00017e715e,001,2021-08-19_16h21.06.991,natb3,2021.2.3,Win32,144.0507058,5a6b2c0d9d65ec00017e715e,611e07ecdcc96256ae8d5b80,611e76d396703c86488f228a,
,,,,space,0.3077,,0,241,241,180,1,W, , , , ,space,2000,2,5a6b2c0d9d65ec00017e715e,001,2021-08-19_16h21.06.991,natb3,2021.2.3,Win32,144.0507058,5a6b2c0d9d65ec00017e715e,611e07ecdcc96256ae8d5b80,611e76d396703c86488f228a,
,,,,,,,0,242,242,35,1,X, , , , ,,2500,2.5,5a6b2c0d9d65ec00017e715e,001,2021-08-19_16h21.06.991,natb3,2021.2.3,Win32,144.0507058,5a6b2c0d9d65ec00017e715e,611e07ecdcc96256ae8d5b80,611e76d396703c86488f228a,
,,,,space,0.4415,,0,243,243,215,1,E, , , , ,space,2500,2.5,5a6b2c0d9d65ec00017e715e,001,2021-08-19_16h21.06.991,natb3,2021.2.3,Win32,144.0507058,5a6b2c0d9d65ec00017e715e,611e07ecdcc96256ae8d5b80,611e76d396703c86488f228a,
,,,,,,,0,244,244,133,1,X, ,4, ,6,,2500,2.5,5a6b2c0d9d65ec00017e715e,001,2021-08-19_16h21.06.991,natb3,2021.2.3,Win32,144.0507058,5a6b2c0d9d65ec00017e715e,611e07ecdcc96256ae8d5b80,611e76d396703c86488f228a,
,,,,space,0.4471,,0,245,245,34,1,Q, , , , ,space,2500,2.5,5a6b2c0d9d65ec00017e715e,001,2021-08-19_16h21.06.991,natb3,2021.2.3,Win32,144.0507058,5a6b2c0d9d65ec00017e715e,611e07ecdcc96256ae8d5b80,611e76d396703c86488f228a,
,,,,space,0.426,,0,246,246,296,1,Y, , , , ,space,2500,2.5,5a6b2c0d9d65ec00017e715e,001,2021-08-19_16h21.06.991,natb3,2021.2.3,Win32,144.0507058,5a6b2c0d9d65ec00017e715e,611e07ecdcc96256ae8d5b80,611e76d396703c86488f228a,
,,,,,,,0,247,247,305,1,X, , , , ,,1500,1.5,5a6b2c0d9d65ec00017e715e,001,2021-08-19_16h21.06.991,natb3,2021.2.3,Win32,144.0507058,5a6b2c0d9d65ec00017e715e,611e07ecdcc96256ae8d5b80,611e76d396703c86488f228a,
,,,,space,0.4997,,0,248,248,220,1,U, , , , ,space,2500,2.5,5a6b2c0d9d65ec00017e715e,001,2021-08-19_16h21.06.991,natb3,2021.2.3,Win32,144.0507058,5a6b2c0d9d65ec00017e715e,611e07ecdcc96256ae8d5b80,611e76d396703c86488f228a,
,,,,,,,0,249,249,299,1,X, , , , ,,2500,2.5,5a6b2c0d9d65ec00017e715e,001,2021-08-19_16h21.06.991,natb3,2021.2.3,Win32,144.0507058,5a6b2c0d9d65ec00017e715e,611e07ecdcc96256ae8d5b80,611e76d396703c86488f228a,
,,,,space,0.3821,,0,250,250,83,1,D, , , , ,space,2000,2,5a6b2c0d9d65ec00017e715e,001,2021-08-19_16h21.06.991,natb3,2021.2.3,Win32,144.0507058,5a6b2c0d9d65ec00017e715e,611e07ecdcc96256ae8d5b80,611e76d396703c86488f228a,
,,,,space,0.4584,,0,251,251,183,1,R, , , , ,space,1500,1.5,5a6b2c0d9d65ec00017e715e,001,2021-08-19_16h21.06.991,natb3,2021.2.3,Win32,144.0507058,5a6b2c0d9d65ec00017e715e,611e07ecdcc96256ae8d5b80,611e76d396703c86488f228a,
,,,,,,,0,252,252,295,1,X,8,7,5, ,,2500,2.5,5a6b2c0d9d65ec00017e715e,001,2021-08-19_16h21.06.991,natb3,2021.2.3,Win32,144.0507058,5a6b2c0d9d65ec00017e715e,611e07ecdcc96256ae8d5b80,611e76d396703c86488f228a,
,,,,,,,0,253,253,116,1,X, , , , ,,2000,2,5a6b2c0d9d65ec00017e715e,001,2021-08-19_16h21.06.991,natb3,2021.2.3,Win32,144.0507058,5a6b2c0d9d65ec00017e715e,611e07ecdcc96256ae8d5b80,611e76d396703c86488f228a,
,,,,space,0.3401,,0,254,254,241,1,G, , , , ,space,2500,2.5,5a6b2c0d9d65ec00017e715e,001,2021-08-19_16h21.06.991,natb3,2021.2.3,Win32,144.0507058,5a6b2c0d9d65ec00017e715e,611e07ecdcc96256ae8d5b80,611e76d396703c86488f228a,
,,,,,,,0,255,255,141,1,X,1, ,4,6,,1500,1.5,5a6b2c0d9d65ec00017e715e,001,2021-08-19_16h21.06.991,natb3,2021.2.3,Win32,144.0507058,5a6b2c0d9d65ec00017e715e,611e07ecdcc96256ae8d5b80,611e76d396703c86488f228a,
,,,,space,0.3335,,0,256,256,226,1,R, , , , ,space,2000,2,5a6b2c0d9d65ec00017e715e,001,2021-08-19_16h21.06.991,natb3,2021.2.3,Win32,144.0507058,5a6b2c0d9d65ec00017e715e,611e07ecdcc96256ae8d5b80,611e76d396703c86488f228a,
,,,,,,,0,257,257,69,1,X, , , , ,,1500,1.5,5a6b2c0d9d65ec00017e715e,001,2021-08-19_16h21.06.991,natb3,2021.2.3,Win32,144.0507058,5a6b2c0d9d65ec00017e715e,611e07ecdcc96256ae8d5b80,611e76d396703c86488f228a,
,,,,,,,0,258,258,182,1,X, , , , ,,1500,1.5,5a6b2c0d9d65ec00017e715e,001,2021-08-19_16h21.06.991,natb3,2021.2.3,Win32,144.0507058,5a6b2c0d9d65ec00017e715e,611e07ecdcc96256ae8d5b80,611e76d396703c86488f228a,
,,,,,,,0,259,259,153,1,X,4,7, ,6,,2000,2,5a6b2c0d9d65ec00017e715e,001,2021-08-19_16h21.06.991,natb3,2021.2.3,Win32,144.0507058,5a6b2c0d9d65ec00017e715e,611e07ecdcc96256ae8d5b80,611e76d396703c86488f228a,
,,,,space,0.4165,,0,260,260,270,1,S, , , , ,space,1500,1.5,5a6b2c0d9d65ec00017e715e,001,2021-08-19_16h21.06.991,natb3,2021.2.3,Win32,144.0507058,5a6b2c0d9d65ec00017e715e,611e07ecdcc96256ae8d5b80,611e76d396703c86488f228a,
,,,,,,,0,261,261,233,1,X, ,2, ,5,,1500,1.5,5a6b2c0d9d65ec00017e715e,001,2021-08-19_16h21.06.991,natb3,2021.2.3,Win32,144.0507058,5a6b2c0d9d65ec00017e715e,611e07ecdcc96256ae8d5b80,611e76d396703c86488f228a,
,,,,space,0.4653,,0,262,262,19,1,G, , , , ,space,1500,1.5,5a6b2c0d9d65ec00017e715e,001,2021-08-19_16h21.06.991,natb3,2021.2.3,Win32,144.0507058,5a6b2c0d9d65ec00017e715e,611e07ecdcc96256ae8d5b80,611e76d396703c86488f228a,
,,,,space,0.4234,,0,263,263,50,1,D, , , , ,space,1500,1.5,5a6b2c0d9d65ec00017e715e,001,2021-08-19_16h21.06.991,natb3,2021.2.3,Win32,144.0507058,5a6b2c0d9d65ec00017e715e,611e07ecdcc96256ae8d5b80,611e76d396703c86488f228a,
,,,,space,0.3718,,0,264,264,264,1,U, , , , ,space,2000,2,5a6b2c0d9d65ec00017e715e,001,2021-08-19_16h21.06.991,natb3,2021.2.3,Win32,144.0507058,5a6b2c0d9d65ec00017e715e,611e07ecdcc96256ae8d5b80,611e76d396703c86488f228a,
,,,,space,0.3471,,0,265,265,291,1,X, , , , ,,2000,2,5a6b2c0d9d65ec00017e715e,001,2021-08-19_16h21.06.991,natb3,2021.2.3,Win32,144.0507058,5a6b2c0d9d65ec00017e715e,611e07ecdcc96256ae8d5b80,611e76d396703c86488f228a,
,,,,,,,0,266,266,252,1,X,3, ,6,9,,2000,2,5a6b2c0d9d65ec00017e715e,001,2021-08-19_16h21.06.991,natb3,2021.2.3,Win32,144.0507058,5a6b2c0d9d65ec00017e715e,611e07ecdcc96256ae8d5b80,611e76d396703c86488f228a,
,,,,space,0.3979,,0,267,267,257,1,W, , , , ,space,2000,2,5a6b2c0d9d65ec00017e715e,001,2021-08-19_16h21.06.991,natb3,2021.2.3,Win32,144.0507058,5a6b2c0d9d65ec00017e715e,611e07ecdcc96256ae8d5b80,611e76d396703c86488f228a,
,,,,,,,0,268,268,148,1,X, , , , ,,2000,2,5a6b2c0d9d65ec00017e715e,001,2021-08-19_16h21.06.991,natb3,2021.2.3,Win32,144.0507058,5a6b2c0d9d65ec00017e715e,611e07ecdcc96256ae8d5b80,611e76d396703c86488f228a,
,,,,space,0.6943,,0,269,269,76,1,I, , , , ,space,2000,2,5a6b2c0d9d65ec00017e715e,001,2021-08-19_16h21.06.991,natb3,2021.2.3,Win32,144.0507058,5a6b2c0d9d65ec00017e715e,611e07ecdcc96256ae8d5b80,611e76d396703c86488f228a,
,,,,,,,0,270,270,203,1,X, , , , ,,2500,2.5,5a6b2c0d9d65ec00017e715e,001,2021-08-19_16h21.06.991,natb3,2021.2.3,Win32,144.0507058,5a6b2c0d9d65ec00017e715e,611e07ecdcc96256ae8d5b80,611e76d396703c86488f228a,
,,,,space,0.3515,,0,271,271,137,1,C, , , , ,space,2500,2.5,5a6b2c0d9d65ec00017e715e,001,2021-08-19_16h21.06.991,natb3,2021.2.3,Win32,144.0507058,5a6b2c0d9d65ec00017e715e,611e07ecdcc96256ae8d5b80,611e76d396703c86488f228a,
,,,,space,0.6041,,0,272,272,130,1,F, , , , ,space,2000,2,5a6b2c0d9d65ec00017e715e,001,2021-08-19_16h21.06.991,natb3,2021.2.3,Win32,144.0507058,5a6b2c0d9d65ec00017e715e,611e07ecdcc96256ae8d5b80,611e76d396703c86488f228a,
,,,,space,0.3487,,0,273,273,286,1,N, , , , ,space,1500,1.5,5a6b2c0d9d65ec00017e715e,001,2021-08-19_16h21.06.991,natb3,2021.2.3,Win32,144.0507058,5a6b2c0d9d65ec00017e715e,611e07ecdcc96256ae8d5b80,611e76d396703c86488f228a,
,,,,space,0.4859,,0,274,274,26,1,C, , , , ,space,2000,2,5a6b2c0d9d65ec00017e715e,001,2021-08-19_16h21.06.991,natb3,2021.2.3,Win32,144.0507058,5a6b2c0d9d65ec00017e715e,611e07ecdcc96256ae8d5b80,611e76d396703c86488f228a,
,,,,space,0.4046,,0,275,275,301,1,P, , , , ,space,1500,1.5,5a6b2c0d9d65ec00017e715e,001,2021-08-19_16h21.06.991,natb3,2021.2.3,Win32,144.0507058,5a6b2c0d9d65ec00017e715e,611e07ecdcc96256ae8d5b80,611e76d396703c86488f228a,
,,,,space,0.3959,,0,276,276,146,1,W, , , , ,space,1500,1.5,5a6b2c0d9d65ec00017e715e,001,2021-08-19_16h21.06.991,natb3,2021.2.3,Win32,144.0507058,5a6b2c0d9d65ec00017e715e,611e07ecdcc96256ae8d5b80,611e76d396703c86488f228a,
,,,,space,0.3644,,0,277,277,170,1,Z, , , , ,space,2000,2,5a6b2c0d9d65ec00017e715e,001,2021-08-19_16h21.06.991,natb3,2021.2.3,Win32,144.0507058,5a6b2c0d9d65ec00017e715e,611e07ecdcc96256ae8d5b80,611e76d396703c86488f228a,
,,,,space,0.3617,,0,278,278,307,1,F, , , , ,space,2500,2.5,5a6b2c0d9d65ec00017e715e,001,2021-08-19_16h21.06.991,natb3,2021.2.3,Win32,144.0507058,5a6b2c0d9d65ec00017e715e,611e07ecdcc96256ae8d5b80,611e76d396703c86488f228a,
,,,,space,0.4676,,0,279,279,49,1,S, , , , ,space,1500,1.5,5a6b2c0d9d65ec00017e715e,001,2021-08-19_16h21.06.991,natb3,2021.2.3,Win32,144.0507058,5a6b2c0d9d65ec00017e715e,611e07ecdcc96256ae8d5b80,611e76d396703c86488f228a,
,,,,space,0.3656,,0,280,280,47,1,P, , , , ,space,2000,2,5a6b2c0d9d65ec00017e715e,001,2021-08-19_16h21.06.991,natb3,2021.2.3,Win32,144.0507058,5a6b2c0d9d65ec00017e715e,611e07ecdcc96256ae8d5b80,611e76d396703c86488f228a,
,,,,,,,0,281,281,282,1,X, , , , ,,2500,2.5,5a6b2c0d9d65ec00017e715e,001,2021-08-19_16h21.06.991,natb3,2021.2.3,Win32,144.0507058,5a6b2c0d9d65ec00017e715e,611e07ecdcc96256ae8d5b80,611e76d396703c86488f228a,
,,,,,,,0,282,282,66,1,X, ,4,7, ,,2000,2,5a6b2c0d9d65ec00017e715e,001,2021-08-19_16h21.06.991,natb3,2021.2.3,Win32,144.0507058,5a6b2c0d9d65ec00017e715e,611e07ecdcc96256ae8d5b80,611e76d396703c86488f228a,
,,,,space,0.3652,,0,283,283,269,1,A, , , , ,space,2500,2.5,5a6b2c0d9d65ec00017e715e,001,2021-08-19_16h21.06.991,natb3,2021.2.3,Win32,144.0507058,5a6b2c0d9d65ec00017e715e,611e07ecdcc96256ae8d5b80,611e76d396703c86488f228a,
,,,,space,0.3887,,0,284,284,81,1,S, , , , ,space,2000,2,5a6b2c0d9d65ec00017e715e,001,2021-08-19_16h21.06.991,natb3,2021.2.3,Win32,144.0507058,5a6b2c0d9d65ec00017e715e,611e07ecdcc96256ae8d5b80,611e76d396703c86488f228a,
,,,,space,0.4952,,0,285,285,61,1,C, , , , ,space,2000,2,5a6b2c0d9d65ec00017e715e,001,2021-08-19_16h21.06.991,natb3,2021.2.3,Win32,144.0507058,5a6b2c0d9d65ec00017e715e,611e07ecdcc96256ae8d5b80,611e76d396703c86488f228a,
,,,,,,,0,286,286,191,1,X,1, ,3,4,,2500,2.5,5a6b2c0d9d65ec00017e715e,001,2021-08-19_16h21.06.991,natb3,2021.2.3,Win32,144.0507058,5a6b2c0d9d65ec00017e715e,611e07ecdcc96256ae8d5b80,611e76d396703c86488f228a,
,,,,,,,0,287,287,255,1,X, , , , ,,1500,1.5,5a6b2c0d9d65ec00017e715e,001,2021-08-19_16h21.06.991,natb3,2021.2.3,Win32,144.0507058,5a6b2c0d9d65ec00017e715e,611e07ecdcc96256ae8d5b80,611e76d396703c86488f228a,
,,,,space,0.3908,,0,288,288,328,1,R, , , , ,space,1500,1.5,5a6b2c0d9d65ec00017e715e,001,2021-08-19_16h21.06.991,natb3,2021.2.3,Win32,144.0507058,5a6b2c0d9d65ec00017e715e,611e07ecdcc96256ae8d5b80,611e76d396703c86488f228a,
,,,,,,,0,289,289,4,1,X, , , , ,,2000,2,5a6b2c0d9d65ec00017e715e,001,2021-08-19_16h21.06.991,natb3,2021.2.3,Win32,144.0507058,5a6b2c0d9d65ec00017e715e,611e07ecdcc96256ae8d5b80,611e76d396703c86488f228a,
,,,,space,0.5152,,0,290,290,75,1,U, , , , ,space,1500,1.5,5a6b2c0d9d65ec00017e715e,001,2021-08-19_16h21.06.991,natb3,2021.2.3,Win32,144.0507058,5a6b2c0d9d65ec00017e715e,611e07ecdcc96256ae8d5b80,611e76d396703c86488f228a,
,,,,space,0.3747,,0,291,291,155,1,O, , , , ,space,1500,1.5,5a6b2c0d9d65ec00017e715e,001,2021-08-19_16h21.06.991,natb3,2021.2.3,Win32,144.0507058,5a6b2c0d9d65ec00017e715e,611e07ecdcc96256ae8d5b80,611e76d396703c86488f228a,
,,,,,,,0,292,292,195,1,X, , , , ,,1500,1.5,5a6b2c0d9d65ec00017e715e,001,2021-08-19_16h21.06.991,natb3,2021.2.3,Win32,144.0507058,5a6b2c0d9d65ec00017e715e,611e07ecdcc96256ae8d5b80,611e76d396703c86488f228a,
,,,,space,0.452,,0,293,293,123,1,O, , , , ,space,1500,1.5,5a6b2c0d9d65ec00017e715e,001,2021-08-19_16h21.06.991,natb3,2021.2.3,Win32,144.0507058,5a6b2c0d9d65ec00017e715e,611e07ecdcc96256ae8d5b80,611e76d396703c86488f228a,
,,,,space,0.4603,,0,294,294,176,1,N, , , , ,space,1500,1.5,5a6b2c0d9d65ec00017e715e,001,2021-08-19_16h21.06.991,natb3,2021.2.3,Win32,144.0507058,5a6b2c0d9d65ec00017e715e,611e07ecdcc96256ae8d5b80,611e76d396703c86488f228a,
,,,,space,0.3823,,0,295,295,256,1,Q, , , , ,space,2000,2,5a6b2c0d9d65ec00017e715e,001,2021-08-19_16h21.06.991,natb3,2021.2.3,Win32,144.0507058,5a6b2c0d9d65ec00017e715e,611e07ecdcc96256ae8d5b80,611e76d396703c86488f228a,
,,,,space,0.4274,,0,296,296,114,1,E, , , , ,space,2000,2,5a6b2c0d9d65ec00017e715e,001,2021-08-19_16h21.06.991,natb3,2021.2.3,Win32,144.0507058,5a6b2c0d9d65ec00017e715e,611e07ecdcc96256ae8d5b80,611e76d396703c86488f228a,
,,,,space,0.4681,,0,297,297,106,1,T, , , , ,space,1500,1.5,5a6b2c0d9d65ec00017e715e,001,2021-08-19_16h21.06.991,natb3,2021.2.3,Win32,144.0507058,5a6b2c0d9d65ec00017e715e,611e07ecdcc96256ae8d5b80,611e76d396703c86488f228a,
,,,,,,,0,298,298,129,1,X,2,3,5, ,,1500,1.5,5a6b2c0d9d65ec00017e715e,001,2021-08-19_16h21.06.991,natb3,2021.2.3,Win32,144.0507058,5a6b2c0d9d65ec00017e715e,611e07ecdcc96256ae8d5b80,611e76d396703c86488f228a,
,,,,space,0.4304,,0,299,299,120,1,U, , , , ,space,1500,1.5,5a6b2c0d9d65ec00017e715e,001,2021-08-19_16h21.06.991,natb3,2021.2.3,Win32,144.0507058,5a6b2c0d9d65ec00017e715e,611e07ecdcc96256ae8d5b80,611e76d396703c86488f228a,
,,,,space,0.4807,,0,300,300,319,1,V, , , , ,space,2000,2,5a6b2c0d9d65ec00017e715e,001,2021-08-19_16h21.06.991,natb3,2021.2.3,Win32,144.0507058,5a6b2c0d9d65ec00017e715e,611e07ecdcc96256ae8d5b80,611e76d396703c86488f228a,
,,,,,,,0,301,301,23,1,X,1, ,5, ,,2000,2,5a6b2c0d9d65ec00017e715e,001,2021-08-19_16h21.06.991,natb3,2021.2.3,Win32,144.0507058,5a6b2c0d9d65ec00017e715e,611e07ecdcc96256ae8d5b80,611e76d396703c86488f228a,
,,,,space,0.479,,0,302,302,80,1,A, , , , ,space,2000,2,5a6b2c0d9d65ec00017e715e,001,2021-08-19_16h21.06.991,natb3,2021.2.3,Win32,144.0507058,5a6b2c0d9d65ec00017e715e,611e07ecdcc96256ae8d5b80,611e76d396703c86488f228a,
,,,,space,0.5241,,0,303,303,214,1,W, , , , ,space,2000,2,5a6b2c0d9d65ec00017e715e,001,2021-08-19_16h21.06.991,natb3,2021.2.3,Win32,144.0507058,5a6b2c0d9d65ec00017e715e,611e07ecdcc96256ae8d5b80,611e76d396703c86488f228a,
,,,,space,0.6273,,0,304,304,71,1,R, , , , ,space,2500,2.5,5a6b2c0d9d65ec00017e715e,001,2021-08-19_16h21.06.991,natb3,2021.2.3,Win32,144.0507058,5a6b2c0d9d65ec00017e715e,611e07ecdcc96256ae8d5b80,611e76d396703c86488f228a,
,,,,space,0.4486,,0,305,305,98,1,X, , , , ,,2500,2.5,5a6b2c0d9d65ec00017e715e,001,2021-08-19_16h21.06.991,natb3,2021.2.3,Win32,144.0507058,5a6b2c0d9d65ec00017e715e,611e07ecdcc96256ae8d5b80,611e76d396703c86488f228a,
,,,,space,0.4033,,0,306,306,280,1,L, , , , ,space,1500,1.5,5a6b2c0d9d65ec00017e715e,001,2021-08-19_16h21.06.991,natb3,2021.2.3,Win32,144.0507058,5a6b2c0d9d65ec00017e715e,611e07ecdcc96256ae8d5b80,611e76d396703c86488f228a,
,,,,,,,0,307,307,236,1,X,3, ,4,7,,2500,2.5,5a6b2c0d9d65ec00017e715e,001,2021-08-19_16h21.06.991,natb3,2021.2.3,Win32,144.0507058,5a6b2c0d9d65ec00017e715e,611e07ecdcc96256ae8d5b80,611e76d396703c86488f228a,
,,,,space,0.5279,,0,308,308,276,1,H, , , , ,space,2000,2,5a6b2c0d9d65ec00017e715e,001,2021-08-19_16h21.06.991,natb3,2021.2.3,Win32,144.0507058,5a6b2c0d9d65ec00017e715e,611e07ecdcc96256ae8d5b80,611e76d396703c86488f228a,
,,,,space,0.5415,,0,309,309,292,1,E, , , , ,space,2000,2,5a6b2c0d9d65ec00017e715e,001,2021-08-19_16h21.06.991,natb3,2021.2.3,Win32,144.0507058,5a6b2c0d9d65ec00017e715e,611e07ecdcc96256ae8d5b80,611e76d396703c86488f228a,
,,,,space,0.3719,,0,310,310,190,1,P, , , , ,space,2000,2,5a6b2c0d9d65ec00017e715e,001,2021-08-19_16h21.06.991,natb3,2021.2.3,Win32,144.0507058,5a6b2c0d9d65ec00017e715e,611e07ecdcc96256ae8d5b80,611e76d396703c86488f228a,
,,,,,,,0,311,311,322,1,X, , ,1,6,,2000,2,5a6b2c0d9d65ec00017e715e,001,2021-08-19_16h21.06.991,natb3,2021.2.3,Win32,144.0507058,5a6b2c0d9d65ec00017e715e,611e07ecdcc96256ae8d5b80,611e76d396703c86488f228a,
,,,,space,0.4001,,0,312,312,174,1,B, , , , ,space,2500,2.5,5a6b2c0d9d65ec00017e715e,001,2021-08-19_16h21.06.991,natb3,2021.2.3,Win32,144.0507058,5a6b2c0d9d65ec00017e715e,611e07ecdcc96256ae8d5b80,611e76d396703c86488f228a,
,,,,space,0.4743,,0,313,313,32,1,M, , , , ,space,1500,1.5,5a6b2c0d9d65ec00017e715e,001,2021-08-19_16h21.06.991,natb3,2021.2.3,Win32,144.0507058,5a6b2c0d9d65ec00017e715e,611e07ecdcc96256ae8d5b80,611e76d396703c86488f228a,
,,,,space,0.4523,,0,314,314,247,1,Z, , , , ,space,1500,1.5,5a6b2c0d9d65ec00017e715e,001,2021-08-19_16h21.06.991,natb3,2021.2.3,Win32,144.0507058,5a6b2c0d9d65ec00017e715e,611e07ecdcc96256ae8d5b80,611e76d396703c86488f228a,
,,,,space,0.4322,,0,315,315,88,1,J, , , , ,space,2500,2.5,5a6b2c0d9d65ec00017e715e,001,2021-08-19_16h21.06.991,natb3,2021.2.3,Win32,144.0507058,5a6b2c0d9d65ec00017e715e,611e07ecdcc96256ae8d5b80,611e76d396703c86488f228a,
,,,,space,0.3747,,0,316,316,40,1,T, , , , ,space,1500,1.5,5a6b2c0d9d65ec00017e715e,001,2021-08-19_16h21.06.991,natb3,2021.2.3,Win32,144.0507058,5a6b2c0d9d65ec00017e715e,611e07ecdcc96256ae8d5b80,611e76d396703c86488f228a,
,,,,space,0.396,,0,317,317,178,1,Q, , , , ,space,1500,1.5,5a6b2c0d9d65ec00017e715e,001,2021-08-19_16h21.06.991,natb3,2021.2.3,Win32,144.0507058,5a6b2c0d9d65ec00017e715e,611e07ecdcc96256ae8d5b80,611e76d396703c86488f228a,
,,,,space,0.3514,,0,318,318,289,1,Q, , , , ,space,2000,2,5a6b2c0d9d65ec00017e715e,001,2021-08-19_16h21.06.991,natb3,2021.2.3,Win32,144.0507058,5a6b2c0d9d65ec00017e715e,611e07ecdcc96256ae8d5b80,611e76d396703c86488f228a,
,,,,,,,0,319,319,74,1,X, ,4,3,2,,1500,1.5,5a6b2c0d9d65ec00017e715e,001,2021-08-19_16h21.06.991,natb3,2021.2.3,Win32,144.0507058,5a6b2c0d9d65ec00017e715e,611e07ecdcc96256ae8d5b80,611e76d396703c86488f228a,
,,,,space,0.3542,,0,320,320,91,1,L, , , , ,space,2000,2,5a6b2c0d9d65ec00017e715e,001,2021-08-19_16h21.06.991,natb3,2021.2.3,Win32,144.0507058,5a6b2c0d9d65ec00017e715e,611e07ecdcc96256ae8d5b80,611e76d396703c86488f228a,
,,,,space,0.4099,,0,321,321,177,1,M, , , , ,space,2500,2.5,5a6b2c0d9d65ec00017e715e,001,2021-08-19_16h21.06.991,natb3,2021.2.3,Win32,144.0507058,5a6b2c0d9d65ec00017e715e,611e07ecdcc96256ae8d5b80,611e76d396703c86488f228a,
,,,,space,0.3569,,0,322,322,239,1,X, , , , ,,2000,2,5a6b2c0d9d65ec00017e715e,001,2021-08-19_16h21.06.991,natb3,2021.2.3,Win32,144.0507058,5a6b2c0d9d65ec00017e715e,611e07ecdcc96256ae8d5b80,611e76d396703c86488f228a,
,,,,,,,0,323,323,7,1,X, , , , ,,1500,1.5,5a6b2c0d9d65ec00017e715e,001,2021-08-19_16h21.06.991,natb3,2021.2.3,Win32,144.0507058,5a6b2c0d9d65ec00017e715e,611e07ecdcc96256ae8d5b80,611e76d396703c86488f228a,
,,,,space,0.479,,0,324,324,221,1,I, , , , ,space,2500,2.5,5a6b2c0d9d65ec00017e715e,001,2021-08-19_16h21.06.991,natb3,2021.2.3,Win32,144.0507058,5a6b2c0d9d65ec00017e715e,611e07ecdcc96256ae8d5b80,611e76d396703c86488f228a,
,,,,space,0.4034,,0,325,325,105,1,R, , , , ,space,2500,2.5,5a6b2c0d9d65ec00017e715e,001,2021-08-19_16h21.06.991,natb3,2021.2.3,Win32,144.0507058,5a6b2c0d9d65ec00017e715e,611e07ecdcc96256ae8d5b80,611e76d396703c86488f228a,
,,,,space,0.4385,,0,326,326,144,1,Q, , , , ,space,2500,2.5,5a6b2c0d9d65ec00017e715e,001,2021-08-19_16h21.06.991,natb3,2021.2.3,Win32,144.0507058,5a6b2c0d9d65ec00017e715e,611e07ecdcc96256ae8d5b80,611e76d396703c86488f228a,
,,,,space,0.5992,,0,327,327,316,1,Z, , , , ,space,1500,1.5,5a6b2c0d9d65ec00017e715e,001,2021-08-19_16h21.06.991,natb3,2021.2.3,Win32,144.0507058,5a6b2c0d9d65ec00017e715e,611e07ecdcc96256ae8d5b80,611e76d396703c86488f228a,
,,,,space,0.5594,,0,328,328,197,1,G, , , , ,space,2500,2.5,5a6b2c0d9d65ec00017e715e,001,2021-08-19_16h21.06.991,natb3,2021.2.3,Win32,144.0507058,5a6b2c0d9d65ec00017e715e,611e07ecdcc96256ae8d5b80,611e76d396703c86488f228a,
,,,,space,0.4444,,0,329,329,147,1,E, , , , ,space,2000,2,5a6b2c0d9d65ec00017e715e,001,2021-08-19_16h21.06.991,natb3,2021.2.3,Win32,144.0507058,5a6b2c0d9d65ec00017e715e,611e07ecdcc96256ae8d5b80,611e76d396703c86488f228a,
,,,,space,0.4721,,0,330,330,9,1,I, , , , ,space,1500,1.5,5a6b2c0d9d65ec00017e715e,001,2021-08-19_16h21.06.991,natb3,2021.2.3,Win32,144.0507058,5a6b2c0d9d65ec00017e715e,611e07ecdcc96256ae8d5b80,611e76d396703c86488f228a,
,,,,space,0.4027,,0,331,331,245,1,K, , , , ,space,2000,2,5a6b2c0d9d65ec00017e715e,001,2021-08-19_16h21.06.991,natb3,2021.2.3,Win32,144.0507058,5a6b2c0d9d65ec00017e715e,611e07ecdcc96256ae8d5b80,611e76d396703c86488f228a,
,,,,,,,0,332,332,211,1,X, , , , ,,2500,2.5,5a6b2c0d9d65ec00017e715e,001,2021-08-19_16h21.06.991,natb3,2021.2.3,Win32,144.0507058,5a6b2c0d9d65ec00017e715e,611e07ecdcc96256ae8d5b80,611e76d396703c86488f228a,
,,,,space,0.4933,,0,333,333,20,1,H, , , , ,space,1500,1.5,5a6b2c0d9d65ec00017e715e,001,2021-08-19_16h21.06.991,natb3,2021.2.3,Win32,144.0507058,5a6b2c0d9d65ec00017e715e,611e07ecdcc96256ae8d5b80,611e76d396703c86488f228a,
,,,,space,0.3574,,0,334,334,44,1,I, , , , ,space,2500,2.5,5a6b2c0d9d65ec00017e715e,001,2021-08-19_16h21.06.991,natb3,2021.2.3,Win32,144.0507058,5a6b2c0d9d65ec00017e715e,611e07ecdcc96256ae8d5b80,611e76d396703c86488f228a,
,,,,,,,0,335,335,84,1,X, , , , ,,2000,2,5a6b2c0d9d65ec00017e715e,001,2021-08-19_16h21.06.991,natb3,2021.2.3,Win32,144.0507058,5a6b2c0d9d65ec00017e715e,611e07ecdcc96256ae8d5b80,611e76d396703c86488f228a,
