key_resp_2.keys,key_resp_2.rt,key_resp_3.keys,key_resp_3.rt,key_resp.keys,key_resp_4.keys,trials.thisRepN,trials.thisTrialN,trials.thisN,trials.thisIndex,trials.ran,stimulus,distractor1,distractor2,distractor3,distractor4,CorrAns,isi_duration,isi_dur_in_seconds,participant,session,date,expName,psychopyVersion,OS,frameRate,PROLIFIC_PID,STUDY_ID,SESSION_ID,key_resp.rt,key_resp_4.rt
return,18.532,space,56.044,,,0,0,0,33,1,X, , , , ,,1500,1.5,5b688d2bca518a0001c7b442,001,2021-08-19_16h01.17.530,natb3,2021.2.3,Win32,60.0240096,5b688d2bca518a0001c7b442,611e07ecdcc96256ae8d5b80,611e72269b834f7b57b69fc1,,
,,,,space,,0,1,1,177,1,M, , , , ,space,2500,2.5,5b688d2bca518a0001c7b442,001,2021-08-19_16h01.17.530,natb3,2021.2.3,Win32,60.0240096,5b688d2bca518a0001c7b442,611e07ecdcc96256ae8d5b80,611e72269b834f7b57b69fc1,0.527,
,,,,space,,0,2,2,152,1,U, , , , ,space,2000,2,5b688d2bca518a0001c7b442,001,2021-08-19_16h01.17.530,natb3,2021.2.3,Win32,60.0240096,5b688d2bca518a0001c7b442,611e07ecdcc96256ae8d5b80,611e72269b834f7b57b69fc1,0.368,
,,,,space,,0,3,3,62,1,V, , , , ,space,1500,1.5,5b688d2bca518a0001c7b442,001,2021-08-19_16h01.17.530,natb3,2021.2.3,Win32,60.0240096,5b688d2bca518a0001c7b442,611e07ecdcc96256ae8d5b80,611e72269b834f7b57b69fc1,0.333,
,,,,space,,0,4,4,195,1,X, , , , ,,1500,1.5,5b688d2bca518a0001c7b442,001,2021-08-19_16h01.17.530,natb3,2021.2.3,Win32,60.0240096,5b688d2bca518a0001c7b442,611e07ecdcc96256ae8d5b80,611e72269b834f7b57b69fc1,0.312,
,,,,space,,0,5,5,238,1,D, , , , ,space,1500,1.5,5b688d2bca518a0001c7b442,001,2021-08-19_16h01.17.530,natb3,2021.2.3,Win32,60.0240096,5b688d2bca518a0001c7b442,611e07ecdcc96256ae8d5b80,611e72269b834f7b57b69fc1,0.404,
,,,,space,,0,6,6,298,1,I, , , , ,space,2000,2,5b688d2bca518a0001c7b442,001,2021-08-19_16h01.17.530,natb3,2021.2.3,Win32,60.0240096,5b688d2bca518a0001c7b442,611e07ecdcc96256ae8d5b80,611e72269b834f7b57b69fc1,0.443,
,,,,,,0,7,7,116,1,X, , , , ,,2000,2,5b688d2bca518a0001c7b442,001,2021-08-19_16h01.17.530,natb3,2021.2.3,Win32,60.0240096,5b688d2bca518a0001c7b442,611e07ecdcc96256ae8d5b80,611e72269b834f7b57b69fc1,,
,,,,,,0,8,8,162,1,X,1,6, ,2,,1500,1.5,5b688d2bca518a0001c7b442,001,2021-08-19_16h01.17.530,natb3,2021.2.3,Win32,60.0240096,5b688d2bca518a0001c7b442,611e07ecdcc96256ae8d5b80,611e72269b834f7b57b69fc1,,
,,,,,,0,9,9,277,1,X,8,5, ,2,,2000,2,5b688d2bca518a0001c7b442,001,2021-08-19_16h01.17.530,natb3,2021.2.3,Win32,60.0240096,5b688d2bca518a0001c7b442,611e07ecdcc96256ae8d5b80,611e72269b834f7b57b69fc1,,
,,,,space,,0,10,10,17,1,F, , , , ,space,2500,2.5,5b688d2bca518a0001c7b442,001,2021-08-19_16h01.17.530,natb3,2021.2.3,Win32,60.0240096,5b688d2bca518a0001c7b442,611e07ecdcc96256ae8d5b80,611e72269b834f7b57b69fc1,0.422,
,,,,,,0,11,11,200,1,X,7, ,5,3,,1500,1.5,5b688d2bca518a0001c7b442,001,2021-08-19_16h01.17.530,natb3,2021.2.3,Win32,60.0240096,5b688d2bca518a0001c7b442,611e07ecdcc96256ae8d5b80,611e72269b834f7b57b69fc1,,
,,,,space,,0,12,12,220,1,U, , , , ,space,2500,2.5,5b688d2bca518a0001c7b442,001,2021-08-19_16h01.17.530,natb3,2021.2.3,Win32,60.0240096,5b688d2bca518a0001c7b442,611e07ecdcc96256ae8d5b80,611e72269b834f7b57b69fc1,0.455,
,,,,,,0,13,13,329,1,X,3,4, ,2,,2500,2.5,5b688d2bca518a0001c7b442,001,2021-08-19_16h01.17.530,natb3,2021.2.3,Win32,60.0240096,5b688d2bca518a0001c7b442,611e07ecdcc96256ae8d5b80,611e72269b834f7b57b69fc1,,
,,,,space,,0,14,14,276,1,H, , , , ,space,2000,2,5b688d2bca518a0001c7b442,001,2021-08-19_16h01.17.530,natb3,2021.2.3,Win32,60.0240096,5b688d2bca518a0001c7b442,611e07ecdcc96256ae8d5b80,611e72269b834f7b57b69fc1,0.39,
,,,,,,0,15,15,252,1,X,3, ,6,9,,2000,2,5b688d2bca518a0001c7b442,001,2021-08-19_16h01.17.530,natb3,2021.2.3,Win32,60.0240096,5b688d2bca518a0001c7b442,611e07ecdcc96256ae8d5b80,611e72269b834f7b57b69fc1,,
,,,,space,,0,16,16,0,1,Q, , , , ,space,1500,1.5,5b688d2bca518a0001c7b442,001,2021-08-19_16h01.17.530,natb3,2021.2.3,Win32,60.0240096,5b688d2bca518a0001c7b442,611e07ecdcc96256ae8d5b80,611e72269b834f7b57b69fc1,0.504,
,,,,space,,0,17,17,237,1,S, , , , ,space,1500,1.5,5b688d2bca518a0001c7b442,001,2021-08-19_16h01.17.530,natb3,2021.2.3,Win32,60.0240096,5b688d2bca518a0001c7b442,611e07ecdcc96256ae8d5b80,611e72269b834f7b57b69fc1,0.462,
,,,,space,,0,18,18,1,1,W, , , , ,space,2000,2,5b688d2bca518a0001c7b442,001,2021-08-19_16h01.17.530,natb3,2021.2.3,Win32,60.0240096,5b688d2bca518a0001c7b442,611e07ecdcc96256ae8d5b80,611e72269b834f7b57b69fc1,0.475,
,,,,space,,0,19,19,228,1,Y, , , , ,space,2000,2,5b688d2bca518a0001c7b442,001,2021-08-19_16h01.17.530,natb3,2021.2.3,Win32,60.0240096,5b688d2bca518a0001c7b442,611e07ecdcc96256ae8d5b80,611e72269b834f7b57b69fc1,0.466,
,,,,space,,0,20,20,24,1,L, , , , ,space,2500,2.5,5b688d2bca518a0001c7b442,001,2021-08-19_16h01.17.530,natb3,2021.2.3,Win32,60.0240096,5b688d2bca518a0001c7b442,611e07ecdcc96256ae8d5b80,611e72269b834f7b57b69fc1,0.442,
,,,,space,,0,21,21,156,1,P, , , , ,space,1500,1.5,5b688d2bca518a0001c7b442,001,2021-08-19_16h01.17.530,natb3,2021.2.3,Win32,60.0240096,5b688d2bca518a0001c7b442,611e07ecdcc96256ae8d5b80,611e72269b834f7b57b69fc1,0.536,
,,,,space,,0,22,22,320,1,B, , , , ,space,1500,1.5,5b688d2bca518a0001c7b442,001,2021-08-19_16h01.17.530,natb3,2021.2.3,Win32,60.0240096,5b688d2bca518a0001c7b442,611e07ecdcc96256ae8d5b80,611e72269b834f7b57b69fc1,0.412,
,,,,space,,0,23,23,161,1,F, , , , ,space,1500,1.5,5b688d2bca518a0001c7b442,001,2021-08-19_16h01.17.530,natb3,2021.2.3,Win32,60.0240096,5b688d2bca518a0001c7b442,611e07ecdcc96256ae8d5b80,611e72269b834f7b57b69fc1,0.387,
,,,,space,,0,24,24,143,1,M, , , , ,space,2500,2.5,5b688d2bca518a0001c7b442,001,2021-08-19_16h01.17.530,natb3,2021.2.3,Win32,60.0240096,5b688d2bca518a0001c7b442,611e07ecdcc96256ae8d5b80,611e72269b834f7b57b69fc1,0.422,
,,,,space,,0,25,25,173,1,V, , , , ,space,1500,1.5,5b688d2bca518a0001c7b442,001,2021-08-19_16h01.17.530,natb3,2021.2.3,Win32,60.0240096,5b688d2bca518a0001c7b442,611e07ecdcc96256ae8d5b80,611e72269b834f7b57b69fc1,0.371,
,,,,space,,0,26,26,86,1,G, , , , ,space,2000,2,5b688d2bca518a0001c7b442,001,2021-08-19_16h01.17.530,natb3,2021.2.3,Win32,60.0240096,5b688d2bca518a0001c7b442,611e07ecdcc96256ae8d5b80,611e72269b834f7b57b69fc1,0.398,
,,,,space,,0,27,27,115,1,R, , , , ,space,1500,1.5,5b688d2bca518a0001c7b442,001,2021-08-19_16h01.17.530,natb3,2021.2.3,Win32,60.0240096,5b688d2bca518a0001c7b442,611e07ecdcc96256ae8d5b80,611e72269b834f7b57b69fc1,0.412,
,,,,,,0,28,28,158,1,X, , , , ,,1500,1.5,5b688d2bca518a0001c7b442,001,2021-08-19_16h01.17.530,natb3,2021.2.3,Win32,60.0240096,5b688d2bca518a0001c7b442,611e07ecdcc96256ae8d5b80,611e72269b834f7b57b69fc1,,
,,,,space,,0,29,29,192,1,A, , , , ,space,2000,2,5b688d2bca518a0001c7b442,001,2021-08-19_16h01.17.530,natb3,2021.2.3,Win32,60.0240096,5b688d2bca518a0001c7b442,611e07ecdcc96256ae8d5b80,611e72269b834f7b57b69fc1,0.425,
,,,,space,,0,30,30,324,1,Q, , , , ,space,2000,2,5b688d2bca518a0001c7b442,001,2021-08-19_16h01.17.530,natb3,2021.2.3,Win32,60.0240096,5b688d2bca518a0001c7b442,611e07ecdcc96256ae8d5b80,611e72269b834f7b57b69fc1,0.412,
,,,,,,0,31,31,4,1,X, , , , ,,2000,2,5b688d2bca518a0001c7b442,001,2021-08-19_16h01.17.530,natb3,2021.2.3,Win32,60.0240096,5b688d2bca518a0001c7b442,611e07ecdcc96256ae8d5b80,611e72269b834f7b57b69fc1,,
,,,,space,,0,32,32,120,1,U, , , , ,space,1500,1.5,5b688d2bca518a0001c7b442,001,2021-08-19_16h01.17.530,natb3,2021.2.3,Win32,60.0240096,5b688d2bca518a0001c7b442,611e07ecdcc96256ae8d5b80,611e72269b834f7b57b69fc1,0.452,
,,,,space,,0,33,33,146,1,W, , , , ,space,1500,1.5,5b688d2bca518a0001c7b442,001,2021-08-19_16h01.17.530,natb3,2021.2.3,Win32,60.0240096,5b688d2bca518a0001c7b442,611e07ecdcc96256ae8d5b80,611e72269b834f7b57b69fc1,0.538,
,,,,,,0,34,34,43,1,X, ,6, ,2,,2500,2.5,5b688d2bca518a0001c7b442,001,2021-08-19_16h01.17.530,natb3,2021.2.3,Win32,60.0240096,5b688d2bca518a0001c7b442,611e07ecdcc96256ae8d5b80,611e72269b834f7b57b69fc1,,
,,,,space,,0,35,35,36,1,W, , , , ,space,2000,2,5b688d2bca518a0001c7b442,001,2021-08-19_16h01.17.530,natb3,2021.2.3,Win32,60.0240096,5b688d2bca518a0001c7b442,611e07ecdcc96256ae8d5b80,611e72269b834f7b57b69fc1,0.443,
,,,,space,,0,36,36,160,1,D, , , , ,space,1500,1.5,5b688d2bca518a0001c7b442,001,2021-08-19_16h01.17.530,natb3,2021.2.3,Win32,60.0240096,5b688d2bca518a0001c7b442,611e07ecdcc96256ae8d5b80,611e72269b834f7b57b69fc1,0.389,
,,,,space,,0,37,37,332,1,U, , , , ,space,2000,2,5b688d2bca518a0001c7b442,001,2021-08-19_16h01.17.530,natb3,2021.2.3,Win32,60.0240096,5b688d2bca518a0001c7b442,611e07ecdcc96256ae8d5b80,611e72269b834f7b57b69fc1,0.392,
,,,,,,0,38,38,141,1,X,1, ,4,6,,1500,1.5,5b688d2bca518a0001c7b442,001,2021-08-19_16h01.17.530,natb3,2021.2.3,Win32,60.0240096,5b688d2bca518a0001c7b442,611e07ecdcc96256ae8d5b80,611e72269b834f7b57b69fc1,,
,,,,space,,0,39,39,21,1,J, , , , ,space,1500,1.5,5b688d2bca518a0001c7b442,001,2021-08-19_16h01.17.530,natb3,2021.2.3,Win32,60.0240096,5b688d2bca518a0001c7b442,611e07ecdcc96256ae8d5b80,611e72269b834f7b57b69fc1,0.482,
,,,,space,,0,40,40,79,1,P, , , , ,space,2000,2,5b688d2bca518a0001c7b442,001,2021-08-19_16h01.17.530,natb3,2021.2.3,Win32,60.0240096,5b688d2bca518a0001c7b442,611e07ecdcc96256ae8d5b80,611e72269b834f7b57b69fc1,0.495,
,,,,space,,0,41,41,296,1,Y, , , , ,space,2500,2.5,5b688d2bca518a0001c7b442,001,2021-08-19_16h01.17.530,natb3,2021.2.3,Win32,60.0240096,5b688d2bca518a0001c7b442,611e07ecdcc96256ae8d5b80,611e72269b834f7b57b69fc1,0.37,
,,,,space,,0,42,42,314,1,L, , , , ,space,1500,1.5,5b688d2bca518a0001c7b442,001,2021-08-19_16h01.17.530,natb3,2021.2.3,Win32,60.0240096,5b688d2bca518a0001c7b442,611e07ecdcc96256ae8d5b80,611e72269b834f7b57b69fc1,0.47,
,,,,space,,0,43,43,109,1,U, , , , ,space,1500,1.5,5b688d2bca518a0001c7b442,001,2021-08-19_16h01.17.530,natb3,2021.2.3,Win32,60.0240096,5b688d2bca518a0001c7b442,611e07ecdcc96256ae8d5b80,611e72269b834f7b57b69fc1,0.37,
,,,,space,,0,44,44,165,1,J, , , , ,space,2500,2.5,5b688d2bca518a0001c7b442,001,2021-08-19_16h01.17.530,natb3,2021.2.3,Win32,60.0240096,5b688d2bca518a0001c7b442,611e07ecdcc96256ae8d5b80,611e72269b834f7b57b69fc1,0.446,
,,,,space,,0,45,45,49,1,S, , , , ,space,1500,1.5,5b688d2bca518a0001c7b442,001,2021-08-19_16h01.17.530,natb3,2021.2.3,Win32,60.0240096,5b688d2bca518a0001c7b442,611e07ecdcc96256ae8d5b80,611e72269b834f7b57b69fc1,0.437,
,,,,space,,0,46,46,169,1,L, , , , ,space,2500,2.5,5b688d2bca518a0001c7b442,001,2021-08-19_16h01.17.530,natb3,2021.2.3,Win32,60.0240096,5b688d2bca518a0001c7b442,611e07ecdcc96256ae8d5b80,611e72269b834f7b57b69fc1,0.385,
,,,,space,,0,47,47,20,1,H, , , , ,space,1500,1.5,5b688d2bca518a0001c7b442,001,2021-08-19_16h01.17.530,natb3,2021.2.3,Win32,60.0240096,5b688d2bca518a0001c7b442,611e07ecdcc96256ae8d5b80,611e72269b834f7b57b69fc1,0.454,
,,,,,,0,48,48,23,1,X,1, ,5, ,,2000,2,5b688d2bca518a0001c7b442,001,2021-08-19_16h01.17.530,natb3,2021.2.3,Win32,60.0240096,5b688d2bca518a0001c7b442,611e07ecdcc96256ae8d5b80,611e72269b834f7b57b69fc1,,
,,,,space,,0,49,49,2,1,E, , , , ,space,2500,2.5,5b688d2bca518a0001c7b442,001,2021-08-19_16h01.17.530,natb3,2021.2.3,Win32,60.0240096,5b688d2bca518a0001c7b442,611e07ecdcc96256ae8d5b80,611e72269b834f7b57b69fc1,0.468,
,,,,space,,0,50,50,97,1,B, , , , ,space,2500,2.5,5b688d2bca518a0001c7b442,001,2021-08-19_16h01.17.530,natb3,2021.2.3,Win32,60.0240096,5b688d2bca518a0001c7b442,611e07ecdcc96256ae8d5b80,611e72269b834f7b57b69fc1,0.506,
,,,,space,,0,51,51,5,1,T, , , , ,space,2000,2,5b688d2bca518a0001c7b442,001,2021-08-19_16h01.17.530,natb3,2021.2.3,Win32,60.0240096,5b688d2bca518a0001c7b442,611e07ecdcc96256ae8d5b80,611e72269b834f7b57b69fc1,0.502,
,,,,space,,0,52,52,117,1,T, , , , ,space,2500,2.5,5b688d2bca518a0001c7b442,001,2021-08-19_16h01.17.530,natb3,2021.2.3,Win32,60.0240096,5b688d2bca518a0001c7b442,611e07ecdcc96256ae8d5b80,611e72269b834f7b57b69fc1,0.433,
,,,,space,,0,53,53,94,1,C, , , , ,space,2000,2,5b688d2bca518a0001c7b442,001,2021-08-19_16h01.17.530,natb3,2021.2.3,Win32,60.0240096,5b688d2bca518a0001c7b442,611e07ecdcc96256ae8d5b80,611e72269b834f7b57b69fc1,0.449,
,,,,space,,0,54,54,197,1,G, , , , ,space,2500,2.5,5b688d2bca518a0001c7b442,001,2021-08-19_16h01.17.530,natb3,2021.2.3,Win32,60.0240096,5b688d2bca518a0001c7b442,611e07ecdcc96256ae8d5b80,611e72269b834f7b57b69fc1,0.401,
,,,,,,0,55,55,102,1,X, ,6, , ,,1500,1.5,5b688d2bca518a0001c7b442,001,2021-08-19_16h01.17.530,natb3,2021.2.3,Win32,60.0240096,5b688d2bca518a0001c7b442,611e07ecdcc96256ae8d5b80,611e72269b834f7b57b69fc1,,
,,,,space,,0,56,56,8,1,U, , , , ,space,1500,1.5,5b688d2bca518a0001c7b442,001,2021-08-19_16h01.17.530,natb3,2021.2.3,Win32,60.0240096,5b688d2bca518a0001c7b442,611e07ecdcc96256ae8d5b80,611e72269b834f7b57b69fc1,0.429,
,,,,space,,0,57,57,215,1,E, , , , ,space,2500,2.5,5b688d2bca518a0001c7b442,001,2021-08-19_16h01.17.530,natb3,2021.2.3,Win32,60.0240096,5b688d2bca518a0001c7b442,611e07ecdcc96256ae8d5b80,611e72269b834f7b57b69fc1,0.395,
,,,,space,,0,58,58,216,1,R, , , , ,space,1500,1.5,5b688d2bca518a0001c7b442,001,2021-08-19_16h01.17.530,natb3,2021.2.3,Win32,60.0240096,5b688d2bca518a0001c7b442,611e07ecdcc96256ae8d5b80,611e72269b834f7b57b69fc1,0.418,
,,,,,,0,59,59,69,1,X, , , , ,,1500,1.5,5b688d2bca518a0001c7b442,001,2021-08-19_16h01.17.530,natb3,2021.2.3,Win32,60.0240096,5b688d2bca518a0001c7b442,611e07ecdcc96256ae8d5b80,611e72269b834f7b57b69fc1,,
,,,,space,,0,60,60,137,1,C, , , , ,space,2500,2.5,5b688d2bca518a0001c7b442,001,2021-08-19_16h01.17.530,natb3,2021.2.3,Win32,60.0240096,5b688d2bca518a0001c7b442,611e07ecdcc96256ae8d5b80,611e72269b834f7b57b69fc1,0.655,
,,,,space,,0,61,61,266,1,O, , , , ,space,1500,1.5,5b688d2bca518a0001c7b442,001,2021-08-19_16h01.17.530,natb3,2021.2.3,Win32,60.0240096,5b688d2bca518a0001c7b442,611e07ecdcc96256ae8d5b80,611e72269b834f7b57b69fc1,0.413,
,,,,space,,0,62,62,106,1,T, , , , ,space,1500,1.5,5b688d2bca518a0001c7b442,001,2021-08-19_16h01.17.530,natb3,2021.2.3,Win32,60.0240096,5b688d2bca518a0001c7b442,611e07ecdcc96256ae8d5b80,611e72269b834f7b57b69fc1,0.519,
,,,,space,,0,63,63,285,1,B, , , , ,space,1500,1.5,5b688d2bca518a0001c7b442,001,2021-08-19_16h01.17.530,natb3,2021.2.3,Win32,60.0240096,5b688d2bca518a0001c7b442,611e07ecdcc96256ae8d5b80,611e72269b834f7b57b69fc1,0.454,
,,,,space,,0,64,64,48,1,A, , , , ,space,2500,2.5,5b688d2bca518a0001c7b442,001,2021-08-19_16h01.17.530,natb3,2021.2.3,Win32,60.0240096,5b688d2bca518a0001c7b442,611e07ecdcc96256ae8d5b80,611e72269b834f7b57b69fc1,0.425,
,,,,space,,0,65,65,280,1,L, , , , ,space,1500,1.5,5b688d2bca518a0001c7b442,001,2021-08-19_16h01.17.530,natb3,2021.2.3,Win32,60.0240096,5b688d2bca518a0001c7b442,611e07ecdcc96256ae8d5b80,611e72269b834f7b57b69fc1,0.43,
,,,,space,,0,66,66,76,1,I, , , , ,space,2000,2,5b688d2bca518a0001c7b442,001,2021-08-19_16h01.17.530,natb3,2021.2.3,Win32,60.0240096,5b688d2bca518a0001c7b442,611e07ecdcc96256ae8d5b80,611e72269b834f7b57b69fc1,0.412,
,,,,space,,0,67,67,52,1,F, , , , ,space,1500,1.5,5b688d2bca518a0001c7b442,001,2021-08-19_16h01.17.530,natb3,2021.2.3,Win32,60.0240096,5b688d2bca518a0001c7b442,611e07ecdcc96256ae8d5b80,611e72269b834f7b57b69fc1,0.654,
,,,,,,0,68,68,35,1,X, , , , ,,2500,2.5,5b688d2bca518a0001c7b442,001,2021-08-19_16h01.17.530,natb3,2021.2.3,Win32,60.0240096,5b688d2bca518a0001c7b442,611e07ecdcc96256ae8d5b80,611e72269b834f7b57b69fc1,,
,,,,space,,0,69,69,113,1,W, , , , ,space,2500,2.5,5b688d2bca518a0001c7b442,001,2021-08-19_16h01.17.530,natb3,2021.2.3,Win32,60.0240096,5b688d2bca518a0001c7b442,611e07ecdcc96256ae8d5b80,611e72269b834f7b57b69fc1,0.588,
,,,,space,,0,70,70,198,1,H, , , , ,space,2500,2.5,5b688d2bca518a0001c7b442,001,2021-08-19_16h01.17.530,natb3,2021.2.3,Win32,60.0240096,5b688d2bca518a0001c7b442,611e07ecdcc96256ae8d5b80,611e72269b834f7b57b69fc1,0.374,
,,,,space,,0,71,71,131,1,G, , , , ,space,1500,1.5,5b688d2bca518a0001c7b442,001,2021-08-19_16h01.17.530,natb3,2021.2.3,Win32,60.0240096,5b688d2bca518a0001c7b442,611e07ecdcc96256ae8d5b80,611e72269b834f7b57b69fc1,0.438,
,,,,space,,0,72,72,214,1,W, , , , ,space,2000,2,5b688d2bca518a0001c7b442,001,2021-08-19_16h01.17.530,natb3,2021.2.3,Win32,60.0240096,5b688d2bca518a0001c7b442,611e07ecdcc96256ae8d5b80,611e72269b834f7b57b69fc1,0.376,
,,,,space,,0,73,73,38,1,R, , , , ,space,2500,2.5,5b688d2bca518a0001c7b442,001,2021-08-19_16h01.17.530,natb3,2021.2.3,Win32,60.0240096,5b688d2bca518a0001c7b442,611e07ecdcc96256ae8d5b80,611e72269b834f7b57b69fc1,0.433,
,,,,,,0,74,74,207,1,X,9, ,2, ,,2500,2.5,5b688d2bca518a0001c7b442,001,2021-08-19_16h01.17.530,natb3,2021.2.3,Win32,60.0240096,5b688d2bca518a0001c7b442,611e07ecdcc96256ae8d5b80,611e72269b834f7b57b69fc1,,
,,,,space,,0,75,75,212,1,Q, , , , ,space,2500,2.5,5b688d2bca518a0001c7b442,001,2021-08-19_16h01.17.530,natb3,2021.2.3,Win32,60.0240096,5b688d2bca518a0001c7b442,611e07ecdcc96256ae8d5b80,611e72269b834f7b57b69fc1,0.429,
,,,,space,,0,76,76,330,1,T, , , , ,space,2500,2.5,5b688d2bca518a0001c7b442,001,2021-08-19_16h01.17.530,natb3,2021.2.3,Win32,60.0240096,5b688d2bca518a0001c7b442,611e07ecdcc96256ae8d5b80,611e72269b834f7b57b69fc1,0.37,
,,,,,,0,77,77,31,1,X, , , , ,,1500,1.5,5b688d2bca518a0001c7b442,001,2021-08-19_16h01.17.530,natb3,2021.2.3,Win32,60.0240096,5b688d2bca518a0001c7b442,611e07ecdcc96256ae8d5b80,611e72269b834f7b57b69fc1,,
,,,,space,,0,78,78,87,1,H, , , , ,space,1500,1.5,5b688d2bca518a0001c7b442,001,2021-08-19_16h01.17.530,natb3,2021.2.3,Win32,60.0240096,5b688d2bca518a0001c7b442,611e07ecdcc96256ae8d5b80,611e72269b834f7b57b69fc1,0.531,
,,,,space,,0,79,79,149,1,R, , , , ,space,2000,2,5b688d2bca518a0001c7b442,001,2021-08-19_16h01.17.530,natb3,2021.2.3,Win32,60.0240096,5b688d2bca518a0001c7b442,611e07ecdcc96256ae8d5b80,611e72269b834f7b57b69fc1,0.679,
,,,,space,,0,80,80,73,1,Y, , , , ,space,2000,2,5b688d2bca518a0001c7b442,001,2021-08-19_16h01.17.530,natb3,2021.2.3,Win32,60.0240096,5b688d2bca518a0001c7b442,611e07ecdcc96256ae8d5b80,611e72269b834f7b57b69fc1,0.873,
,,,,,,0,81,81,133,1,X, ,4, ,6,,2500,2.5,5b688d2bca518a0001c7b442,001,2021-08-19_16h01.17.530,natb3,2021.2.3,Win32,60.0240096,5b688d2bca518a0001c7b442,611e07ecdcc96256ae8d5b80,611e72269b834f7b57b69fc1,,
,,,,,,0,82,82,22,1,K, , , , ,space,2000,2,5b688d2bca518a0001c7b442,001,2021-08-19_16h01.17.530,natb3,2021.2.3,Win32,60.0240096,5b688d2bca518a0001c7b442,611e07ecdcc96256ae8d5b80,611e72269b834f7b57b69fc1,,
,,,,space,,0,83,83,83,1,D, , , , ,space,2000,2,5b688d2bca518a0001c7b442,001,2021-08-19_16h01.17.530,natb3,2021.2.3,Win32,60.0240096,5b688d2bca518a0001c7b442,611e07ecdcc96256ae8d5b80,611e72269b834f7b57b69fc1,0.432,
,,,,,,0,84,84,168,1,X, , , , ,,2500,2.5,5b688d2bca518a0001c7b442,001,2021-08-19_16h01.17.530,natb3,2021.2.3,Win32,60.0240096,5b688d2bca518a0001c7b442,611e07ecdcc96256ae8d5b80,611e72269b834f7b57b69fc1,,
,,,,space,,0,85,85,202,1,L, , , , ,space,2500,2.5,5b688d2bca518a0001c7b442,001,2021-08-19_16h01.17.530,natb3,2021.2.3,Win32,60.0240096,5b688d2bca518a0001c7b442,611e07ecdcc96256ae8d5b80,611e72269b834f7b57b69fc1,0.452,
,,,,space,,0,86,86,230,1,U, , , , ,space,1500,1.5,5b688d2bca518a0001c7b442,001,2021-08-19_16h01.17.530,natb3,2021.2.3,Win32,60.0240096,5b688d2bca518a0001c7b442,611e07ecdcc96256ae8d5b80,611e72269b834f7b57b69fc1,0.461,
,,,,,,0,87,87,96,1,X, , , , ,,1500,1.5,5b688d2bca518a0001c7b442,001,2021-08-19_16h01.17.530,natb3,2021.2.3,Win32,60.0240096,5b688d2bca518a0001c7b442,611e07ecdcc96256ae8d5b80,611e72269b834f7b57b69fc1,,
,,,,space,,0,88,88,101,1,Q, , , , ,space,2500,2.5,5b688d2bca518a0001c7b442,001,2021-08-19_16h01.17.530,natb3,2021.2.3,Win32,60.0240096,5b688d2bca518a0001c7b442,611e07ecdcc96256ae8d5b80,611e72269b834f7b57b69fc1,0.389,
,,,,,,0,89,89,233,1,X, ,2, ,5,,1500,1.5,5b688d2bca518a0001c7b442,001,2021-08-19_16h01.17.530,natb3,2021.2.3,Win32,60.0240096,5b688d2bca518a0001c7b442,611e07ecdcc96256ae8d5b80,611e72269b834f7b57b69fc1,,
,,,,space,,0,90,90,64,1,N, , , , ,space,2000,2,5b688d2bca518a0001c7b442,001,2021-08-19_16h01.17.530,natb3,2021.2.3,Win32,60.0240096,5b688d2bca518a0001c7b442,611e07ecdcc96256ae8d5b80,611e72269b834f7b57b69fc1,0.522,
,,,,,,0,91,91,7,1,X, , , , ,,1500,1.5,5b688d2bca518a0001c7b442,001,2021-08-19_16h01.17.530,natb3,2021.2.3,Win32,60.0240096,5b688d2bca518a0001c7b442,611e07ecdcc96256ae8d5b80,611e72269b834f7b57b69fc1,,
,,,,space,,0,92,92,11,1,P, , , , ,space,2500,2.5,5b688d2bca518a0001c7b442,001,2021-08-19_16h01.17.530,natb3,2021.2.3,Win32,60.0240096,5b688d2bca518a0001c7b442,611e07ecdcc96256ae8d5b80,611e72269b834f7b57b69fc1,0.459,
,,,,,,0,93,93,299,1,X, , , , ,,2500,2.5,5b688d2bca518a0001c7b442,001,2021-08-19_16h01.17.530,natb3,2021.2.3,Win32,60.0240096,5b688d2bca518a0001c7b442,611e07ecdcc96256ae8d5b80,611e72269b834f7b57b69fc1,,
,,,,space,,0,94,94,164,1,H, , , , ,space,2500,2.5,5b688d2bca518a0001c7b442,001,2021-08-19_16h01.17.530,natb3,2021.2.3,Win32,60.0240096,5b688d2bca518a0001c7b442,611e07ecdcc96256ae8d5b80,611e72269b834f7b57b69fc1,0.57,
,,,,,,0,95,95,259,1,X,8, , ,3,,2500,2.5,5b688d2bca518a0001c7b442,001,2021-08-19_16h01.17.530,natb3,2021.2.3,Win32,60.0240096,5b688d2bca518a0001c7b442,611e07ecdcc96256ae8d5b80,611e72269b834f7b57b69fc1,,
,,,,space,,0,96,96,68,1,W, , , , ,space,2500,2.5,5b688d2bca518a0001c7b442,001,2021-08-19_16h01.17.530,natb3,2021.2.3,Win32,60.0240096,5b688d2bca518a0001c7b442,611e07ecdcc96256ae8d5b80,611e72269b834f7b57b69fc1,0.548,
,,,,space,,0,97,97,312,1,K, , , , ,space,2000,2,5b688d2bca518a0001c7b442,001,2021-08-19_16h01.17.530,natb3,2021.2.3,Win32,60.0240096,5b688d2bca518a0001c7b442,611e07ecdcc96256ae8d5b80,611e72269b834f7b57b69fc1,0.56,
,,,,,,0,98,98,255,1,X, , , , ,,1500,1.5,5b688d2bca518a0001c7b442,001,2021-08-19_16h01.17.530,natb3,2021.2.3,Win32,60.0240096,5b688d2bca518a0001c7b442,611e07ecdcc96256ae8d5b80,611e72269b834f7b57b69fc1,,
,,,,,,0,99,99,12,1,X, , , , ,,1500,1.5,5b688d2bca518a0001c7b442,001,2021-08-19_16h01.17.530,natb3,2021.2.3,Win32,60.0240096,5b688d2bca518a0001c7b442,611e07ecdcc96256ae8d5b80,611e72269b834f7b57b69fc1,,
,,,,space,,0,100,100,50,1,D, , , , ,space,1500,1.5,5b688d2bca518a0001c7b442,001,2021-08-19_16h01.17.530,natb3,2021.2.3,Win32,60.0240096,5b688d2bca518a0001c7b442,611e07ecdcc96256ae8d5b80,611e72269b834f7b57b69fc1,0.406,
,,,,space,,0,101,101,32,1,M, , , , ,space,1500,1.5,5b688d2bca518a0001c7b442,001,2021-08-19_16h01.17.530,natb3,2021.2.3,Win32,60.0240096,5b688d2bca518a0001c7b442,611e07ecdcc96256ae8d5b80,611e72269b834f7b57b69fc1,0.353,
,,,,space,,0,102,102,55,1,H, , , , ,space,2500,2.5,5b688d2bca518a0001c7b442,001,2021-08-19_16h01.17.530,natb3,2021.2.3,Win32,60.0240096,5b688d2bca518a0001c7b442,611e07ecdcc96256ae8d5b80,611e72269b834f7b57b69fc1,0.466,
,,,,space,,0,103,103,178,1,Q, , , , ,space,1500,1.5,5b688d2bca518a0001c7b442,001,2021-08-19_16h01.17.530,natb3,2021.2.3,Win32,60.0240096,5b688d2bca518a0001c7b442,611e07ecdcc96256ae8d5b80,611e72269b834f7b57b69fc1,0.465,
,,,,space,,0,104,104,41,1,Y, , , , ,space,2500,2.5,5b688d2bca518a0001c7b442,001,2021-08-19_16h01.17.530,natb3,2021.2.3,Win32,60.0240096,5b688d2bca518a0001c7b442,611e07ecdcc96256ae8d5b80,611e72269b834f7b57b69fc1,0.48,
,,,,space,,0,105,105,185,1,Y, , , , ,space,2500,2.5,5b688d2bca518a0001c7b442,001,2021-08-19_16h01.17.530,natb3,2021.2.3,Win32,60.0240096,5b688d2bca518a0001c7b442,611e07ecdcc96256ae8d5b80,611e72269b834f7b57b69fc1,0.408,
,,,,space,,0,106,106,286,1,N, , , , ,space,1500,1.5,5b688d2bca518a0001c7b442,001,2021-08-19_16h01.17.530,natb3,2021.2.3,Win32,60.0240096,5b688d2bca518a0001c7b442,611e07ecdcc96256ae8d5b80,611e72269b834f7b57b69fc1,0.48,
,,,,space,,0,107,107,103,1,W, , , , ,space,2000,2,5b688d2bca518a0001c7b442,001,2021-08-19_16h01.17.530,natb3,2021.2.3,Win32,60.0240096,5b688d2bca518a0001c7b442,611e07ecdcc96256ae8d5b80,611e72269b834f7b57b69fc1,0.44,
,,,,space,,0,108,108,190,1,P, , , , ,space,2000,2,5b688d2bca518a0001c7b442,001,2021-08-19_16h01.17.530,natb3,2021.2.3,Win32,60.0240096,5b688d2bca518a0001c7b442,611e07ecdcc96256ae8d5b80,611e72269b834f7b57b69fc1,0.485,
,,,,,,0,109,109,315,1,X, , , , ,,2500,2.5,5b688d2bca518a0001c7b442,001,2021-08-19_16h01.17.530,natb3,2021.2.3,Win32,60.0240096,5b688d2bca518a0001c7b442,611e07ecdcc96256ae8d5b80,611e72269b834f7b57b69fc1,,
,,,,space,,0,110,110,262,1,Y, , , , ,space,2500,2.5,5b688d2bca518a0001c7b442,001,2021-08-19_16h01.17.530,natb3,2021.2.3,Win32,60.0240096,5b688d2bca518a0001c7b442,611e07ecdcc96256ae8d5b80,611e72269b834f7b57b69fc1,0.466,
,,,,,,0,111,111,318,1,X, , , , ,,1500,1.5,5b688d2bca518a0001c7b442,001,2021-08-19_16h01.17.530,natb3,2021.2.3,Win32,60.0240096,5b688d2bca518a0001c7b442,611e07ecdcc96256ae8d5b80,611e72269b834f7b57b69fc1,,
,,,,,,0,112,112,325,1,X, , , , ,,2500,2.5,5b688d2bca518a0001c7b442,001,2021-08-19_16h01.17.530,natb3,2021.2.3,Win32,60.0240096,5b688d2bca518a0001c7b442,611e07ecdcc96256ae8d5b80,611e72269b834f7b57b69fc1,,
,,,,space,,0,113,113,45,1,O, , , , ,space,2000,2,5b688d2bca518a0001c7b442,001,2021-08-19_16h01.17.530,natb3,2021.2.3,Win32,60.0240096,5b688d2bca518a0001c7b442,611e07ecdcc96256ae8d5b80,611e72269b834f7b57b69fc1,0.531,
,,,,space,,0,114,114,321,1,N, , , , ,space,2000,2,5b688d2bca518a0001c7b442,001,2021-08-19_16h01.17.530,natb3,2021.2.3,Win32,60.0240096,5b688d2bca518a0001c7b442,611e07ecdcc96256ae8d5b80,611e72269b834f7b57b69fc1,0.577,
,,,,,,0,115,115,171,1,X, , , , ,,1500,1.5,5b688d2bca518a0001c7b442,001,2021-08-19_16h01.17.530,natb3,2021.2.3,Win32,60.0240096,5b688d2bca518a0001c7b442,611e07ecdcc96256ae8d5b80,611e72269b834f7b57b69fc1,,
,,,,,,0,116,116,248,1,X, ,1,5, ,,1500,1.5,5b688d2bca518a0001c7b442,001,2021-08-19_16h01.17.530,natb3,2021.2.3,Win32,60.0240096,5b688d2bca518a0001c7b442,611e07ecdcc96256ae8d5b80,611e72269b834f7b57b69fc1,,
,,,,space,,0,117,117,167,1,K, , , , ,space,1500,1.5,5b688d2bca518a0001c7b442,001,2021-08-19_16h01.17.530,natb3,2021.2.3,Win32,60.0240096,5b688d2bca518a0001c7b442,611e07ecdcc96256ae8d5b80,611e72269b834f7b57b69fc1,0.472,
,,,,space,,0,118,118,127,1,S, , , , ,space,2500,2.5,5b688d2bca518a0001c7b442,001,2021-08-19_16h01.17.530,natb3,2021.2.3,Win32,60.0240096,5b688d2bca518a0001c7b442,611e07ecdcc96256ae8d5b80,611e72269b834f7b57b69fc1,0.442,
,,,,,,0,119,119,39,1,X,6,2, , ,,1500,1.5,5b688d2bca518a0001c7b442,001,2021-08-19_16h01.17.530,natb3,2021.2.3,Win32,60.0240096,5b688d2bca518a0001c7b442,611e07ecdcc96256ae8d5b80,611e72269b834f7b57b69fc1,,
,,,,space,,0,120,120,303,1,A, , , , ,space,2000,2,5b688d2bca518a0001c7b442,001,2021-08-19_16h01.17.530,natb3,2021.2.3,Win32,60.0240096,5b688d2bca518a0001c7b442,611e07ecdcc96256ae8d5b80,611e72269b834f7b57b69fc1,0.45,
,,,,,,0,121,121,98,1,X, , , , ,,2500,2.5,5b688d2bca518a0001c7b442,001,2021-08-19_16h01.17.530,natb3,2021.2.3,Win32,60.0240096,5b688d2bca518a0001c7b442,611e07ecdcc96256ae8d5b80,611e72269b834f7b57b69fc1,,
,,,,space,,0,122,122,334,1,O, , , , ,space,1500,1.5,5b688d2bca518a0001c7b442,001,2021-08-19_16h01.17.530,natb3,2021.2.3,Win32,60.0240096,5b688d2bca518a0001c7b442,611e07ecdcc96256ae8d5b80,611e72269b834f7b57b69fc1,0.533,
,,,,,,0,123,123,179,1,X, ,9, ,2,,1500,1.5,5b688d2bca518a0001c7b442,001,2021-08-19_16h01.17.530,natb3,2021.2.3,Win32,60.0240096,5b688d2bca518a0001c7b442,611e07ecdcc96256ae8d5b80,611e72269b834f7b57b69fc1,,
,,,,space,,0,124,124,272,1,D, , , , ,space,2000,2,5b688d2bca518a0001c7b442,001,2021-08-19_16h01.17.530,natb3,2021.2.3,Win32,60.0240096,5b688d2bca518a0001c7b442,611e07ecdcc96256ae8d5b80,611e72269b834f7b57b69fc1,0.573,
,,,,,,0,125,125,218,1,X,1,3, ,8,,1500,1.5,5b688d2bca518a0001c7b442,001,2021-08-19_16h01.17.530,natb3,2021.2.3,Win32,60.0240096,5b688d2bca518a0001c7b442,611e07ecdcc96256ae8d5b80,611e72269b834f7b57b69fc1,,
,,,,space,,0,126,126,221,1,I, , , , ,space,2500,2.5,5b688d2bca518a0001c7b442,001,2021-08-19_16h01.17.530,natb3,2021.2.3,Win32,60.0240096,5b688d2bca518a0001c7b442,611e07ecdcc96256ae8d5b80,611e72269b834f7b57b69fc1,0.404,
,,,,,,0,127,127,66,1,X, ,4,7, ,,2000,2,5b688d2bca518a0001c7b442,001,2021-08-19_16h01.17.530,natb3,2021.2.3,Win32,60.0240096,5b688d2bca518a0001c7b442,611e07ecdcc96256ae8d5b80,611e72269b834f7b57b69fc1,,
,,,,,,0,128,128,187,1,X, ,3,7,4,,1500,1.5,5b688d2bca518a0001c7b442,001,2021-08-19_16h01.17.530,natb3,2021.2.3,Win32,60.0240096,5b688d2bca518a0001c7b442,611e07ecdcc96256ae8d5b80,611e72269b834f7b57b69fc1,,
,,,,space,,0,129,129,297,1,U, , , , ,space,2000,2,5b688d2bca518a0001c7b442,001,2021-08-19_16h01.17.530,natb3,2021.2.3,Win32,60.0240096,5b688d2bca518a0001c7b442,611e07ecdcc96256ae8d5b80,611e72269b834f7b57b69fc1,0.494,
,,,,space,,0,130,130,155,1,O, , , , ,space,1500,1.5,5b688d2bca518a0001c7b442,001,2021-08-19_16h01.17.530,natb3,2021.2.3,Win32,60.0240096,5b688d2bca518a0001c7b442,611e07ecdcc96256ae8d5b80,611e72269b834f7b57b69fc1,0.646,
,,,,,,0,131,131,236,1,X,3, ,4,7,,2500,2.5,5b688d2bca518a0001c7b442,001,2021-08-19_16h01.17.530,natb3,2021.2.3,Win32,60.0240096,5b688d2bca518a0001c7b442,611e07ecdcc96256ae8d5b80,611e72269b834f7b57b69fc1,,
,,,,space,,0,132,132,241,1,G, , , , ,space,2500,2.5,5b688d2bca518a0001c7b442,001,2021-08-19_16h01.17.530,natb3,2021.2.3,Win32,60.0240096,5b688d2bca518a0001c7b442,611e07ecdcc96256ae8d5b80,611e72269b834f7b57b69fc1,0.579,
,,,,space,,0,133,133,189,1,O, , , , ,space,1500,1.5,5b688d2bca518a0001c7b442,001,2021-08-19_16h01.17.530,natb3,2021.2.3,Win32,60.0240096,5b688d2bca518a0001c7b442,611e07ecdcc96256ae8d5b80,611e72269b834f7b57b69fc1,0.803,
,,,,space,,0,134,134,99,1,N, , , , ,space,2500,2.5,5b688d2bca518a0001c7b442,001,2021-08-19_16h01.17.530,natb3,2021.2.3,Win32,60.0240096,5b688d2bca518a0001c7b442,611e07ecdcc96256ae8d5b80,611e72269b834f7b57b69fc1,0.558,
,,,,,,0,135,135,18,1,X, ,2,5,8,,2500,2.5,5b688d2bca518a0001c7b442,001,2021-08-19_16h01.17.530,natb3,2021.2.3,Win32,60.0240096,5b688d2bca518a0001c7b442,611e07ecdcc96256ae8d5b80,611e72269b834f7b57b69fc1,,
,,,,space,,0,136,136,124,1,P, , , , ,space,2000,2,5b688d2bca518a0001c7b442,001,2021-08-19_16h01.17.530,natb3,2021.2.3,Win32,60.0240096,5b688d2bca518a0001c7b442,611e07ecdcc96256ae8d5b80,611e72269b834f7b57b69fc1,0.653,
,,,,space,,0,137,137,199,1,J, , , , ,space,2500,2.5,5b688d2bca518a0001c7b442,001,2021-08-19_16h01.17.530,natb3,2021.2.3,Win32,60.0240096,5b688d2bca518a0001c7b442,611e07ecdcc96256ae8d5b80,611e72269b834f7b57b69fc1,0.619,
,,,,space,,0,138,138,130,1,F, , , , ,space,2000,2,5b688d2bca518a0001c7b442,001,2021-08-19_16h01.17.530,natb3,2021.2.3,Win32,60.0240096,5b688d2bca518a0001c7b442,611e07ecdcc96256ae8d5b80,611e72269b834f7b57b69fc1,0.465,
,,,,space,,0,139,139,112,1,Q, , , , ,space,2500,2.5,5b688d2bca518a0001c7b442,001,2021-08-19_16h01.17.530,natb3,2021.2.3,Win32,60.0240096,5b688d2bca518a0001c7b442,611e07ecdcc96256ae8d5b80,611e72269b834f7b57b69fc1,0.751,
,,,,space,,0,140,140,121,1,I, , , , ,space,2000,2,5b688d2bca518a0001c7b442,001,2021-08-19_16h01.17.530,natb3,2021.2.3,Win32,60.0240096,5b688d2bca518a0001c7b442,611e07ecdcc96256ae8d5b80,611e72269b834f7b57b69fc1,0.77,
,,,,space,,0,141,141,196,1,F, , , , ,space,1500,1.5,5b688d2bca518a0001c7b442,001,2021-08-19_16h01.17.530,natb3,2021.2.3,Win32,60.0240096,5b688d2bca518a0001c7b442,611e07ecdcc96256ae8d5b80,611e72269b834f7b57b69fc1,0.971,
,,,,space,,0,142,142,57,1,K, , , , ,space,2500,2.5,5b688d2bca518a0001c7b442,001,2021-08-19_16h01.17.530,natb3,2021.2.3,Win32,60.0240096,5b688d2bca518a0001c7b442,611e07ecdcc96256ae8d5b80,611e72269b834f7b57b69fc1,0.654,
,,,,space,,0,143,143,100,1,M, , , , ,space,2000,2,5b688d2bca518a0001c7b442,001,2021-08-19_16h01.17.530,natb3,2021.2.3,Win32,60.0240096,5b688d2bca518a0001c7b442,611e07ecdcc96256ae8d5b80,611e72269b834f7b57b69fc1,0.478,
,,,,space,,0,144,144,275,1,G, , , , ,space,1500,1.5,5b688d2bca518a0001c7b442,001,2021-08-19_16h01.17.530,natb3,2021.2.3,Win32,60.0240096,5b688d2bca518a0001c7b442,611e07ecdcc96256ae8d5b80,611e72269b834f7b57b69fc1,0.585,
,,,,space,,0,145,145,71,1,R, , , , ,space,2500,2.5,5b688d2bca518a0001c7b442,001,2021-08-19_16h01.17.530,natb3,2021.2.3,Win32,60.0240096,5b688d2bca518a0001c7b442,611e07ecdcc96256ae8d5b80,611e72269b834f7b57b69fc1,0.484,
,,,,,,0,146,146,322,1,X, , ,1,6,,2000,2,5b688d2bca518a0001c7b442,001,2021-08-19_16h01.17.530,natb3,2021.2.3,Win32,60.0240096,5b688d2bca518a0001c7b442,611e07ecdcc96256ae8d5b80,611e72269b834f7b57b69fc1,,
,,,,space,,0,147,147,242,1,H, , , , ,space,2500,2.5,5b688d2bca518a0001c7b442,001,2021-08-19_16h01.17.530,natb3,2021.2.3,Win32,60.0240096,5b688d2bca518a0001c7b442,611e07ecdcc96256ae8d5b80,611e72269b834f7b57b69fc1,0.51,
,,,,space,,0,148,148,147,1,E, , , , ,space,2000,2,5b688d2bca518a0001c7b442,001,2021-08-19_16h01.17.530,natb3,2021.2.3,Win32,60.0240096,5b688d2bca518a0001c7b442,611e07ecdcc96256ae8d5b80,611e72269b834f7b57b69fc1,0.451,
,,,,space,,0,149,149,188,1,I, , , , ,space,2500,2.5,5b688d2bca518a0001c7b442,001,2021-08-19_16h01.17.530,natb3,2021.2.3,Win32,60.0240096,5b688d2bca518a0001c7b442,611e07ecdcc96256ae8d5b80,611e72269b834f7b57b69fc1,0.453,
,,,,space,,0,150,150,81,1,S, , , , ,space,2000,2,5b688d2bca518a0001c7b442,001,2021-08-19_16h01.17.530,natb3,2021.2.3,Win32,60.0240096,5b688d2bca518a0001c7b442,611e07ecdcc96256ae8d5b80,611e72269b834f7b57b69fc1,0.484,
,,,,space,,0,151,151,306,1,D, , , , ,space,2000,2,5b688d2bca518a0001c7b442,001,2021-08-19_16h01.17.530,natb3,2021.2.3,Win32,60.0240096,5b688d2bca518a0001c7b442,611e07ecdcc96256ae8d5b80,611e72269b834f7b57b69fc1,0.415,
,,,,space,,0,152,152,95,1,V, , , , ,space,1500,1.5,5b688d2bca518a0001c7b442,001,2021-08-19_16h01.17.530,natb3,2021.2.3,Win32,60.0240096,5b688d2bca518a0001c7b442,611e07ecdcc96256ae8d5b80,611e72269b834f7b57b69fc1,0.4,
,,,,space,,0,153,153,289,1,Q, , , , ,space,2000,2,5b688d2bca518a0001c7b442,001,2021-08-19_16h01.17.530,natb3,2021.2.3,Win32,60.0240096,5b688d2bca518a0001c7b442,611e07ecdcc96256ae8d5b80,611e72269b834f7b57b69fc1,0.407,
,,,,space,,0,154,154,25,1,Z, , , , ,space,2500,2.5,5b688d2bca518a0001c7b442,001,2021-08-19_16h01.17.530,natb3,2021.2.3,Win32,60.0240096,5b688d2bca518a0001c7b442,611e07ecdcc96256ae8d5b80,611e72269b834f7b57b69fc1,0.449,
,,,,space,,0,155,155,204,1,Z, , , , ,space,2000,2,5b688d2bca518a0001c7b442,001,2021-08-19_16h01.17.530,natb3,2021.2.3,Win32,60.0240096,5b688d2bca518a0001c7b442,611e07ecdcc96256ae8d5b80,611e72269b834f7b57b69fc1,0.523,
,,,,space,,0,156,156,226,1,R, , , , ,space,2000,2,5b688d2bca518a0001c7b442,001,2021-08-19_16h01.17.530,natb3,2021.2.3,Win32,60.0240096,5b688d2bca518a0001c7b442,611e07ecdcc96256ae8d5b80,611e72269b834f7b57b69fc1,0.424,
,,,,,,0,157,157,271,1,X, , , , ,,2500,2.5,5b688d2bca518a0001c7b442,001,2021-08-19_16h01.17.530,natb3,2021.2.3,Win32,60.0240096,5b688d2bca518a0001c7b442,611e07ecdcc96256ae8d5b80,611e72269b834f7b57b69fc1,,
,,,,space,,0,158,158,258,1,E, , , , ,space,1500,1.5,5b688d2bca518a0001c7b442,001,2021-08-19_16h01.17.530,natb3,2021.2.3,Win32,60.0240096,5b688d2bca518a0001c7b442,611e07ecdcc96256ae8d5b80,611e72269b834f7b57b69fc1,0.427,
,,,,space,,0,159,159,301,1,P, , , , ,space,1500,1.5,5b688d2bca518a0001c7b442,001,2021-08-19_16h01.17.530,natb3,2021.2.3,Win32,60.0240096,5b688d2bca518a0001c7b442,611e07ecdcc96256ae8d5b80,611e72269b834f7b57b69fc1,0.455,
,,,,space,,0,160,160,222,1,O, , , , ,space,2000,2,5b688d2bca518a0001c7b442,001,2021-08-19_16h01.17.530,natb3,2021.2.3,Win32,60.0240096,5b688d2bca518a0001c7b442,611e07ecdcc96256ae8d5b80,611e72269b834f7b57b69fc1,0.541,
,,,,,,0,161,161,313,1,X, , , , ,,2500,2.5,5b688d2bca518a0001c7b442,001,2021-08-19_16h01.17.530,natb3,2021.2.3,Win32,60.0240096,5b688d2bca518a0001c7b442,611e07ecdcc96256ae8d5b80,611e72269b834f7b57b69fc1,,
,,,,space,,0,162,162,77,1,O, , , , ,space,2000,2,5b688d2bca518a0001c7b442,001,2021-08-19_16h01.17.530,natb3,2021.2.3,Win32,60.0240096,5b688d2bca518a0001c7b442,611e07ecdcc96256ae8d5b80,611e72269b834f7b57b69fc1,0.88,
,,,,,,0,163,163,311,1,X,1,2,7,3,,2500,2.5,5b688d2bca518a0001c7b442,001,2021-08-19_16h01.17.530,natb3,2021.2.3,Win32,60.0240096,5b688d2bca518a0001c7b442,611e07ecdcc96256ae8d5b80,611e72269b834f7b57b69fc1,,
,,,,space,,0,164,164,305,1,X, , , , ,,1500,1.5,5b688d2bca518a0001c7b442,001,2021-08-19_16h01.17.530,natb3,2021.2.3,Win32,60.0240096,5b688d2bca518a0001c7b442,611e07ecdcc96256ae8d5b80,611e72269b834f7b57b69fc1,0.42,
,,,,space,,0,165,165,184,1,T, , , , ,space,2000,2,5b688d2bca518a0001c7b442,001,2021-08-19_16h01.17.530,natb3,2021.2.3,Win32,60.0240096,5b688d2bca518a0001c7b442,611e07ecdcc96256ae8d5b80,611e72269b834f7b57b69fc1,0.39,
,,,,space,,0,166,166,135,1,K, , , , ,space,1500,1.5,5b688d2bca518a0001c7b442,001,2021-08-19_16h01.17.530,natb3,2021.2.3,Win32,60.0240096,5b688d2bca518a0001c7b442,611e07ecdcc96256ae8d5b80,611e72269b834f7b57b69fc1,0.404,
,,,,space,space,0,167,167,319,1,V, , , , ,space,2000,2,5b688d2bca518a0001c7b442,001,2021-08-19_16h01.17.530,natb3,2021.2.3,Win32,60.0240096,5b688d2bca518a0001c7b442,611e07ecdcc96256ae8d5b80,611e72269b834f7b57b69fc1,0.395,56.804
,,,,space,,0,168,168,232,1,O, , , , ,space,2500,2.5,5b688d2bca518a0001c7b442,001,2021-08-19_16h01.17.530,natb3,2021.2.3,Win32,60.0240096,5b688d2bca518a0001c7b442,611e07ecdcc96256ae8d5b80,611e72269b834f7b57b69fc1,0.426,
,,,,,,0,169,169,153,1,X,4,7, ,6,,2000,2,5b688d2bca518a0001c7b442,001,2021-08-19_16h01.17.530,natb3,2021.2.3,Win32,60.0240096,5b688d2bca518a0001c7b442,611e07ecdcc96256ae8d5b80,611e72269b834f7b57b69fc1,,
,,,,space,,0,170,170,281,1,Z, , , , ,space,1500,1.5,5b688d2bca518a0001c7b442,001,2021-08-19_16h01.17.530,natb3,2021.2.3,Win32,60.0240096,5b688d2bca518a0001c7b442,611e07ecdcc96256ae8d5b80,611e72269b834f7b57b69fc1,0.382,
,,,,space,,0,171,171,323,1,M, , , , ,space,2500,2.5,5b688d2bca518a0001c7b442,001,2021-08-19_16h01.17.530,natb3,2021.2.3,Win32,60.0240096,5b688d2bca518a0001c7b442,611e07ecdcc96256ae8d5b80,611e72269b834f7b57b69fc1,0.465,
,,,,,,0,172,172,239,1,X, , , , ,,2000,2,5b688d2bca518a0001c7b442,001,2021-08-19_16h01.17.530,natb3,2021.2.3,Win32,60.0240096,5b688d2bca518a0001c7b442,611e07ecdcc96256ae8d5b80,611e72269b834f7b57b69fc1,,
,,,,space,,0,173,173,157,1,A, , , , ,space,2500,2.5,5b688d2bca518a0001c7b442,001,2021-08-19_16h01.17.530,natb3,2021.2.3,Win32,60.0240096,5b688d2bca518a0001c7b442,611e07ecdcc96256ae8d5b80,611e72269b834f7b57b69fc1,0.372,
,,,,space,,0,174,174,307,1,F, , , , ,space,2500,2.5,5b688d2bca518a0001c7b442,001,2021-08-19_16h01.17.530,natb3,2021.2.3,Win32,60.0240096,5b688d2bca518a0001c7b442,611e07ecdcc96256ae8d5b80,611e72269b834f7b57b69fc1,0.798,
,,,,space,,0,175,175,250,1,V, , , , ,space,2000,2,5b688d2bca518a0001c7b442,001,2021-08-19_16h01.17.530,natb3,2021.2.3,Win32,60.0240096,5b688d2bca518a0001c7b442,611e07ecdcc96256ae8d5b80,611e72269b834f7b57b69fc1,0.401,
,,,,space,,0,176,176,9,1,I, , , , ,space,1500,1.5,5b688d2bca518a0001c7b442,001,2021-08-19_16h01.17.530,natb3,2021.2.3,Win32,60.0240096,5b688d2bca518a0001c7b442,611e07ecdcc96256ae8d5b80,611e72269b834f7b57b69fc1,0.685,
,,,,space,,0,177,177,256,1,Q, , , , ,space,2000,2,5b688d2bca518a0001c7b442,001,2021-08-19_16h01.17.530,natb3,2021.2.3,Win32,60.0240096,5b688d2bca518a0001c7b442,611e07ecdcc96256ae8d5b80,611e72269b834f7b57b69fc1,0.367,
,,,,space,,0,178,178,269,1,A, , , , ,space,2500,2.5,5b688d2bca518a0001c7b442,001,2021-08-19_16h01.17.530,natb3,2021.2.3,Win32,60.0240096,5b688d2bca518a0001c7b442,611e07ecdcc96256ae8d5b80,611e72269b834f7b57b69fc1,0.506,
,,,,space,,0,179,179,72,1,T, , , , ,space,1500,1.5,5b688d2bca518a0001c7b442,001,2021-08-19_16h01.17.530,natb3,2021.2.3,Win32,60.0240096,5b688d2bca518a0001c7b442,611e07ecdcc96256ae8d5b80,611e72269b834f7b57b69fc1,0.715,
,,,,,,0,180,180,54,1,X, , , , ,,2000,2,5b688d2bca518a0001c7b442,001,2021-08-19_16h01.17.530,natb3,2021.2.3,Win32,60.0240096,5b688d2bca518a0001c7b442,611e07ecdcc96256ae8d5b80,611e72269b834f7b57b69fc1,,
,,,,space,,0,181,181,267,1,P, , , , ,space,2000,2,5b688d2bca518a0001c7b442,001,2021-08-19_16h01.17.530,natb3,2021.2.3,Win32,60.0240096,5b688d2bca518a0001c7b442,611e07ecdcc96256ae8d5b80,611e72269b834f7b57b69fc1,0.73,
,,,,space,,0,182,182,58,1,L, , , , ,space,2000,2,5b688d2bca518a0001c7b442,001,2021-08-19_16h01.17.530,natb3,2021.2.3,Win32,60.0240096,5b688d2bca518a0001c7b442,611e07ecdcc96256ae8d5b80,611e72269b834f7b57b69fc1,0.62,
,,,,,,0,183,183,89,1,X,3, , , ,,2000,2,5b688d2bca518a0001c7b442,001,2021-08-19_16h01.17.530,natb3,2021.2.3,Win32,60.0240096,5b688d2bca518a0001c7b442,611e07ecdcc96256ae8d5b80,611e72269b834f7b57b69fc1,,
,,,,,,0,184,184,78,1,X, , , , ,,2000,2,5b688d2bca518a0001c7b442,001,2021-08-19_16h01.17.530,natb3,2021.2.3,Win32,60.0240096,5b688d2bca518a0001c7b442,611e07ecdcc96256ae8d5b80,611e72269b834f7b57b69fc1,,
,,,,space,,0,185,185,205,1,C, , , , ,space,2000,2,5b688d2bca518a0001c7b442,001,2021-08-19_16h01.17.530,natb3,2021.2.3,Win32,60.0240096,5b688d2bca518a0001c7b442,611e07ecdcc96256ae8d5b80,611e72269b834f7b57b69fc1,0.619,
,,,,space,,0,186,186,108,1,Y, , , , ,space,2500,2.5,5b688d2bca518a0001c7b442,001,2021-08-19_16h01.17.530,natb3,2021.2.3,Win32,60.0240096,5b688d2bca518a0001c7b442,611e07ecdcc96256ae8d5b80,611e72269b834f7b57b69fc1,0.484,
,,,,space,,0,187,187,37,1,E, , , , ,space,2500,2.5,5b688d2bca518a0001c7b442,001,2021-08-19_16h01.17.530,natb3,2021.2.3,Win32,60.0240096,5b688d2bca518a0001c7b442,611e07ecdcc96256ae8d5b80,611e72269b834f7b57b69fc1,0.465,
,,,,space,,0,188,188,28,1,V, , , , ,space,1500,1.5,5b688d2bca518a0001c7b442,001,2021-08-19_16h01.17.530,natb3,2021.2.3,Win32,60.0240096,5b688d2bca518a0001c7b442,611e07ecdcc96256ae8d5b80,611e72269b834f7b57b69fc1,0.613,
,,,,,,0,189,189,263,1,X,4, ,6, ,,1500,1.5,5b688d2bca518a0001c7b442,001,2021-08-19_16h01.17.530,natb3,2021.2.3,Win32,60.0240096,5b688d2bca518a0001c7b442,611e07ecdcc96256ae8d5b80,611e72269b834f7b57b69fc1,,
,,,,space,,0,190,190,265,1,I, , , , ,space,2000,2,5b688d2bca518a0001c7b442,001,2021-08-19_16h01.17.530,natb3,2021.2.3,Win32,60.0240096,5b688d2bca518a0001c7b442,611e07ecdcc96256ae8d5b80,611e72269b834f7b57b69fc1,0.543,
,,,,space,,0,191,191,136,1,Z, , , , ,space,2500,2.5,5b688d2bca518a0001c7b442,001,2021-08-19_16h01.17.530,natb3,2021.2.3,Win32,60.0240096,5b688d2bca518a0001c7b442,611e07ecdcc96256ae8d5b80,611e72269b834f7b57b69fc1,0.646,
,,,,space,,0,192,192,279,1,K, , , , ,space,2500,2.5,5b688d2bca518a0001c7b442,001,2021-08-19_16h01.17.530,natb3,2021.2.3,Win32,60.0240096,5b688d2bca518a0001c7b442,611e07ecdcc96256ae8d5b80,611e72269b834f7b57b69fc1,0.413,
,,,,space,,0,193,193,90,1,K, , , , ,space,2000,2,5b688d2bca518a0001c7b442,001,2021-08-19_16h01.17.530,natb3,2021.2.3,Win32,60.0240096,5b688d2bca518a0001c7b442,611e07ecdcc96256ae8d5b80,611e72269b834f7b57b69fc1,0.518,
,,,,space,,0,194,194,183,1,R, , , , ,space,1500,1.5,5b688d2bca518a0001c7b442,001,2021-08-19_16h01.17.530,natb3,2021.2.3,Win32,60.0240096,5b688d2bca518a0001c7b442,611e07ecdcc96256ae8d5b80,611e72269b834f7b57b69fc1,0.513,
,,,,,,0,195,195,182,1,X, , , , ,,1500,1.5,5b688d2bca518a0001c7b442,001,2021-08-19_16h01.17.530,natb3,2021.2.3,Win32,60.0240096,5b688d2bca518a0001c7b442,611e07ecdcc96256ae8d5b80,611e72269b834f7b57b69fc1,,
,,,,space,,0,196,196,326,1,W, , , , ,space,2000,2,5b688d2bca518a0001c7b442,001,2021-08-19_16h01.17.530,natb3,2021.2.3,Win32,60.0240096,5b688d2bca518a0001c7b442,611e07ecdcc96256ae8d5b80,611e72269b834f7b57b69fc1,0.449,
,,,,space,,0,197,197,70,1,E, , , , ,space,2500,2.5,5b688d2bca518a0001c7b442,001,2021-08-19_16h01.17.530,natb3,2021.2.3,Win32,60.0240096,5b688d2bca518a0001c7b442,611e07ecdcc96256ae8d5b80,611e72269b834f7b57b69fc1,0.479,
,,,,space,,0,198,198,180,1,W, , , , ,space,2000,2,5b688d2bca518a0001c7b442,001,2021-08-19_16h01.17.530,natb3,2021.2.3,Win32,60.0240096,5b688d2bca518a0001c7b442,611e07ecdcc96256ae8d5b80,611e72269b834f7b57b69fc1,0.511,
,,,,,,0,199,199,84,1,X, , , , ,,2000,2,5b688d2bca518a0001c7b442,001,2021-08-19_16h01.17.530,natb3,2021.2.3,Win32,60.0240096,5b688d2bca518a0001c7b442,611e07ecdcc96256ae8d5b80,611e72269b834f7b57b69fc1,,
,,,,space,,0,200,200,181,1,E, , , , ,space,1500,1.5,5b688d2bca518a0001c7b442,001,2021-08-19_16h01.17.530,natb3,2021.2.3,Win32,60.0240096,5b688d2bca518a0001c7b442,611e07ecdcc96256ae8d5b80,611e72269b834f7b57b69fc1,0.578,
,,,,space,,0,201,201,294,1,T, , , , ,space,2000,2,5b688d2bca518a0001c7b442,001,2021-08-19_16h01.17.530,natb3,2021.2.3,Win32,60.0240096,5b688d2bca518a0001c7b442,611e07ecdcc96256ae8d5b80,611e72269b834f7b57b69fc1,0.517,
,,,,space,,0,202,202,317,1,C, , , , ,space,2000,2,5b688d2bca518a0001c7b442,001,2021-08-19_16h01.17.530,natb3,2021.2.3,Win32,60.0240096,5b688d2bca518a0001c7b442,611e07ecdcc96256ae8d5b80,611e72269b834f7b57b69fc1,0.6,
,,,,space,,0,203,203,119,1,Y, , , , ,space,2500,2.5,5b688d2bca518a0001c7b442,001,2021-08-19_16h01.17.530,natb3,2021.2.3,Win32,60.0240096,5b688d2bca518a0001c7b442,611e07ecdcc96256ae8d5b80,611e72269b834f7b57b69fc1,0.451,
,,,,space,,0,204,204,91,1,L, , , , ,space,2000,2,5b688d2bca518a0001c7b442,001,2021-08-19_16h01.17.530,natb3,2021.2.3,Win32,60.0240096,5b688d2bca518a0001c7b442,611e07ecdcc96256ae8d5b80,611e72269b834f7b57b69fc1,0.416,
,,,,space,,0,205,205,264,1,U, , , , ,space,2000,2,5b688d2bca518a0001c7b442,001,2021-08-19_16h01.17.530,natb3,2021.2.3,Win32,60.0240096,5b688d2bca518a0001c7b442,611e07ecdcc96256ae8d5b80,611e72269b834f7b57b69fc1,0.431,
,,,,space,,0,206,206,65,1,M, , , , ,space,1500,1.5,5b688d2bca518a0001c7b442,001,2021-08-19_16h01.17.530,natb3,2021.2.3,Win32,60.0240096,5b688d2bca518a0001c7b442,611e07ecdcc96256ae8d5b80,611e72269b834f7b57b69fc1,0.46,
,,,,space,,0,207,207,254,1,M, , , , ,space,1500,1.5,5b688d2bca518a0001c7b442,001,2021-08-19_16h01.17.530,natb3,2021.2.3,Win32,60.0240096,5b688d2bca518a0001c7b442,611e07ecdcc96256ae8d5b80,611e72269b834f7b57b69fc1,0.408,
,,,,space,,0,208,208,88,1,J, , , , ,space,2500,2.5,5b688d2bca518a0001c7b442,001,2021-08-19_16h01.17.530,natb3,2021.2.3,Win32,60.0240096,5b688d2bca518a0001c7b442,611e07ecdcc96256ae8d5b80,611e72269b834f7b57b69fc1,0.445,
,,,,space,,0,209,209,225,1,E, , , , ,space,2000,2,5b688d2bca518a0001c7b442,001,2021-08-19_16h01.17.530,natb3,2021.2.3,Win32,60.0240096,5b688d2bca518a0001c7b442,611e07ecdcc96256ae8d5b80,611e72269b834f7b57b69fc1,0.534,
,,,,space,,0,210,210,194,1,D, , , , ,space,2000,2,5b688d2bca518a0001c7b442,001,2021-08-19_16h01.17.530,natb3,2021.2.3,Win32,60.0240096,5b688d2bca518a0001c7b442,611e07ecdcc96256ae8d5b80,611e72269b834f7b57b69fc1,0.452,
,,,,space,,0,211,211,92,1,Z, , , , ,space,1500,1.5,5b688d2bca518a0001c7b442,001,2021-08-19_16h01.17.530,natb3,2021.2.3,Win32,60.0240096,5b688d2bca518a0001c7b442,611e07ecdcc96256ae8d5b80,611e72269b834f7b57b69fc1,0.764,
,,,,space,,0,212,212,244,1,J, , , , ,space,1500,1.5,5b688d2bca518a0001c7b442,001,2021-08-19_16h01.17.530,natb3,2021.2.3,Win32,60.0240096,5b688d2bca518a0001c7b442,611e07ecdcc96256ae8d5b80,611e72269b834f7b57b69fc1,0.382,
,,,,space,,0,213,213,29,1,B, , , , ,space,1500,1.5,5b688d2bca518a0001c7b442,001,2021-08-19_16h01.17.530,natb3,2021.2.3,Win32,60.0240096,5b688d2bca518a0001c7b442,611e07ecdcc96256ae8d5b80,611e72269b834f7b57b69fc1,0.52,
,,,,space,,0,214,214,210,1,M, , , , ,space,1500,1.5,5b688d2bca518a0001c7b442,001,2021-08-19_16h01.17.530,natb3,2021.2.3,Win32,60.0240096,5b688d2bca518a0001c7b442,611e07ecdcc96256ae8d5b80,611e72269b834f7b57b69fc1,0.55,
,,,,space,,0,215,215,235,1,A, , , , ,space,1500,1.5,5b688d2bca518a0001c7b442,001,2021-08-19_16h01.17.530,natb3,2021.2.3,Win32,60.0240096,5b688d2bca518a0001c7b442,611e07ecdcc96256ae8d5b80,611e72269b834f7b57b69fc1,0.581,
,,,,space,,0,216,216,327,1,E, , , , ,space,1500,1.5,5b688d2bca518a0001c7b442,001,2021-08-19_16h01.17.530,natb3,2021.2.3,Win32,60.0240096,5b688d2bca518a0001c7b442,611e07ecdcc96256ae8d5b80,611e72269b834f7b57b69fc1,0.371,
,,,,,,0,217,217,191,1,X,1, ,3,4,,2500,2.5,5b688d2bca518a0001c7b442,001,2021-08-19_16h01.17.530,natb3,2021.2.3,Win32,60.0240096,5b688d2bca518a0001c7b442,611e07ecdcc96256ae8d5b80,611e72269b834f7b57b69fc1,,
,,,,space,,0,218,218,3,1,R, , , , ,space,2000,2,5b688d2bca518a0001c7b442,001,2021-08-19_16h01.17.530,natb3,2021.2.3,Win32,60.0240096,5b688d2bca518a0001c7b442,611e07ecdcc96256ae8d5b80,611e72269b834f7b57b69fc1,0.504,
,,,,space,,0,219,219,308,1,G, , , , ,space,1500,1.5,5b688d2bca518a0001c7b442,001,2021-08-19_16h01.17.530,natb3,2021.2.3,Win32,60.0240096,5b688d2bca518a0001c7b442,611e07ecdcc96256ae8d5b80,611e72269b834f7b57b69fc1,0.573,
,,,,,,0,220,220,60,1,X,7,3,5, ,,1500,1.5,5b688d2bca518a0001c7b442,001,2021-08-19_16h01.17.530,natb3,2021.2.3,Win32,60.0240096,5b688d2bca518a0001c7b442,611e07ecdcc96256ae8d5b80,611e72269b834f7b57b69fc1,,
,,,,,,0,221,221,74,1,X, ,4,3,2,,1500,1.5,5b688d2bca518a0001c7b442,001,2021-08-19_16h01.17.530,natb3,2021.2.3,Win32,60.0240096,5b688d2bca518a0001c7b442,611e07ecdcc96256ae8d5b80,611e72269b834f7b57b69fc1,,
,,,,space,,0,222,222,293,1,R, , , , ,space,2500,2.5,5b688d2bca518a0001c7b442,001,2021-08-19_16h01.17.530,natb3,2021.2.3,Win32,60.0240096,5b688d2bca518a0001c7b442,611e07ecdcc96256ae8d5b80,611e72269b834f7b57b69fc1,0.467,
,,,,space,,0,223,223,260,1,R, , , , ,space,2000,2,5b688d2bca518a0001c7b442,001,2021-08-19_16h01.17.530,natb3,2021.2.3,Win32,60.0240096,5b688d2bca518a0001c7b442,611e07ecdcc96256ae8d5b80,611e72269b834f7b57b69fc1,0.43,
,,,,space,,0,224,224,288,1,M, , , , ,space,1500,1.5,5b688d2bca518a0001c7b442,001,2021-08-19_16h01.17.530,natb3,2021.2.3,Win32,60.0240096,5b688d2bca518a0001c7b442,611e07ecdcc96256ae8d5b80,611e72269b834f7b57b69fc1,0.595,
,,,,space,,0,225,225,53,1,G, , , , ,space,2500,2.5,5b688d2bca518a0001c7b442,001,2021-08-19_16h01.17.530,natb3,2021.2.3,Win32,60.0240096,5b688d2bca518a0001c7b442,611e07ecdcc96256ae8d5b80,611e72269b834f7b57b69fc1,0.674,
,,,,space,,0,226,226,150,1,T, , , , ,space,2500,2.5,5b688d2bca518a0001c7b442,001,2021-08-19_16h01.17.530,natb3,2021.2.3,Win32,60.0240096,5b688d2bca518a0001c7b442,611e07ecdcc96256ae8d5b80,611e72269b834f7b57b69fc1,0.492,
,,,,space,,0,227,227,283,1,C, , , , ,space,1500,1.5,5b688d2bca518a0001c7b442,001,2021-08-19_16h01.17.530,natb3,2021.2.3,Win32,60.0240096,5b688d2bca518a0001c7b442,611e07ecdcc96256ae8d5b80,611e72269b834f7b57b69fc1,0.55,
,,,,,,0,228,228,138,1,X,8,5, ,3,,2000,2,5b688d2bca518a0001c7b442,001,2021-08-19_16h01.17.530,natb3,2021.2.3,Win32,60.0240096,5b688d2bca518a0001c7b442,611e07ecdcc96256ae8d5b80,611e72269b834f7b57b69fc1,,
,,,,,,0,229,229,47,1,P, , , , ,space,2000,2,5b688d2bca518a0001c7b442,001,2021-08-19_16h01.17.530,natb3,2021.2.3,Win32,60.0240096,5b688d2bca518a0001c7b442,611e07ecdcc96256ae8d5b80,611e72269b834f7b57b69fc1,,
,,,,space,,0,230,230,261,1,T, , , , ,space,2000,2,5b688d2bca518a0001c7b442,001,2021-08-19_16h01.17.530,natb3,2021.2.3,Win32,60.0240096,5b688d2bca518a0001c7b442,611e07ecdcc96256ae8d5b80,611e72269b834f7b57b69fc1,0.4,
,,,,space,,0,231,231,333,1,I, , , , ,space,1500,1.5,5b688d2bca518a0001c7b442,001,2021-08-19_16h01.17.530,natb3,2021.2.3,Win32,60.0240096,5b688d2bca518a0001c7b442,611e07ecdcc96256ae8d5b80,611e72269b834f7b57b69fc1,0.398,
,,,,space,,0,232,232,14,1,S, , , , ,space,2500,2.5,5b688d2bca518a0001c7b442,001,2021-08-19_16h01.17.530,natb3,2021.2.3,Win32,60.0240096,5b688d2bca518a0001c7b442,611e07ecdcc96256ae8d5b80,611e72269b834f7b57b69fc1,0.467,
,,,,,,0,233,233,93,1,X,5, ,7, ,,2500,2.5,5b688d2bca518a0001c7b442,001,2021-08-19_16h01.17.530,natb3,2021.2.3,Win32,60.0240096,5b688d2bca518a0001c7b442,611e07ecdcc96256ae8d5b80,611e72269b834f7b57b69fc1,,
,,,,,,0,234,234,203,1,X, , , , ,,2500,2.5,5b688d2bca518a0001c7b442,001,2021-08-19_16h01.17.530,natb3,2021.2.3,Win32,60.0240096,5b688d2bca518a0001c7b442,611e07ecdcc96256ae8d5b80,611e72269b834f7b57b69fc1,,
,,,,space,,0,235,235,206,1,V, , , , ,space,2000,2,5b688d2bca518a0001c7b442,001,2021-08-19_16h01.17.530,natb3,2021.2.3,Win32,60.0240096,5b688d2bca518a0001c7b442,611e07ecdcc96256ae8d5b80,611e72269b834f7b57b69fc1,0.649,
,,,,space,,0,236,236,193,1,S, , , , ,space,2500,2.5,5b688d2bca518a0001c7b442,001,2021-08-19_16h01.17.530,natb3,2021.2.3,Win32,60.0240096,5b688d2bca518a0001c7b442,611e07ecdcc96256ae8d5b80,611e72269b834f7b57b69fc1,0.531,
,,,,space,,0,237,237,126,1,A, , , , ,space,2500,2.5,5b688d2bca518a0001c7b442,001,2021-08-19_16h01.17.530,natb3,2021.2.3,Win32,60.0240096,5b688d2bca518a0001c7b442,611e07ecdcc96256ae8d5b80,611e72269b834f7b57b69fc1,0.417,
,,,,space,,0,238,238,85,1,F, , , , ,space,2500,2.5,5b688d2bca518a0001c7b442,001,2021-08-19_16h01.17.530,natb3,2021.2.3,Win32,60.0240096,5b688d2bca518a0001c7b442,611e07ecdcc96256ae8d5b80,611e72269b834f7b57b69fc1,0.46,
,,,,space,,0,239,239,139,1,V, , , , ,space,2000,2,5b688d2bca518a0001c7b442,001,2021-08-19_16h01.17.530,natb3,2021.2.3,Win32,60.0240096,5b688d2bca518a0001c7b442,611e07ecdcc96256ae8d5b80,611e72269b834f7b57b69fc1,0.615,
,,,,space,,0,240,240,240,1,F, , , , ,space,2500,2.5,5b688d2bca518a0001c7b442,001,2021-08-19_16h01.17.530,natb3,2021.2.3,Win32,60.0240096,5b688d2bca518a0001c7b442,611e07ecdcc96256ae8d5b80,611e72269b834f7b57b69fc1,0.413,
,,,,space,,0,241,241,246,1,L, , , , ,space,2500,2.5,5b688d2bca518a0001c7b442,001,2021-08-19_16h01.17.530,natb3,2021.2.3,Win32,60.0240096,5b688d2bca518a0001c7b442,611e07ecdcc96256ae8d5b80,611e72269b834f7b57b69fc1,0.396,
,,,,,,0,242,242,243,1,X, , , , ,,2500,2.5,5b688d2bca518a0001c7b442,001,2021-08-19_16h01.17.530,natb3,2021.2.3,Win32,60.0240096,5b688d2bca518a0001c7b442,611e07ecdcc96256ae8d5b80,611e72269b834f7b57b69fc1,,
,,,,space,,0,243,243,209,1,N, , , , ,space,2000,2,5b688d2bca518a0001c7b442,001,2021-08-19_16h01.17.530,natb3,2021.2.3,Win32,60.0240096,5b688d2bca518a0001c7b442,611e07ecdcc96256ae8d5b80,611e72269b834f7b57b69fc1,0.542,
,,,,space,,0,244,244,201,1,K, , , , ,space,1500,1.5,5b688d2bca518a0001c7b442,001,2021-08-19_16h01.17.530,natb3,2021.2.3,Win32,60.0240096,5b688d2bca518a0001c7b442,611e07ecdcc96256ae8d5b80,611e72269b834f7b57b69fc1,0.701,
,,,,space,,0,245,245,234,1,P, , , , ,space,2000,2,5b688d2bca518a0001c7b442,001,2021-08-19_16h01.17.530,natb3,2021.2.3,Win32,60.0240096,5b688d2bca518a0001c7b442,611e07ecdcc96256ae8d5b80,611e72269b834f7b57b69fc1,0.441,
,,,,space,,0,246,246,144,1,Q, , , , ,space,2500,2.5,5b688d2bca518a0001c7b442,001,2021-08-19_16h01.17.530,natb3,2021.2.3,Win32,60.0240096,5b688d2bca518a0001c7b442,611e07ecdcc96256ae8d5b80,611e72269b834f7b57b69fc1,0.433,
,,,,space,,0,247,247,304,1,S, , , , ,space,2000,2,5b688d2bca518a0001c7b442,001,2021-08-19_16h01.17.530,natb3,2021.2.3,Win32,60.0240096,5b688d2bca518a0001c7b442,611e07ecdcc96256ae8d5b80,611e72269b834f7b57b69fc1,0.448,
,,,,space,,0,248,248,274,1,F, , , , ,space,2000,2,5b688d2bca518a0001c7b442,001,2021-08-19_16h01.17.530,natb3,2021.2.3,Win32,60.0240096,5b688d2bca518a0001c7b442,611e07ecdcc96256ae8d5b80,611e72269b834f7b57b69fc1,0.399,
,,,,space,,0,249,249,328,1,R, , , , ,space,1500,1.5,5b688d2bca518a0001c7b442,001,2021-08-19_16h01.17.530,natb3,2021.2.3,Win32,60.0240096,5b688d2bca518a0001c7b442,611e07ecdcc96256ae8d5b80,611e72269b834f7b57b69fc1,0.395,
,,,,space,,0,250,250,163,1,G, , , , ,space,2500,2.5,5b688d2bca518a0001c7b442,001,2021-08-19_16h01.17.530,natb3,2021.2.3,Win32,60.0240096,5b688d2bca518a0001c7b442,611e07ecdcc96256ae8d5b80,611e72269b834f7b57b69fc1,0.443,
,,,,space,,0,251,251,227,1,T, , , , ,space,1500,1.5,5b688d2bca518a0001c7b442,001,2021-08-19_16h01.17.530,natb3,2021.2.3,Win32,60.0240096,5b688d2bca518a0001c7b442,611e07ecdcc96256ae8d5b80,611e72269b834f7b57b69fc1,0.783,
,,,,space,,0,252,252,316,1,Z, , , , ,space,1500,1.5,5b688d2bca518a0001c7b442,001,2021-08-19_16h01.17.530,natb3,2021.2.3,Win32,60.0240096,5b688d2bca518a0001c7b442,611e07ecdcc96256ae8d5b80,611e72269b834f7b57b69fc1,0.525,
,,,,,,0,253,253,51,1,X,7,5,8, ,,1500,1.5,5b688d2bca518a0001c7b442,001,2021-08-19_16h01.17.530,natb3,2021.2.3,Win32,60.0240096,5b688d2bca518a0001c7b442,611e07ecdcc96256ae8d5b80,611e72269b834f7b57b69fc1,,
,,,,,,0,254,254,46,1,X, , , , ,,2000,2,5b688d2bca518a0001c7b442,001,2021-08-19_16h01.17.530,natb3,2021.2.3,Win32,60.0240096,5b688d2bca518a0001c7b442,611e07ecdcc96256ae8d5b80,611e72269b834f7b57b69fc1,,
,,,,space,,0,255,255,63,1,B, , , , ,space,2000,2,5b688d2bca518a0001c7b442,001,2021-08-19_16h01.17.530,natb3,2021.2.3,Win32,60.0240096,5b688d2bca518a0001c7b442,611e07ecdcc96256ae8d5b80,611e72269b834f7b57b69fc1,0.512,
,,,,,,0,256,256,287,1,X, ,2, ,9,,2000,2,5b688d2bca518a0001c7b442,001,2021-08-19_16h01.17.530,natb3,2021.2.3,Win32,60.0240096,5b688d2bca518a0001c7b442,611e07ecdcc96256ae8d5b80,611e72269b834f7b57b69fc1,,
,,,,,,0,257,257,268,1,X,6, ,3, ,,2500,2.5,5b688d2bca518a0001c7b442,001,2021-08-19_16h01.17.530,natb3,2021.2.3,Win32,60.0240096,5b688d2bca518a0001c7b442,611e07ecdcc96256ae8d5b80,611e72269b834f7b57b69fc1,,
,,,,space,,0,258,258,34,1,Q, , , , ,space,2500,2.5,5b688d2bca518a0001c7b442,001,2021-08-19_16h01.17.530,natb3,2021.2.3,Win32,60.0240096,5b688d2bca518a0001c7b442,611e07ecdcc96256ae8d5b80,611e72269b834f7b57b69fc1,0.798,
,,,,space,,0,259,259,170,1,Z, , , , ,space,2000,2,5b688d2bca518a0001c7b442,001,2021-08-19_16h01.17.530,natb3,2021.2.3,Win32,60.0240096,5b688d2bca518a0001c7b442,611e07ecdcc96256ae8d5b80,611e72269b834f7b57b69fc1,0.494,
,,,,,,0,260,260,15,1,X, , , , ,,1500,1.5,5b688d2bca518a0001c7b442,001,2021-08-19_16h01.17.530,natb3,2021.2.3,Win32,60.0240096,5b688d2bca518a0001c7b442,611e07ecdcc96256ae8d5b80,611e72269b834f7b57b69fc1,,
,,,,space,,0,261,261,105,1,R, , , , ,space,2500,2.5,5b688d2bca518a0001c7b442,001,2021-08-19_16h01.17.530,natb3,2021.2.3,Win32,60.0240096,5b688d2bca518a0001c7b442,611e07ecdcc96256ae8d5b80,611e72269b834f7b57b69fc1,0.442,
,,,,space,,0,262,262,6,1,Y, , , , ,space,2500,2.5,5b688d2bca518a0001c7b442,001,2021-08-19_16h01.17.530,natb3,2021.2.3,Win32,60.0240096,5b688d2bca518a0001c7b442,611e07ecdcc96256ae8d5b80,611e72269b834f7b57b69fc1,0.383,
,,,,,,0,263,263,111,1,O, , , , ,space,2000,2,5b688d2bca518a0001c7b442,001,2021-08-19_16h01.17.530,natb3,2021.2.3,Win32,60.0240096,5b688d2bca518a0001c7b442,611e07ecdcc96256ae8d5b80,611e72269b834f7b57b69fc1,,
,,,,space,,0,264,264,300,1,O, , , , ,space,2500,2.5,5b688d2bca518a0001c7b442,001,2021-08-19_16h01.17.530,natb3,2021.2.3,Win32,60.0240096,5b688d2bca518a0001c7b442,611e07ecdcc96256ae8d5b80,611e72269b834f7b57b69fc1,0.442,
,,,,space,,0,265,265,270,1,S, , , , ,space,1500,1.5,5b688d2bca518a0001c7b442,001,2021-08-19_16h01.17.530,natb3,2021.2.3,Win32,60.0240096,5b688d2bca518a0001c7b442,611e07ecdcc96256ae8d5b80,611e72269b834f7b57b69fc1,0.449,
,,,,space,,0,266,266,159,1,S, , , , ,space,2500,2.5,5b688d2bca518a0001c7b442,001,2021-08-19_16h01.17.530,natb3,2021.2.3,Win32,60.0240096,5b688d2bca518a0001c7b442,611e07ecdcc96256ae8d5b80,611e72269b834f7b57b69fc1,0.373,
,,,,space,,0,267,267,110,1,I, , , , ,space,1500,1.5,5b688d2bca518a0001c7b442,001,2021-08-19_16h01.17.530,natb3,2021.2.3,Win32,60.0240096,5b688d2bca518a0001c7b442,611e07ecdcc96256ae8d5b80,611e72269b834f7b57b69fc1,0.664,
,,,,space,,0,268,268,247,1,Z, , , , ,space,1500,1.5,5b688d2bca518a0001c7b442,001,2021-08-19_16h01.17.530,natb3,2021.2.3,Win32,60.0240096,5b688d2bca518a0001c7b442,611e07ecdcc96256ae8d5b80,611e72269b834f7b57b69fc1,0.397,
,,,,,,0,269,269,148,1,X, , , , ,,2000,2,5b688d2bca518a0001c7b442,001,2021-08-19_16h01.17.530,natb3,2021.2.3,Win32,60.0240096,5b688d2bca518a0001c7b442,611e07ecdcc96256ae8d5b80,611e72269b834f7b57b69fc1,,
,,,,space,,0,270,270,223,1,Q, , , , ,space,2000,2,5b688d2bca518a0001c7b442,001,2021-08-19_16h01.17.530,natb3,2021.2.3,Win32,60.0240096,5b688d2bca518a0001c7b442,611e07ecdcc96256ae8d5b80,611e72269b834f7b57b69fc1,0.348,
,,,,space,,0,271,271,186,1,U, , , , ,space,2500,2.5,5b688d2bca518a0001c7b442,001,2021-08-19_16h01.17.530,natb3,2021.2.3,Win32,60.0240096,5b688d2bca518a0001c7b442,611e07ecdcc96256ae8d5b80,611e72269b834f7b57b69fc1,0.371,
,,,,space,,0,272,272,10,1,O, , , , ,space,2000,2,5b688d2bca518a0001c7b442,001,2021-08-19_16h01.17.530,natb3,2021.2.3,Win32,60.0240096,5b688d2bca518a0001c7b442,611e07ecdcc96256ae8d5b80,611e72269b834f7b57b69fc1,0.431,
,,,,space,,0,273,273,140,1,B, , , , ,space,2500,2.5,5b688d2bca518a0001c7b442,001,2021-08-19_16h01.17.530,natb3,2021.2.3,Win32,60.0240096,5b688d2bca518a0001c7b442,611e07ecdcc96256ae8d5b80,611e72269b834f7b57b69fc1,0.414,
,,,,space,,0,274,274,56,1,J, , , , ,space,1500,1.5,5b688d2bca518a0001c7b442,001,2021-08-19_16h01.17.530,natb3,2021.2.3,Win32,60.0240096,5b688d2bca518a0001c7b442,611e07ecdcc96256ae8d5b80,611e72269b834f7b57b69fc1,0.436,
,,,,space,,0,275,275,245,1,K, , , , ,space,2000,2,5b688d2bca518a0001c7b442,001,2021-08-19_16h01.17.530,natb3,2021.2.3,Win32,60.0240096,5b688d2bca518a0001c7b442,611e07ecdcc96256ae8d5b80,611e72269b834f7b57b69fc1,0.498,
,,,,space,,0,276,276,104,1,E, , , , ,space,2000,2,5b688d2bca518a0001c7b442,001,2021-08-19_16h01.17.530,natb3,2021.2.3,Win32,60.0240096,5b688d2bca518a0001c7b442,611e07ecdcc96256ae8d5b80,611e72269b834f7b57b69fc1,0.763,
,,,,space,,0,277,277,151,1,Y, , , , ,space,2500,2.5,5b688d2bca518a0001c7b442,001,2021-08-19_16h01.17.530,natb3,2021.2.3,Win32,60.0240096,5b688d2bca518a0001c7b442,611e07ecdcc96256ae8d5b80,611e72269b834f7b57b69fc1,0.847,
,,,,space,,0,278,278,59,1,Z, , , , ,space,2000,2,5b688d2bca518a0001c7b442,001,2021-08-19_16h01.17.530,natb3,2021.2.3,Win32,60.0240096,5b688d2bca518a0001c7b442,611e07ecdcc96256ae8d5b80,611e72269b834f7b57b69fc1,0.432,
,,,,,,0,279,279,273,1,X, , , , ,,2000,2,5b688d2bca518a0001c7b442,001,2021-08-19_16h01.17.530,natb3,2021.2.3,Win32,60.0240096,5b688d2bca518a0001c7b442,611e07ecdcc96256ae8d5b80,611e72269b834f7b57b69fc1,,
,,,,space,,0,280,280,134,1,J, , , , ,space,2000,2,5b688d2bca518a0001c7b442,001,2021-08-19_16h01.17.530,natb3,2021.2.3,Win32,60.0240096,5b688d2bca518a0001c7b442,611e07ecdcc96256ae8d5b80,611e72269b834f7b57b69fc1,0.537,
,,,,space,,0,281,281,284,1,V, , , , ,space,2500,2.5,5b688d2bca518a0001c7b442,001,2021-08-19_16h01.17.530,natb3,2021.2.3,Win32,60.0240096,5b688d2bca518a0001c7b442,611e07ecdcc96256ae8d5b80,611e72269b834f7b57b69fc1,0.392,
,,,,,,0,282,282,166,1,X, , , , ,,2000,2,5b688d2bca518a0001c7b442,001,2021-08-19_16h01.17.530,natb3,2021.2.3,Win32,60.0240096,5b688d2bca518a0001c7b442,611e07ecdcc96256ae8d5b80,611e72269b834f7b57b69fc1,,
,,,,,,0,283,283,211,1,X, , , , ,,2500,2.5,5b688d2bca518a0001c7b442,001,2021-08-19_16h01.17.530,natb3,2021.2.3,Win32,60.0240096,5b688d2bca518a0001c7b442,611e07ecdcc96256ae8d5b80,611e72269b834f7b57b69fc1,,
,,,,,,0,284,284,302,1,X, , , , ,,2000,2,5b688d2bca518a0001c7b442,001,2021-08-19_16h01.17.530,natb3,2021.2.3,Win32,60.0240096,5b688d2bca518a0001c7b442,611e07ecdcc96256ae8d5b80,611e72269b834f7b57b69fc1,,
,,,,space,,0,285,285,310,1,J, , , , ,space,2500,2.5,5b688d2bca518a0001c7b442,001,2021-08-19_16h01.17.530,natb3,2021.2.3,Win32,60.0240096,5b688d2bca518a0001c7b442,611e07ecdcc96256ae8d5b80,611e72269b834f7b57b69fc1,0.473,
,,,,space,,0,286,286,172,1,C, , , , ,space,1500,1.5,5b688d2bca518a0001c7b442,001,2021-08-19_16h01.17.530,natb3,2021.2.3,Win32,60.0240096,5b688d2bca518a0001c7b442,611e07ecdcc96256ae8d5b80,611e72269b834f7b57b69fc1,0.584,
,,,,space,,0,287,287,114,1,E, , , , ,space,2000,2,5b688d2bca518a0001c7b442,001,2021-08-19_16h01.17.530,natb3,2021.2.3,Win32,60.0240096,5b688d2bca518a0001c7b442,611e07ecdcc96256ae8d5b80,611e72269b834f7b57b69fc1,0.506,
,,,,,,0,288,288,175,1,X,7, ,4,2,,1500,1.5,5b688d2bca518a0001c7b442,001,2021-08-19_16h01.17.530,natb3,2021.2.3,Win32,60.0240096,5b688d2bca518a0001c7b442,611e07ecdcc96256ae8d5b80,611e72269b834f7b57b69fc1,,
,,,,,,0,289,289,282,1,X, , , , ,,2500,2.5,5b688d2bca518a0001c7b442,001,2021-08-19_16h01.17.530,natb3,2021.2.3,Win32,60.0240096,5b688d2bca518a0001c7b442,611e07ecdcc96256ae8d5b80,611e72269b834f7b57b69fc1,,
,,,,space,,0,290,290,176,1,N, , , , ,space,1500,1.5,5b688d2bca518a0001c7b442,001,2021-08-19_16h01.17.530,natb3,2021.2.3,Win32,60.0240096,5b688d2bca518a0001c7b442,611e07ecdcc96256ae8d5b80,611e72269b834f7b57b69fc1,0.416,
,,,,space,,0,291,291,257,1,W, , , , ,space,2000,2,5b688d2bca518a0001c7b442,001,2021-08-19_16h01.17.530,natb3,2021.2.3,Win32,60.0240096,5b688d2bca518a0001c7b442,611e07ecdcc96256ae8d5b80,611e72269b834f7b57b69fc1,0.501,
,,,,space,,0,292,292,142,1,N, , , , ,space,2500,2.5,5b688d2bca518a0001c7b442,001,2021-08-19_16h01.17.530,natb3,2021.2.3,Win32,60.0240096,5b688d2bca518a0001c7b442,611e07ecdcc96256ae8d5b80,611e72269b834f7b57b69fc1,0.937,
,,,,space,,0,293,293,80,1,A, , , , ,space,2000,2,5b688d2bca518a0001c7b442,001,2021-08-19_16h01.17.530,natb3,2021.2.3,Win32,60.0240096,5b688d2bca518a0001c7b442,611e07ecdcc96256ae8d5b80,611e72269b834f7b57b69fc1,0.501,
,,,,space,,0,294,294,123,1,O, , , , ,space,1500,1.5,5b688d2bca518a0001c7b442,001,2021-08-19_16h01.17.530,natb3,2021.2.3,Win32,60.0240096,5b688d2bca518a0001c7b442,611e07ecdcc96256ae8d5b80,611e72269b834f7b57b69fc1,0.493,
,,,,space,,0,295,295,13,1,A, , , , ,space,2000,2,5b688d2bca518a0001c7b442,001,2021-08-19_16h01.17.530,natb3,2021.2.3,Win32,60.0240096,5b688d2bca518a0001c7b442,611e07ecdcc96256ae8d5b80,611e72269b834f7b57b69fc1,0.563,
,,,,space,,0,296,296,292,1,E, , , , ,space,2000,2,5b688d2bca518a0001c7b442,001,2021-08-19_16h01.17.530,natb3,2021.2.3,Win32,60.0240096,5b688d2bca518a0001c7b442,611e07ecdcc96256ae8d5b80,611e72269b834f7b57b69fc1,0.471,
,,,,space,,0,297,297,42,1,U, , , , ,space,1500,1.5,5b688d2bca518a0001c7b442,001,2021-08-19_16h01.17.530,natb3,2021.2.3,Win32,60.0240096,5b688d2bca518a0001c7b442,611e07ecdcc96256ae8d5b80,611e72269b834f7b57b69fc1,0.662,
,,,,,,0,298,298,26,1,C, , , , ,space,2000,2,5b688d2bca518a0001c7b442,001,2021-08-19_16h01.17.530,natb3,2021.2.3,Win32,60.0240096,5b688d2bca518a0001c7b442,611e07ecdcc96256ae8d5b80,611e72269b834f7b57b69fc1,,
,,,,space,,0,299,299,253,1,N, , , , ,space,2500,2.5,5b688d2bca518a0001c7b442,001,2021-08-19_16h01.17.530,natb3,2021.2.3,Win32,60.0240096,5b688d2bca518a0001c7b442,611e07ecdcc96256ae8d5b80,611e72269b834f7b57b69fc1,0.47,
,,,,,,0,300,300,291,1,X, , , , ,,2000,2,5b688d2bca518a0001c7b442,001,2021-08-19_16h01.17.530,natb3,2021.2.3,Win32,60.0240096,5b688d2bca518a0001c7b442,611e07ecdcc96256ae8d5b80,611e72269b834f7b57b69fc1,,
,,,,,,0,301,301,118,1,X, , , , ,,2000,2,5b688d2bca518a0001c7b442,001,2021-08-19_16h01.17.530,natb3,2021.2.3,Win32,60.0240096,5b688d2bca518a0001c7b442,611e07ecdcc96256ae8d5b80,611e72269b834f7b57b69fc1,,
,,,,space,,0,302,302,224,1,W, , , , ,space,1500,1.5,5b688d2bca518a0001c7b442,001,2021-08-19_16h01.17.530,natb3,2021.2.3,Win32,60.0240096,5b688d2bca518a0001c7b442,611e07ecdcc96256ae8d5b80,611e72269b834f7b57b69fc1,0.428,
,,,,space,,0,303,303,331,1,Y, , , , ,space,2500,2.5,5b688d2bca518a0001c7b442,001,2021-08-19_16h01.17.530,natb3,2021.2.3,Win32,60.0240096,5b688d2bca518a0001c7b442,611e07ecdcc96256ae8d5b80,611e72269b834f7b57b69fc1,0.371,
,,,,,,0,304,304,145,1,X, , , , ,,2000,2,5b688d2bca518a0001c7b442,001,2021-08-19_16h01.17.530,natb3,2021.2.3,Win32,60.0240096,5b688d2bca518a0001c7b442,611e07ecdcc96256ae8d5b80,611e72269b834f7b57b69fc1,,
,,,,space,,0,305,305,290,1,W, , , , ,space,1500,1.5,5b688d2bca518a0001c7b442,001,2021-08-19_16h01.17.530,natb3,2021.2.3,Win32,60.0240096,5b688d2bca518a0001c7b442,611e07ecdcc96256ae8d5b80,611e72269b834f7b57b69fc1,0.447,
,,,,space,,0,306,306,44,1,I, , , , ,space,2500,2.5,5b688d2bca518a0001c7b442,001,2021-08-19_16h01.17.530,natb3,2021.2.3,Win32,60.0240096,5b688d2bca518a0001c7b442,611e07ecdcc96256ae8d5b80,611e72269b834f7b57b69fc1,0.43,
,,,,,,0,307,307,107,1,X,9,3, ,2,,2000,2,5b688d2bca518a0001c7b442,001,2021-08-19_16h01.17.530,natb3,2021.2.3,Win32,60.0240096,5b688d2bca518a0001c7b442,611e07ecdcc96256ae8d5b80,611e72269b834f7b57b69fc1,,
,,,,space,,0,308,308,219,1,Y, , , , ,space,2000,2,5b688d2bca518a0001c7b442,001,2021-08-19_16h01.17.530,natb3,2021.2.3,Win32,60.0240096,5b688d2bca518a0001c7b442,611e07ecdcc96256ae8d5b80,611e72269b834f7b57b69fc1,0.435,
,,,,space,,0,309,309,154,1,I, , , , ,space,2500,2.5,5b688d2bca518a0001c7b442,001,2021-08-19_16h01.17.530,natb3,2021.2.3,Win32,60.0240096,5b688d2bca518a0001c7b442,611e07ecdcc96256ae8d5b80,611e72269b834f7b57b69fc1,0.368,
,,,,,,0,310,310,82,1,X,4,6,1,7,,2000,2,5b688d2bca518a0001c7b442,001,2021-08-19_16h01.17.530,natb3,2021.2.3,Win32,60.0240096,5b688d2bca518a0001c7b442,611e07ecdcc96256ae8d5b80,611e72269b834f7b57b69fc1,,
,,,,space,,0,311,311,19,1,G, , , , ,space,1500,1.5,5b688d2bca518a0001c7b442,001,2021-08-19_16h01.17.530,natb3,2021.2.3,Win32,60.0240096,5b688d2bca518a0001c7b442,611e07ecdcc96256ae8d5b80,611e72269b834f7b57b69fc1,0.418,
,,,,space,,0,312,312,251,1,B, , , , ,space,1500,1.5,5b688d2bca518a0001c7b442,001,2021-08-19_16h01.17.530,natb3,2021.2.3,Win32,60.0240096,5b688d2bca518a0001c7b442,611e07ecdcc96256ae8d5b80,611e72269b834f7b57b69fc1,0.48,
,,,,space,,0,313,313,208,1,B, , , , ,space,1500,1.5,5b688d2bca518a0001c7b442,001,2021-08-19_16h01.17.530,natb3,2021.2.3,Win32,60.0240096,5b688d2bca518a0001c7b442,611e07ecdcc96256ae8d5b80,611e72269b834f7b57b69fc1,0.369,
,,,,space,,0,314,314,217,1,T, , , , ,space,2500,2.5,5b688d2bca518a0001c7b442,001,2021-08-19_16h01.17.530,natb3,2021.2.3,Win32,60.0240096,5b688d2bca518a0001c7b442,611e07ecdcc96256ae8d5b80,611e72269b834f7b57b69fc1,0.385,
,,,,space,,0,315,315,335,1,P,,,,,space,1500,1.5,5b688d2bca518a0001c7b442,001,2021-08-19_16h01.17.530,natb3,2021.2.3,Win32,60.0240096,5b688d2bca518a0001c7b442,611e07ecdcc96256ae8d5b80,611e72269b834f7b57b69fc1,0.92,
,,,,space,,0,316,316,75,1,U, , , , ,space,1500,1.5,5b688d2bca518a0001c7b442,001,2021-08-19_16h01.17.530,natb3,2021.2.3,Win32,60.0240096,5b688d2bca518a0001c7b442,611e07ecdcc96256ae8d5b80,611e72269b834f7b57b69fc1,0.397,
,,,,space,,0,317,317,174,1,B, , , , ,space,2500,2.5,5b688d2bca518a0001c7b442,001,2021-08-19_16h01.17.530,natb3,2021.2.3,Win32,60.0240096,5b688d2bca518a0001c7b442,611e07ecdcc96256ae8d5b80,611e72269b834f7b57b69fc1,0.346,
,,,,space,,0,318,318,40,1,T, , , , ,space,1500,1.5,5b688d2bca518a0001c7b442,001,2021-08-19_16h01.17.530,natb3,2021.2.3,Win32,60.0240096,5b688d2bca518a0001c7b442,611e07ecdcc96256ae8d5b80,611e72269b834f7b57b69fc1,0.572,
,,,,space,,0,319,319,67,1,Q, , , , ,space,2000,2,5b688d2bca518a0001c7b442,001,2021-08-19_16h01.17.530,natb3,2021.2.3,Win32,60.0240096,5b688d2bca518a0001c7b442,611e07ecdcc96256ae8d5b80,611e72269b834f7b57b69fc1,0.368,
,,,,,,0,320,320,129,1,X,2,3,5, ,,1500,1.5,5b688d2bca518a0001c7b442,001,2021-08-19_16h01.17.530,natb3,2021.2.3,Win32,60.0240096,5b688d2bca518a0001c7b442,611e07ecdcc96256ae8d5b80,611e72269b834f7b57b69fc1,,
,,,,,,0,321,321,122,1,X,1, , ,8,,1500,1.5,5b688d2bca518a0001c7b442,001,2021-08-19_16h01.17.530,natb3,2021.2.3,Win32,60.0240096,5b688d2bca518a0001c7b442,611e07ecdcc96256ae8d5b80,611e72269b834f7b57b69fc1,,
,,,,space,,0,322,322,309,1,H, , , , ,space,2500,2.5,5b688d2bca518a0001c7b442,001,2021-08-19_16h01.17.530,natb3,2021.2.3,Win32,60.0240096,5b688d2bca518a0001c7b442,611e07ecdcc96256ae8d5b80,611e72269b834f7b57b69fc1,0.451,
,,,,space,,0,323,323,27,1,X,5, ,1,3,,1500,1.5,5b688d2bca518a0001c7b442,001,2021-08-19_16h01.17.530,natb3,2021.2.3,Win32,60.0240096,5b688d2bca518a0001c7b442,611e07ecdcc96256ae8d5b80,611e72269b834f7b57b69fc1,0.364,
,,,,space,,0,324,324,61,1,C, , , , ,space,2000,2,5b688d2bca518a0001c7b442,001,2021-08-19_16h01.17.530,natb3,2021.2.3,Win32,60.0240096,5b688d2bca518a0001c7b442,611e07ecdcc96256ae8d5b80,611e72269b834f7b57b69fc1,0.336,
,,,,,,0,325,325,213,1,X, , , , ,,2500,2.5,5b688d2bca518a0001c7b442,001,2021-08-19_16h01.17.530,natb3,2021.2.3,Win32,60.0240096,5b688d2bca518a0001c7b442,611e07ecdcc96256ae8d5b80,611e72269b834f7b57b69fc1,,
,,,,space,,0,326,326,278,1,J, , , , ,space,2000,2,5b688d2bca518a0001c7b442,001,2021-08-19_16h01.17.530,natb3,2021.2.3,Win32,60.0240096,5b688d2bca518a0001c7b442,611e07ecdcc96256ae8d5b80,611e72269b834f7b57b69fc1,0.362,
,,,,space,,0,327,327,231,1,I, , , , ,space,2500,2.5,5b688d2bca518a0001c7b442,001,2021-08-19_16h01.17.530,natb3,2021.2.3,Win32,60.0240096,5b688d2bca518a0001c7b442,611e07ecdcc96256ae8d5b80,611e72269b834f7b57b69fc1,0.517,
,,,,,,0,328,328,229,1,X,8, ,2,6,,2500,2.5,5b688d2bca518a0001c7b442,001,2021-08-19_16h01.17.530,natb3,2021.2.3,Win32,60.0240096,5b688d2bca518a0001c7b442,611e07ecdcc96256ae8d5b80,611e72269b834f7b57b69fc1,,
,,,,,,0,329,329,125,1,X, , , , ,,2000,2,5b688d2bca518a0001c7b442,001,2021-08-19_16h01.17.530,natb3,2021.2.3,Win32,60.0240096,5b688d2bca518a0001c7b442,611e07ecdcc96256ae8d5b80,611e72269b834f7b57b69fc1,,
,,,,space,,0,330,330,30,1,N, , , , ,space,2500,2.5,5b688d2bca518a0001c7b442,001,2021-08-19_16h01.17.530,natb3,2021.2.3,Win32,60.0240096,5b688d2bca518a0001c7b442,611e07ecdcc96256ae8d5b80,611e72269b834f7b57b69fc1,0.499,
,,,,space,,0,331,331,249,1,C, , , , ,space,2000,2,5b688d2bca518a0001c7b442,001,2021-08-19_16h01.17.530,natb3,2021.2.3,Win32,60.0240096,5b688d2bca518a0001c7b442,611e07ecdcc96256ae8d5b80,611e72269b834f7b57b69fc1,0.406,
,,,,space,,0,332,332,16,1,D, , , , ,space,1500,1.5,5b688d2bca518a0001c7b442,001,2021-08-19_16h01.17.530,natb3,2021.2.3,Win32,60.0240096,5b688d2bca518a0001c7b442,611e07ecdcc96256ae8d5b80,611e72269b834f7b57b69fc1,0.388,
,,,,,,0,333,333,295,1,X,8,7,5, ,,2500,2.5,5b688d2bca518a0001c7b442,001,2021-08-19_16h01.17.530,natb3,2021.2.3,Win32,60.0240096,5b688d2bca518a0001c7b442,611e07ecdcc96256ae8d5b80,611e72269b834f7b57b69fc1,,
,,,,space,,0,334,334,128,1,D, , , , ,space,2500,2.5,5b688d2bca518a0001c7b442,001,2021-08-19_16h01.17.530,natb3,2021.2.3,Win32,60.0240096,5b688d2bca518a0001c7b442,611e07ecdcc96256ae8d5b80,611e72269b834f7b57b69fc1,0.5,
,,,,space,,0,335,335,132,1,H, , , , ,space,2500,2.5,5b688d2bca518a0001c7b442,001,2021-08-19_16h01.17.530,natb3,2021.2.3,Win32,60.0240096,5b688d2bca518a0001c7b442,611e07ecdcc96256ae8d5b80,611e72269b834f7b57b69fc1,0.42,
