key_resp_2.keys,key_resp_2.rt,key_resp_3.keys,key_resp_3.rt,key_resp.keys,key_resp.rt,key_resp_4.keys,trials.thisRepN,trials.thisTrialN,trials.thisN,trials.thisIndex,trials.ran,stimulus,distractor1,distractor2,distractor3,distractor4,CorrAns,isi_duration,isi_dur_in_seconds,participant,session,date,expName,psychopyVersion,OS,frameRate,PROLIFIC_PID,STUDY_ID,SESSION_ID,key_resp_4.rt
return,11.284,space,12.7329,space,0.5956,,0,0,0,173,1,V, , , , ,space,1500,1.5,5bf9a3b95fa6fe0001df5a5e,001,2021-08-19_16h12.47.130,natb3,2021.2.3,Win32,60.22645146,5bf9a3b95fa6fe0001df5a5e,611e07ecdcc96256ae8d5b80,611e74daa4fd6ec4161167b8,
,,,,space,0.5188,,0,1,1,247,1,Z, , , , ,space,1500,1.5,5bf9a3b95fa6fe0001df5a5e,001,2021-08-19_16h12.47.130,natb3,2021.2.3,Win32,60.22645146,5bf9a3b95fa6fe0001df5a5e,611e07ecdcc96256ae8d5b80,611e74daa4fd6ec4161167b8,
,,,,space,0.5532,,0,2,2,335,1,P,,,,,space,1500,1.5,5bf9a3b95fa6fe0001df5a5e,001,2021-08-19_16h12.47.130,natb3,2021.2.3,Win32,60.22645146,5bf9a3b95fa6fe0001df5a5e,611e07ecdcc96256ae8d5b80,611e74daa4fd6ec4161167b8,
,,,,space,0.4216,,0,3,3,110,1,I, , , , ,space,1500,1.5,5bf9a3b95fa6fe0001df5a5e,001,2021-08-19_16h12.47.130,natb3,2021.2.3,Win32,60.22645146,5bf9a3b95fa6fe0001df5a5e,611e07ecdcc96256ae8d5b80,611e74daa4fd6ec4161167b8,
,,,,space,0.4682,,0,4,4,257,1,W, , , , ,space,2000,2,5bf9a3b95fa6fe0001df5a5e,001,2021-08-19_16h12.47.130,natb3,2021.2.3,Win32,60.22645146,5bf9a3b95fa6fe0001df5a5e,611e07ecdcc96256ae8d5b80,611e74daa4fd6ec4161167b8,
,,,,space,0.3851,,0,5,5,127,1,S, , , , ,space,2500,2.5,5bf9a3b95fa6fe0001df5a5e,001,2021-08-19_16h12.47.130,natb3,2021.2.3,Win32,60.22645146,5bf9a3b95fa6fe0001df5a5e,611e07ecdcc96256ae8d5b80,611e74daa4fd6ec4161167b8,
,,,,space,0.3852,,0,6,6,38,1,R, , , , ,space,2500,2.5,5bf9a3b95fa6fe0001df5a5e,001,2021-08-19_16h12.47.130,natb3,2021.2.3,Win32,60.22645146,5bf9a3b95fa6fe0001df5a5e,611e07ecdcc96256ae8d5b80,611e74daa4fd6ec4161167b8,
,,,,space,0.4173,,0,7,7,55,1,H, , , , ,space,2500,2.5,5bf9a3b95fa6fe0001df5a5e,001,2021-08-19_16h12.47.130,natb3,2021.2.3,Win32,60.22645146,5bf9a3b95fa6fe0001df5a5e,611e07ecdcc96256ae8d5b80,611e74daa4fd6ec4161167b8,
,,,,space,0.4513,,0,8,8,146,1,W, , , , ,space,1500,1.5,5bf9a3b95fa6fe0001df5a5e,001,2021-08-19_16h12.47.130,natb3,2021.2.3,Win32,60.22645146,5bf9a3b95fa6fe0001df5a5e,611e07ecdcc96256ae8d5b80,611e74daa4fd6ec4161167b8,
,,,,,,,0,9,9,191,1,X,1, ,3,4,,2500,2.5,5bf9a3b95fa6fe0001df5a5e,001,2021-08-19_16h12.47.130,natb3,2021.2.3,Win32,60.22645146,5bf9a3b95fa6fe0001df5a5e,611e07ecdcc96256ae8d5b80,611e74daa4fd6ec4161167b8,
,,,,space,0.4358,,0,10,10,176,1,N, , , , ,space,1500,1.5,5bf9a3b95fa6fe0001df5a5e,001,2021-08-19_16h12.47.130,natb3,2021.2.3,Win32,60.22645146,5bf9a3b95fa6fe0001df5a5e,611e07ecdcc96256ae8d5b80,611e74daa4fd6ec4161167b8,
,,,,space,0.3514,,0,11,11,190,1,P, , , , ,space,2000,2,5bf9a3b95fa6fe0001df5a5e,001,2021-08-19_16h12.47.130,natb3,2021.2.3,Win32,60.22645146,5bf9a3b95fa6fe0001df5a5e,611e07ecdcc96256ae8d5b80,611e74daa4fd6ec4161167b8,
,,,,space,0.4842,,0,12,12,312,1,K, , , , ,space,2000,2,5bf9a3b95fa6fe0001df5a5e,001,2021-08-19_16h12.47.130,natb3,2021.2.3,Win32,60.22645146,5bf9a3b95fa6fe0001df5a5e,611e07ecdcc96256ae8d5b80,611e74daa4fd6ec4161167b8,
,,,,space,0.3851,,0,13,13,304,1,S, , , , ,space,2000,2,5bf9a3b95fa6fe0001df5a5e,001,2021-08-19_16h12.47.130,natb3,2021.2.3,Win32,60.22645146,5bf9a3b95fa6fe0001df5a5e,611e07ecdcc96256ae8d5b80,611e74daa4fd6ec4161167b8,
,,,,space,0.4519,,0,14,14,25,1,Z, , , , ,space,2500,2.5,5bf9a3b95fa6fe0001df5a5e,001,2021-08-19_16h12.47.130,natb3,2021.2.3,Win32,60.22645146,5bf9a3b95fa6fe0001df5a5e,611e07ecdcc96256ae8d5b80,611e74daa4fd6ec4161167b8,
,,,,space,0.451,,0,15,15,120,1,U, , , , ,space,1500,1.5,5bf9a3b95fa6fe0001df5a5e,001,2021-08-19_16h12.47.130,natb3,2021.2.3,Win32,60.22645146,5bf9a3b95fa6fe0001df5a5e,611e07ecdcc96256ae8d5b80,611e74daa4fd6ec4161167b8,
,,,,,,,0,16,16,7,1,X, , , , ,,1500,1.5,5bf9a3b95fa6fe0001df5a5e,001,2021-08-19_16h12.47.130,natb3,2021.2.3,Win32,60.22645146,5bf9a3b95fa6fe0001df5a5e,611e07ecdcc96256ae8d5b80,611e74daa4fd6ec4161167b8,
,,,,space,0.4877,,0,17,17,114,1,E, , , , ,space,2000,2,5bf9a3b95fa6fe0001df5a5e,001,2021-08-19_16h12.47.130,natb3,2021.2.3,Win32,60.22645146,5bf9a3b95fa6fe0001df5a5e,611e07ecdcc96256ae8d5b80,611e74daa4fd6ec4161167b8,
,,,,space,0.3836,,0,18,18,251,1,B, , , , ,space,1500,1.5,5bf9a3b95fa6fe0001df5a5e,001,2021-08-19_16h12.47.130,natb3,2021.2.3,Win32,60.22645146,5bf9a3b95fa6fe0001df5a5e,611e07ecdcc96256ae8d5b80,611e74daa4fd6ec4161167b8,
,,,,space,0.4395,,0,19,19,9,1,I, , , , ,space,1500,1.5,5bf9a3b95fa6fe0001df5a5e,001,2021-08-19_16h12.47.130,natb3,2021.2.3,Win32,60.22645146,5bf9a3b95fa6fe0001df5a5e,611e07ecdcc96256ae8d5b80,611e74daa4fd6ec4161167b8,
,,,,space,0.4841,,0,20,20,53,1,G, , , , ,space,2500,2.5,5bf9a3b95fa6fe0001df5a5e,001,2021-08-19_16h12.47.130,natb3,2021.2.3,Win32,60.22645146,5bf9a3b95fa6fe0001df5a5e,611e07ecdcc96256ae8d5b80,611e74daa4fd6ec4161167b8,
,,,,,,,0,21,21,315,1,X, , , , ,,2500,2.5,5bf9a3b95fa6fe0001df5a5e,001,2021-08-19_16h12.47.130,natb3,2021.2.3,Win32,60.22645146,5bf9a3b95fa6fe0001df5a5e,611e07ecdcc96256ae8d5b80,611e74daa4fd6ec4161167b8,
,,,,space,0.4676,,0,22,22,286,1,N, , , , ,space,1500,1.5,5bf9a3b95fa6fe0001df5a5e,001,2021-08-19_16h12.47.130,natb3,2021.2.3,Win32,60.22645146,5bf9a3b95fa6fe0001df5a5e,611e07ecdcc96256ae8d5b80,611e74daa4fd6ec4161167b8,
,,,,space,0.4525,,0,23,23,186,1,U, , , , ,space,2500,2.5,5bf9a3b95fa6fe0001df5a5e,001,2021-08-19_16h12.47.130,natb3,2021.2.3,Win32,60.22645146,5bf9a3b95fa6fe0001df5a5e,611e07ecdcc96256ae8d5b80,611e74daa4fd6ec4161167b8,
,,,,space,0.4713,,0,24,24,94,1,C, , , , ,space,2000,2,5bf9a3b95fa6fe0001df5a5e,001,2021-08-19_16h12.47.130,natb3,2021.2.3,Win32,60.22645146,5bf9a3b95fa6fe0001df5a5e,611e07ecdcc96256ae8d5b80,611e74daa4fd6ec4161167b8,
,,,,space,0.4337,,0,25,25,256,1,Q, , , , ,space,2000,2,5bf9a3b95fa6fe0001df5a5e,001,2021-08-19_16h12.47.130,natb3,2021.2.3,Win32,60.22645146,5bf9a3b95fa6fe0001df5a5e,611e07ecdcc96256ae8d5b80,611e74daa4fd6ec4161167b8,
,,,,space,0.4169,,0,26,26,29,1,B, , , , ,space,1500,1.5,5bf9a3b95fa6fe0001df5a5e,001,2021-08-19_16h12.47.130,natb3,2021.2.3,Win32,60.22645146,5bf9a3b95fa6fe0001df5a5e,611e07ecdcc96256ae8d5b80,611e74daa4fd6ec4161167b8,
,,,,space,0.4677,,0,27,27,317,1,C, , , , ,space,2000,2,5bf9a3b95fa6fe0001df5a5e,001,2021-08-19_16h12.47.130,natb3,2021.2.3,Win32,60.22645146,5bf9a3b95fa6fe0001df5a5e,611e07ecdcc96256ae8d5b80,611e74daa4fd6ec4161167b8,
,,,,,,,0,28,28,27,1,X,5, ,1,3,,1500,1.5,5bf9a3b95fa6fe0001df5a5e,001,2021-08-19_16h12.47.130,natb3,2021.2.3,Win32,60.22645146,5bf9a3b95fa6fe0001df5a5e,611e07ecdcc96256ae8d5b80,611e74daa4fd6ec4161167b8,
,,,,space,0.4677,,0,29,29,149,1,R, , , , ,space,2000,2,5bf9a3b95fa6fe0001df5a5e,001,2021-08-19_16h12.47.130,natb3,2021.2.3,Win32,60.22645146,5bf9a3b95fa6fe0001df5a5e,611e07ecdcc96256ae8d5b80,611e74daa4fd6ec4161167b8,
,,,,,,,0,30,30,33,1,X, , , , ,,1500,1.5,5bf9a3b95fa6fe0001df5a5e,001,2021-08-19_16h12.47.130,natb3,2021.2.3,Win32,60.22645146,5bf9a3b95fa6fe0001df5a5e,611e07ecdcc96256ae8d5b80,611e74daa4fd6ec4161167b8,
,,,,,,,0,31,31,39,1,X,6,2, , ,,1500,1.5,5bf9a3b95fa6fe0001df5a5e,001,2021-08-19_16h12.47.130,natb3,2021.2.3,Win32,60.22645146,5bf9a3b95fa6fe0001df5a5e,611e07ecdcc96256ae8d5b80,611e74daa4fd6ec4161167b8,
,,,,space,0.4674,,0,32,32,143,1,M, , , , ,space,2500,2.5,5bf9a3b95fa6fe0001df5a5e,001,2021-08-19_16h12.47.130,natb3,2021.2.3,Win32,60.22645146,5bf9a3b95fa6fe0001df5a5e,611e07ecdcc96256ae8d5b80,611e74daa4fd6ec4161167b8,
,,,,,,,0,33,33,15,1,X, , , , ,,1500,1.5,5bf9a3b95fa6fe0001df5a5e,001,2021-08-19_16h12.47.130,natb3,2021.2.3,Win32,60.22645146,5bf9a3b95fa6fe0001df5a5e,611e07ecdcc96256ae8d5b80,611e74daa4fd6ec4161167b8,
,,,,space,0.5511,,0,34,34,103,1,W, , , , ,space,2000,2,5bf9a3b95fa6fe0001df5a5e,001,2021-08-19_16h12.47.130,natb3,2021.2.3,Win32,60.22645146,5bf9a3b95fa6fe0001df5a5e,611e07ecdcc96256ae8d5b80,611e74daa4fd6ec4161167b8,
,,,,space,0.5846,,0,35,35,202,1,L, , , , ,space,2500,2.5,5bf9a3b95fa6fe0001df5a5e,001,2021-08-19_16h12.47.130,natb3,2021.2.3,Win32,60.22645146,5bf9a3b95fa6fe0001df5a5e,611e07ecdcc96256ae8d5b80,611e74daa4fd6ec4161167b8,
,,,,space,0.5174,,0,36,36,123,1,O, , , , ,space,1500,1.5,5bf9a3b95fa6fe0001df5a5e,001,2021-08-19_16h12.47.130,natb3,2021.2.3,Win32,60.22645146,5bf9a3b95fa6fe0001df5a5e,611e07ecdcc96256ae8d5b80,611e74daa4fd6ec4161167b8,
,,,,space,0.4672,,0,37,37,42,1,U, , , , ,space,1500,1.5,5bf9a3b95fa6fe0001df5a5e,001,2021-08-19_16h12.47.130,natb3,2021.2.3,Win32,60.22645146,5bf9a3b95fa6fe0001df5a5e,611e07ecdcc96256ae8d5b80,611e74daa4fd6ec4161167b8,
,,,,space,0.4333,,0,38,38,155,1,O, , , , ,space,1500,1.5,5bf9a3b95fa6fe0001df5a5e,001,2021-08-19_16h12.47.130,natb3,2021.2.3,Win32,60.22645146,5bf9a3b95fa6fe0001df5a5e,611e07ecdcc96256ae8d5b80,611e74daa4fd6ec4161167b8,
,,,,space,0.4175,,0,39,39,50,1,D, , , , ,space,1500,1.5,5bf9a3b95fa6fe0001df5a5e,001,2021-08-19_16h12.47.130,natb3,2021.2.3,Win32,60.22645146,5bf9a3b95fa6fe0001df5a5e,611e07ecdcc96256ae8d5b80,611e74daa4fd6ec4161167b8,
,,,,space,0.4843,,0,40,40,193,1,S, , , , ,space,2500,2.5,5bf9a3b95fa6fe0001df5a5e,001,2021-08-19_16h12.47.130,natb3,2021.2.3,Win32,60.22645146,5bf9a3b95fa6fe0001df5a5e,611e07ecdcc96256ae8d5b80,611e74daa4fd6ec4161167b8,
,,,,,,,0,41,41,122,1,X,1, , ,8,,1500,1.5,5bf9a3b95fa6fe0001df5a5e,001,2021-08-19_16h12.47.130,natb3,2021.2.3,Win32,60.22645146,5bf9a3b95fa6fe0001df5a5e,611e07ecdcc96256ae8d5b80,611e74daa4fd6ec4161167b8,
,,,,space,0.4075,,0,42,42,180,1,W, , , , ,space,2000,2,5bf9a3b95fa6fe0001df5a5e,001,2021-08-19_16h12.47.130,natb3,2021.2.3,Win32,60.22645146,5bf9a3b95fa6fe0001df5a5e,611e07ecdcc96256ae8d5b80,611e74daa4fd6ec4161167b8,
,,,,space,0.4389,,0,43,43,189,1,O, , , , ,space,1500,1.5,5bf9a3b95fa6fe0001df5a5e,001,2021-08-19_16h12.47.130,natb3,2021.2.3,Win32,60.22645146,5bf9a3b95fa6fe0001df5a5e,611e07ecdcc96256ae8d5b80,611e74daa4fd6ec4161167b8,
,,,,,,,0,44,44,78,1,X, , , , ,,2000,2,5bf9a3b95fa6fe0001df5a5e,001,2021-08-19_16h12.47.130,natb3,2021.2.3,Win32,60.22645146,5bf9a3b95fa6fe0001df5a5e,611e07ecdcc96256ae8d5b80,611e74daa4fd6ec4161167b8,
,,,,space,0.4515,,0,45,45,159,1,S, , , , ,space,2500,2.5,5bf9a3b95fa6fe0001df5a5e,001,2021-08-19_16h12.47.130,natb3,2021.2.3,Win32,60.22645146,5bf9a3b95fa6fe0001df5a5e,611e07ecdcc96256ae8d5b80,611e74daa4fd6ec4161167b8,
,,,,space,0.3834,,0,46,46,10,1,O, , , , ,space,2000,2,5bf9a3b95fa6fe0001df5a5e,001,2021-08-19_16h12.47.130,natb3,2021.2.3,Win32,60.22645146,5bf9a3b95fa6fe0001df5a5e,611e07ecdcc96256ae8d5b80,611e74daa4fd6ec4161167b8,
,,,,space,0.3673,,0,47,47,95,1,V, , , , ,space,1500,1.5,5bf9a3b95fa6fe0001df5a5e,001,2021-08-19_16h12.47.130,natb3,2021.2.3,Win32,60.22645146,5bf9a3b95fa6fe0001df5a5e,611e07ecdcc96256ae8d5b80,611e74daa4fd6ec4161167b8,
,,,,space,0.4169,,0,48,48,101,1,Q, , , , ,space,2500,2.5,5bf9a3b95fa6fe0001df5a5e,001,2021-08-19_16h12.47.130,natb3,2021.2.3,Win32,60.22645146,5bf9a3b95fa6fe0001df5a5e,611e07ecdcc96256ae8d5b80,611e74daa4fd6ec4161167b8,
,,,,space,0.4235,,0,49,49,3,1,R, , , , ,space,2000,2,5bf9a3b95fa6fe0001df5a5e,001,2021-08-19_16h12.47.130,natb3,2021.2.3,Win32,60.22645146,5bf9a3b95fa6fe0001df5a5e,611e07ecdcc96256ae8d5b80,611e74daa4fd6ec4161167b8,
,,,,space,0.5,,0,50,50,223,1,Q, , , , ,space,2000,2,5bf9a3b95fa6fe0001df5a5e,001,2021-08-19_16h12.47.130,natb3,2021.2.3,Win32,60.22645146,5bf9a3b95fa6fe0001df5a5e,611e07ecdcc96256ae8d5b80,611e74daa4fd6ec4161167b8,
,,,,space,0.4995,,0,51,51,240,1,F, , , , ,space,2500,2.5,5bf9a3b95fa6fe0001df5a5e,001,2021-08-19_16h12.47.130,natb3,2021.2.3,Win32,60.22645146,5bf9a3b95fa6fe0001df5a5e,611e07ecdcc96256ae8d5b80,611e74daa4fd6ec4161167b8,
,,,,space,0.5253,,0,52,52,183,1,R, , , , ,space,1500,1.5,5bf9a3b95fa6fe0001df5a5e,001,2021-08-19_16h12.47.130,natb3,2021.2.3,Win32,60.22645146,5bf9a3b95fa6fe0001df5a5e,611e07ecdcc96256ae8d5b80,611e74daa4fd6ec4161167b8,
,,,,space,0.5506,,0,53,53,34,1,Q, , , , ,space,2500,2.5,5bf9a3b95fa6fe0001df5a5e,001,2021-08-19_16h12.47.130,natb3,2021.2.3,Win32,60.22645146,5bf9a3b95fa6fe0001df5a5e,611e07ecdcc96256ae8d5b80,611e74daa4fd6ec4161167b8,
,,,,,,,0,54,54,213,1,X, , , , ,,2500,2.5,5bf9a3b95fa6fe0001df5a5e,001,2021-08-19_16h12.47.130,natb3,2021.2.3,Win32,60.22645146,5bf9a3b95fa6fe0001df5a5e,611e07ecdcc96256ae8d5b80,611e74daa4fd6ec4161167b8,
,,,,space,0.5343,,0,55,55,154,1,I, , , , ,space,2500,2.5,5bf9a3b95fa6fe0001df5a5e,001,2021-08-19_16h12.47.130,natb3,2021.2.3,Win32,60.22645146,5bf9a3b95fa6fe0001df5a5e,611e07ecdcc96256ae8d5b80,611e74daa4fd6ec4161167b8,
,,,,,,,0,56,56,273,1,X, , , , ,,2000,2,5bf9a3b95fa6fe0001df5a5e,001,2021-08-19_16h12.47.130,natb3,2021.2.3,Win32,60.22645146,5bf9a3b95fa6fe0001df5a5e,611e07ecdcc96256ae8d5b80,611e74daa4fd6ec4161167b8,
,,,,,,,0,57,57,255,1,X, , , , ,,1500,1.5,5bf9a3b95fa6fe0001df5a5e,001,2021-08-19_16h12.47.130,natb3,2021.2.3,Win32,60.22645146,5bf9a3b95fa6fe0001df5a5e,611e07ecdcc96256ae8d5b80,611e74daa4fd6ec4161167b8,
,,,,space,0.4347,,0,58,58,17,1,F, , , , ,space,2500,2.5,5bf9a3b95fa6fe0001df5a5e,001,2021-08-19_16h12.47.130,natb3,2021.2.3,Win32,60.22645146,5bf9a3b95fa6fe0001df5a5e,611e07ecdcc96256ae8d5b80,611e74daa4fd6ec4161167b8,
,,,,space,0.5013,,0,59,59,76,1,I, , , , ,space,2000,2,5bf9a3b95fa6fe0001df5a5e,001,2021-08-19_16h12.47.130,natb3,2021.2.3,Win32,60.22645146,5bf9a3b95fa6fe0001df5a5e,611e07ecdcc96256ae8d5b80,611e74daa4fd6ec4161167b8,
,,,,space,0.4733,,0,60,60,88,1,J, , , , ,space,2500,2.5,5bf9a3b95fa6fe0001df5a5e,001,2021-08-19_16h12.47.130,natb3,2021.2.3,Win32,60.22645146,5bf9a3b95fa6fe0001df5a5e,611e07ecdcc96256ae8d5b80,611e74daa4fd6ec4161167b8,
,,,,space,0.4169,,0,61,61,16,1,D, , , , ,space,1500,1.5,5bf9a3b95fa6fe0001df5a5e,001,2021-08-19_16h12.47.130,natb3,2021.2.3,Win32,60.22645146,5bf9a3b95fa6fe0001df5a5e,611e07ecdcc96256ae8d5b80,611e74daa4fd6ec4161167b8,
,,,,space,0.4364,,0,62,62,222,1,O, , , , ,space,2000,2,5bf9a3b95fa6fe0001df5a5e,001,2021-08-19_16h12.47.130,natb3,2021.2.3,Win32,60.22645146,5bf9a3b95fa6fe0001df5a5e,611e07ecdcc96256ae8d5b80,611e74daa4fd6ec4161167b8,
,,,,,,,0,63,63,148,1,X, , , , ,,2000,2,5bf9a3b95fa6fe0001df5a5e,001,2021-08-19_16h12.47.130,natb3,2021.2.3,Win32,60.22645146,5bf9a3b95fa6fe0001df5a5e,611e07ecdcc96256ae8d5b80,611e74daa4fd6ec4161167b8,
,,,,space,0.5012,,0,64,64,242,1,H, , , , ,space,2500,2.5,5bf9a3b95fa6fe0001df5a5e,001,2021-08-19_16h12.47.130,natb3,2021.2.3,Win32,60.22645146,5bf9a3b95fa6fe0001df5a5e,611e07ecdcc96256ae8d5b80,611e74daa4fd6ec4161167b8,
,,,,,,,0,65,65,145,1,X, , , , ,,2000,2,5bf9a3b95fa6fe0001df5a5e,001,2021-08-19_16h12.47.130,natb3,2021.2.3,Win32,60.22645146,5bf9a3b95fa6fe0001df5a5e,611e07ecdcc96256ae8d5b80,611e74daa4fd6ec4161167b8,
,,,,,,,0,66,66,166,1,X, , , , ,,2000,2,5bf9a3b95fa6fe0001df5a5e,001,2021-08-19_16h12.47.130,natb3,2021.2.3,Win32,60.22645146,5bf9a3b95fa6fe0001df5a5e,611e07ecdcc96256ae8d5b80,611e74daa4fd6ec4161167b8,
,,,,space,0.5229,,0,67,67,92,1,Z, , , , ,space,1500,1.5,5bf9a3b95fa6fe0001df5a5e,001,2021-08-19_16h12.47.130,natb3,2021.2.3,Win32,60.22645146,5bf9a3b95fa6fe0001df5a5e,611e07ecdcc96256ae8d5b80,611e74daa4fd6ec4161167b8,
,,,,,,,0,68,68,84,1,X, , , , ,,2000,2,5bf9a3b95fa6fe0001df5a5e,001,2021-08-19_16h12.47.130,natb3,2021.2.3,Win32,60.22645146,5bf9a3b95fa6fe0001df5a5e,611e07ecdcc96256ae8d5b80,611e74daa4fd6ec4161167b8,
,,,,space,0.5343,,0,69,69,135,1,K, , , , ,space,1500,1.5,5bf9a3b95fa6fe0001df5a5e,001,2021-08-19_16h12.47.130,natb3,2021.2.3,Win32,60.22645146,5bf9a3b95fa6fe0001df5a5e,611e07ecdcc96256ae8d5b80,611e74daa4fd6ec4161167b8,
,,,,space,0.4693,,0,70,70,58,1,L, , , , ,space,2000,2,5bf9a3b95fa6fe0001df5a5e,001,2021-08-19_16h12.47.130,natb3,2021.2.3,Win32,60.22645146,5bf9a3b95fa6fe0001df5a5e,611e07ecdcc96256ae8d5b80,611e74daa4fd6ec4161167b8,
,,,,space,0.4336,,0,71,71,117,1,T, , , , ,space,2500,2.5,5bf9a3b95fa6fe0001df5a5e,001,2021-08-19_16h12.47.130,natb3,2021.2.3,Win32,60.22645146,5bf9a3b95fa6fe0001df5a5e,611e07ecdcc96256ae8d5b80,611e74daa4fd6ec4161167b8,
,,,,,,,0,72,72,51,1,X,7,5,8, ,,1500,1.5,5bf9a3b95fa6fe0001df5a5e,001,2021-08-19_16h12.47.130,natb3,2021.2.3,Win32,60.22645146,5bf9a3b95fa6fe0001df5a5e,611e07ecdcc96256ae8d5b80,611e74daa4fd6ec4161167b8,
,,,,,,,0,73,73,322,1,X, , ,1,6,,2000,2,5bf9a3b95fa6fe0001df5a5e,001,2021-08-19_16h12.47.130,natb3,2021.2.3,Win32,60.22645146,5bf9a3b95fa6fe0001df5a5e,611e07ecdcc96256ae8d5b80,611e74daa4fd6ec4161167b8,
,,,,space,0.435,,0,74,74,121,1,I, , , , ,space,2000,2,5bf9a3b95fa6fe0001df5a5e,001,2021-08-19_16h12.47.130,natb3,2021.2.3,Win32,60.22645146,5bf9a3b95fa6fe0001df5a5e,611e07ecdcc96256ae8d5b80,611e74daa4fd6ec4161167b8,
,,,,space,0.4224,,0,75,75,131,1,G, , , , ,space,1500,1.5,5bf9a3b95fa6fe0001df5a5e,001,2021-08-19_16h12.47.130,natb3,2021.2.3,Win32,60.22645146,5bf9a3b95fa6fe0001df5a5e,611e07ecdcc96256ae8d5b80,611e74daa4fd6ec4161167b8,
,,,,,,,0,76,76,179,1,X, ,9, ,2,,1500,1.5,5bf9a3b95fa6fe0001df5a5e,001,2021-08-19_16h12.47.130,natb3,2021.2.3,Win32,60.22645146,5bf9a3b95fa6fe0001df5a5e,611e07ecdcc96256ae8d5b80,611e74daa4fd6ec4161167b8,
,,,,,,,0,77,77,171,1,X, , , , ,,1500,1.5,5bf9a3b95fa6fe0001df5a5e,001,2021-08-19_16h12.47.130,natb3,2021.2.3,Win32,60.22645146,5bf9a3b95fa6fe0001df5a5e,611e07ecdcc96256ae8d5b80,611e74daa4fd6ec4161167b8,
,,,,,,,0,78,78,252,1,X,3, ,6,9,,2000,2,5bf9a3b95fa6fe0001df5a5e,001,2021-08-19_16h12.47.130,natb3,2021.2.3,Win32,60.22645146,5bf9a3b95fa6fe0001df5a5e,611e07ecdcc96256ae8d5b80,611e74daa4fd6ec4161167b8,
,,,,space,0.5009,,0,79,79,199,1,J, , , , ,space,2500,2.5,5bf9a3b95fa6fe0001df5a5e,001,2021-08-19_16h12.47.130,natb3,2021.2.3,Win32,60.22645146,5bf9a3b95fa6fe0001df5a5e,611e07ecdcc96256ae8d5b80,611e74daa4fd6ec4161167b8,
,,,,space,0.5181,,0,80,80,5,1,T, , , , ,space,2000,2,5bf9a3b95fa6fe0001df5a5e,001,2021-08-19_16h12.47.130,natb3,2021.2.3,Win32,60.22645146,5bf9a3b95fa6fe0001df5a5e,611e07ecdcc96256ae8d5b80,611e74daa4fd6ec4161167b8,
,,,,space,0.4386,,0,81,81,160,1,D, , , , ,space,1500,1.5,5bf9a3b95fa6fe0001df5a5e,001,2021-08-19_16h12.47.130,natb3,2021.2.3,Win32,60.22645146,5bf9a3b95fa6fe0001df5a5e,611e07ecdcc96256ae8d5b80,611e74daa4fd6ec4161167b8,
,,,,space,0.5673,,0,82,82,214,1,W, , , , ,space,2000,2,5bf9a3b95fa6fe0001df5a5e,001,2021-08-19_16h12.47.130,natb3,2021.2.3,Win32,60.22645146,5bf9a3b95fa6fe0001df5a5e,611e07ecdcc96256ae8d5b80,611e74daa4fd6ec4161167b8,
,,,,space,0.4522,,0,83,83,174,1,B, , , , ,space,2500,2.5,5bf9a3b95fa6fe0001df5a5e,001,2021-08-19_16h12.47.130,natb3,2021.2.3,Win32,60.22645146,5bf9a3b95fa6fe0001df5a5e,611e07ecdcc96256ae8d5b80,611e74daa4fd6ec4161167b8,
,,,,space,0.4842,,0,84,84,237,1,S, , , , ,space,1500,1.5,5bf9a3b95fa6fe0001df5a5e,001,2021-08-19_16h12.47.130,natb3,2021.2.3,Win32,60.22645146,5bf9a3b95fa6fe0001df5a5e,611e07ecdcc96256ae8d5b80,611e74daa4fd6ec4161167b8,
,,,,space,0.5358,,0,85,85,68,1,W, , , , ,space,2500,2.5,5bf9a3b95fa6fe0001df5a5e,001,2021-08-19_16h12.47.130,natb3,2021.2.3,Win32,60.22645146,5bf9a3b95fa6fe0001df5a5e,611e07ecdcc96256ae8d5b80,611e74daa4fd6ec4161167b8,
,,,,space,0.4014,,0,86,86,321,1,N, , , , ,space,2000,2,5bf9a3b95fa6fe0001df5a5e,001,2021-08-19_16h12.47.130,natb3,2021.2.3,Win32,60.22645146,5bf9a3b95fa6fe0001df5a5e,611e07ecdcc96256ae8d5b80,611e74daa4fd6ec4161167b8,
,,,,space,0.4703,,0,87,87,245,1,K, , , , ,space,2000,2,5bf9a3b95fa6fe0001df5a5e,001,2021-08-19_16h12.47.130,natb3,2021.2.3,Win32,60.22645146,5bf9a3b95fa6fe0001df5a5e,611e07ecdcc96256ae8d5b80,611e74daa4fd6ec4161167b8,
,,,,space,0.4199,,0,88,88,172,1,C, , , , ,space,1500,1.5,5bf9a3b95fa6fe0001df5a5e,001,2021-08-19_16h12.47.130,natb3,2021.2.3,Win32,60.22645146,5bf9a3b95fa6fe0001df5a5e,611e07ecdcc96256ae8d5b80,611e74daa4fd6ec4161167b8,
,,,,space,0.4008,,0,89,89,156,1,P, , , , ,space,1500,1.5,5bf9a3b95fa6fe0001df5a5e,001,2021-08-19_16h12.47.130,natb3,2021.2.3,Win32,60.22645146,5bf9a3b95fa6fe0001df5a5e,611e07ecdcc96256ae8d5b80,611e74daa4fd6ec4161167b8,
,,,,space,0.4675,,0,90,90,126,1,A, , , , ,space,2500,2.5,5bf9a3b95fa6fe0001df5a5e,001,2021-08-19_16h12.47.130,natb3,2021.2.3,Win32,60.22645146,5bf9a3b95fa6fe0001df5a5e,611e07ecdcc96256ae8d5b80,611e74daa4fd6ec4161167b8,
,,,,space,0.439,,0,91,91,81,1,S, , , , ,space,2000,2,5bf9a3b95fa6fe0001df5a5e,001,2021-08-19_16h12.47.130,natb3,2021.2.3,Win32,60.22645146,5bf9a3b95fa6fe0001df5a5e,611e07ecdcc96256ae8d5b80,611e74daa4fd6ec4161167b8,
,,,,space,0.4159,,0,92,92,288,1,M, , , , ,space,1500,1.5,5bf9a3b95fa6fe0001df5a5e,001,2021-08-19_16h12.47.130,natb3,2021.2.3,Win32,60.22645146,5bf9a3b95fa6fe0001df5a5e,611e07ecdcc96256ae8d5b80,611e74daa4fd6ec4161167b8,
,,,,space,0.4712,,0,93,93,43,1,X, ,6, ,2,,2500,2.5,5bf9a3b95fa6fe0001df5a5e,001,2021-08-19_16h12.47.130,natb3,2021.2.3,Win32,60.22645146,5bf9a3b95fa6fe0001df5a5e,611e07ecdcc96256ae8d5b80,611e74daa4fd6ec4161167b8,
,,,,space,0.4507,,0,94,94,111,1,O, , , , ,space,2000,2,5bf9a3b95fa6fe0001df5a5e,001,2021-08-19_16h12.47.130,natb3,2021.2.3,Win32,60.22645146,5bf9a3b95fa6fe0001df5a5e,611e07ecdcc96256ae8d5b80,611e74daa4fd6ec4161167b8,
,,,,space,0.4839,,0,95,95,100,1,M, , , , ,space,2000,2,5bf9a3b95fa6fe0001df5a5e,001,2021-08-19_16h12.47.130,natb3,2021.2.3,Win32,60.22645146,5bf9a3b95fa6fe0001df5a5e,611e07ecdcc96256ae8d5b80,611e74daa4fd6ec4161167b8,
,,,,space,0.5497,,0,96,96,309,1,H, , , , ,space,2500,2.5,5bf9a3b95fa6fe0001df5a5e,001,2021-08-19_16h12.47.130,natb3,2021.2.3,Win32,60.22645146,5bf9a3b95fa6fe0001df5a5e,611e07ecdcc96256ae8d5b80,611e74daa4fd6ec4161167b8,
,,,,space,0.4891,,0,97,97,45,1,O, , , , ,space,2000,2,5bf9a3b95fa6fe0001df5a5e,001,2021-08-19_16h12.47.130,natb3,2021.2.3,Win32,60.22645146,5bf9a3b95fa6fe0001df5a5e,611e07ecdcc96256ae8d5b80,611e74daa4fd6ec4161167b8,
,,,,space,0.4387,,0,98,98,328,1,R, , , , ,space,1500,1.5,5bf9a3b95fa6fe0001df5a5e,001,2021-08-19_16h12.47.130,natb3,2021.2.3,Win32,60.22645146,5bf9a3b95fa6fe0001df5a5e,611e07ecdcc96256ae8d5b80,611e74daa4fd6ec4161167b8,
,,,,space,0.6502,,0,99,99,331,1,Y, , , , ,space,2500,2.5,5bf9a3b95fa6fe0001df5a5e,001,2021-08-19_16h12.47.130,natb3,2021.2.3,Win32,60.22645146,5bf9a3b95fa6fe0001df5a5e,611e07ecdcc96256ae8d5b80,611e74daa4fd6ec4161167b8,
,,,,space,0.4674,,0,100,100,227,1,T, , , , ,space,1500,1.5,5bf9a3b95fa6fe0001df5a5e,001,2021-08-19_16h12.47.130,natb3,2021.2.3,Win32,60.22645146,5bf9a3b95fa6fe0001df5a5e,611e07ecdcc96256ae8d5b80,611e74daa4fd6ec4161167b8,
,,,,,,,0,101,101,23,1,X,1, ,5, ,,2000,2,5bf9a3b95fa6fe0001df5a5e,001,2021-08-19_16h12.47.130,natb3,2021.2.3,Win32,60.22645146,5bf9a3b95fa6fe0001df5a5e,611e07ecdcc96256ae8d5b80,611e74daa4fd6ec4161167b8,
,,,,space,0.4841,,0,102,102,260,1,R, , , , ,space,2000,2,5bf9a3b95fa6fe0001df5a5e,001,2021-08-19_16h12.47.130,natb3,2021.2.3,Win32,60.22645146,5bf9a3b95fa6fe0001df5a5e,611e07ecdcc96256ae8d5b80,611e74daa4fd6ec4161167b8,
,,,,space,0.5006,,0,103,103,224,1,W, , , , ,space,1500,1.5,5bf9a3b95fa6fe0001df5a5e,001,2021-08-19_16h12.47.130,natb3,2021.2.3,Win32,60.22645146,5bf9a3b95fa6fe0001df5a5e,611e07ecdcc96256ae8d5b80,611e74daa4fd6ec4161167b8,
,,,,,,,0,104,104,211,1,X, , , , ,,2500,2.5,5bf9a3b95fa6fe0001df5a5e,001,2021-08-19_16h12.47.130,natb3,2021.2.3,Win32,60.22645146,5bf9a3b95fa6fe0001df5a5e,611e07ecdcc96256ae8d5b80,611e74daa4fd6ec4161167b8,
,,,,space,0.4342,,0,105,105,307,1,F, , , , ,space,2500,2.5,5bf9a3b95fa6fe0001df5a5e,001,2021-08-19_16h12.47.130,natb3,2021.2.3,Win32,60.22645146,5bf9a3b95fa6fe0001df5a5e,611e07ecdcc96256ae8d5b80,611e74daa4fd6ec4161167b8,
,,,,space,0.5513,,0,106,106,105,1,R, , , , ,space,2500,2.5,5bf9a3b95fa6fe0001df5a5e,001,2021-08-19_16h12.47.130,natb3,2021.2.3,Win32,60.22645146,5bf9a3b95fa6fe0001df5a5e,611e07ecdcc96256ae8d5b80,611e74daa4fd6ec4161167b8,
,,,,space,0.5555,,0,107,107,151,1,Y, , , , ,space,2500,2.5,5bf9a3b95fa6fe0001df5a5e,001,2021-08-19_16h12.47.130,natb3,2021.2.3,Win32,60.22645146,5bf9a3b95fa6fe0001df5a5e,611e07ecdcc96256ae8d5b80,611e74daa4fd6ec4161167b8,
,,,,space,0.4538,,0,108,108,197,1,G, , , , ,space,2500,2.5,5bf9a3b95fa6fe0001df5a5e,001,2021-08-19_16h12.47.130,natb3,2021.2.3,Win32,60.22645146,5bf9a3b95fa6fe0001df5a5e,611e07ecdcc96256ae8d5b80,611e74daa4fd6ec4161167b8,
,,,,,,,0,109,109,291,1,X, , , , ,,2000,2,5bf9a3b95fa6fe0001df5a5e,001,2021-08-19_16h12.47.130,natb3,2021.2.3,Win32,60.22645146,5bf9a3b95fa6fe0001df5a5e,611e07ecdcc96256ae8d5b80,611e74daa4fd6ec4161167b8,
,,,,space,0.4672,,0,110,110,274,1,F, , , , ,space,2000,2,5bf9a3b95fa6fe0001df5a5e,001,2021-08-19_16h12.47.130,natb3,2021.2.3,Win32,60.22645146,5bf9a3b95fa6fe0001df5a5e,611e07ecdcc96256ae8d5b80,611e74daa4fd6ec4161167b8,
,,,,,,,0,111,111,271,1,X, , , , ,,2500,2.5,5bf9a3b95fa6fe0001df5a5e,001,2021-08-19_16h12.47.130,natb3,2021.2.3,Win32,60.22645146,5bf9a3b95fa6fe0001df5a5e,611e07ecdcc96256ae8d5b80,611e74daa4fd6ec4161167b8,
,,,,,,,0,112,112,31,1,X, , , , ,,1500,1.5,5bf9a3b95fa6fe0001df5a5e,001,2021-08-19_16h12.47.130,natb3,2021.2.3,Win32,60.22645146,5bf9a3b95fa6fe0001df5a5e,611e07ecdcc96256ae8d5b80,611e74daa4fd6ec4161167b8,
,,,,space,0.5177,,0,113,113,112,1,Q, , , , ,space,2500,2.5,5bf9a3b95fa6fe0001df5a5e,001,2021-08-19_16h12.47.130,natb3,2021.2.3,Win32,60.22645146,5bf9a3b95fa6fe0001df5a5e,611e07ecdcc96256ae8d5b80,611e74daa4fd6ec4161167b8,
,,,,space,0.5017,,0,114,114,198,1,H, , , , ,space,2500,2.5,5bf9a3b95fa6fe0001df5a5e,001,2021-08-19_16h12.47.130,natb3,2021.2.3,Win32,60.22645146,5bf9a3b95fa6fe0001df5a5e,611e07ecdcc96256ae8d5b80,611e74daa4fd6ec4161167b8,
,,,,space,0.4419,,0,115,115,21,1,J, , , , ,space,1500,1.5,5bf9a3b95fa6fe0001df5a5e,001,2021-08-19_16h12.47.130,natb3,2021.2.3,Win32,60.22645146,5bf9a3b95fa6fe0001df5a5e,611e07ecdcc96256ae8d5b80,611e74daa4fd6ec4161167b8,
,,,,,,,0,116,116,4,1,X, , , , ,,2000,2,5bf9a3b95fa6fe0001df5a5e,001,2021-08-19_16h12.47.130,natb3,2021.2.3,Win32,60.22645146,5bf9a3b95fa6fe0001df5a5e,611e07ecdcc96256ae8d5b80,611e74daa4fd6ec4161167b8,
,,,,,,,0,117,117,69,1,X, , , , ,,1500,1.5,5bf9a3b95fa6fe0001df5a5e,001,2021-08-19_16h12.47.130,natb3,2021.2.3,Win32,60.22645146,5bf9a3b95fa6fe0001df5a5e,611e07ecdcc96256ae8d5b80,611e74daa4fd6ec4161167b8,
,,,,space,0.6178,,0,118,118,170,1,Z, , , , ,space,2000,2,5bf9a3b95fa6fe0001df5a5e,001,2021-08-19_16h12.47.130,natb3,2021.2.3,Win32,60.22645146,5bf9a3b95fa6fe0001df5a5e,611e07ecdcc96256ae8d5b80,611e74daa4fd6ec4161167b8,
,,,,space,0.5349,,0,119,119,44,1,I, , , , ,space,2500,2.5,5bf9a3b95fa6fe0001df5a5e,001,2021-08-19_16h12.47.130,natb3,2021.2.3,Win32,60.22645146,5bf9a3b95fa6fe0001df5a5e,611e07ecdcc96256ae8d5b80,611e74daa4fd6ec4161167b8,
,,,,,,,0,120,120,207,1,X,9, ,2, ,,2500,2.5,5bf9a3b95fa6fe0001df5a5e,001,2021-08-19_16h12.47.130,natb3,2021.2.3,Win32,60.22645146,5bf9a3b95fa6fe0001df5a5e,611e07ecdcc96256ae8d5b80,611e74daa4fd6ec4161167b8,
,,,,space,0.5059,,0,121,121,99,1,N, , , , ,space,2500,2.5,5bf9a3b95fa6fe0001df5a5e,001,2021-08-19_16h12.47.130,natb3,2021.2.3,Win32,60.22645146,5bf9a3b95fa6fe0001df5a5e,611e07ecdcc96256ae8d5b80,611e74daa4fd6ec4161167b8,
,,,,space,0.4712,,0,122,122,169,1,L, , , , ,space,2500,2.5,5bf9a3b95fa6fe0001df5a5e,001,2021-08-19_16h12.47.130,natb3,2021.2.3,Win32,60.22645146,5bf9a3b95fa6fe0001df5a5e,611e07ecdcc96256ae8d5b80,611e74daa4fd6ec4161167b8,
,,,,space,0.4343,,0,123,123,238,1,D, , , , ,space,1500,1.5,5bf9a3b95fa6fe0001df5a5e,001,2021-08-19_16h12.47.130,natb3,2021.2.3,Win32,60.22645146,5bf9a3b95fa6fe0001df5a5e,611e07ecdcc96256ae8d5b80,611e74daa4fd6ec4161167b8,
,,,,space,0.4373,,0,124,124,244,1,J, , , , ,space,1500,1.5,5bf9a3b95fa6fe0001df5a5e,001,2021-08-19_16h12.47.130,natb3,2021.2.3,Win32,60.22645146,5bf9a3b95fa6fe0001df5a5e,611e07ecdcc96256ae8d5b80,611e74daa4fd6ec4161167b8,
,,,,,,,0,125,125,203,1,X, , , , ,,2500,2.5,5bf9a3b95fa6fe0001df5a5e,001,2021-08-19_16h12.47.130,natb3,2021.2.3,Win32,60.22645146,5bf9a3b95fa6fe0001df5a5e,611e07ecdcc96256ae8d5b80,611e74daa4fd6ec4161167b8,
,,,,space,0.6186,,0,126,126,262,1,Y, , , , ,space,2500,2.5,5bf9a3b95fa6fe0001df5a5e,001,2021-08-19_16h12.47.130,natb3,2021.2.3,Win32,60.22645146,5bf9a3b95fa6fe0001df5a5e,611e07ecdcc96256ae8d5b80,611e74daa4fd6ec4161167b8,
,,,,space,0.4851,,0,127,127,231,1,I, , , , ,space,2500,2.5,5bf9a3b95fa6fe0001df5a5e,001,2021-08-19_16h12.47.130,natb3,2021.2.3,Win32,60.22645146,5bf9a3b95fa6fe0001df5a5e,611e07ecdcc96256ae8d5b80,611e74daa4fd6ec4161167b8,
,,,,,,,0,128,128,102,1,X, ,6, , ,,1500,1.5,5bf9a3b95fa6fe0001df5a5e,001,2021-08-19_16h12.47.130,natb3,2021.2.3,Win32,60.22645146,5bf9a3b95fa6fe0001df5a5e,611e07ecdcc96256ae8d5b80,611e74daa4fd6ec4161167b8,
,,,,,,,0,129,129,200,1,X,7, ,5,3,,1500,1.5,5bf9a3b95fa6fe0001df5a5e,001,2021-08-19_16h12.47.130,natb3,2021.2.3,Win32,60.22645146,5bf9a3b95fa6fe0001df5a5e,611e07ecdcc96256ae8d5b80,611e74daa4fd6ec4161167b8,
,,,,,,,0,130,130,74,1,X, ,4,3,2,,1500,1.5,5bf9a3b95fa6fe0001df5a5e,001,2021-08-19_16h12.47.130,natb3,2021.2.3,Win32,60.22645146,5bf9a3b95fa6fe0001df5a5e,611e07ecdcc96256ae8d5b80,611e74daa4fd6ec4161167b8,
,,,,space,0.6074,,0,131,131,225,1,E, , , , ,space,2000,2,5bf9a3b95fa6fe0001df5a5e,001,2021-08-19_16h12.47.130,natb3,2021.2.3,Win32,60.22645146,5bf9a3b95fa6fe0001df5a5e,611e07ecdcc96256ae8d5b80,611e74daa4fd6ec4161167b8,
,,,,space,0.7075,,0,132,132,267,1,P, , , , ,space,2000,2,5bf9a3b95fa6fe0001df5a5e,001,2021-08-19_16h12.47.130,natb3,2021.2.3,Win32,60.22645146,5bf9a3b95fa6fe0001df5a5e,611e07ecdcc96256ae8d5b80,611e74daa4fd6ec4161167b8,
,,,,,,,0,133,133,168,1,X, , , , ,,2500,2.5,5bf9a3b95fa6fe0001df5a5e,001,2021-08-19_16h12.47.130,natb3,2021.2.3,Win32,60.22645146,5bf9a3b95fa6fe0001df5a5e,611e07ecdcc96256ae8d5b80,611e74daa4fd6ec4161167b8,
,,,,space,0.5095,,0,134,134,1,1,W, , , , ,space,2000,2,5bf9a3b95fa6fe0001df5a5e,001,2021-08-19_16h12.47.130,natb3,2021.2.3,Win32,60.22645146,5bf9a3b95fa6fe0001df5a5e,611e07ecdcc96256ae8d5b80,611e74daa4fd6ec4161167b8,
,,,,space,0.4682,,0,135,135,106,1,T, , , , ,space,1500,1.5,5bf9a3b95fa6fe0001df5a5e,001,2021-08-19_16h12.47.130,natb3,2021.2.3,Win32,60.22645146,5bf9a3b95fa6fe0001df5a5e,611e07ecdcc96256ae8d5b80,611e74daa4fd6ec4161167b8,
,,,,space,0.3835,,0,136,136,292,1,E, , , , ,space,2000,2,5bf9a3b95fa6fe0001df5a5e,001,2021-08-19_16h12.47.130,natb3,2021.2.3,Win32,60.22645146,5bf9a3b95fa6fe0001df5a5e,611e07ecdcc96256ae8d5b80,611e74daa4fd6ec4161167b8,
,,,,space,0.4837,,0,137,137,298,1,I, , , , ,space,2000,2,5bf9a3b95fa6fe0001df5a5e,001,2021-08-19_16h12.47.130,natb3,2021.2.3,Win32,60.22645146,5bf9a3b95fa6fe0001df5a5e,611e07ecdcc96256ae8d5b80,611e74daa4fd6ec4161167b8,
,,,,space,0.3882,,0,138,138,297,1,U, , , , ,space,2000,2,5bf9a3b95fa6fe0001df5a5e,001,2021-08-19_16h12.47.130,natb3,2021.2.3,Win32,60.22645146,5bf9a3b95fa6fe0001df5a5e,611e07ecdcc96256ae8d5b80,611e74daa4fd6ec4161167b8,
,,,,space,0.5585,,0,139,139,279,1,K, , , , ,space,2500,2.5,5bf9a3b95fa6fe0001df5a5e,001,2021-08-19_16h12.47.130,natb3,2021.2.3,Win32,60.22645146,5bf9a3b95fa6fe0001df5a5e,611e07ecdcc96256ae8d5b80,611e74daa4fd6ec4161167b8,
,,,,space,0.425,,0,140,140,270,1,S, , , , ,space,1500,1.5,5bf9a3b95fa6fe0001df5a5e,001,2021-08-19_16h12.47.130,natb3,2021.2.3,Win32,60.22645146,5bf9a3b95fa6fe0001df5a5e,611e07ecdcc96256ae8d5b80,611e74daa4fd6ec4161167b8,
,,,,space,0.4248,,0,141,141,144,1,Q, , , , ,space,2500,2.5,5bf9a3b95fa6fe0001df5a5e,001,2021-08-19_16h12.47.130,natb3,2021.2.3,Win32,60.22645146,5bf9a3b95fa6fe0001df5a5e,611e07ecdcc96256ae8d5b80,611e74daa4fd6ec4161167b8,
,,,,space,0.4681,,0,142,142,219,1,Y, , , , ,space,2000,2,5bf9a3b95fa6fe0001df5a5e,001,2021-08-19_16h12.47.130,natb3,2021.2.3,Win32,60.22645146,5bf9a3b95fa6fe0001df5a5e,611e07ecdcc96256ae8d5b80,611e74daa4fd6ec4161167b8,
,,,,,,,0,143,143,125,1,X, , , , ,,2000,2,5bf9a3b95fa6fe0001df5a5e,001,2021-08-19_16h12.47.130,natb3,2021.2.3,Win32,60.22645146,5bf9a3b95fa6fe0001df5a5e,611e07ecdcc96256ae8d5b80,611e74daa4fd6ec4161167b8,
,,,,space,0.4913,,0,144,144,62,1,V, , , , ,space,1500,1.5,5bf9a3b95fa6fe0001df5a5e,001,2021-08-19_16h12.47.130,natb3,2021.2.3,Win32,60.22645146,5bf9a3b95fa6fe0001df5a5e,611e07ecdcc96256ae8d5b80,611e74daa4fd6ec4161167b8,
,,,,space,0.4509,,0,145,145,232,1,O, , , , ,space,2500,2.5,5bf9a3b95fa6fe0001df5a5e,001,2021-08-19_16h12.47.130,natb3,2021.2.3,Win32,60.22645146,5bf9a3b95fa6fe0001df5a5e,611e07ecdcc96256ae8d5b80,611e74daa4fd6ec4161167b8,
,,,,,,,0,146,146,311,1,X,1,2,7,3,,2500,2.5,5bf9a3b95fa6fe0001df5a5e,001,2021-08-19_16h12.47.130,natb3,2021.2.3,Win32,60.22645146,5bf9a3b95fa6fe0001df5a5e,611e07ecdcc96256ae8d5b80,611e74daa4fd6ec4161167b8,
,,,,space,0.4341,,0,147,147,165,1,J, , , , ,space,2500,2.5,5bf9a3b95fa6fe0001df5a5e,001,2021-08-19_16h12.47.130,natb3,2021.2.3,Win32,60.22645146,5bf9a3b95fa6fe0001df5a5e,611e07ecdcc96256ae8d5b80,611e74daa4fd6ec4161167b8,
,,,,,,,0,148,148,268,1,X,6, ,3, ,,2500,2.5,5bf9a3b95fa6fe0001df5a5e,001,2021-08-19_16h12.47.130,natb3,2021.2.3,Win32,60.22645146,5bf9a3b95fa6fe0001df5a5e,611e07ecdcc96256ae8d5b80,611e74daa4fd6ec4161167b8,
,,,,space,0.6007,,0,149,149,269,1,A, , , , ,space,2500,2.5,5bf9a3b95fa6fe0001df5a5e,001,2021-08-19_16h12.47.130,natb3,2021.2.3,Win32,60.22645146,5bf9a3b95fa6fe0001df5a5e,611e07ecdcc96256ae8d5b80,611e74daa4fd6ec4161167b8,
,,,,space,0.5843,,0,150,150,188,1,I, , , , ,space,2500,2.5,5bf9a3b95fa6fe0001df5a5e,001,2021-08-19_16h12.47.130,natb3,2021.2.3,Win32,60.22645146,5bf9a3b95fa6fe0001df5a5e,611e07ecdcc96256ae8d5b80,611e74daa4fd6ec4161167b8,
,,,,space,0.5425,,0,151,151,249,1,C, , , , ,space,2000,2,5bf9a3b95fa6fe0001df5a5e,001,2021-08-19_16h12.47.130,natb3,2021.2.3,Win32,60.22645146,5bf9a3b95fa6fe0001df5a5e,611e07ecdcc96256ae8d5b80,611e74daa4fd6ec4161167b8,
,,,,space,0.523,,0,152,152,334,1,O, , , , ,space,1500,1.5,5bf9a3b95fa6fe0001df5a5e,001,2021-08-19_16h12.47.130,natb3,2021.2.3,Win32,60.22645146,5bf9a3b95fa6fe0001df5a5e,611e07ecdcc96256ae8d5b80,611e74daa4fd6ec4161167b8,
,,,,space,0.4751,,0,153,153,324,1,Q, , , , ,space,2000,2,5bf9a3b95fa6fe0001df5a5e,001,2021-08-19_16h12.47.130,natb3,2021.2.3,Win32,60.22645146,5bf9a3b95fa6fe0001df5a5e,611e07ecdcc96256ae8d5b80,611e74daa4fd6ec4161167b8,
,,,,space,0.469,,0,154,154,124,1,P, , , , ,space,2000,2,5bf9a3b95fa6fe0001df5a5e,001,2021-08-19_16h12.47.130,natb3,2021.2.3,Win32,60.22645146,5bf9a3b95fa6fe0001df5a5e,611e07ecdcc96256ae8d5b80,611e74daa4fd6ec4161167b8,
,,,,space,0.4668,,0,155,155,204,1,Z, , , , ,space,2000,2,5bf9a3b95fa6fe0001df5a5e,001,2021-08-19_16h12.47.130,natb3,2021.2.3,Win32,60.22645146,5bf9a3b95fa6fe0001df5a5e,611e07ecdcc96256ae8d5b80,611e74daa4fd6ec4161167b8,
,,,,space,0.4846,,0,156,156,28,1,V, , , , ,space,1500,1.5,5bf9a3b95fa6fe0001df5a5e,001,2021-08-19_16h12.47.130,natb3,2021.2.3,Win32,60.22645146,5bf9a3b95fa6fe0001df5a5e,611e07ecdcc96256ae8d5b80,611e74daa4fd6ec4161167b8,
,,,,,,,0,157,157,195,1,X, , , , ,,1500,1.5,5bf9a3b95fa6fe0001df5a5e,001,2021-08-19_16h12.47.130,natb3,2021.2.3,Win32,60.22645146,5bf9a3b95fa6fe0001df5a5e,611e07ecdcc96256ae8d5b80,611e74daa4fd6ec4161167b8,
,,,,space,0.4709,,0,158,158,254,1,M, , , , ,space,1500,1.5,5bf9a3b95fa6fe0001df5a5e,001,2021-08-19_16h12.47.130,natb3,2021.2.3,Win32,60.22645146,5bf9a3b95fa6fe0001df5a5e,611e07ecdcc96256ae8d5b80,611e74daa4fd6ec4161167b8,
,,,,space,0.4347,,0,159,159,86,1,G, , , , ,space,2000,2,5bf9a3b95fa6fe0001df5a5e,001,2021-08-19_16h12.47.130,natb3,2021.2.3,Win32,60.22645146,5bf9a3b95fa6fe0001df5a5e,611e07ecdcc96256ae8d5b80,611e74daa4fd6ec4161167b8,
,,,,space,0.4854,,0,160,160,13,1,A, , , , ,space,2000,2,5bf9a3b95fa6fe0001df5a5e,001,2021-08-19_16h12.47.130,natb3,2021.2.3,Win32,60.22645146,5bf9a3b95fa6fe0001df5a5e,611e07ecdcc96256ae8d5b80,611e74daa4fd6ec4161167b8,
,,,,space,0.5252,,0,161,161,184,1,T, , , , ,space,2000,2,5bf9a3b95fa6fe0001df5a5e,001,2021-08-19_16h12.47.130,natb3,2021.2.3,Win32,60.22645146,5bf9a3b95fa6fe0001df5a5e,611e07ecdcc96256ae8d5b80,611e74daa4fd6ec4161167b8,
,,,,space,0.5024,,0,162,162,91,1,L, , , , ,space,2000,2,5bf9a3b95fa6fe0001df5a5e,001,2021-08-19_16h12.47.130,natb3,2021.2.3,Win32,60.22645146,5bf9a3b95fa6fe0001df5a5e,611e07ecdcc96256ae8d5b80,611e74daa4fd6ec4161167b8,
,,,,space,0.4673,,0,163,163,137,1,C, , , , ,space,2500,2.5,5bf9a3b95fa6fe0001df5a5e,001,2021-08-19_16h12.47.130,natb3,2021.2.3,Win32,60.22645146,5bf9a3b95fa6fe0001df5a5e,611e07ecdcc96256ae8d5b80,611e74daa4fd6ec4161167b8,
,,,,space,0.4411,,0,164,164,316,1,Z, , , , ,space,1500,1.5,5bf9a3b95fa6fe0001df5a5e,001,2021-08-19_16h12.47.130,natb3,2021.2.3,Win32,60.22645146,5bf9a3b95fa6fe0001df5a5e,611e07ecdcc96256ae8d5b80,611e74daa4fd6ec4161167b8,
,,,,space,0.5008,,0,165,165,284,1,V, , , , ,space,2500,2.5,5bf9a3b95fa6fe0001df5a5e,001,2021-08-19_16h12.47.130,natb3,2021.2.3,Win32,60.22645146,5bf9a3b95fa6fe0001df5a5e,611e07ecdcc96256ae8d5b80,611e74daa4fd6ec4161167b8,
,,,,space,0.4531,,0,166,166,142,1,N, , , , ,space,2500,2.5,5bf9a3b95fa6fe0001df5a5e,001,2021-08-19_16h12.47.130,natb3,2021.2.3,Win32,60.22645146,5bf9a3b95fa6fe0001df5a5e,611e07ecdcc96256ae8d5b80,611e74daa4fd6ec4161167b8,
,,,,space,0.4712,space,0,167,167,59,1,Z, , , , ,space,2000,2,5bf9a3b95fa6fe0001df5a5e,001,2021-08-19_16h12.47.130,natb3,2021.2.3,Win32,60.22645146,5bf9a3b95fa6fe0001df5a5e,611e07ecdcc96256ae8d5b80,611e74daa4fd6ec4161167b8,16.0108
,,,,space,0.4857,,0,168,168,205,1,C, , , , ,space,2000,2,5bf9a3b95fa6fe0001df5a5e,001,2021-08-19_16h12.47.130,natb3,2021.2.3,Win32,60.22645146,5bf9a3b95fa6fe0001df5a5e,611e07ecdcc96256ae8d5b80,611e74daa4fd6ec4161167b8,
,,,,space,0.4504,,0,169,169,250,1,V, , , , ,space,2000,2,5bf9a3b95fa6fe0001df5a5e,001,2021-08-19_16h12.47.130,natb3,2021.2.3,Win32,60.22645146,5bf9a3b95fa6fe0001df5a5e,611e07ecdcc96256ae8d5b80,611e74daa4fd6ec4161167b8,
,,,,space,0.4868,,0,170,170,258,1,E, , , , ,space,1500,1.5,5bf9a3b95fa6fe0001df5a5e,001,2021-08-19_16h12.47.130,natb3,2021.2.3,Win32,60.22645146,5bf9a3b95fa6fe0001df5a5e,611e07ecdcc96256ae8d5b80,611e74daa4fd6ec4161167b8,
,,,,,,,0,171,171,138,1,X,8,5, ,3,,2000,2,5bf9a3b95fa6fe0001df5a5e,001,2021-08-19_16h12.47.130,natb3,2021.2.3,Win32,60.22645146,5bf9a3b95fa6fe0001df5a5e,611e07ecdcc96256ae8d5b80,611e74daa4fd6ec4161167b8,
,,,,space,0.5332,,0,172,172,119,1,Y, , , , ,space,2500,2.5,5bf9a3b95fa6fe0001df5a5e,001,2021-08-19_16h12.47.130,natb3,2021.2.3,Win32,60.22645146,5bf9a3b95fa6fe0001df5a5e,611e07ecdcc96256ae8d5b80,611e74daa4fd6ec4161167b8,
,,,,space,0.4895,,0,173,173,276,1,H, , , , ,space,2000,2,5bf9a3b95fa6fe0001df5a5e,001,2021-08-19_16h12.47.130,natb3,2021.2.3,Win32,60.22645146,5bf9a3b95fa6fe0001df5a5e,611e07ecdcc96256ae8d5b80,611e74daa4fd6ec4161167b8,
,,,,space,0.4515,,0,174,174,22,1,K, , , , ,space,2000,2,5bf9a3b95fa6fe0001df5a5e,001,2021-08-19_16h12.47.130,natb3,2021.2.3,Win32,60.22645146,5bf9a3b95fa6fe0001df5a5e,611e07ecdcc96256ae8d5b80,611e74daa4fd6ec4161167b8,
,,,,,,,0,175,175,325,1,X, , , , ,,2500,2.5,5bf9a3b95fa6fe0001df5a5e,001,2021-08-19_16h12.47.130,natb3,2021.2.3,Win32,60.22645146,5bf9a3b95fa6fe0001df5a5e,611e07ecdcc96256ae8d5b80,611e74daa4fd6ec4161167b8,
,,,,,,,0,176,176,96,1,X, , , , ,,1500,1.5,5bf9a3b95fa6fe0001df5a5e,001,2021-08-19_16h12.47.130,natb3,2021.2.3,Win32,60.22645146,5bf9a3b95fa6fe0001df5a5e,611e07ecdcc96256ae8d5b80,611e74daa4fd6ec4161167b8,
,,,,space,0.4512,,0,177,177,296,1,Y, , , , ,space,2500,2.5,5bf9a3b95fa6fe0001df5a5e,001,2021-08-19_16h12.47.130,natb3,2021.2.3,Win32,60.22645146,5bf9a3b95fa6fe0001df5a5e,611e07ecdcc96256ae8d5b80,611e74daa4fd6ec4161167b8,
,,,,,,,0,178,178,287,1,X, ,2, ,9,,2000,2,5bf9a3b95fa6fe0001df5a5e,001,2021-08-19_16h12.47.130,natb3,2021.2.3,Win32,60.22645146,5bf9a3b95fa6fe0001df5a5e,611e07ecdcc96256ae8d5b80,611e74daa4fd6ec4161167b8,
,,,,space,0.4334,,0,179,179,73,1,Y, , , , ,space,2000,2,5bf9a3b95fa6fe0001df5a5e,001,2021-08-19_16h12.47.130,natb3,2021.2.3,Win32,60.22645146,5bf9a3b95fa6fe0001df5a5e,611e07ecdcc96256ae8d5b80,611e74daa4fd6ec4161167b8,
,,,,space,0.4681,,0,180,180,11,1,P, , , , ,space,2500,2.5,5bf9a3b95fa6fe0001df5a5e,001,2021-08-19_16h12.47.130,natb3,2021.2.3,Win32,60.22645146,5bf9a3b95fa6fe0001df5a5e,611e07ecdcc96256ae8d5b80,611e74daa4fd6ec4161167b8,
,,,,space,0.6372,,0,181,181,87,1,H, , , , ,space,1500,1.5,5bf9a3b95fa6fe0001df5a5e,001,2021-08-19_16h12.47.130,natb3,2021.2.3,Win32,60.22645146,5bf9a3b95fa6fe0001df5a5e,611e07ecdcc96256ae8d5b80,611e74daa4fd6ec4161167b8,
,,,,,,,0,182,182,277,1,X,8,5, ,2,,2000,2,5bf9a3b95fa6fe0001df5a5e,001,2021-08-19_16h12.47.130,natb3,2021.2.3,Win32,60.22645146,5bf9a3b95fa6fe0001df5a5e,611e07ecdcc96256ae8d5b80,611e74daa4fd6ec4161167b8,
,,,,space,0.5216,,0,183,183,0,1,Q, , , , ,space,1500,1.5,5bf9a3b95fa6fe0001df5a5e,001,2021-08-19_16h12.47.130,natb3,2021.2.3,Win32,60.22645146,5bf9a3b95fa6fe0001df5a5e,611e07ecdcc96256ae8d5b80,611e74daa4fd6ec4161167b8,
,,,,space,0.5578,,0,184,184,161,1,F, , , , ,space,1500,1.5,5bf9a3b95fa6fe0001df5a5e,001,2021-08-19_16h12.47.130,natb3,2021.2.3,Win32,60.22645146,5bf9a3b95fa6fe0001df5a5e,611e07ecdcc96256ae8d5b80,611e74daa4fd6ec4161167b8,
,,,,,,,0,185,185,162,1,X,1,6, ,2,,1500,1.5,5bf9a3b95fa6fe0001df5a5e,001,2021-08-19_16h12.47.130,natb3,2021.2.3,Win32,60.22645146,5bf9a3b95fa6fe0001df5a5e,611e07ecdcc96256ae8d5b80,611e74daa4fd6ec4161167b8,
,,,,space,0.5361,,0,186,186,228,1,Y, , , , ,space,2000,2,5bf9a3b95fa6fe0001df5a5e,001,2021-08-19_16h12.47.130,natb3,2021.2.3,Win32,60.22645146,5bf9a3b95fa6fe0001df5a5e,611e07ecdcc96256ae8d5b80,611e74daa4fd6ec4161167b8,
,,,,,,,0,187,187,116,1,X, , , , ,,2000,2,5bf9a3b95fa6fe0001df5a5e,001,2021-08-19_16h12.47.130,natb3,2021.2.3,Win32,60.22645146,5bf9a3b95fa6fe0001df5a5e,611e07ecdcc96256ae8d5b80,611e74daa4fd6ec4161167b8,
,,,,space,0.5531,,0,188,188,14,1,S, , , , ,space,2500,2.5,5bf9a3b95fa6fe0001df5a5e,001,2021-08-19_16h12.47.130,natb3,2021.2.3,Win32,60.22645146,5bf9a3b95fa6fe0001df5a5e,611e07ecdcc96256ae8d5b80,611e74daa4fd6ec4161167b8,
,,,,,,,0,189,189,46,1,X, , , , ,,2000,2,5bf9a3b95fa6fe0001df5a5e,001,2021-08-19_16h12.47.130,natb3,2021.2.3,Win32,60.22645146,5bf9a3b95fa6fe0001df5a5e,611e07ecdcc96256ae8d5b80,611e74daa4fd6ec4161167b8,
,,,,,,,0,190,190,129,1,X,2,3,5, ,,1500,1.5,5bf9a3b95fa6fe0001df5a5e,001,2021-08-19_16h12.47.130,natb3,2021.2.3,Win32,60.22645146,5bf9a3b95fa6fe0001df5a5e,611e07ecdcc96256ae8d5b80,611e74daa4fd6ec4161167b8,
,,,,space,0.5239,,0,191,191,6,1,Y, , , , ,space,2500,2.5,5bf9a3b95fa6fe0001df5a5e,001,2021-08-19_16h12.47.130,natb3,2021.2.3,Win32,60.22645146,5bf9a3b95fa6fe0001df5a5e,611e07ecdcc96256ae8d5b80,611e74daa4fd6ec4161167b8,
,,,,space,0.5357,,0,192,192,150,1,T, , , , ,space,2500,2.5,5bf9a3b95fa6fe0001df5a5e,001,2021-08-19_16h12.47.130,natb3,2021.2.3,Win32,60.22645146,5bf9a3b95fa6fe0001df5a5e,611e07ecdcc96256ae8d5b80,611e74daa4fd6ec4161167b8,
,,,,space,0.4176,,0,193,193,48,1,A, , , , ,space,2500,2.5,5bf9a3b95fa6fe0001df5a5e,001,2021-08-19_16h12.47.130,natb3,2021.2.3,Win32,60.22645146,5bf9a3b95fa6fe0001df5a5e,611e07ecdcc96256ae8d5b80,611e74daa4fd6ec4161167b8,
,,,,space,0.439,,0,194,194,26,1,C, , , , ,space,2000,2,5bf9a3b95fa6fe0001df5a5e,001,2021-08-19_16h12.47.130,natb3,2021.2.3,Win32,60.22645146,5bf9a3b95fa6fe0001df5a5e,611e07ecdcc96256ae8d5b80,611e74daa4fd6ec4161167b8,
,,,,space,0.4073,,0,195,195,97,1,B, , , , ,space,2500,2.5,5bf9a3b95fa6fe0001df5a5e,001,2021-08-19_16h12.47.130,natb3,2021.2.3,Win32,60.22645146,5bf9a3b95fa6fe0001df5a5e,611e07ecdcc96256ae8d5b80,611e74daa4fd6ec4161167b8,
,,,,space,0.5547,,0,196,196,54,1,X, , , , ,,2000,2,5bf9a3b95fa6fe0001df5a5e,001,2021-08-19_16h12.47.130,natb3,2021.2.3,Win32,60.22645146,5bf9a3b95fa6fe0001df5a5e,611e07ecdcc96256ae8d5b80,611e74daa4fd6ec4161167b8,
,,,,space,0.5678,,0,197,197,319,1,V, , , , ,space,2000,2,5bf9a3b95fa6fe0001df5a5e,001,2021-08-19_16h12.47.130,natb3,2021.2.3,Win32,60.22645146,5bf9a3b95fa6fe0001df5a5e,611e07ecdcc96256ae8d5b80,611e74daa4fd6ec4161167b8,
,,,,,,,0,198,198,236,1,X,3, ,4,7,,2500,2.5,5bf9a3b95fa6fe0001df5a5e,001,2021-08-19_16h12.47.130,natb3,2021.2.3,Win32,60.22645146,5bf9a3b95fa6fe0001df5a5e,611e07ecdcc96256ae8d5b80,611e74daa4fd6ec4161167b8,
,,,,space,0.5506,,0,199,199,265,1,I, , , , ,space,2000,2,5bf9a3b95fa6fe0001df5a5e,001,2021-08-19_16h12.47.130,natb3,2021.2.3,Win32,60.22645146,5bf9a3b95fa6fe0001df5a5e,611e07ecdcc96256ae8d5b80,611e74daa4fd6ec4161167b8,
,,,,space,0.7372,,0,200,200,147,1,E, , , , ,space,2000,2,5bf9a3b95fa6fe0001df5a5e,001,2021-08-19_16h12.47.130,natb3,2021.2.3,Win32,60.22645146,5bf9a3b95fa6fe0001df5a5e,611e07ecdcc96256ae8d5b80,611e74daa4fd6ec4161167b8,
,,,,space,0.4763,,0,201,201,185,1,Y, , , , ,space,2500,2.5,5bf9a3b95fa6fe0001df5a5e,001,2021-08-19_16h12.47.130,natb3,2021.2.3,Win32,60.22645146,5bf9a3b95fa6fe0001df5a5e,611e07ecdcc96256ae8d5b80,611e74daa4fd6ec4161167b8,
,,,,space,0.5176,,0,202,202,253,1,N, , , , ,space,2500,2.5,5bf9a3b95fa6fe0001df5a5e,001,2021-08-19_16h12.47.130,natb3,2021.2.3,Win32,60.22645146,5bf9a3b95fa6fe0001df5a5e,611e07ecdcc96256ae8d5b80,611e74daa4fd6ec4161167b8,
,,,,space,0.5511,,0,203,203,104,1,E, , , , ,space,2000,2,5bf9a3b95fa6fe0001df5a5e,001,2021-08-19_16h12.47.130,natb3,2021.2.3,Win32,60.22645146,5bf9a3b95fa6fe0001df5a5e,611e07ecdcc96256ae8d5b80,611e74daa4fd6ec4161167b8,
,,,,space,0.485,,0,204,204,320,1,B, , , , ,space,1500,1.5,5bf9a3b95fa6fe0001df5a5e,001,2021-08-19_16h12.47.130,natb3,2021.2.3,Win32,60.22645146,5bf9a3b95fa6fe0001df5a5e,611e07ecdcc96256ae8d5b80,611e74daa4fd6ec4161167b8,
,,,,space,0.5,,0,205,205,300,1,O, , , , ,space,2500,2.5,5bf9a3b95fa6fe0001df5a5e,001,2021-08-19_16h12.47.130,natb3,2021.2.3,Win32,60.22645146,5bf9a3b95fa6fe0001df5a5e,611e07ecdcc96256ae8d5b80,611e74daa4fd6ec4161167b8,
,,,,space,0.4877,,0,206,206,217,1,T, , , , ,space,2500,2.5,5bf9a3b95fa6fe0001df5a5e,001,2021-08-19_16h12.47.130,natb3,2021.2.3,Win32,60.22645146,5bf9a3b95fa6fe0001df5a5e,611e07ecdcc96256ae8d5b80,611e74daa4fd6ec4161167b8,
,,,,space,0.5854,,0,207,207,281,1,Z, , , , ,space,1500,1.5,5bf9a3b95fa6fe0001df5a5e,001,2021-08-19_16h12.47.130,natb3,2021.2.3,Win32,60.22645146,5bf9a3b95fa6fe0001df5a5e,611e07ecdcc96256ae8d5b80,611e74daa4fd6ec4161167b8,
,,,,,,,0,208,208,118,1,X, , , , ,,2000,2,5bf9a3b95fa6fe0001df5a5e,001,2021-08-19_16h12.47.130,natb3,2021.2.3,Win32,60.22645146,5bf9a3b95fa6fe0001df5a5e,611e07ecdcc96256ae8d5b80,611e74daa4fd6ec4161167b8,
,,,,space,0.509,,0,209,209,72,1,T, , , , ,space,1500,1.5,5bf9a3b95fa6fe0001df5a5e,001,2021-08-19_16h12.47.130,natb3,2021.2.3,Win32,60.22645146,5bf9a3b95fa6fe0001df5a5e,611e07ecdcc96256ae8d5b80,611e74daa4fd6ec4161167b8,
,,,,space,0.5167,,0,210,210,327,1,E, , , , ,space,1500,1.5,5bf9a3b95fa6fe0001df5a5e,001,2021-08-19_16h12.47.130,natb3,2021.2.3,Win32,60.22645146,5bf9a3b95fa6fe0001df5a5e,611e07ecdcc96256ae8d5b80,611e74daa4fd6ec4161167b8,
,,,,space,0.5195,,0,211,211,24,1,L, , , , ,space,2500,2.5,5bf9a3b95fa6fe0001df5a5e,001,2021-08-19_16h12.47.130,natb3,2021.2.3,Win32,60.22645146,5bf9a3b95fa6fe0001df5a5e,611e07ecdcc96256ae8d5b80,611e74daa4fd6ec4161167b8,
,,,,,,,0,212,212,182,1,X, , , , ,,1500,1.5,5bf9a3b95fa6fe0001df5a5e,001,2021-08-19_16h12.47.130,natb3,2021.2.3,Win32,60.22645146,5bf9a3b95fa6fe0001df5a5e,611e07ecdcc96256ae8d5b80,611e74daa4fd6ec4161167b8,
,,,,space,0.4664,,0,213,213,264,1,U, , , , ,space,2000,2,5bf9a3b95fa6fe0001df5a5e,001,2021-08-19_16h12.47.130,natb3,2021.2.3,Win32,60.22645146,5bf9a3b95fa6fe0001df5a5e,611e07ecdcc96256ae8d5b80,611e74daa4fd6ec4161167b8,
,,,,space,0.4677,,0,214,214,215,1,E, , , , ,space,2500,2.5,5bf9a3b95fa6fe0001df5a5e,001,2021-08-19_16h12.47.130,natb3,2021.2.3,Win32,60.22645146,5bf9a3b95fa6fe0001df5a5e,611e07ecdcc96256ae8d5b80,611e74daa4fd6ec4161167b8,
,,,,,,,0,215,215,318,1,X, , , , ,,1500,1.5,5bf9a3b95fa6fe0001df5a5e,001,2021-08-19_16h12.47.130,natb3,2021.2.3,Win32,60.22645146,5bf9a3b95fa6fe0001df5a5e,611e07ecdcc96256ae8d5b80,611e74daa4fd6ec4161167b8,
,,,,space,0.4691,,0,216,216,36,1,W, , , , ,space,2000,2,5bf9a3b95fa6fe0001df5a5e,001,2021-08-19_16h12.47.130,natb3,2021.2.3,Win32,60.22645146,5bf9a3b95fa6fe0001df5a5e,611e07ecdcc96256ae8d5b80,611e74daa4fd6ec4161167b8,
,,,,space,0.4427,,0,217,217,330,1,T, , , , ,space,2500,2.5,5bf9a3b95fa6fe0001df5a5e,001,2021-08-19_16h12.47.130,natb3,2021.2.3,Win32,60.22645146,5bf9a3b95fa6fe0001df5a5e,611e07ecdcc96256ae8d5b80,611e74daa4fd6ec4161167b8,
,,,,,,,0,218,218,93,1,X,5, ,7, ,,2500,2.5,5bf9a3b95fa6fe0001df5a5e,001,2021-08-19_16h12.47.130,natb3,2021.2.3,Win32,60.22645146,5bf9a3b95fa6fe0001df5a5e,611e07ecdcc96256ae8d5b80,611e74daa4fd6ec4161167b8,
,,,,,,,0,219,219,187,1,X, ,3,7,4,,1500,1.5,5bf9a3b95fa6fe0001df5a5e,001,2021-08-19_16h12.47.130,natb3,2021.2.3,Win32,60.22645146,5bf9a3b95fa6fe0001df5a5e,611e07ecdcc96256ae8d5b80,611e74daa4fd6ec4161167b8,
,,,,space,0.4904,,0,220,220,226,1,R, , , , ,space,2000,2,5bf9a3b95fa6fe0001df5a5e,001,2021-08-19_16h12.47.130,natb3,2021.2.3,Win32,60.22645146,5bf9a3b95fa6fe0001df5a5e,611e07ecdcc96256ae8d5b80,611e74daa4fd6ec4161167b8,
,,,,space,0.6386,,0,221,221,140,1,B, , , , ,space,2500,2.5,5bf9a3b95fa6fe0001df5a5e,001,2021-08-19_16h12.47.130,natb3,2021.2.3,Win32,60.22645146,5bf9a3b95fa6fe0001df5a5e,611e07ecdcc96256ae8d5b80,611e74daa4fd6ec4161167b8,
,,,,space,0.5899,,0,222,222,323,1,M, , , , ,space,2500,2.5,5bf9a3b95fa6fe0001df5a5e,001,2021-08-19_16h12.47.130,natb3,2021.2.3,Win32,60.22645146,5bf9a3b95fa6fe0001df5a5e,611e07ecdcc96256ae8d5b80,611e74daa4fd6ec4161167b8,
,,,,space,0.4917,,0,223,223,261,1,T, , , , ,space,2000,2,5bf9a3b95fa6fe0001df5a5e,001,2021-08-19_16h12.47.130,natb3,2021.2.3,Win32,60.22645146,5bf9a3b95fa6fe0001df5a5e,611e07ecdcc96256ae8d5b80,611e74daa4fd6ec4161167b8,
,,,,,,,0,224,224,313,1,X, , , , ,,2500,2.5,5bf9a3b95fa6fe0001df5a5e,001,2021-08-19_16h12.47.130,natb3,2021.2.3,Win32,60.22645146,5bf9a3b95fa6fe0001df5a5e,611e07ecdcc96256ae8d5b80,611e74daa4fd6ec4161167b8,
,,,,,,,0,225,225,175,1,X,7, ,4,2,,1500,1.5,5bf9a3b95fa6fe0001df5a5e,001,2021-08-19_16h12.47.130,natb3,2021.2.3,Win32,60.22645146,5bf9a3b95fa6fe0001df5a5e,611e07ecdcc96256ae8d5b80,611e74daa4fd6ec4161167b8,
,,,,,,,0,226,226,295,1,X,8,7,5, ,,2500,2.5,5bf9a3b95fa6fe0001df5a5e,001,2021-08-19_16h12.47.130,natb3,2021.2.3,Win32,60.22645146,5bf9a3b95fa6fe0001df5a5e,611e07ecdcc96256ae8d5b80,611e74daa4fd6ec4161167b8,
,,,,space,0.5349,,0,227,227,41,1,Y, , , , ,space,2500,2.5,5bf9a3b95fa6fe0001df5a5e,001,2021-08-19_16h12.47.130,natb3,2021.2.3,Win32,60.22645146,5bf9a3b95fa6fe0001df5a5e,611e07ecdcc96256ae8d5b80,611e74daa4fd6ec4161167b8,
,,,,,,,0,228,228,243,1,X, , , , ,,2500,2.5,5bf9a3b95fa6fe0001df5a5e,001,2021-08-19_16h12.47.130,natb3,2021.2.3,Win32,60.22645146,5bf9a3b95fa6fe0001df5a5e,611e07ecdcc96256ae8d5b80,611e74daa4fd6ec4161167b8,
,,,,space,0.5838,,0,229,229,293,1,R, , , , ,space,2500,2.5,5bf9a3b95fa6fe0001df5a5e,001,2021-08-19_16h12.47.130,natb3,2021.2.3,Win32,60.22645146,5bf9a3b95fa6fe0001df5a5e,611e07ecdcc96256ae8d5b80,611e74daa4fd6ec4161167b8,
,,,,,,,0,230,230,107,1,X,9,3, ,2,,2000,2,5bf9a3b95fa6fe0001df5a5e,001,2021-08-19_16h12.47.130,natb3,2021.2.3,Win32,60.22645146,5bf9a3b95fa6fe0001df5a5e,611e07ecdcc96256ae8d5b80,611e74daa4fd6ec4161167b8,
,,,,space,0.5031,,0,231,231,192,1,A, , , , ,space,2000,2,5bf9a3b95fa6fe0001df5a5e,001,2021-08-19_16h12.47.130,natb3,2021.2.3,Win32,60.22645146,5bf9a3b95fa6fe0001df5a5e,611e07ecdcc96256ae8d5b80,611e74daa4fd6ec4161167b8,
,,,,,,,0,232,232,153,1,X,4,7, ,6,,2000,2,5bf9a3b95fa6fe0001df5a5e,001,2021-08-19_16h12.47.130,natb3,2021.2.3,Win32,60.22645146,5bf9a3b95fa6fe0001df5a5e,611e07ecdcc96256ae8d5b80,611e74daa4fd6ec4161167b8,
,,,,,,,0,233,233,158,1,X, , , , ,,1500,1.5,5bf9a3b95fa6fe0001df5a5e,001,2021-08-19_16h12.47.130,natb3,2021.2.3,Win32,60.22645146,5bf9a3b95fa6fe0001df5a5e,611e07ecdcc96256ae8d5b80,611e74daa4fd6ec4161167b8,
,,,,,,,0,234,234,66,1,X, ,4,7, ,,2000,2,5bf9a3b95fa6fe0001df5a5e,001,2021-08-19_16h12.47.130,natb3,2021.2.3,Win32,60.22645146,5bf9a3b95fa6fe0001df5a5e,611e07ecdcc96256ae8d5b80,611e74daa4fd6ec4161167b8,
,,,,space,0.4585,,0,235,235,308,1,G, , , , ,space,1500,1.5,5bf9a3b95fa6fe0001df5a5e,001,2021-08-19_16h12.47.130,natb3,2021.2.3,Win32,60.22645146,5bf9a3b95fa6fe0001df5a5e,611e07ecdcc96256ae8d5b80,611e74daa4fd6ec4161167b8,
,,,,space,0.4369,,0,236,236,194,1,D, , , , ,space,2000,2,5bf9a3b95fa6fe0001df5a5e,001,2021-08-19_16h12.47.130,natb3,2021.2.3,Win32,60.22645146,5bf9a3b95fa6fe0001df5a5e,611e07ecdcc96256ae8d5b80,611e74daa4fd6ec4161167b8,
,,,,space,0.5007,,0,237,237,85,1,F, , , , ,space,2500,2.5,5bf9a3b95fa6fe0001df5a5e,001,2021-08-19_16h12.47.130,natb3,2021.2.3,Win32,60.22645146,5bf9a3b95fa6fe0001df5a5e,611e07ecdcc96256ae8d5b80,611e74daa4fd6ec4161167b8,
,,,,space,0.4524,,0,238,238,278,1,J, , , , ,space,2000,2,5bf9a3b95fa6fe0001df5a5e,001,2021-08-19_16h12.47.130,natb3,2021.2.3,Win32,60.22645146,5bf9a3b95fa6fe0001df5a5e,611e07ecdcc96256ae8d5b80,611e74daa4fd6ec4161167b8,
,,,,,,,0,239,239,302,1,X, , , , ,,2000,2,5bf9a3b95fa6fe0001df5a5e,001,2021-08-19_16h12.47.130,natb3,2021.2.3,Win32,60.22645146,5bf9a3b95fa6fe0001df5a5e,611e07ecdcc96256ae8d5b80,611e74daa4fd6ec4161167b8,
,,,,space,0.4746,,0,240,240,109,1,U, , , , ,space,1500,1.5,5bf9a3b95fa6fe0001df5a5e,001,2021-08-19_16h12.47.130,natb3,2021.2.3,Win32,60.22645146,5bf9a3b95fa6fe0001df5a5e,611e07ecdcc96256ae8d5b80,611e74daa4fd6ec4161167b8,
,,,,space,0.489,,0,241,241,283,1,C, , , , ,space,1500,1.5,5bf9a3b95fa6fe0001df5a5e,001,2021-08-19_16h12.47.130,natb3,2021.2.3,Win32,60.22645146,5bf9a3b95fa6fe0001df5a5e,611e07ecdcc96256ae8d5b80,611e74daa4fd6ec4161167b8,
,,,,,,,0,242,242,133,1,X, ,4, ,6,,2500,2.5,5bf9a3b95fa6fe0001df5a5e,001,2021-08-19_16h12.47.130,natb3,2021.2.3,Win32,60.22645146,5bf9a3b95fa6fe0001df5a5e,611e07ecdcc96256ae8d5b80,611e74daa4fd6ec4161167b8,
,,,,,,,0,243,243,35,1,X, , , , ,,2500,2.5,5bf9a3b95fa6fe0001df5a5e,001,2021-08-19_16h12.47.130,natb3,2021.2.3,Win32,60.22645146,5bf9a3b95fa6fe0001df5a5e,611e07ecdcc96256ae8d5b80,611e74daa4fd6ec4161167b8,
,,,,space,0.5844,,0,244,244,167,1,K, , , , ,space,1500,1.5,5bf9a3b95fa6fe0001df5a5e,001,2021-08-19_16h12.47.130,natb3,2021.2.3,Win32,60.22645146,5bf9a3b95fa6fe0001df5a5e,611e07ecdcc96256ae8d5b80,611e74daa4fd6ec4161167b8,
,,,,space,0.4509,,0,245,245,235,1,A, , , , ,space,1500,1.5,5bf9a3b95fa6fe0001df5a5e,001,2021-08-19_16h12.47.130,natb3,2021.2.3,Win32,60.22645146,5bf9a3b95fa6fe0001df5a5e,611e07ecdcc96256ae8d5b80,611e74daa4fd6ec4161167b8,
,,,,space,0.4322,,0,246,246,61,1,C, , , , ,space,2000,2,5bf9a3b95fa6fe0001df5a5e,001,2021-08-19_16h12.47.130,natb3,2021.2.3,Win32,60.22645146,5bf9a3b95fa6fe0001df5a5e,611e07ecdcc96256ae8d5b80,611e74daa4fd6ec4161167b8,
,,,,space,0.5167,,0,247,247,294,1,T, , , , ,space,2000,2,5bf9a3b95fa6fe0001df5a5e,001,2021-08-19_16h12.47.130,natb3,2021.2.3,Win32,60.22645146,5bf9a3b95fa6fe0001df5a5e,611e07ecdcc96256ae8d5b80,611e74daa4fd6ec4161167b8,
,,,,space,0.5192,,0,248,248,52,1,F, , , , ,space,1500,1.5,5bf9a3b95fa6fe0001df5a5e,001,2021-08-19_16h12.47.130,natb3,2021.2.3,Win32,60.22645146,5bf9a3b95fa6fe0001df5a5e,611e07ecdcc96256ae8d5b80,611e74daa4fd6ec4161167b8,
,,,,space,0.4349,,0,249,249,285,1,B, , , , ,space,1500,1.5,5bf9a3b95fa6fe0001df5a5e,001,2021-08-19_16h12.47.130,natb3,2021.2.3,Win32,60.22645146,5bf9a3b95fa6fe0001df5a5e,611e07ecdcc96256ae8d5b80,611e74daa4fd6ec4161167b8,
,,,,space,0.4506,,0,250,250,246,1,L, , , , ,space,2500,2.5,5bf9a3b95fa6fe0001df5a5e,001,2021-08-19_16h12.47.130,natb3,2021.2.3,Win32,60.22645146,5bf9a3b95fa6fe0001df5a5e,611e07ecdcc96256ae8d5b80,611e74daa4fd6ec4161167b8,
,,,,space,0.4748,,0,251,251,314,1,L, , , , ,space,1500,1.5,5bf9a3b95fa6fe0001df5a5e,001,2021-08-19_16h12.47.130,natb3,2021.2.3,Win32,60.22645146,5bf9a3b95fa6fe0001df5a5e,611e07ecdcc96256ae8d5b80,611e74daa4fd6ec4161167b8,
,,,,space,0.417,,0,252,252,75,1,U, , , , ,space,1500,1.5,5bf9a3b95fa6fe0001df5a5e,001,2021-08-19_16h12.47.130,natb3,2021.2.3,Win32,60.22645146,5bf9a3b95fa6fe0001df5a5e,611e07ecdcc96256ae8d5b80,611e74daa4fd6ec4161167b8,
,,,,,,,0,253,253,329,1,X,3,4, ,2,,2500,2.5,5bf9a3b95fa6fe0001df5a5e,001,2021-08-19_16h12.47.130,natb3,2021.2.3,Win32,60.22645146,5bf9a3b95fa6fe0001df5a5e,611e07ecdcc96256ae8d5b80,611e74daa4fd6ec4161167b8,
,,,,space,0.4503,,0,254,254,221,1,I, , , , ,space,2500,2.5,5bf9a3b95fa6fe0001df5a5e,001,2021-08-19_16h12.47.130,natb3,2021.2.3,Win32,60.22645146,5bf9a3b95fa6fe0001df5a5e,611e07ecdcc96256ae8d5b80,611e74daa4fd6ec4161167b8,
,,,,space,0.4188,,0,255,255,196,1,F, , , , ,space,1500,1.5,5bf9a3b95fa6fe0001df5a5e,001,2021-08-19_16h12.47.130,natb3,2021.2.3,Win32,60.22645146,5bf9a3b95fa6fe0001df5a5e,611e07ecdcc96256ae8d5b80,611e74daa4fd6ec4161167b8,
,,,,,,,0,256,256,12,1,X, , , , ,,1500,1.5,5bf9a3b95fa6fe0001df5a5e,001,2021-08-19_16h12.47.130,natb3,2021.2.3,Win32,60.22645146,5bf9a3b95fa6fe0001df5a5e,611e07ecdcc96256ae8d5b80,611e74daa4fd6ec4161167b8,
,,,,space,0.4505,,0,257,257,177,1,M, , , , ,space,2500,2.5,5bf9a3b95fa6fe0001df5a5e,001,2021-08-19_16h12.47.130,natb3,2021.2.3,Win32,60.22645146,5bf9a3b95fa6fe0001df5a5e,611e07ecdcc96256ae8d5b80,611e74daa4fd6ec4161167b8,
,,,,space,0.4922,,0,258,258,201,1,K, , , , ,space,1500,1.5,5bf9a3b95fa6fe0001df5a5e,001,2021-08-19_16h12.47.130,natb3,2021.2.3,Win32,60.22645146,5bf9a3b95fa6fe0001df5a5e,611e07ecdcc96256ae8d5b80,611e74daa4fd6ec4161167b8,
,,,,space,0.4414,,0,259,259,310,1,J, , , , ,space,2500,2.5,5bf9a3b95fa6fe0001df5a5e,001,2021-08-19_16h12.47.130,natb3,2021.2.3,Win32,60.22645146,5bf9a3b95fa6fe0001df5a5e,611e07ecdcc96256ae8d5b80,611e74daa4fd6ec4161167b8,
,,,,space,0.4173,,0,260,260,71,1,R, , , , ,space,2500,2.5,5bf9a3b95fa6fe0001df5a5e,001,2021-08-19_16h12.47.130,natb3,2021.2.3,Win32,60.22645146,5bf9a3b95fa6fe0001df5a5e,611e07ecdcc96256ae8d5b80,611e74daa4fd6ec4161167b8,
,,,,space,0.3932,,0,261,261,333,1,I, , , , ,space,1500,1.5,5bf9a3b95fa6fe0001df5a5e,001,2021-08-19_16h12.47.130,natb3,2021.2.3,Win32,60.22645146,5bf9a3b95fa6fe0001df5a5e,611e07ecdcc96256ae8d5b80,611e74daa4fd6ec4161167b8,
,,,,space,0.3846,,0,262,262,37,1,E, , , , ,space,2500,2.5,5bf9a3b95fa6fe0001df5a5e,001,2021-08-19_16h12.47.130,natb3,2021.2.3,Win32,60.22645146,5bf9a3b95fa6fe0001df5a5e,611e07ecdcc96256ae8d5b80,611e74daa4fd6ec4161167b8,
,,,,space,0.4048,,0,263,263,301,1,P, , , , ,space,1500,1.5,5bf9a3b95fa6fe0001df5a5e,001,2021-08-19_16h12.47.130,natb3,2021.2.3,Win32,60.22645146,5bf9a3b95fa6fe0001df5a5e,611e07ecdcc96256ae8d5b80,611e74daa4fd6ec4161167b8,
,,,,space,0.4181,,0,264,264,326,1,W, , , , ,space,2000,2,5bf9a3b95fa6fe0001df5a5e,001,2021-08-19_16h12.47.130,natb3,2021.2.3,Win32,60.22645146,5bf9a3b95fa6fe0001df5a5e,611e07ecdcc96256ae8d5b80,611e74daa4fd6ec4161167b8,
,,,,space,0.3841,,0,265,265,266,1,O, , , , ,space,1500,1.5,5bf9a3b95fa6fe0001df5a5e,001,2021-08-19_16h12.47.130,natb3,2021.2.3,Win32,60.22645146,5bf9a3b95fa6fe0001df5a5e,611e07ecdcc96256ae8d5b80,611e74daa4fd6ec4161167b8,
,,,,space,0.4178,,0,266,266,64,1,N, , , , ,space,2000,2,5bf9a3b95fa6fe0001df5a5e,001,2021-08-19_16h12.47.130,natb3,2021.2.3,Win32,60.22645146,5bf9a3b95fa6fe0001df5a5e,611e07ecdcc96256ae8d5b80,611e74daa4fd6ec4161167b8,
,,,,space,0.3846,,0,267,267,83,1,D, , , , ,space,2000,2,5bf9a3b95fa6fe0001df5a5e,001,2021-08-19_16h12.47.130,natb3,2021.2.3,Win32,60.22645146,5bf9a3b95fa6fe0001df5a5e,611e07ecdcc96256ae8d5b80,611e74daa4fd6ec4161167b8,
,,,,space,0.3732,,0,268,268,108,1,Y, , , , ,space,2500,2.5,5bf9a3b95fa6fe0001df5a5e,001,2021-08-19_16h12.47.130,natb3,2021.2.3,Win32,60.22645146,5bf9a3b95fa6fe0001df5a5e,611e07ecdcc96256ae8d5b80,611e74daa4fd6ec4161167b8,
,,,,space,0.3504,,0,269,269,57,1,K, , , , ,space,2500,2.5,5bf9a3b95fa6fe0001df5a5e,001,2021-08-19_16h12.47.130,natb3,2021.2.3,Win32,60.22645146,5bf9a3b95fa6fe0001df5a5e,611e07ecdcc96256ae8d5b80,611e74daa4fd6ec4161167b8,
,,,,space,0.3748,,0,270,270,63,1,B, , , , ,space,2000,2,5bf9a3b95fa6fe0001df5a5e,001,2021-08-19_16h12.47.130,natb3,2021.2.3,Win32,60.22645146,5bf9a3b95fa6fe0001df5a5e,611e07ecdcc96256ae8d5b80,611e74daa4fd6ec4161167b8,
,,,,,,,0,271,271,239,1,X, , , , ,,2000,2,5bf9a3b95fa6fe0001df5a5e,001,2021-08-19_16h12.47.130,natb3,2021.2.3,Win32,60.22645146,5bf9a3b95fa6fe0001df5a5e,611e07ecdcc96256ae8d5b80,611e74daa4fd6ec4161167b8,
,,,,space,0.4393,,0,272,272,208,1,B, , , , ,space,1500,1.5,5bf9a3b95fa6fe0001df5a5e,001,2021-08-19_16h12.47.130,natb3,2021.2.3,Win32,60.22645146,5bf9a3b95fa6fe0001df5a5e,611e07ecdcc96256ae8d5b80,611e74daa4fd6ec4161167b8,
,,,,space,0.4513,,0,273,273,181,1,E, , , , ,space,1500,1.5,5bf9a3b95fa6fe0001df5a5e,001,2021-08-19_16h12.47.130,natb3,2021.2.3,Win32,60.22645146,5bf9a3b95fa6fe0001df5a5e,611e07ecdcc96256ae8d5b80,611e74daa4fd6ec4161167b8,
,,,,space,0.3586,,0,274,274,128,1,D, , , , ,space,2500,2.5,5bf9a3b95fa6fe0001df5a5e,001,2021-08-19_16h12.47.130,natb3,2021.2.3,Win32,60.22645146,5bf9a3b95fa6fe0001df5a5e,611e07ecdcc96256ae8d5b80,611e74daa4fd6ec4161167b8,
,,,,space,0.493,,0,275,275,139,1,V, , , , ,space,2000,2,5bf9a3b95fa6fe0001df5a5e,001,2021-08-19_16h12.47.130,natb3,2021.2.3,Win32,60.22645146,5bf9a3b95fa6fe0001df5a5e,611e07ecdcc96256ae8d5b80,611e74daa4fd6ec4161167b8,
,,,,space,0.5009,,0,276,276,19,1,G, , , , ,space,1500,1.5,5bf9a3b95fa6fe0001df5a5e,001,2021-08-19_16h12.47.130,natb3,2021.2.3,Win32,60.22645146,5bf9a3b95fa6fe0001df5a5e,611e07ecdcc96256ae8d5b80,611e74daa4fd6ec4161167b8,
,,,,space,0.4886,,0,277,277,40,1,T, , , , ,space,1500,1.5,5bf9a3b95fa6fe0001df5a5e,001,2021-08-19_16h12.47.130,natb3,2021.2.3,Win32,60.22645146,5bf9a3b95fa6fe0001df5a5e,611e07ecdcc96256ae8d5b80,611e74daa4fd6ec4161167b8,
,,,,space,0.4222,,0,278,278,178,1,Q, , , , ,space,1500,1.5,5bf9a3b95fa6fe0001df5a5e,001,2021-08-19_16h12.47.130,natb3,2021.2.3,Win32,60.22645146,5bf9a3b95fa6fe0001df5a5e,611e07ecdcc96256ae8d5b80,611e74daa4fd6ec4161167b8,
,,,,space,0.4358,,0,279,279,67,1,Q, , , , ,space,2000,2,5bf9a3b95fa6fe0001df5a5e,001,2021-08-19_16h12.47.130,natb3,2021.2.3,Win32,60.22645146,5bf9a3b95fa6fe0001df5a5e,611e07ecdcc96256ae8d5b80,611e74daa4fd6ec4161167b8,
,,,,space,0.3873,,0,280,280,49,1,S, , , , ,space,1500,1.5,5bf9a3b95fa6fe0001df5a5e,001,2021-08-19_16h12.47.130,natb3,2021.2.3,Win32,60.22645146,5bf9a3b95fa6fe0001df5a5e,611e07ecdcc96256ae8d5b80,611e74daa4fd6ec4161167b8,
,,,,space,0.4203,,0,281,281,216,1,R, , , , ,space,1500,1.5,5bf9a3b95fa6fe0001df5a5e,001,2021-08-19_16h12.47.130,natb3,2021.2.3,Win32,60.22645146,5bf9a3b95fa6fe0001df5a5e,611e07ecdcc96256ae8d5b80,611e74daa4fd6ec4161167b8,
,,,,space,0.5508,,0,282,282,113,1,W, , , , ,space,2500,2.5,5bf9a3b95fa6fe0001df5a5e,001,2021-08-19_16h12.47.130,natb3,2021.2.3,Win32,60.22645146,5bf9a3b95fa6fe0001df5a5e,611e07ecdcc96256ae8d5b80,611e74daa4fd6ec4161167b8,
,,,,space,0.4237,,0,283,283,212,1,Q, , , , ,space,2500,2.5,5bf9a3b95fa6fe0001df5a5e,001,2021-08-19_16h12.47.130,natb3,2021.2.3,Win32,60.22645146,5bf9a3b95fa6fe0001df5a5e,611e07ecdcc96256ae8d5b80,611e74daa4fd6ec4161167b8,
,,,,,,,0,284,284,229,1,X,8, ,2,6,,2500,2.5,5bf9a3b95fa6fe0001df5a5e,001,2021-08-19_16h12.47.130,natb3,2021.2.3,Win32,60.22645146,5bf9a3b95fa6fe0001df5a5e,611e07ecdcc96256ae8d5b80,611e74daa4fd6ec4161167b8,
,,,,space,0.5023,,0,285,285,206,1,V, , , , ,space,2000,2,5bf9a3b95fa6fe0001df5a5e,001,2021-08-19_16h12.47.130,natb3,2021.2.3,Win32,60.22645146,5bf9a3b95fa6fe0001df5a5e,611e07ecdcc96256ae8d5b80,611e74daa4fd6ec4161167b8,
,,,,,,,0,286,286,218,1,X,1,3, ,8,,1500,1.5,5bf9a3b95fa6fe0001df5a5e,001,2021-08-19_16h12.47.130,natb3,2021.2.3,Win32,60.22645146,5bf9a3b95fa6fe0001df5a5e,611e07ecdcc96256ae8d5b80,611e74daa4fd6ec4161167b8,
,,,,,,,0,287,287,18,1,X, ,2,5,8,,2500,2.5,5bf9a3b95fa6fe0001df5a5e,001,2021-08-19_16h12.47.130,natb3,2021.2.3,Win32,60.22645146,5bf9a3b95fa6fe0001df5a5e,611e07ecdcc96256ae8d5b80,611e74daa4fd6ec4161167b8,
,,,,space,0.4671,,0,288,288,306,1,D, , , , ,space,2000,2,5bf9a3b95fa6fe0001df5a5e,001,2021-08-19_16h12.47.130,natb3,2021.2.3,Win32,60.22645146,5bf9a3b95fa6fe0001df5a5e,611e07ecdcc96256ae8d5b80,611e74daa4fd6ec4161167b8,
,,,,space,0.4507,,0,289,289,234,1,P, , , , ,space,2000,2,5bf9a3b95fa6fe0001df5a5e,001,2021-08-19_16h12.47.130,natb3,2021.2.3,Win32,60.22645146,5bf9a3b95fa6fe0001df5a5e,611e07ecdcc96256ae8d5b80,611e74daa4fd6ec4161167b8,
,,,,space,0.4068,,0,290,290,79,1,P, , , , ,space,2000,2,5bf9a3b95fa6fe0001df5a5e,001,2021-08-19_16h12.47.130,natb3,2021.2.3,Win32,60.22645146,5bf9a3b95fa6fe0001df5a5e,611e07ecdcc96256ae8d5b80,611e74daa4fd6ec4161167b8,
,,,,space,0.4245,,0,291,291,280,1,L, , , , ,space,1500,1.5,5bf9a3b95fa6fe0001df5a5e,001,2021-08-19_16h12.47.130,natb3,2021.2.3,Win32,60.22645146,5bf9a3b95fa6fe0001df5a5e,611e07ecdcc96256ae8d5b80,611e74daa4fd6ec4161167b8,
,,,,space,0.3834,,0,292,292,241,1,G, , , , ,space,2500,2.5,5bf9a3b95fa6fe0001df5a5e,001,2021-08-19_16h12.47.130,natb3,2021.2.3,Win32,60.22645146,5bf9a3b95fa6fe0001df5a5e,611e07ecdcc96256ae8d5b80,611e74daa4fd6ec4161167b8,
,,,,,,,0,293,293,299,1,X, , , , ,,2500,2.5,5bf9a3b95fa6fe0001df5a5e,001,2021-08-19_16h12.47.130,natb3,2021.2.3,Win32,60.22645146,5bf9a3b95fa6fe0001df5a5e,611e07ecdcc96256ae8d5b80,611e74daa4fd6ec4161167b8,
,,,,space,0.4531,,0,294,294,230,1,U, , , , ,space,1500,1.5,5bf9a3b95fa6fe0001df5a5e,001,2021-08-19_16h12.47.130,natb3,2021.2.3,Win32,60.22645146,5bf9a3b95fa6fe0001df5a5e,611e07ecdcc96256ae8d5b80,611e74daa4fd6ec4161167b8,
,,,,space,0.4341,,0,295,295,164,1,H, , , , ,space,2500,2.5,5bf9a3b95fa6fe0001df5a5e,001,2021-08-19_16h12.47.130,natb3,2021.2.3,Win32,60.22645146,5bf9a3b95fa6fe0001df5a5e,611e07ecdcc96256ae8d5b80,611e74daa4fd6ec4161167b8,
,,,,space,0.4061,,0,296,296,289,1,Q, , , , ,space,2000,2,5bf9a3b95fa6fe0001df5a5e,001,2021-08-19_16h12.47.130,natb3,2021.2.3,Win32,60.22645146,5bf9a3b95fa6fe0001df5a5e,611e07ecdcc96256ae8d5b80,611e74daa4fd6ec4161167b8,
,,,,space,0.4081,,0,297,297,290,1,W, , , , ,space,1500,1.5,5bf9a3b95fa6fe0001df5a5e,001,2021-08-19_16h12.47.130,natb3,2021.2.3,Win32,60.22645146,5bf9a3b95fa6fe0001df5a5e,611e07ecdcc96256ae8d5b80,611e74daa4fd6ec4161167b8,
,,,,space,0.4893,,0,298,298,115,1,R, , , , ,space,1500,1.5,5bf9a3b95fa6fe0001df5a5e,001,2021-08-19_16h12.47.130,natb3,2021.2.3,Win32,60.22645146,5bf9a3b95fa6fe0001df5a5e,611e07ecdcc96256ae8d5b80,611e74daa4fd6ec4161167b8,
,,,,,,,0,299,299,80,1,A, , , , ,space,2000,2,5bf9a3b95fa6fe0001df5a5e,001,2021-08-19_16h12.47.130,natb3,2021.2.3,Win32,60.22645146,5bf9a3b95fa6fe0001df5a5e,611e07ecdcc96256ae8d5b80,611e74daa4fd6ec4161167b8,
,,,,,,,0,300,300,259,1,X,8, , ,3,,2500,2.5,5bf9a3b95fa6fe0001df5a5e,001,2021-08-19_16h12.47.130,natb3,2021.2.3,Win32,60.22645146,5bf9a3b95fa6fe0001df5a5e,611e07ecdcc96256ae8d5b80,611e74daa4fd6ec4161167b8,
,,,,space,0.4831,,0,301,301,132,1,H, , , , ,space,2500,2.5,5bf9a3b95fa6fe0001df5a5e,001,2021-08-19_16h12.47.130,natb3,2021.2.3,Win32,60.22645146,5bf9a3b95fa6fe0001df5a5e,611e07ecdcc96256ae8d5b80,611e74daa4fd6ec4161167b8,
,,,,space,0.6171,,0,302,302,77,1,O, , , , ,space,2000,2,5bf9a3b95fa6fe0001df5a5e,001,2021-08-19_16h12.47.130,natb3,2021.2.3,Win32,60.22645146,5bf9a3b95fa6fe0001df5a5e,611e07ecdcc96256ae8d5b80,611e74daa4fd6ec4161167b8,
,,,,space,0.5006,,0,303,303,136,1,Z, , , , ,space,2500,2.5,5bf9a3b95fa6fe0001df5a5e,001,2021-08-19_16h12.47.130,natb3,2021.2.3,Win32,60.22645146,5bf9a3b95fa6fe0001df5a5e,611e07ecdcc96256ae8d5b80,611e74daa4fd6ec4161167b8,
,,,,space,0.5843,,0,304,304,209,1,N, , , , ,space,2000,2,5bf9a3b95fa6fe0001df5a5e,001,2021-08-19_16h12.47.130,natb3,2021.2.3,Win32,60.22645146,5bf9a3b95fa6fe0001df5a5e,611e07ecdcc96256ae8d5b80,611e74daa4fd6ec4161167b8,
,,,,space,0.4185,,0,305,305,65,1,M, , , , ,space,1500,1.5,5bf9a3b95fa6fe0001df5a5e,001,2021-08-19_16h12.47.130,natb3,2021.2.3,Win32,60.22645146,5bf9a3b95fa6fe0001df5a5e,611e07ecdcc96256ae8d5b80,611e74daa4fd6ec4161167b8,
,,,,space,0.5427,,0,306,306,90,1,K, , , , ,space,2000,2,5bf9a3b95fa6fe0001df5a5e,001,2021-08-19_16h12.47.130,natb3,2021.2.3,Win32,60.22645146,5bf9a3b95fa6fe0001df5a5e,611e07ecdcc96256ae8d5b80,611e74daa4fd6ec4161167b8,
,,,,space,0.4339,,0,307,307,20,1,H, , , , ,space,1500,1.5,5bf9a3b95fa6fe0001df5a5e,001,2021-08-19_16h12.47.130,natb3,2021.2.3,Win32,60.22645146,5bf9a3b95fa6fe0001df5a5e,611e07ecdcc96256ae8d5b80,611e74daa4fd6ec4161167b8,
,,,,space,0.4846,,0,308,308,134,1,J, , , , ,space,2000,2,5bf9a3b95fa6fe0001df5a5e,001,2021-08-19_16h12.47.130,natb3,2021.2.3,Win32,60.22645146,5bf9a3b95fa6fe0001df5a5e,611e07ecdcc96256ae8d5b80,611e74daa4fd6ec4161167b8,
,,,,space,0.4558,,0,309,309,47,1,P, , , , ,space,2000,2,5bf9a3b95fa6fe0001df5a5e,001,2021-08-19_16h12.47.130,natb3,2021.2.3,Win32,60.22645146,5bf9a3b95fa6fe0001df5a5e,611e07ecdcc96256ae8d5b80,611e74daa4fd6ec4161167b8,
,,,,,,,0,310,310,282,1,X, , , , ,,2500,2.5,5bf9a3b95fa6fe0001df5a5e,001,2021-08-19_16h12.47.130,natb3,2021.2.3,Win32,60.22645146,5bf9a3b95fa6fe0001df5a5e,611e07ecdcc96256ae8d5b80,611e74daa4fd6ec4161167b8,
,,,,space,0.4725,,0,311,311,32,1,M, , , , ,space,1500,1.5,5bf9a3b95fa6fe0001df5a5e,001,2021-08-19_16h12.47.130,natb3,2021.2.3,Win32,60.22645146,5bf9a3b95fa6fe0001df5a5e,611e07ecdcc96256ae8d5b80,611e74daa4fd6ec4161167b8,
,,,,space,0.4678,,0,312,312,70,1,E, , , , ,space,2500,2.5,5bf9a3b95fa6fe0001df5a5e,001,2021-08-19_16h12.47.130,natb3,2021.2.3,Win32,60.22645146,5bf9a3b95fa6fe0001df5a5e,611e07ecdcc96256ae8d5b80,611e74daa4fd6ec4161167b8,
,,,,space,0.4497,,0,313,313,157,1,A, , , , ,space,2500,2.5,5bf9a3b95fa6fe0001df5a5e,001,2021-08-19_16h12.47.130,natb3,2021.2.3,Win32,60.22645146,5bf9a3b95fa6fe0001df5a5e,611e07ecdcc96256ae8d5b80,611e74daa4fd6ec4161167b8,
,,,,space,0.4583,,0,314,314,2,1,E, , , , ,space,2500,2.5,5bf9a3b95fa6fe0001df5a5e,001,2021-08-19_16h12.47.130,natb3,2021.2.3,Win32,60.22645146,5bf9a3b95fa6fe0001df5a5e,611e07ecdcc96256ae8d5b80,611e74daa4fd6ec4161167b8,
,,,,,,,0,315,315,89,1,X,3, , , ,,2000,2,5bf9a3b95fa6fe0001df5a5e,001,2021-08-19_16h12.47.130,natb3,2021.2.3,Win32,60.22645146,5bf9a3b95fa6fe0001df5a5e,611e07ecdcc96256ae8d5b80,611e74daa4fd6ec4161167b8,
,,,,space,0.568,,0,316,316,210,1,M, , , , ,space,1500,1.5,5bf9a3b95fa6fe0001df5a5e,001,2021-08-19_16h12.47.130,natb3,2021.2.3,Win32,60.22645146,5bf9a3b95fa6fe0001df5a5e,611e07ecdcc96256ae8d5b80,611e74daa4fd6ec4161167b8,
,,,,,,,0,317,317,233,1,X, ,2, ,5,,1500,1.5,5bf9a3b95fa6fe0001df5a5e,001,2021-08-19_16h12.47.130,natb3,2021.2.3,Win32,60.22645146,5bf9a3b95fa6fe0001df5a5e,611e07ecdcc96256ae8d5b80,611e74daa4fd6ec4161167b8,
,,,,,,,0,318,318,141,1,X,1, ,4,6,,1500,1.5,5bf9a3b95fa6fe0001df5a5e,001,2021-08-19_16h12.47.130,natb3,2021.2.3,Win32,60.22645146,5bf9a3b95fa6fe0001df5a5e,611e07ecdcc96256ae8d5b80,611e74daa4fd6ec4161167b8,
,,,,space,0.5514,,0,319,319,220,1,U, , , , ,space,2500,2.5,5bf9a3b95fa6fe0001df5a5e,001,2021-08-19_16h12.47.130,natb3,2021.2.3,Win32,60.22645146,5bf9a3b95fa6fe0001df5a5e,611e07ecdcc96256ae8d5b80,611e74daa4fd6ec4161167b8,
,,,,space,0.6005,,0,320,320,8,1,U, , , , ,space,1500,1.5,5bf9a3b95fa6fe0001df5a5e,001,2021-08-19_16h12.47.130,natb3,2021.2.3,Win32,60.22645146,5bf9a3b95fa6fe0001df5a5e,611e07ecdcc96256ae8d5b80,611e74daa4fd6ec4161167b8,
,,,,,,,0,321,321,248,1,X, ,1,5, ,,1500,1.5,5bf9a3b95fa6fe0001df5a5e,001,2021-08-19_16h12.47.130,natb3,2021.2.3,Win32,60.22645146,5bf9a3b95fa6fe0001df5a5e,611e07ecdcc96256ae8d5b80,611e74daa4fd6ec4161167b8,
,,,,space,0.5002,,0,322,322,163,1,G, , , , ,space,2500,2.5,5bf9a3b95fa6fe0001df5a5e,001,2021-08-19_16h12.47.130,natb3,2021.2.3,Win32,60.22645146,5bf9a3b95fa6fe0001df5a5e,611e07ecdcc96256ae8d5b80,611e74daa4fd6ec4161167b8,
,,,,,,,0,323,323,263,1,X,4, ,6, ,,1500,1.5,5bf9a3b95fa6fe0001df5a5e,001,2021-08-19_16h12.47.130,natb3,2021.2.3,Win32,60.22645146,5bf9a3b95fa6fe0001df5a5e,611e07ecdcc96256ae8d5b80,611e74daa4fd6ec4161167b8,
,,,,space,0.4401,,0,324,324,152,1,U, , , , ,space,2000,2,5bf9a3b95fa6fe0001df5a5e,001,2021-08-19_16h12.47.130,natb3,2021.2.3,Win32,60.22645146,5bf9a3b95fa6fe0001df5a5e,611e07ecdcc96256ae8d5b80,611e74daa4fd6ec4161167b8,
,,,,,,,0,325,325,305,1,X, , , , ,,1500,1.5,5bf9a3b95fa6fe0001df5a5e,001,2021-08-19_16h12.47.130,natb3,2021.2.3,Win32,60.22645146,5bf9a3b95fa6fe0001df5a5e,611e07ecdcc96256ae8d5b80,611e74daa4fd6ec4161167b8,
,,,,,,,0,326,326,98,1,X, , , , ,,2500,2.5,5bf9a3b95fa6fe0001df5a5e,001,2021-08-19_16h12.47.130,natb3,2021.2.3,Win32,60.22645146,5bf9a3b95fa6fe0001df5a5e,611e07ecdcc96256ae8d5b80,611e74daa4fd6ec4161167b8,
,,,,space,0.5334,,0,327,327,130,1,F, , , , ,space,2000,2,5bf9a3b95fa6fe0001df5a5e,001,2021-08-19_16h12.47.130,natb3,2021.2.3,Win32,60.22645146,5bf9a3b95fa6fe0001df5a5e,611e07ecdcc96256ae8d5b80,611e74daa4fd6ec4161167b8,
,,,,space,0.7679,,0,328,328,272,1,D, , , , ,space,2000,2,5bf9a3b95fa6fe0001df5a5e,001,2021-08-19_16h12.47.130,natb3,2021.2.3,Win32,60.22645146,5bf9a3b95fa6fe0001df5a5e,611e07ecdcc96256ae8d5b80,611e74daa4fd6ec4161167b8,
,,,,space,0.826,,0,329,329,56,1,J, , , , ,space,1500,1.5,5bf9a3b95fa6fe0001df5a5e,001,2021-08-19_16h12.47.130,natb3,2021.2.3,Win32,60.22645146,5bf9a3b95fa6fe0001df5a5e,611e07ecdcc96256ae8d5b80,611e74daa4fd6ec4161167b8,
,,,,space,0.5184,,0,330,330,30,1,N, , , , ,space,2500,2.5,5bf9a3b95fa6fe0001df5a5e,001,2021-08-19_16h12.47.130,natb3,2021.2.3,Win32,60.22645146,5bf9a3b95fa6fe0001df5a5e,611e07ecdcc96256ae8d5b80,611e74daa4fd6ec4161167b8,
,,,,space,0.5211,,0,331,331,332,1,U, , , , ,space,2000,2,5bf9a3b95fa6fe0001df5a5e,001,2021-08-19_16h12.47.130,natb3,2021.2.3,Win32,60.22645146,5bf9a3b95fa6fe0001df5a5e,611e07ecdcc96256ae8d5b80,611e74daa4fd6ec4161167b8,
,,,,,,,0,332,332,60,1,X,7,3,5, ,,1500,1.5,5bf9a3b95fa6fe0001df5a5e,001,2021-08-19_16h12.47.130,natb3,2021.2.3,Win32,60.22645146,5bf9a3b95fa6fe0001df5a5e,611e07ecdcc96256ae8d5b80,611e74daa4fd6ec4161167b8,
,,,,space,0.4174,,0,333,333,275,1,G, , , , ,space,1500,1.5,5bf9a3b95fa6fe0001df5a5e,001,2021-08-19_16h12.47.130,natb3,2021.2.3,Win32,60.22645146,5bf9a3b95fa6fe0001df5a5e,611e07ecdcc96256ae8d5b80,611e74daa4fd6ec4161167b8,
,,,,space,0.4058,,0,334,334,303,1,A, , , , ,space,2000,2,5bf9a3b95fa6fe0001df5a5e,001,2021-08-19_16h12.47.130,natb3,2021.2.3,Win32,60.22645146,5bf9a3b95fa6fe0001df5a5e,611e07ecdcc96256ae8d5b80,611e74daa4fd6ec4161167b8,
,,,,,,,0,335,335,82,1,X,4,6,1,7,,2000,2,5bf9a3b95fa6fe0001df5a5e,001,2021-08-19_16h12.47.130,natb3,2021.2.3,Win32,60.22645146,5bf9a3b95fa6fe0001df5a5e,611e07ecdcc96256ae8d5b80,611e74daa4fd6ec4161167b8,
