key_resp_2.keys,key_resp_2.rt,key_resp_3.keys,key_resp_3.rt,key_resp.keys,key_resp.rt,key_resp_4.keys,trials.thisRepN,trials.thisTrialN,trials.thisN,trials.thisIndex,trials.ran,stimulus,distractor1,distractor2,distractor3,distractor4,CorrAns,isi_duration,isi_dur_in_seconds,participant,session,date,expName,psychopyVersion,OS,frameRate,PROLIFIC_PID,STUDY_ID,SESSION_ID,key_resp_4.rt
return,10.4691,space,30.5445,space,0.785900001,,0,0,0,130,1,F, , , , ,space,2000,2,5c1bd15ba05a64000125c90c,001,2021-08-19_16h00.48.751,natb3,2021.2.3,Win32,21.33333333,5c1bd15ba05a64000125c90c,611e07ecdcc96256ae8d5b80,611e720c340818526b186c46,
,,,,,,,0,1,1,98,1,X, , , , ,,2500,2.5,5c1bd15ba05a64000125c90c,001,2021-08-19_16h00.48.751,natb3,2021.2.3,Win32,21.33333333,5c1bd15ba05a64000125c90c,611e07ecdcc96256ae8d5b80,611e720c340818526b186c46,
,,,,space,0.4364,,0,2,2,97,1,B, , , , ,space,2500,2.5,5c1bd15ba05a64000125c90c,001,2021-08-19_16h00.48.751,natb3,2021.2.3,Win32,21.33333333,5c1bd15ba05a64000125c90c,611e07ecdcc96256ae8d5b80,611e720c340818526b186c46,
,,,,space,0.4367,,0,3,3,119,1,Y, , , , ,space,2500,2.5,5c1bd15ba05a64000125c90c,001,2021-08-19_16h00.48.751,natb3,2021.2.3,Win32,21.33333333,5c1bd15ba05a64000125c90c,611e07ecdcc96256ae8d5b80,611e720c340818526b186c46,
,,,,space,0.578599999,,0,4,4,114,1,E, , , , ,space,2000,2,5c1bd15ba05a64000125c90c,001,2021-08-19_16h00.48.751,natb3,2021.2.3,Win32,21.33333333,5c1bd15ba05a64000125c90c,611e07ecdcc96256ae8d5b80,611e720c340818526b186c46,
,,,,space,0.567,,0,5,5,319,1,V, , , , ,space,2000,2,5c1bd15ba05a64000125c90c,001,2021-08-19_16h00.48.751,natb3,2021.2.3,Win32,21.33333333,5c1bd15ba05a64000125c90c,611e07ecdcc96256ae8d5b80,611e720c340818526b186c46,
,,,,space,0.5326,,0,6,6,79,1,P, , , , ,space,2000,2,5c1bd15ba05a64000125c90c,001,2021-08-19_16h00.48.751,natb3,2021.2.3,Win32,21.33333333,5c1bd15ba05a64000125c90c,611e07ecdcc96256ae8d5b80,611e720c340818526b186c46,
,,,,space,0.5243,,0,7,7,105,1,R, , , , ,space,2500,2.5,5c1bd15ba05a64000125c90c,001,2021-08-19_16h00.48.751,natb3,2021.2.3,Win32,21.33333333,5c1bd15ba05a64000125c90c,611e07ecdcc96256ae8d5b80,611e720c340818526b186c46,
,,,,,,,0,8,8,259,1,X,8, , ,3,,2500,2.5,5c1bd15ba05a64000125c90c,001,2021-08-19_16h00.48.751,natb3,2021.2.3,Win32,21.33333333,5c1bd15ba05a64000125c90c,611e07ecdcc96256ae8d5b80,611e720c340818526b186c46,
,,,,space,0.6118,,0,9,9,40,1,T, , , , ,space,1500,1.5,5c1bd15ba05a64000125c90c,001,2021-08-19_16h00.48.751,natb3,2021.2.3,Win32,21.33333333,5c1bd15ba05a64000125c90c,611e07ecdcc96256ae8d5b80,611e720c340818526b186c46,
,,,,space,0.6551,,0,10,10,198,1,H, , , , ,space,2500,2.5,5c1bd15ba05a64000125c90c,001,2021-08-19_16h00.48.751,natb3,2021.2.3,Win32,21.33333333,5c1bd15ba05a64000125c90c,611e07ecdcc96256ae8d5b80,611e720c340818526b186c46,
,,,,space,0.529,,0,11,11,16,1,D, , , , ,space,1500,1.5,5c1bd15ba05a64000125c90c,001,2021-08-19_16h00.48.751,natb3,2021.2.3,Win32,21.33333333,5c1bd15ba05a64000125c90c,611e07ecdcc96256ae8d5b80,611e720c340818526b186c46,
,,,,space,0.438,,0,12,12,249,1,C, , , , ,space,2000,2,5c1bd15ba05a64000125c90c,001,2021-08-19_16h00.48.751,natb3,2021.2.3,Win32,21.33333333,5c1bd15ba05a64000125c90c,611e07ecdcc96256ae8d5b80,611e720c340818526b186c46,
,,,,space,0.6115,,0,13,13,283,1,C, , , , ,space,1500,1.5,5c1bd15ba05a64000125c90c,001,2021-08-19_16h00.48.751,natb3,2021.2.3,Win32,21.33333333,5c1bd15ba05a64000125c90c,611e07ecdcc96256ae8d5b80,611e720c340818526b186c46,
,,,,space,0.524700001,,0,14,14,332,1,U, , , , ,space,2000,2,5c1bd15ba05a64000125c90c,001,2021-08-19_16h00.48.751,natb3,2021.2.3,Win32,21.33333333,5c1bd15ba05a64000125c90c,611e07ecdcc96256ae8d5b80,611e720c340818526b186c46,
,,,,space,0.5262,,0,15,15,309,1,H, , , , ,space,2500,2.5,5c1bd15ba05a64000125c90c,001,2021-08-19_16h00.48.751,natb3,2021.2.3,Win32,21.33333333,5c1bd15ba05a64000125c90c,611e07ecdcc96256ae8d5b80,611e720c340818526b186c46,
,,,,space,0.5243,,0,16,16,139,1,V, , , , ,space,2000,2,5c1bd15ba05a64000125c90c,001,2021-08-19_16h00.48.751,natb3,2021.2.3,Win32,21.33333333,5c1bd15ba05a64000125c90c,611e07ecdcc96256ae8d5b80,611e720c340818526b186c46,
,,,,space,0.4371,,0,17,17,50,1,D, , , , ,space,1500,1.5,5c1bd15ba05a64000125c90c,001,2021-08-19_16h00.48.751,natb3,2021.2.3,Win32,21.33333333,5c1bd15ba05a64000125c90c,611e07ecdcc96256ae8d5b80,611e720c340818526b186c46,
,,,,,,,0,18,18,66,1,X, ,4,7, ,,2000,2,5c1bd15ba05a64000125c90c,001,2021-08-19_16h00.48.751,natb3,2021.2.3,Win32,21.33333333,5c1bd15ba05a64000125c90c,611e07ecdcc96256ae8d5b80,611e720c340818526b186c46,
,,,,space,0.6118,,0,19,19,181,1,E, , , , ,space,1500,1.5,5c1bd15ba05a64000125c90c,001,2021-08-19_16h00.48.751,natb3,2021.2.3,Win32,21.33333333,5c1bd15ba05a64000125c90c,611e07ecdcc96256ae8d5b80,611e720c340818526b186c46,
,,,,space,0.6558,,0,20,20,202,1,L, , , , ,space,2500,2.5,5c1bd15ba05a64000125c90c,001,2021-08-19_16h00.48.751,natb3,2021.2.3,Win32,21.33333333,5c1bd15ba05a64000125c90c,611e07ecdcc96256ae8d5b80,611e720c340818526b186c46,
,,,,space,0.5705,,0,21,21,285,1,B, , , , ,space,1500,1.5,5c1bd15ba05a64000125c90c,001,2021-08-19_16h00.48.751,natb3,2021.2.3,Win32,21.33333333,5c1bd15ba05a64000125c90c,611e07ecdcc96256ae8d5b80,611e720c340818526b186c46,
,,,,space,0.5268,,0,22,22,8,1,U, , , , ,space,1500,1.5,5c1bd15ba05a64000125c90c,001,2021-08-19_16h00.48.751,natb3,2021.2.3,Win32,21.33333333,5c1bd15ba05a64000125c90c,611e07ecdcc96256ae8d5b80,611e720c340818526b186c46,
,,,,,,,0,23,23,107,1,X,9,3, ,2,,2000,2,5c1bd15ba05a64000125c90c,001,2021-08-19_16h00.48.751,natb3,2021.2.3,Win32,21.33333333,5c1bd15ba05a64000125c90c,611e07ecdcc96256ae8d5b80,611e720c340818526b186c46,
,,,,space,0.6176,,0,24,24,308,1,G, , , , ,space,1500,1.5,5c1bd15ba05a64000125c90c,001,2021-08-19_16h00.48.751,natb3,2021.2.3,Win32,21.33333333,5c1bd15ba05a64000125c90c,611e07ecdcc96256ae8d5b80,611e720c340818526b186c46,
,,,,space,0.652700001,,0,25,25,194,1,D, , , , ,space,2000,2,5c1bd15ba05a64000125c90c,001,2021-08-19_16h00.48.751,natb3,2021.2.3,Win32,21.33333333,5c1bd15ba05a64000125c90c,611e07ecdcc96256ae8d5b80,611e720c340818526b186c46,
,,,,space,0.5218,,0,26,26,109,1,U, , , , ,space,1500,1.5,5c1bd15ba05a64000125c90c,001,2021-08-19_16h00.48.751,natb3,2021.2.3,Win32,21.33333333,5c1bd15ba05a64000125c90c,611e07ecdcc96256ae8d5b80,611e720c340818526b186c46,
,,,,space,0.523,,0,27,27,85,1,F, , , , ,space,2500,2.5,5c1bd15ba05a64000125c90c,001,2021-08-19_16h00.48.751,natb3,2021.2.3,Win32,21.33333333,5c1bd15ba05a64000125c90c,611e07ecdcc96256ae8d5b80,611e720c340818526b186c46,
,,,,space,0.473400001,,0,28,28,221,1,I, , , , ,space,2500,2.5,5c1bd15ba05a64000125c90c,001,2021-08-19_16h00.48.751,natb3,2021.2.3,Win32,21.33333333,5c1bd15ba05a64000125c90c,611e07ecdcc96256ae8d5b80,611e720c340818526b186c46,
,,,,space,0.6026,,0,29,29,297,1,U, , , , ,space,2000,2,5c1bd15ba05a64000125c90c,001,2021-08-19_16h00.48.751,natb3,2021.2.3,Win32,21.33333333,5c1bd15ba05a64000125c90c,611e07ecdcc96256ae8d5b80,611e720c340818526b186c46,
,,,,space,0.5671,,0,30,30,189,1,O, , , , ,space,1500,1.5,5c1bd15ba05a64000125c90c,001,2021-08-19_16h00.48.751,natb3,2021.2.3,Win32,21.33333333,5c1bd15ba05a64000125c90c,611e07ecdcc96256ae8d5b80,611e720c340818526b186c46,
,,,,,,,0,31,31,168,1,X, , , , ,,2500,2.5,5c1bd15ba05a64000125c90c,001,2021-08-19_16h00.48.751,natb3,2021.2.3,Win32,21.33333333,5c1bd15ba05a64000125c90c,611e07ecdcc96256ae8d5b80,611e720c340818526b186c46,
,,,,space,0.5214,,0,32,32,215,1,E, , , , ,space,2500,2.5,5c1bd15ba05a64000125c90c,001,2021-08-19_16h00.48.751,natb3,2021.2.3,Win32,21.33333333,5c1bd15ba05a64000125c90c,611e07ecdcc96256ae8d5b80,611e720c340818526b186c46,
,,,,space,0.6364,,0,33,33,180,1,W, , , , ,space,2000,2,5c1bd15ba05a64000125c90c,001,2021-08-19_16h00.48.751,natb3,2021.2.3,Win32,21.33333333,5c1bd15ba05a64000125c90c,611e07ecdcc96256ae8d5b80,611e720c340818526b186c46,
,,,,space,0.5384,,0,34,34,134,1,J, , , , ,space,2000,2,5c1bd15ba05a64000125c90c,001,2021-08-19_16h00.48.751,natb3,2021.2.3,Win32,21.33333333,5c1bd15ba05a64000125c90c,611e07ecdcc96256ae8d5b80,611e720c340818526b186c46,
,,,,,,,0,35,35,277,1,X,8,5, ,2,,2000,2,5c1bd15ba05a64000125c90c,001,2021-08-19_16h00.48.751,natb3,2021.2.3,Win32,21.33333333,5c1bd15ba05a64000125c90c,611e07ecdcc96256ae8d5b80,611e720c340818526b186c46,
,,,,,,,0,36,36,125,1,X, , , , ,,2000,2,5c1bd15ba05a64000125c90c,001,2021-08-19_16h00.48.751,natb3,2021.2.3,Win32,21.33333333,5c1bd15ba05a64000125c90c,611e07ecdcc96256ae8d5b80,611e720c340818526b186c46,
,,,,,,,0,37,37,268,1,X,6, ,3, ,,2500,2.5,5c1bd15ba05a64000125c90c,001,2021-08-19_16h00.48.751,natb3,2021.2.3,Win32,21.33333333,5c1bd15ba05a64000125c90c,611e07ecdcc96256ae8d5b80,611e720c340818526b186c46,
,,,,space,0.5748,,0,38,38,58,1,L, , , , ,space,2000,2,5c1bd15ba05a64000125c90c,001,2021-08-19_16h00.48.751,natb3,2021.2.3,Win32,21.33333333,5c1bd15ba05a64000125c90c,611e07ecdcc96256ae8d5b80,611e720c340818526b186c46,
,,,,,,,0,39,39,291,1,X, , , , ,,2000,2,5c1bd15ba05a64000125c90c,001,2021-08-19_16h00.48.751,natb3,2021.2.3,Win32,21.33333333,5c1bd15ba05a64000125c90c,611e07ecdcc96256ae8d5b80,611e720c340818526b186c46,
,,,,space,0.5657,,0,40,40,113,1,W, , , , ,space,2500,2.5,5c1bd15ba05a64000125c90c,001,2021-08-19_16h00.48.751,natb3,2021.2.3,Win32,21.33333333,5c1bd15ba05a64000125c90c,611e07ecdcc96256ae8d5b80,611e720c340818526b186c46,
,,,,,,,0,41,41,153,1,X,4,7, ,6,,2000,2,5c1bd15ba05a64000125c90c,001,2021-08-19_16h00.48.751,natb3,2021.2.3,Win32,21.33333333,5c1bd15ba05a64000125c90c,611e07ecdcc96256ae8d5b80,611e720c340818526b186c46,
,,,,space,0.5742,,0,42,42,101,1,Q, , , , ,space,2500,2.5,5c1bd15ba05a64000125c90c,001,2021-08-19_16h00.48.751,natb3,2021.2.3,Win32,21.33333333,5c1bd15ba05a64000125c90c,611e07ecdcc96256ae8d5b80,611e720c340818526b186c46,
,,,,space,0.610299999,,0,43,43,76,1,I, , , , ,space,2000,2,5c1bd15ba05a64000125c90c,001,2021-08-19_16h00.48.751,natb3,2021.2.3,Win32,21.33333333,5c1bd15ba05a64000125c90c,611e07ecdcc96256ae8d5b80,611e720c340818526b186c46,
,,,,space,0.6147,,0,44,44,121,1,I, , , , ,space,2000,2,5c1bd15ba05a64000125c90c,001,2021-08-19_16h00.48.751,natb3,2021.2.3,Win32,21.33333333,5c1bd15ba05a64000125c90c,611e07ecdcc96256ae8d5b80,611e720c340818526b186c46,
,,,,,,,0,45,45,325,1,X, , , , ,,2500,2.5,5c1bd15ba05a64000125c90c,001,2021-08-19_16h00.48.751,natb3,2021.2.3,Win32,21.33333333,5c1bd15ba05a64000125c90c,611e07ecdcc96256ae8d5b80,611e720c340818526b186c46,
,,,,space,0.5741,,0,46,46,284,1,V, , , , ,space,2500,2.5,5c1bd15ba05a64000125c90c,001,2021-08-19_16h00.48.751,natb3,2021.2.3,Win32,21.33333333,5c1bd15ba05a64000125c90c,611e07ecdcc96256ae8d5b80,611e720c340818526b186c46,
,,,,space,0.6085,,0,47,47,228,1,Y, , , , ,space,2000,2,5c1bd15ba05a64000125c90c,001,2021-08-19_16h00.48.751,natb3,2021.2.3,Win32,21.33333333,5c1bd15ba05a64000125c90c,611e07ecdcc96256ae8d5b80,611e720c340818526b186c46,
,,,,space,0.4844,,0,48,48,100,1,M, , , , ,space,2000,2,5c1bd15ba05a64000125c90c,001,2021-08-19_16h00.48.751,natb3,2021.2.3,Win32,21.33333333,5c1bd15ba05a64000125c90c,611e07ecdcc96256ae8d5b80,611e720c340818526b186c46,
,,,,space,0.5669,,0,49,49,231,1,I, , , , ,space,2500,2.5,5c1bd15ba05a64000125c90c,001,2021-08-19_16h00.48.751,natb3,2021.2.3,Win32,21.33333333,5c1bd15ba05a64000125c90c,611e07ecdcc96256ae8d5b80,611e720c340818526b186c46,
,,,,space,0.6086,,0,50,50,199,1,J, , , , ,space,2500,2.5,5c1bd15ba05a64000125c90c,001,2021-08-19_16h00.48.751,natb3,2021.2.3,Win32,21.33333333,5c1bd15ba05a64000125c90c,611e07ecdcc96256ae8d5b80,611e720c340818526b186c46,
,,,,space,0.4764,,0,51,51,77,1,O, , , , ,space,2000,2,5c1bd15ba05a64000125c90c,001,2021-08-19_16h00.48.751,natb3,2021.2.3,Win32,21.33333333,5c1bd15ba05a64000125c90c,611e07ecdcc96256ae8d5b80,611e720c340818526b186c46,
,,,,space,0.5618,,0,52,52,159,1,S, , , , ,space,2500,2.5,5c1bd15ba05a64000125c90c,001,2021-08-19_16h00.48.751,natb3,2021.2.3,Win32,21.33333333,5c1bd15ba05a64000125c90c,611e07ecdcc96256ae8d5b80,611e720c340818526b186c46,
,,,,space,0.5697,,0,53,53,83,1,D, , , , ,space,2000,2,5c1bd15ba05a64000125c90c,001,2021-08-19_16h00.48.751,natb3,2021.2.3,Win32,21.33333333,5c1bd15ba05a64000125c90c,611e07ecdcc96256ae8d5b80,611e720c340818526b186c46,
,,,,space,0.7007,,0,54,54,154,1,I, , , , ,space,2500,2.5,5c1bd15ba05a64000125c90c,001,2021-08-19_16h00.48.751,natb3,2021.2.3,Win32,21.33333333,5c1bd15ba05a64000125c90c,611e07ecdcc96256ae8d5b80,611e720c340818526b186c46,
,,,,space,0.5706,,0,55,55,334,1,O, , , , ,space,1500,1.5,5c1bd15ba05a64000125c90c,001,2021-08-19_16h00.48.751,natb3,2021.2.3,Win32,21.33333333,5c1bd15ba05a64000125c90c,611e07ecdcc96256ae8d5b80,611e720c340818526b186c46,
,,,,,,,0,56,56,200,1,X,7, ,5,3,,1500,1.5,5c1bd15ba05a64000125c90c,001,2021-08-19_16h00.48.751,natb3,2021.2.3,Win32,21.33333333,5c1bd15ba05a64000125c90c,611e07ecdcc96256ae8d5b80,611e720c340818526b186c46,
,,,,space,0.7062,,0,57,57,64,1,N, , , , ,space,2000,2,5c1bd15ba05a64000125c90c,001,2021-08-19_16h00.48.751,natb3,2021.2.3,Win32,21.33333333,5c1bd15ba05a64000125c90c,611e07ecdcc96256ae8d5b80,611e720c340818526b186c46,
,,,,space,0.437900001,,0,58,58,288,1,M, , , , ,space,1500,1.5,5c1bd15ba05a64000125c90c,001,2021-08-19_16h00.48.751,natb3,2021.2.3,Win32,21.33333333,5c1bd15ba05a64000125c90c,611e07ecdcc96256ae8d5b80,611e720c340818526b186c46,
,,,,space,0.614,,0,59,59,59,1,Z, , , , ,space,2000,2,5c1bd15ba05a64000125c90c,001,2021-08-19_16h00.48.751,natb3,2021.2.3,Win32,21.33333333,5c1bd15ba05a64000125c90c,611e07ecdcc96256ae8d5b80,611e720c340818526b186c46,
,,,,space,0.523,,0,60,60,251,1,B, , , , ,space,1500,1.5,5c1bd15ba05a64000125c90c,001,2021-08-19_16h00.48.751,natb3,2021.2.3,Win32,21.33333333,5c1bd15ba05a64000125c90c,611e07ecdcc96256ae8d5b80,611e720c340818526b186c46,
,,,,space,0.523099999,,0,61,61,86,1,G, , , , ,space,2000,2,5c1bd15ba05a64000125c90c,001,2021-08-19_16h00.48.751,natb3,2021.2.3,Win32,21.33333333,5c1bd15ba05a64000125c90c,611e07ecdcc96256ae8d5b80,611e720c340818526b186c46,
,,,,space,0.573799999,,0,62,62,266,1,O, , , , ,space,1500,1.5,5c1bd15ba05a64000125c90c,001,2021-08-19_16h00.48.751,natb3,2021.2.3,Win32,21.33333333,5c1bd15ba05a64000125c90c,611e07ecdcc96256ae8d5b80,611e720c340818526b186c46,
,,,,space,0.5272,,0,63,63,258,1,E, , , , ,space,1500,1.5,5c1bd15ba05a64000125c90c,001,2021-08-19_16h00.48.751,natb3,2021.2.3,Win32,21.33333333,5c1bd15ba05a64000125c90c,611e07ecdcc96256ae8d5b80,611e720c340818526b186c46,
,,,,space,0.7021,,0,64,64,281,1,Z, , , , ,space,1500,1.5,5c1bd15ba05a64000125c90c,001,2021-08-19_16h00.48.751,natb3,2021.2.3,Win32,21.33333333,5c1bd15ba05a64000125c90c,611e07ecdcc96256ae8d5b80,611e720c340818526b186c46,
,,,,space,0.5225,,0,65,65,193,1,S, , , , ,space,2500,2.5,5c1bd15ba05a64000125c90c,001,2021-08-19_16h00.48.751,natb3,2021.2.3,Win32,21.33333333,5c1bd15ba05a64000125c90c,611e07ecdcc96256ae8d5b80,611e720c340818526b186c46,
,,,,space,0.6108,,0,66,66,92,1,Z, , , , ,space,1500,1.5,5c1bd15ba05a64000125c90c,001,2021-08-19_16h00.48.751,natb3,2021.2.3,Win32,21.33333333,5c1bd15ba05a64000125c90c,611e07ecdcc96256ae8d5b80,611e720c340818526b186c46,
,,,,,,,0,67,67,31,1,X, , , , ,,1500,1.5,5c1bd15ba05a64000125c90c,001,2021-08-19_16h00.48.751,natb3,2021.2.3,Win32,21.33333333,5c1bd15ba05a64000125c90c,611e07ecdcc96256ae8d5b80,611e720c340818526b186c46,
,,,,space,0.480099999,,0,68,68,81,1,S, , , , ,space,2000,2,5c1bd15ba05a64000125c90c,001,2021-08-19_16h00.48.751,natb3,2021.2.3,Win32,21.33333333,5c1bd15ba05a64000125c90c,611e07ecdcc96256ae8d5b80,611e720c340818526b186c46,
,,,,space,0.477,,0,69,69,209,1,N, , , , ,space,2000,2,5c1bd15ba05a64000125c90c,001,2021-08-19_16h00.48.751,natb3,2021.2.3,Win32,21.33333333,5c1bd15ba05a64000125c90c,611e07ecdcc96256ae8d5b80,611e720c340818526b186c46,
,,,,,,,0,70,70,78,1,X, , , , ,,2000,2,5c1bd15ba05a64000125c90c,001,2021-08-19_16h00.48.751,natb3,2021.2.3,Win32,21.33333333,5c1bd15ba05a64000125c90c,611e07ecdcc96256ae8d5b80,611e720c340818526b186c46,
,,,,,,,0,71,71,7,1,X, , , , ,,1500,1.5,5c1bd15ba05a64000125c90c,001,2021-08-19_16h00.48.751,natb3,2021.2.3,Win32,21.33333333,5c1bd15ba05a64000125c90c,611e07ecdcc96256ae8d5b80,611e720c340818526b186c46,
,,,,,,,0,72,72,207,1,X,9, ,2, ,,2500,2.5,5c1bd15ba05a64000125c90c,001,2021-08-19_16h00.48.751,natb3,2021.2.3,Win32,21.33333333,5c1bd15ba05a64000125c90c,611e07ecdcc96256ae8d5b80,611e720c340818526b186c46,
,,,,space,0.567,,0,73,73,208,1,B, , , , ,space,1500,1.5,5c1bd15ba05a64000125c90c,001,2021-08-19_16h00.48.751,natb3,2021.2.3,Win32,21.33333333,5c1bd15ba05a64000125c90c,611e07ecdcc96256ae8d5b80,611e720c340818526b186c46,
,,,,space,0.4879,,0,74,74,128,1,D, , , , ,space,2500,2.5,5c1bd15ba05a64000125c90c,001,2021-08-19_16h00.48.751,natb3,2021.2.3,Win32,21.33333333,5c1bd15ba05a64000125c90c,611e07ecdcc96256ae8d5b80,611e720c340818526b186c46,
,,,,space,0.522,,0,75,75,219,1,Y, , , , ,space,2000,2,5c1bd15ba05a64000125c90c,001,2021-08-19_16h00.48.751,natb3,2021.2.3,Win32,21.33333333,5c1bd15ba05a64000125c90c,611e07ecdcc96256ae8d5b80,611e720c340818526b186c46,
,,,,space,0.535400001,,0,76,76,327,1,E, , , , ,space,1500,1.5,5c1bd15ba05a64000125c90c,001,2021-08-19_16h00.48.751,natb3,2021.2.3,Win32,21.33333333,5c1bd15ba05a64000125c90c,611e07ecdcc96256ae8d5b80,611e720c340818526b186c46,
,,,,space,0.5767,,0,77,77,132,1,H, , , , ,space,2500,2.5,5c1bd15ba05a64000125c90c,001,2021-08-19_16h00.48.751,natb3,2021.2.3,Win32,21.33333333,5c1bd15ba05a64000125c90c,611e07ecdcc96256ae8d5b80,611e720c340818526b186c46,
,,,,space,0.535400001,,0,78,78,261,1,T, , , , ,space,2000,2,5c1bd15ba05a64000125c90c,001,2021-08-19_16h00.48.751,natb3,2021.2.3,Win32,21.33333333,5c1bd15ba05a64000125c90c,611e07ecdcc96256ae8d5b80,611e720c340818526b186c46,
,,,,space,0.4834,,0,79,79,142,1,N, , , , ,space,2500,2.5,5c1bd15ba05a64000125c90c,001,2021-08-19_16h00.48.751,natb3,2021.2.3,Win32,21.33333333,5c1bd15ba05a64000125c90c,611e07ecdcc96256ae8d5b80,611e720c340818526b186c46,
,,,,space,0.755099999,,0,80,80,41,1,Y, , , , ,space,2500,2.5,5c1bd15ba05a64000125c90c,001,2021-08-19_16h00.48.751,natb3,2021.2.3,Win32,21.33333333,5c1bd15ba05a64000125c90c,611e07ecdcc96256ae8d5b80,611e720c340818526b186c46,
,,,,space,0.8774,,0,81,81,289,1,Q, , , , ,space,2000,2,5c1bd15ba05a64000125c90c,001,2021-08-19_16h00.48.751,natb3,2021.2.3,Win32,21.33333333,5c1bd15ba05a64000125c90c,611e07ecdcc96256ae8d5b80,611e720c340818526b186c46,
,,,,space,0.5251,,0,82,82,26,1,C, , , , ,space,2000,2,5c1bd15ba05a64000125c90c,001,2021-08-19_16h00.48.751,natb3,2021.2.3,Win32,21.33333333,5c1bd15ba05a64000125c90c,611e07ecdcc96256ae8d5b80,611e720c340818526b186c46,
,,,,space,0.7877,,0,83,83,62,1,V, , , , ,space,1500,1.5,5c1bd15ba05a64000125c90c,001,2021-08-19_16h00.48.751,natb3,2021.2.3,Win32,21.33333333,5c1bd15ba05a64000125c90c,611e07ecdcc96256ae8d5b80,611e720c340818526b186c46,
,,,,space,0.6097,,0,84,84,245,1,K, , , , ,space,2000,2,5c1bd15ba05a64000125c90c,001,2021-08-19_16h00.48.751,natb3,2021.2.3,Win32,21.33333333,5c1bd15ba05a64000125c90c,611e07ecdcc96256ae8d5b80,611e720c340818526b186c46,
,,,,space,0.5747,,0,85,85,95,1,V, , , , ,space,1500,1.5,5c1bd15ba05a64000125c90c,001,2021-08-19_16h00.48.751,natb3,2021.2.3,Win32,21.33333333,5c1bd15ba05a64000125c90c,611e07ecdcc96256ae8d5b80,611e720c340818526b186c46,
,,,,space,0.4833,,0,86,86,120,1,U, , , , ,space,1500,1.5,5c1bd15ba05a64000125c90c,001,2021-08-19_16h00.48.751,natb3,2021.2.3,Win32,21.33333333,5c1bd15ba05a64000125c90c,611e07ecdcc96256ae8d5b80,611e720c340818526b186c46,
,,,,space,0.4759,,0,87,87,42,1,U, , , , ,space,1500,1.5,5c1bd15ba05a64000125c90c,001,2021-08-19_16h00.48.751,natb3,2021.2.3,Win32,21.33333333,5c1bd15ba05a64000125c90c,611e07ecdcc96256ae8d5b80,611e720c340818526b186c46,
,,,,space,0.834799999,,0,88,88,190,1,P, , , , ,space,2000,2,5c1bd15ba05a64000125c90c,001,2021-08-19_16h00.48.751,natb3,2021.2.3,Win32,21.33333333,5c1bd15ba05a64000125c90c,611e07ecdcc96256ae8d5b80,611e720c340818526b186c46,
,,,,space,0.6128,,0,89,89,314,1,L, , , , ,space,1500,1.5,5c1bd15ba05a64000125c90c,001,2021-08-19_16h00.48.751,natb3,2021.2.3,Win32,21.33333333,5c1bd15ba05a64000125c90c,611e07ecdcc96256ae8d5b80,611e720c340818526b186c46,
,,,,space,0.918,,0,90,90,306,1,D, , , , ,space,2000,2,5c1bd15ba05a64000125c90c,001,2021-08-19_16h00.48.751,natb3,2021.2.3,Win32,21.33333333,5c1bd15ba05a64000125c90c,611e07ecdcc96256ae8d5b80,611e720c340818526b186c46,
,,,,,,,0,91,91,273,1,X, , , , ,,2000,2,5c1bd15ba05a64000125c90c,001,2021-08-19_16h00.48.751,natb3,2021.2.3,Win32,21.33333333,5c1bd15ba05a64000125c90c,611e07ecdcc96256ae8d5b80,611e720c340818526b186c46,
,,,,space,0.478400001,,0,92,92,276,1,H, , , , ,space,2000,2,5c1bd15ba05a64000125c90c,001,2021-08-19_16h00.48.751,natb3,2021.2.3,Win32,21.33333333,5c1bd15ba05a64000125c90c,611e07ecdcc96256ae8d5b80,611e720c340818526b186c46,
,,,,space,0.567200001,,0,93,93,206,1,V, , , , ,space,2000,2,5c1bd15ba05a64000125c90c,001,2021-08-19_16h00.48.751,natb3,2021.2.3,Win32,21.33333333,5c1bd15ba05a64000125c90c,611e07ecdcc96256ae8d5b80,611e720c340818526b186c46,
,,,,space,0.5319,,0,94,94,24,1,L, , , , ,space,2500,2.5,5c1bd15ba05a64000125c90c,001,2021-08-19_16h00.48.751,natb3,2021.2.3,Win32,21.33333333,5c1bd15ba05a64000125c90c,611e07ecdcc96256ae8d5b80,611e720c340818526b186c46,
,,,,space,0.393,,0,95,95,333,1,I, , , , ,space,1500,1.5,5c1bd15ba05a64000125c90c,001,2021-08-19_16h00.48.751,natb3,2021.2.3,Win32,21.33333333,5c1bd15ba05a64000125c90c,611e07ecdcc96256ae8d5b80,611e720c340818526b186c46,
,,,,,,,0,96,96,263,1,X,4, ,6, ,,1500,1.5,5c1bd15ba05a64000125c90c,001,2021-08-19_16h00.48.751,natb3,2021.2.3,Win32,21.33333333,5c1bd15ba05a64000125c90c,611e07ecdcc96256ae8d5b80,611e720c340818526b186c46,
,,,,space,0.525299999,,0,97,97,197,1,G, , , , ,space,2500,2.5,5c1bd15ba05a64000125c90c,001,2021-08-19_16h00.48.751,natb3,2021.2.3,Win32,21.33333333,5c1bd15ba05a64000125c90c,611e07ecdcc96256ae8d5b80,611e720c340818526b186c46,
,,,,space,0.4397,,0,98,98,94,1,C, , , , ,space,2000,2,5c1bd15ba05a64000125c90c,001,2021-08-19_16h00.48.751,natb3,2021.2.3,Win32,21.33333333,5c1bd15ba05a64000125c90c,611e07ecdcc96256ae8d5b80,611e720c340818526b186c46,
,,,,space,0.480200001,,0,99,99,30,1,N, , , , ,space,2500,2.5,5c1bd15ba05a64000125c90c,001,2021-08-19_16h00.48.751,natb3,2021.2.3,Win32,21.33333333,5c1bd15ba05a64000125c90c,611e07ecdcc96256ae8d5b80,611e720c340818526b186c46,
,,,,space,0.5698,,0,100,100,80,1,A, , , , ,space,2000,2,5c1bd15ba05a64000125c90c,001,2021-08-19_16h00.48.751,natb3,2021.2.3,Win32,21.33333333,5c1bd15ba05a64000125c90c,611e07ecdcc96256ae8d5b80,611e720c340818526b186c46,
,,,,space,0.531200001,,0,101,101,32,1,M, , , , ,space,1500,1.5,5c1bd15ba05a64000125c90c,001,2021-08-19_16h00.48.751,natb3,2021.2.3,Win32,21.33333333,5c1bd15ba05a64000125c90c,611e07ecdcc96256ae8d5b80,611e720c340818526b186c46,
,,,,,,,0,102,102,218,1,X,1,3, ,8,,1500,1.5,5c1bd15ba05a64000125c90c,001,2021-08-19_16h00.48.751,natb3,2021.2.3,Win32,21.33333333,5c1bd15ba05a64000125c90c,611e07ecdcc96256ae8d5b80,611e720c340818526b186c46,
,,,,,,,0,103,103,299,1,X, , , , ,,2500,2.5,5c1bd15ba05a64000125c90c,001,2021-08-19_16h00.48.751,natb3,2021.2.3,Win32,21.33333333,5c1bd15ba05a64000125c90c,611e07ecdcc96256ae8d5b80,611e720c340818526b186c46,
,,,,space,0.9217,,0,104,104,278,1,J, , , , ,space,2000,2,5c1bd15ba05a64000125c90c,001,2021-08-19_16h00.48.751,natb3,2021.2.3,Win32,21.33333333,5c1bd15ba05a64000125c90c,611e07ecdcc96256ae8d5b80,611e720c340818526b186c46,
,,,,space,0.613700001,,0,105,105,307,1,F, , , , ,space,2500,2.5,5c1bd15ba05a64000125c90c,001,2021-08-19_16h00.48.751,natb3,2021.2.3,Win32,21.33333333,5c1bd15ba05a64000125c90c,611e07ecdcc96256ae8d5b80,611e720c340818526b186c46,
,,,,space,0.707,,0,106,106,106,1,T, , , , ,space,1500,1.5,5c1bd15ba05a64000125c90c,001,2021-08-19_16h00.48.751,natb3,2021.2.3,Win32,21.33333333,5c1bd15ba05a64000125c90c,611e07ecdcc96256ae8d5b80,611e720c340818526b186c46,
,,,,space,0.527099999,,0,107,107,87,1,H, , , , ,space,1500,1.5,5c1bd15ba05a64000125c90c,001,2021-08-19_16h00.48.751,natb3,2021.2.3,Win32,21.33333333,5c1bd15ba05a64000125c90c,611e07ecdcc96256ae8d5b80,611e720c340818526b186c46,
,,,,space,0.5671,,0,108,108,37,1,E, , , , ,space,2500,2.5,5c1bd15ba05a64000125c90c,001,2021-08-19_16h00.48.751,natb3,2021.2.3,Win32,21.33333333,5c1bd15ba05a64000125c90c,611e07ecdcc96256ae8d5b80,611e720c340818526b186c46,
,,,,space,0.5695,,0,109,109,63,1,B, , , , ,space,2000,2,5c1bd15ba05a64000125c90c,001,2021-08-19_16h00.48.751,natb3,2021.2.3,Win32,21.33333333,5c1bd15ba05a64000125c90c,611e07ecdcc96256ae8d5b80,611e720c340818526b186c46,
,,,,space,0.4415,,0,110,110,235,1,A, , , , ,space,1500,1.5,5c1bd15ba05a64000125c90c,001,2021-08-19_16h00.48.751,natb3,2021.2.3,Win32,21.33333333,5c1bd15ba05a64000125c90c,611e07ecdcc96256ae8d5b80,611e720c340818526b186c46,
,,,,space,0.7481,,0,111,111,298,1,I, , , , ,space,2000,2,5c1bd15ba05a64000125c90c,001,2021-08-19_16h00.48.751,natb3,2021.2.3,Win32,21.33333333,5c1bd15ba05a64000125c90c,611e07ecdcc96256ae8d5b80,611e720c340818526b186c46,
,,,,space,0.6579,,0,112,112,73,1,Y, , , , ,space,2000,2,5c1bd15ba05a64000125c90c,001,2021-08-19_16h00.48.751,natb3,2021.2.3,Win32,21.33333333,5c1bd15ba05a64000125c90c,611e07ecdcc96256ae8d5b80,611e720c340818526b186c46,
,,,,space,0.4849,,0,113,113,172,1,C, , , , ,space,1500,1.5,5c1bd15ba05a64000125c90c,001,2021-08-19_16h00.48.751,natb3,2021.2.3,Win32,21.33333333,5c1bd15ba05a64000125c90c,611e07ecdcc96256ae8d5b80,611e720c340818526b186c46,
,,,,space,0.3627,,0,114,114,331,1,Y, , , , ,space,2500,2.5,5c1bd15ba05a64000125c90c,001,2021-08-19_16h00.48.751,natb3,2021.2.3,Win32,21.33333333,5c1bd15ba05a64000125c90c,611e07ecdcc96256ae8d5b80,611e720c340818526b186c46,
,,,,,,,0,115,115,182,1,X, , , , ,,1500,1.5,5c1bd15ba05a64000125c90c,001,2021-08-19_16h00.48.751,natb3,2021.2.3,Win32,21.33333333,5c1bd15ba05a64000125c90c,611e07ecdcc96256ae8d5b80,611e720c340818526b186c46,
,,,,space,0.535900001,,0,116,116,253,1,N, , , , ,space,2500,2.5,5c1bd15ba05a64000125c90c,001,2021-08-19_16h00.48.751,natb3,2021.2.3,Win32,21.33333333,5c1bd15ba05a64000125c90c,611e07ecdcc96256ae8d5b80,611e720c340818526b186c46,
,,,,space,0.5243,,0,117,117,294,1,T, , , , ,space,2000,2,5c1bd15ba05a64000125c90c,001,2021-08-19_16h00.48.751,natb3,2021.2.3,Win32,21.33333333,5c1bd15ba05a64000125c90c,611e07ecdcc96256ae8d5b80,611e720c340818526b186c46,
,,,,,,,0,118,118,84,1,X, , , , ,,2000,2,5c1bd15ba05a64000125c90c,001,2021-08-19_16h00.48.751,natb3,2021.2.3,Win32,21.33333333,5c1bd15ba05a64000125c90c,611e07ecdcc96256ae8d5b80,611e720c340818526b186c46,
,,,,space,0.5216,,0,119,119,21,1,J, , , , ,space,1500,1.5,5c1bd15ba05a64000125c90c,001,2021-08-19_16h00.48.751,natb3,2021.2.3,Win32,21.33333333,5c1bd15ba05a64000125c90c,611e07ecdcc96256ae8d5b80,611e720c340818526b186c46,
,,,,space,0.5223,,0,120,120,262,1,Y, , , , ,space,2500,2.5,5c1bd15ba05a64000125c90c,001,2021-08-19_16h00.48.751,natb3,2021.2.3,Win32,21.33333333,5c1bd15ba05a64000125c90c,611e07ecdcc96256ae8d5b80,611e720c340818526b186c46,
,,,,space,0.562599999,,0,121,121,188,1,I, , , , ,space,2500,2.5,5c1bd15ba05a64000125c90c,001,2021-08-19_16h00.48.751,natb3,2021.2.3,Win32,21.33333333,5c1bd15ba05a64000125c90c,611e07ecdcc96256ae8d5b80,611e720c340818526b186c46,
,,,,space,0.479,,0,122,122,214,1,W, , , , ,space,2000,2,5c1bd15ba05a64000125c90c,001,2021-08-19_16h00.48.751,natb3,2021.2.3,Win32,21.33333333,5c1bd15ba05a64000125c90c,611e07ecdcc96256ae8d5b80,611e720c340818526b186c46,
,,,,,,,0,123,123,60,1,X,7,3,5, ,,1500,1.5,5c1bd15ba05a64000125c90c,001,2021-08-19_16h00.48.751,natb3,2021.2.3,Win32,21.33333333,5c1bd15ba05a64000125c90c,611e07ecdcc96256ae8d5b80,611e720c340818526b186c46,
,,,,,,,0,124,124,162,1,X,1,6, ,2,,1500,1.5,5c1bd15ba05a64000125c90c,001,2021-08-19_16h00.48.751,natb3,2021.2.3,Win32,21.33333333,5c1bd15ba05a64000125c90c,611e07ecdcc96256ae8d5b80,611e720c340818526b186c46,
,,,,,,,0,125,125,179,1,X, ,9, ,2,,1500,1.5,5c1bd15ba05a64000125c90c,001,2021-08-19_16h00.48.751,natb3,2021.2.3,Win32,21.33333333,5c1bd15ba05a64000125c90c,611e07ecdcc96256ae8d5b80,611e720c340818526b186c46,
,,,,,,,0,126,126,236,1,X,3, ,4,7,,2500,2.5,5c1bd15ba05a64000125c90c,001,2021-08-19_16h00.48.751,natb3,2021.2.3,Win32,21.33333333,5c1bd15ba05a64000125c90c,611e07ecdcc96256ae8d5b80,611e720c340818526b186c46,
,,,,,,,0,127,127,163,1,G, , , , ,space,2500,2.5,5c1bd15ba05a64000125c90c,001,2021-08-19_16h00.48.751,natb3,2021.2.3,Win32,21.33333333,5c1bd15ba05a64000125c90c,611e07ecdcc96256ae8d5b80,611e720c340818526b186c46,
,,,,space,0.5249,,0,128,128,57,1,K, , , , ,space,2500,2.5,5c1bd15ba05a64000125c90c,001,2021-08-19_16h00.48.751,natb3,2021.2.3,Win32,21.33333333,5c1bd15ba05a64000125c90c,611e07ecdcc96256ae8d5b80,611e720c340818526b186c46,
,,,,,,,0,129,129,116,1,X, , , , ,,2000,2,5c1bd15ba05a64000125c90c,001,2021-08-19_16h00.48.751,natb3,2021.2.3,Win32,21.33333333,5c1bd15ba05a64000125c90c,611e07ecdcc96256ae8d5b80,611e720c340818526b186c46,
,,,,space,0.5313,,0,130,130,135,1,K, , , , ,space,1500,1.5,5c1bd15ba05a64000125c90c,001,2021-08-19_16h00.48.751,natb3,2021.2.3,Win32,21.33333333,5c1bd15ba05a64000125c90c,611e07ecdcc96256ae8d5b80,611e720c340818526b186c46,
,,,,space,0.5651,,0,131,131,131,1,G, , , , ,space,1500,1.5,5c1bd15ba05a64000125c90c,001,2021-08-19_16h00.48.751,natb3,2021.2.3,Win32,21.33333333,5c1bd15ba05a64000125c90c,611e07ecdcc96256ae8d5b80,611e720c340818526b186c46,
,,,,,,,0,132,132,191,1,X,1, ,3,4,,2500,2.5,5c1bd15ba05a64000125c90c,001,2021-08-19_16h00.48.751,natb3,2021.2.3,Win32,21.33333333,5c1bd15ba05a64000125c90c,611e07ecdcc96256ae8d5b80,611e720c340818526b186c46,
,,,,space,0.5695,,0,133,133,227,1,T, , , , ,space,1500,1.5,5c1bd15ba05a64000125c90c,001,2021-08-19_16h00.48.751,natb3,2021.2.3,Win32,21.33333333,5c1bd15ba05a64000125c90c,611e07ecdcc96256ae8d5b80,611e720c340818526b186c46,
,,,,space,0.6536,,0,134,134,10,1,O, , , , ,space,2000,2,5c1bd15ba05a64000125c90c,001,2021-08-19_16h00.48.751,natb3,2021.2.3,Win32,21.33333333,5c1bd15ba05a64000125c90c,611e07ecdcc96256ae8d5b80,611e720c340818526b186c46,
,,,,,,,0,135,135,138,1,X,8,5, ,3,,2000,2,5c1bd15ba05a64000125c90c,001,2021-08-19_16h00.48.751,natb3,2021.2.3,Win32,21.33333333,5c1bd15ba05a64000125c90c,611e07ecdcc96256ae8d5b80,611e720c340818526b186c46,
,,,,space,0.4411,,0,136,136,217,1,T, , , , ,space,2500,2.5,5c1bd15ba05a64000125c90c,001,2021-08-19_16h00.48.751,natb3,2021.2.3,Win32,21.33333333,5c1bd15ba05a64000125c90c,611e07ecdcc96256ae8d5b80,611e720c340818526b186c46,
,,,,space,0.6194,,0,137,137,256,1,Q, , , , ,space,2000,2,5c1bd15ba05a64000125c90c,001,2021-08-19_16h00.48.751,natb3,2021.2.3,Win32,21.33333333,5c1bd15ba05a64000125c90c,611e07ecdcc96256ae8d5b80,611e720c340818526b186c46,
,,,,space,0.562599999,,0,138,138,22,1,K, , , , ,space,2000,2,5c1bd15ba05a64000125c90c,001,2021-08-19_16h00.48.751,natb3,2021.2.3,Win32,21.33333333,5c1bd15ba05a64000125c90c,611e07ecdcc96256ae8d5b80,611e720c340818526b186c46,
,,,,space,0.7123,,0,139,139,269,1,A, , , , ,space,2500,2.5,5c1bd15ba05a64000125c90c,001,2021-08-19_16h00.48.751,natb3,2021.2.3,Win32,21.33333333,5c1bd15ba05a64000125c90c,611e07ecdcc96256ae8d5b80,611e720c340818526b186c46,
,,,,space,0.5709,,0,140,140,247,1,Z, , , , ,space,1500,1.5,5c1bd15ba05a64000125c90c,001,2021-08-19_16h00.48.751,natb3,2021.2.3,Win32,21.33333333,5c1bd15ba05a64000125c90c,611e07ecdcc96256ae8d5b80,611e720c340818526b186c46,
,,,,space,0.6151,,0,141,141,178,1,Q, , , , ,space,1500,1.5,5c1bd15ba05a64000125c90c,001,2021-08-19_16h00.48.751,natb3,2021.2.3,Win32,21.33333333,5c1bd15ba05a64000125c90c,611e07ecdcc96256ae8d5b80,611e720c340818526b186c46,
,,,,space,0.4476,,0,142,142,71,1,R, , , , ,space,2500,2.5,5c1bd15ba05a64000125c90c,001,2021-08-19_16h00.48.751,natb3,2021.2.3,Win32,21.33333333,5c1bd15ba05a64000125c90c,611e07ecdcc96256ae8d5b80,611e720c340818526b186c46,
,,,,,,,0,143,143,43,1,X, ,6, ,2,,2500,2.5,5c1bd15ba05a64000125c90c,001,2021-08-19_16h00.48.751,natb3,2021.2.3,Win32,21.33333333,5c1bd15ba05a64000125c90c,611e07ecdcc96256ae8d5b80,611e720c340818526b186c46,
,,,,space,0.6144,,0,144,144,246,1,L, , , , ,space,2500,2.5,5c1bd15ba05a64000125c90c,001,2021-08-19_16h00.48.751,natb3,2021.2.3,Win32,21.33333333,5c1bd15ba05a64000125c90c,611e07ecdcc96256ae8d5b80,611e720c340818526b186c46,
,,,,,,,0,145,145,133,1,X, ,4, ,6,,2500,2.5,5c1bd15ba05a64000125c90c,001,2021-08-19_16h00.48.751,natb3,2021.2.3,Win32,21.33333333,5c1bd15ba05a64000125c90c,611e07ecdcc96256ae8d5b80,611e720c340818526b186c46,
,,,,space,0.696200001,,0,146,146,158,1,X, , , , ,,1500,1.5,5c1bd15ba05a64000125c90c,001,2021-08-19_16h00.48.751,natb3,2021.2.3,Win32,21.33333333,5c1bd15ba05a64000125c90c,611e07ecdcc96256ae8d5b80,611e720c340818526b186c46,
,,,,space,0.560299999,,0,147,147,104,1,E, , , , ,space,2000,2,5c1bd15ba05a64000125c90c,001,2021-08-19_16h00.48.751,natb3,2021.2.3,Win32,21.33333333,5c1bd15ba05a64000125c90c,611e07ecdcc96256ae8d5b80,611e720c340818526b186c46,
,,,,space,0.616,,0,148,148,177,1,M, , , , ,space,2500,2.5,5c1bd15ba05a64000125c90c,001,2021-08-19_16h00.48.751,natb3,2021.2.3,Win32,21.33333333,5c1bd15ba05a64000125c90c,611e07ecdcc96256ae8d5b80,611e720c340818526b186c46,
,,,,space,0.4791,,0,149,149,151,1,Y, , , , ,space,2500,2.5,5c1bd15ba05a64000125c90c,001,2021-08-19_16h00.48.751,natb3,2021.2.3,Win32,21.33333333,5c1bd15ba05a64000125c90c,611e07ecdcc96256ae8d5b80,611e720c340818526b186c46,
,,,,,,,0,150,150,233,1,X, ,2, ,5,,1500,1.5,5c1bd15ba05a64000125c90c,001,2021-08-19_16h00.48.751,natb3,2021.2.3,Win32,21.33333333,5c1bd15ba05a64000125c90c,611e07ecdcc96256ae8d5b80,611e720c340818526b186c46,
,,,,,,,0,151,151,129,1,X,2,3,5, ,,1500,1.5,5c1bd15ba05a64000125c90c,001,2021-08-19_16h00.48.751,natb3,2021.2.3,Win32,21.33333333,5c1bd15ba05a64000125c90c,611e07ecdcc96256ae8d5b80,611e720c340818526b186c46,
,,,,space,0.6181,,0,152,152,226,1,R, , , , ,space,2000,2,5c1bd15ba05a64000125c90c,001,2021-08-19_16h00.48.751,natb3,2021.2.3,Win32,21.33333333,5c1bd15ba05a64000125c90c,611e07ecdcc96256ae8d5b80,611e720c340818526b186c46,
,,,,space,0.4353,,0,153,153,165,1,J, , , , ,space,2500,2.5,5c1bd15ba05a64000125c90c,001,2021-08-19_16h00.48.751,natb3,2021.2.3,Win32,21.33333333,5c1bd15ba05a64000125c90c,611e07ecdcc96256ae8d5b80,611e720c340818526b186c46,
,,,,space,0.4832,,0,154,154,170,1,Z, , , , ,space,2000,2,5c1bd15ba05a64000125c90c,001,2021-08-19_16h00.48.751,natb3,2021.2.3,Win32,21.33333333,5c1bd15ba05a64000125c90c,611e07ecdcc96256ae8d5b80,611e720c340818526b186c46,
,,,,,,,0,155,155,118,1,X, , , , ,,2000,2,5c1bd15ba05a64000125c90c,001,2021-08-19_16h00.48.751,natb3,2021.2.3,Win32,21.33333333,5c1bd15ba05a64000125c90c,611e07ecdcc96256ae8d5b80,611e720c340818526b186c46,
,,,,space,0.482599999,,0,156,156,274,1,F, , , , ,space,2000,2,5c1bd15ba05a64000125c90c,001,2021-08-19_16h00.48.751,natb3,2021.2.3,Win32,21.33333333,5c1bd15ba05a64000125c90c,611e07ecdcc96256ae8d5b80,611e720c340818526b186c46,
,,,,space,0.4775,,0,157,157,117,1,T, , , , ,space,2500,2.5,5c1bd15ba05a64000125c90c,001,2021-08-19_16h00.48.751,natb3,2021.2.3,Win32,21.33333333,5c1bd15ba05a64000125c90c,611e07ecdcc96256ae8d5b80,611e720c340818526b186c46,
,,,,space,0.5667,,0,158,158,13,1,A, , , , ,space,2000,2,5c1bd15ba05a64000125c90c,001,2021-08-19_16h00.48.751,natb3,2021.2.3,Win32,21.33333333,5c1bd15ba05a64000125c90c,611e07ecdcc96256ae8d5b80,611e720c340818526b186c46,
,,,,space,0.524,,0,159,159,72,1,T, , , , ,space,1500,1.5,5c1bd15ba05a64000125c90c,001,2021-08-19_16h00.48.751,natb3,2021.2.3,Win32,21.33333333,5c1bd15ba05a64000125c90c,611e07ecdcc96256ae8d5b80,611e720c340818526b186c46,
,,,,space,0.5256,,0,160,160,184,1,T, , , , ,space,2000,2,5c1bd15ba05a64000125c90c,001,2021-08-19_16h00.48.751,natb3,2021.2.3,Win32,21.33333333,5c1bd15ba05a64000125c90c,611e07ecdcc96256ae8d5b80,611e720c340818526b186c46,
,,,,space,0.6153,,0,161,161,216,1,R, , , , ,space,1500,1.5,5c1bd15ba05a64000125c90c,001,2021-08-19_16h00.48.751,natb3,2021.2.3,Win32,21.33333333,5c1bd15ba05a64000125c90c,611e07ecdcc96256ae8d5b80,611e720c340818526b186c46,
,,,,,,,0,162,162,27,1,X,5, ,1,3,,1500,1.5,5c1bd15ba05a64000125c90c,001,2021-08-19_16h00.48.751,natb3,2021.2.3,Win32,21.33333333,5c1bd15ba05a64000125c90c,611e07ecdcc96256ae8d5b80,611e720c340818526b186c46,
,,,,space,0.4852,,0,163,163,53,1,G, , , , ,space,2500,2.5,5c1bd15ba05a64000125c90c,001,2021-08-19_16h00.48.751,natb3,2021.2.3,Win32,21.33333333,5c1bd15ba05a64000125c90c,611e07ecdcc96256ae8d5b80,611e720c340818526b186c46,
,,,,space,0.5728,,0,164,164,293,1,R, , , , ,space,2500,2.5,5c1bd15ba05a64000125c90c,001,2021-08-19_16h00.48.751,natb3,2021.2.3,Win32,21.33333333,5c1bd15ba05a64000125c90c,611e07ecdcc96256ae8d5b80,611e720c340818526b186c46,
,,,,,,,0,165,165,302,1,X, , , , ,,2000,2,5c1bd15ba05a64000125c90c,001,2021-08-19_16h00.48.751,natb3,2021.2.3,Win32,21.33333333,5c1bd15ba05a64000125c90c,611e07ecdcc96256ae8d5b80,611e720c340818526b186c46,
,,,,space,0.7036,,0,166,166,205,1,C, , , , ,space,2000,2,5c1bd15ba05a64000125c90c,001,2021-08-19_16h00.48.751,natb3,2021.2.3,Win32,21.33333333,5c1bd15ba05a64000125c90c,611e07ecdcc96256ae8d5b80,611e720c340818526b186c46,
,,,,space,0.5693,space,0,167,167,260,1,R, , , , ,space,2000,2,5c1bd15ba05a64000125c90c,001,2021-08-19_16h00.48.751,natb3,2021.2.3,Win32,21.33333333,5c1bd15ba05a64000125c90c,611e07ecdcc96256ae8d5b80,611e720c340818526b186c46,12.6951
,,,,space,0.691099999,,0,168,168,312,1,K, , , , ,space,2000,2,5c1bd15ba05a64000125c90c,001,2021-08-19_16h00.48.751,natb3,2021.2.3,Win32,21.33333333,5c1bd15ba05a64000125c90c,611e07ecdcc96256ae8d5b80,611e720c340818526b186c46,
,,,,space,0.522900001,,0,169,169,143,1,M, , , , ,space,2500,2.5,5c1bd15ba05a64000125c90c,001,2021-08-19_16h00.48.751,natb3,2021.2.3,Win32,21.33333333,5c1bd15ba05a64000125c90c,611e07ecdcc96256ae8d5b80,611e720c340818526b186c46,
,,,,space,0.431799999,,0,170,170,147,1,E, , , , ,space,2000,2,5c1bd15ba05a64000125c90c,001,2021-08-19_16h00.48.751,natb3,2021.2.3,Win32,21.33333333,5c1bd15ba05a64000125c90c,611e07ecdcc96256ae8d5b80,611e720c340818526b186c46,
,,,,space,0.481400001,,0,171,171,99,1,N, , , , ,space,2500,2.5,5c1bd15ba05a64000125c90c,001,2021-08-19_16h00.48.751,natb3,2021.2.3,Win32,21.33333333,5c1bd15ba05a64000125c90c,611e07ecdcc96256ae8d5b80,611e720c340818526b186c46,
,,,,space,0.4733,,0,172,172,292,1,E, , , , ,space,2000,2,5c1bd15ba05a64000125c90c,001,2021-08-19_16h00.48.751,natb3,2021.2.3,Win32,21.33333333,5c1bd15ba05a64000125c90c,611e07ecdcc96256ae8d5b80,611e720c340818526b186c46,
,,,,space,0.519099999,,0,173,173,161,1,F, , , , ,space,1500,1.5,5c1bd15ba05a64000125c90c,001,2021-08-19_16h00.48.751,natb3,2021.2.3,Win32,21.33333333,5c1bd15ba05a64000125c90c,611e07ecdcc96256ae8d5b80,611e720c340818526b186c46,
,,,,space,0.4379,,0,174,174,89,1,X,3, , , ,,2000,2,5c1bd15ba05a64000125c90c,001,2021-08-19_16h00.48.751,natb3,2021.2.3,Win32,21.33333333,5c1bd15ba05a64000125c90c,611e07ecdcc96256ae8d5b80,611e720c340818526b186c46,
,,,,space,0.6125,,0,175,175,70,1,E, , , , ,space,2500,2.5,5c1bd15ba05a64000125c90c,001,2021-08-19_16h00.48.751,natb3,2021.2.3,Win32,21.33333333,5c1bd15ba05a64000125c90c,611e07ecdcc96256ae8d5b80,611e720c340818526b186c46,
,,,,space,0.7095,,0,176,176,155,1,O, , , , ,space,1500,1.5,5c1bd15ba05a64000125c90c,001,2021-08-19_16h00.48.751,natb3,2021.2.3,Win32,21.33333333,5c1bd15ba05a64000125c90c,611e07ecdcc96256ae8d5b80,611e720c340818526b186c46,
,,,,space,0.5302,,0,177,177,222,1,O, , , , ,space,2000,2,5c1bd15ba05a64000125c90c,001,2021-08-19_16h00.48.751,natb3,2021.2.3,Win32,21.33333333,5c1bd15ba05a64000125c90c,611e07ecdcc96256ae8d5b80,611e720c340818526b186c46,
,,,,space,0.530400001,,0,178,178,185,1,Y, , , , ,space,2500,2.5,5c1bd15ba05a64000125c90c,001,2021-08-19_16h00.48.751,natb3,2021.2.3,Win32,21.33333333,5c1bd15ba05a64000125c90c,611e07ecdcc96256ae8d5b80,611e720c340818526b186c46,
,,,,,,,0,179,179,311,1,X,1,2,7,3,,2500,2.5,5c1bd15ba05a64000125c90c,001,2021-08-19_16h00.48.751,natb3,2021.2.3,Win32,21.33333333,5c1bd15ba05a64000125c90c,611e07ecdcc96256ae8d5b80,611e720c340818526b186c46,
,,,,space,0.5661,,0,180,180,55,1,H, , , , ,space,2500,2.5,5c1bd15ba05a64000125c90c,001,2021-08-19_16h00.48.751,natb3,2021.2.3,Win32,21.33333333,5c1bd15ba05a64000125c90c,611e07ecdcc96256ae8d5b80,611e720c340818526b186c46,
,,,,space,0.6559,,0,181,181,275,1,G, , , , ,space,1500,1.5,5c1bd15ba05a64000125c90c,001,2021-08-19_16h00.48.751,natb3,2021.2.3,Win32,21.33333333,5c1bd15ba05a64000125c90c,611e07ecdcc96256ae8d5b80,611e720c340818526b186c46,
,,,,space,0.392400001,,0,182,182,317,1,C, , , , ,space,2000,2,5c1bd15ba05a64000125c90c,001,2021-08-19_16h00.48.751,natb3,2021.2.3,Win32,21.33333333,5c1bd15ba05a64000125c90c,611e07ecdcc96256ae8d5b80,611e720c340818526b186c46,
,,,,space,0.4355,,0,183,183,305,1,X, , , , ,,1500,1.5,5c1bd15ba05a64000125c90c,001,2021-08-19_16h00.48.751,natb3,2021.2.3,Win32,21.33333333,5c1bd15ba05a64000125c90c,611e07ecdcc96256ae8d5b80,611e720c340818526b186c46,
,,,,space,0.483400001,,0,184,184,3,1,R, , , , ,space,2000,2,5c1bd15ba05a64000125c90c,001,2021-08-19_16h00.48.751,natb3,2021.2.3,Win32,21.33333333,5c1bd15ba05a64000125c90c,611e07ecdcc96256ae8d5b80,611e720c340818526b186c46,
,,,,,,,0,185,185,51,1,X,7,5,8, ,,1500,1.5,5c1bd15ba05a64000125c90c,001,2021-08-19_16h00.48.751,natb3,2021.2.3,Win32,21.33333333,5c1bd15ba05a64000125c90c,611e07ecdcc96256ae8d5b80,611e720c340818526b186c46,
,,,,space,0.4943,,0,186,186,91,1,L, , , , ,space,2000,2,5c1bd15ba05a64000125c90c,001,2021-08-19_16h00.48.751,natb3,2021.2.3,Win32,21.33333333,5c1bd15ba05a64000125c90c,611e07ecdcc96256ae8d5b80,611e720c340818526b186c46,
,,,,space,0.6121,,0,187,187,279,1,K, , , , ,space,2500,2.5,5c1bd15ba05a64000125c90c,001,2021-08-19_16h00.48.751,natb3,2021.2.3,Win32,21.33333333,5c1bd15ba05a64000125c90c,611e07ecdcc96256ae8d5b80,611e720c340818526b186c46,
,,,,space,0.8835,,0,188,188,196,1,F, , , , ,space,1500,1.5,5c1bd15ba05a64000125c90c,001,2021-08-19_16h00.48.751,natb3,2021.2.3,Win32,21.33333333,5c1bd15ba05a64000125c90c,611e07ecdcc96256ae8d5b80,611e720c340818526b186c46,
,,,,space,0.4346,,0,189,189,48,1,A, , , , ,space,2500,2.5,5c1bd15ba05a64000125c90c,001,2021-08-19_16h00.48.751,natb3,2021.2.3,Win32,21.33333333,5c1bd15ba05a64000125c90c,611e07ecdcc96256ae8d5b80,611e720c340818526b186c46,
,,,,space,0.481400001,,0,190,190,69,1,X, , , , ,,1500,1.5,5c1bd15ba05a64000125c90c,001,2021-08-19_16h00.48.751,natb3,2021.2.3,Win32,21.33333333,5c1bd15ba05a64000125c90c,611e07ecdcc96256ae8d5b80,611e720c340818526b186c46,
,,,,space,0.788,,0,191,191,270,1,S, , , , ,space,1500,1.5,5c1bd15ba05a64000125c90c,001,2021-08-19_16h00.48.751,natb3,2021.2.3,Win32,21.33333333,5c1bd15ba05a64000125c90c,611e07ecdcc96256ae8d5b80,611e720c340818526b186c46,
,,,,space,0.519299999,,0,192,192,140,1,B, , , , ,space,2500,2.5,5c1bd15ba05a64000125c90c,001,2021-08-19_16h00.48.751,natb3,2021.2.3,Win32,21.33333333,5c1bd15ba05a64000125c90c,611e07ecdcc96256ae8d5b80,611e720c340818526b186c46,
,,,,space,0.4359,,0,193,193,152,1,U, , , , ,space,2000,2,5c1bd15ba05a64000125c90c,001,2021-08-19_16h00.48.751,natb3,2021.2.3,Win32,21.33333333,5c1bd15ba05a64000125c90c,611e07ecdcc96256ae8d5b80,611e720c340818526b186c46,
,,,,space,0.532299999,,0,194,194,186,1,U, , , , ,space,2500,2.5,5c1bd15ba05a64000125c90c,001,2021-08-19_16h00.48.751,natb3,2021.2.3,Win32,21.33333333,5c1bd15ba05a64000125c90c,611e07ecdcc96256ae8d5b80,611e720c340818526b186c46,
,,,,,,,0,195,195,96,1,X, , , , ,,1500,1.5,5c1bd15ba05a64000125c90c,001,2021-08-19_16h00.48.751,natb3,2021.2.3,Win32,21.33333333,5c1bd15ba05a64000125c90c,611e07ecdcc96256ae8d5b80,611e720c340818526b186c46,
,,,,space,0.6659,,0,196,196,223,1,Q, , , , ,space,2000,2,5c1bd15ba05a64000125c90c,001,2021-08-19_16h00.48.751,natb3,2021.2.3,Win32,21.33333333,5c1bd15ba05a64000125c90c,611e07ecdcc96256ae8d5b80,611e720c340818526b186c46,
,,,,,,,0,197,197,122,1,X,1, , ,8,,1500,1.5,5c1bd15ba05a64000125c90c,001,2021-08-19_16h00.48.751,natb3,2021.2.3,Win32,21.33333333,5c1bd15ba05a64000125c90c,611e07ecdcc96256ae8d5b80,611e720c340818526b186c46,
,,,,,,,0,198,198,35,1,X, , , , ,,2500,2.5,5c1bd15ba05a64000125c90c,001,2021-08-19_16h00.48.751,natb3,2021.2.3,Win32,21.33333333,5c1bd15ba05a64000125c90c,611e07ecdcc96256ae8d5b80,611e720c340818526b186c46,
,,,,space,0.7046,,0,199,199,11,1,P, , , , ,space,2500,2.5,5c1bd15ba05a64000125c90c,001,2021-08-19_16h00.48.751,natb3,2021.2.3,Win32,21.33333333,5c1bd15ba05a64000125c90c,611e07ecdcc96256ae8d5b80,611e720c340818526b186c46,
,,,,space,0.708599999,,0,200,200,115,1,R, , , , ,space,1500,1.5,5c1bd15ba05a64000125c90c,001,2021-08-19_16h00.48.751,natb3,2021.2.3,Win32,21.33333333,5c1bd15ba05a64000125c90c,611e07ecdcc96256ae8d5b80,611e720c340818526b186c46,
,,,,,,,0,201,201,175,1,X,7, ,4,2,,1500,1.5,5c1bd15ba05a64000125c90c,001,2021-08-19_16h00.48.751,natb3,2021.2.3,Win32,21.33333333,5c1bd15ba05a64000125c90c,611e07ecdcc96256ae8d5b80,611e720c340818526b186c46,
,,,,space,0.4852,,0,202,202,318,1,X, , , , ,,1500,1.5,5c1bd15ba05a64000125c90c,001,2021-08-19_16h00.48.751,natb3,2021.2.3,Win32,21.33333333,5c1bd15ba05a64000125c90c,611e07ecdcc96256ae8d5b80,611e720c340818526b186c46,
,,,,space,0.7552,,0,203,203,326,1,W, , , , ,space,2000,2,5c1bd15ba05a64000125c90c,001,2021-08-19_16h00.48.751,natb3,2021.2.3,Win32,21.33333333,5c1bd15ba05a64000125c90c,611e07ecdcc96256ae8d5b80,611e720c340818526b186c46,
,,,,space,0.7489,,0,204,204,290,1,W, , , , ,space,1500,1.5,5c1bd15ba05a64000125c90c,001,2021-08-19_16h00.48.751,natb3,2021.2.3,Win32,21.33333333,5c1bd15ba05a64000125c90c,611e07ecdcc96256ae8d5b80,611e720c340818526b186c46,
,,,,space,0.524900001,,0,205,205,150,1,T, , , , ,space,2500,2.5,5c1bd15ba05a64000125c90c,001,2021-08-19_16h00.48.751,natb3,2021.2.3,Win32,21.33333333,5c1bd15ba05a64000125c90c,611e07ecdcc96256ae8d5b80,611e720c340818526b186c46,
,,,,space,0.5276,,0,206,206,36,1,W, , , , ,space,2000,2,5c1bd15ba05a64000125c90c,001,2021-08-19_16h00.48.751,natb3,2021.2.3,Win32,21.33333333,5c1bd15ba05a64000125c90c,611e07ecdcc96256ae8d5b80,611e720c340818526b186c46,
,,,,space,0.479599999,,0,207,207,2,1,E, , , , ,space,2500,2.5,5c1bd15ba05a64000125c90c,001,2021-08-19_16h00.48.751,natb3,2021.2.3,Win32,21.33333333,5c1bd15ba05a64000125c90c,611e07ecdcc96256ae8d5b80,611e720c340818526b186c46,
,,,,space,0.707,,0,208,208,316,1,Z, , , , ,space,1500,1.5,5c1bd15ba05a64000125c90c,001,2021-08-19_16h00.48.751,natb3,2021.2.3,Win32,21.33333333,5c1bd15ba05a64000125c90c,611e07ecdcc96256ae8d5b80,611e720c340818526b186c46,
,,,,space,0.524299999,,0,209,209,304,1,S, , , , ,space,2000,2,5c1bd15ba05a64000125c90c,001,2021-08-19_16h00.48.751,natb3,2021.2.3,Win32,21.33333333,5c1bd15ba05a64000125c90c,611e07ecdcc96256ae8d5b80,611e720c340818526b186c46,
,,,,,,,0,210,210,282,1,X, , , , ,,2500,2.5,5c1bd15ba05a64000125c90c,001,2021-08-19_16h00.48.751,natb3,2021.2.3,Win32,21.33333333,5c1bd15ba05a64000125c90c,611e07ecdcc96256ae8d5b80,611e720c340818526b186c46,
,,,,space,0.6589,,0,211,211,321,1,N, , , , ,space,2000,2,5c1bd15ba05a64000125c90c,001,2021-08-19_16h00.48.751,natb3,2021.2.3,Win32,21.33333333,5c1bd15ba05a64000125c90c,611e07ecdcc96256ae8d5b80,611e720c340818526b186c46,
,,,,,,,0,212,212,248,1,X, ,1,5, ,,1500,1.5,5c1bd15ba05a64000125c90c,001,2021-08-19_16h00.48.751,natb3,2021.2.3,Win32,21.33333333,5c1bd15ba05a64000125c90c,611e07ecdcc96256ae8d5b80,611e720c340818526b186c46,
,,,,space,0.523,,0,213,213,173,1,V, , , , ,space,1500,1.5,5c1bd15ba05a64000125c90c,001,2021-08-19_16h00.48.751,natb3,2021.2.3,Win32,21.33333333,5c1bd15ba05a64000125c90c,611e07ecdcc96256ae8d5b80,611e720c340818526b186c46,
,,,,space,0.7936,,0,214,214,234,1,P, , , , ,space,2000,2,5c1bd15ba05a64000125c90c,001,2021-08-19_16h00.48.751,natb3,2021.2.3,Win32,21.33333333,5c1bd15ba05a64000125c90c,611e07ecdcc96256ae8d5b80,611e720c340818526b186c46,
,,,,,,,0,215,215,39,1,X,6,2, , ,,1500,1.5,5c1bd15ba05a64000125c90c,001,2021-08-19_16h00.48.751,natb3,2021.2.3,Win32,21.33333333,5c1bd15ba05a64000125c90c,611e07ecdcc96256ae8d5b80,611e720c340818526b186c46,
,,,,space,0.609200001,,0,216,216,38,1,R, , , , ,space,2500,2.5,5c1bd15ba05a64000125c90c,001,2021-08-19_16h00.48.751,natb3,2021.2.3,Win32,21.33333333,5c1bd15ba05a64000125c90c,611e07ecdcc96256ae8d5b80,611e720c340818526b186c46,
,,,,,,,0,217,217,74,1,X, ,4,3,2,,1500,1.5,5c1bd15ba05a64000125c90c,001,2021-08-19_16h00.48.751,natb3,2021.2.3,Win32,21.33333333,5c1bd15ba05a64000125c90c,611e07ecdcc96256ae8d5b80,611e720c340818526b186c46,
,,,,space,0.481,,0,218,218,145,1,X, , , , ,,2000,2,5c1bd15ba05a64000125c90c,001,2021-08-19_16h00.48.751,natb3,2021.2.3,Win32,21.33333333,5c1bd15ba05a64000125c90c,611e07ecdcc96256ae8d5b80,611e720c340818526b186c46,
,,,,,,,0,219,219,239,1,X, , , , ,,2000,2,5c1bd15ba05a64000125c90c,001,2021-08-19_16h00.48.751,natb3,2021.2.3,Win32,21.33333333,5c1bd15ba05a64000125c90c,611e07ecdcc96256ae8d5b80,611e720c340818526b186c46,
,,,,,,,0,220,220,4,1,X, , , , ,,2000,2,5c1bd15ba05a64000125c90c,001,2021-08-19_16h00.48.751,natb3,2021.2.3,Win32,21.33333333,5c1bd15ba05a64000125c90c,611e07ecdcc96256ae8d5b80,611e720c340818526b186c46,
,,,,space,0.5644,,0,221,221,126,1,A, , , , ,space,2500,2.5,5c1bd15ba05a64000125c90c,001,2021-08-19_16h00.48.751,natb3,2021.2.3,Win32,21.33333333,5c1bd15ba05a64000125c90c,611e07ecdcc96256ae8d5b80,611e720c340818526b186c46,
,,,,,,,0,222,222,230,1,U, , , , ,space,1500,1.5,5c1bd15ba05a64000125c90c,001,2021-08-19_16h00.48.751,natb3,2021.2.3,Win32,21.33333333,5c1bd15ba05a64000125c90c,611e07ecdcc96256ae8d5b80,611e720c340818526b186c46,
,,,,space,0.4774,,0,223,223,296,1,Y, , , , ,space,2500,2.5,5c1bd15ba05a64000125c90c,001,2021-08-19_16h00.48.751,natb3,2021.2.3,Win32,21.33333333,5c1bd15ba05a64000125c90c,611e07ecdcc96256ae8d5b80,611e720c340818526b186c46,
,,,,space,0.616599999,,0,224,224,160,1,D, , , , ,space,1500,1.5,5c1bd15ba05a64000125c90c,001,2021-08-19_16h00.48.751,natb3,2021.2.3,Win32,21.33333333,5c1bd15ba05a64000125c90c,611e07ecdcc96256ae8d5b80,611e720c340818526b186c46,
,,,,space,0.9211,,0,225,225,112,1,Q, , , , ,space,2500,2.5,5c1bd15ba05a64000125c90c,001,2021-08-19_16h00.48.751,natb3,2021.2.3,Win32,21.33333333,5c1bd15ba05a64000125c90c,611e07ecdcc96256ae8d5b80,611e720c340818526b186c46,
,,,,space,0.7965,,0,226,226,265,1,I, , , , ,space,2000,2,5c1bd15ba05a64000125c90c,001,2021-08-19_16h00.48.751,natb3,2021.2.3,Win32,21.33333333,5c1bd15ba05a64000125c90c,611e07ecdcc96256ae8d5b80,611e720c340818526b186c46,
,,,,space,0.6581,,0,227,227,108,1,Y, , , , ,space,2500,2.5,5c1bd15ba05a64000125c90c,001,2021-08-19_16h00.48.751,natb3,2021.2.3,Win32,21.33333333,5c1bd15ba05a64000125c90c,611e07ecdcc96256ae8d5b80,611e720c340818526b186c46,
,,,,,,,0,228,228,82,1,X,4,6,1,7,,2000,2,5c1bd15ba05a64000125c90c,001,2021-08-19_16h00.48.751,natb3,2021.2.3,Win32,21.33333333,5c1bd15ba05a64000125c90c,611e07ecdcc96256ae8d5b80,611e720c340818526b186c46,
,,,,space,0.5277,,0,229,229,300,1,O, , , , ,space,2500,2.5,5c1bd15ba05a64000125c90c,001,2021-08-19_16h00.48.751,natb3,2021.2.3,Win32,21.33333333,5c1bd15ba05a64000125c90c,611e07ecdcc96256ae8d5b80,611e720c340818526b186c46,
,,,,space,0.5703,,0,230,230,264,1,U, , , , ,space,2000,2,5c1bd15ba05a64000125c90c,001,2021-08-19_16h00.48.751,natb3,2021.2.3,Win32,21.33333333,5c1bd15ba05a64000125c90c,611e07ecdcc96256ae8d5b80,611e720c340818526b186c46,
,,,,,,,0,231,231,187,1,X, ,3,7,4,,1500,1.5,5c1bd15ba05a64000125c90c,001,2021-08-19_16h00.48.751,natb3,2021.2.3,Win32,21.33333333,5c1bd15ba05a64000125c90c,611e07ecdcc96256ae8d5b80,611e720c340818526b186c46,
,,,,space,0.709,,0,232,232,75,1,U, , , , ,space,1500,1.5,5c1bd15ba05a64000125c90c,001,2021-08-19_16h00.48.751,natb3,2021.2.3,Win32,21.33333333,5c1bd15ba05a64000125c90c,611e07ecdcc96256ae8d5b80,611e720c340818526b186c46,
,,,,space,0.5669,,0,233,233,241,1,G, , , , ,space,2500,2.5,5c1bd15ba05a64000125c90c,001,2021-08-19_16h00.48.751,natb3,2021.2.3,Win32,21.33333333,5c1bd15ba05a64000125c90c,611e07ecdcc96256ae8d5b80,611e720c340818526b186c46,
,,,,space,0.6146,,0,234,234,203,1,X, , , , ,,2500,2.5,5c1bd15ba05a64000125c90c,001,2021-08-19_16h00.48.751,natb3,2021.2.3,Win32,21.33333333,5c1bd15ba05a64000125c90c,611e07ecdcc96256ae8d5b80,611e720c340818526b186c46,
,,,,space,0.4782,,0,235,235,301,1,P, , , , ,space,1500,1.5,5c1bd15ba05a64000125c90c,001,2021-08-19_16h00.48.751,natb3,2021.2.3,Win32,21.33333333,5c1bd15ba05a64000125c90c,611e07ecdcc96256ae8d5b80,611e720c340818526b186c46,
,,,,space,0.394900001,,0,236,236,149,1,R, , , , ,space,2000,2,5c1bd15ba05a64000125c90c,001,2021-08-19_16h00.48.751,natb3,2021.2.3,Win32,21.33333333,5c1bd15ba05a64000125c90c,611e07ecdcc96256ae8d5b80,611e720c340818526b186c46,
,,,,space,0.5293,,0,237,237,17,1,F, , , , ,space,2500,2.5,5c1bd15ba05a64000125c90c,001,2021-08-19_16h00.48.751,natb3,2021.2.3,Win32,21.33333333,5c1bd15ba05a64000125c90c,611e07ecdcc96256ae8d5b80,611e720c340818526b186c46,
,,,,space,0.5709,,0,238,238,303,1,A, , , , ,space,2000,2,5c1bd15ba05a64000125c90c,001,2021-08-19_16h00.48.751,natb3,2021.2.3,Win32,21.33333333,5c1bd15ba05a64000125c90c,611e07ecdcc96256ae8d5b80,611e720c340818526b186c46,
,,,,space,0.4829,,0,239,239,157,1,A, , , , ,space,2500,2.5,5c1bd15ba05a64000125c90c,001,2021-08-19_16h00.48.751,natb3,2021.2.3,Win32,21.33333333,5c1bd15ba05a64000125c90c,611e07ecdcc96256ae8d5b80,611e720c340818526b186c46,
,,,,space,0.5209,,0,240,240,52,1,F, , , , ,space,1500,1.5,5c1bd15ba05a64000125c90c,001,2021-08-19_16h00.48.751,natb3,2021.2.3,Win32,21.33333333,5c1bd15ba05a64000125c90c,611e07ecdcc96256ae8d5b80,611e720c340818526b186c46,
,,,,space,0.7454,,0,241,241,156,1,P, , , , ,space,1500,1.5,5c1bd15ba05a64000125c90c,001,2021-08-19_16h00.48.751,natb3,2021.2.3,Win32,21.33333333,5c1bd15ba05a64000125c90c,611e07ecdcc96256ae8d5b80,611e720c340818526b186c46,
,,,,space,0.5264,,0,242,242,324,1,Q, , , , ,space,2000,2,5c1bd15ba05a64000125c90c,001,2021-08-19_16h00.48.751,natb3,2021.2.3,Win32,21.33333333,5c1bd15ba05a64000125c90c,611e07ecdcc96256ae8d5b80,611e720c340818526b186c46,
,,,,,,,0,243,243,12,1,X, , , , ,,1500,1.5,5c1bd15ba05a64000125c90c,001,2021-08-19_16h00.48.751,natb3,2021.2.3,Win32,21.33333333,5c1bd15ba05a64000125c90c,611e07ecdcc96256ae8d5b80,611e720c340818526b186c46,
,,,,space,0.5679,,0,244,244,330,1,T, , , , ,space,2500,2.5,5c1bd15ba05a64000125c90c,001,2021-08-19_16h00.48.751,natb3,2021.2.3,Win32,21.33333333,5c1bd15ba05a64000125c90c,611e07ecdcc96256ae8d5b80,611e720c340818526b186c46,
,,,,space,0.5691,,0,245,245,19,1,G, , , , ,space,1500,1.5,5c1bd15ba05a64000125c90c,001,2021-08-19_16h00.48.751,natb3,2021.2.3,Win32,21.33333333,5c1bd15ba05a64000125c90c,611e07ecdcc96256ae8d5b80,611e720c340818526b186c46,
,,,,space,0.4955,,0,246,246,146,1,W, , , , ,space,1500,1.5,5c1bd15ba05a64000125c90c,001,2021-08-19_16h00.48.751,natb3,2021.2.3,Win32,21.33333333,5c1bd15ba05a64000125c90c,611e07ecdcc96256ae8d5b80,611e720c340818526b186c46,
,,,,space,0.9719,,0,247,247,204,1,Z, , , , ,space,2000,2,5c1bd15ba05a64000125c90c,001,2021-08-19_16h00.48.751,natb3,2021.2.3,Win32,21.33333333,5c1bd15ba05a64000125c90c,611e07ecdcc96256ae8d5b80,611e720c340818526b186c46,
,,,,space,0.4805,,0,248,248,67,1,Q, , , , ,space,2000,2,5c1bd15ba05a64000125c90c,001,2021-08-19_16h00.48.751,natb3,2021.2.3,Win32,21.33333333,5c1bd15ba05a64000125c90c,611e07ecdcc96256ae8d5b80,611e720c340818526b186c46,
,,,,,,,0,249,249,229,1,X,8, ,2,6,,2500,2.5,5c1bd15ba05a64000125c90c,001,2021-08-19_16h00.48.751,natb3,2021.2.3,Win32,21.33333333,5c1bd15ba05a64000125c90c,611e07ecdcc96256ae8d5b80,611e720c340818526b186c46,
,,,,space,0.433200001,,0,250,250,6,1,Y, , , , ,space,2500,2.5,5c1bd15ba05a64000125c90c,001,2021-08-19_16h00.48.751,natb3,2021.2.3,Win32,21.33333333,5c1bd15ba05a64000125c90c,611e07ecdcc96256ae8d5b80,611e720c340818526b186c46,
,,,,space,0.703,,0,251,251,65,1,M, , , , ,space,1500,1.5,5c1bd15ba05a64000125c90c,001,2021-08-19_16h00.48.751,natb3,2021.2.3,Win32,21.33333333,5c1bd15ba05a64000125c90c,611e07ecdcc96256ae8d5b80,611e720c340818526b186c46,
,,,,space,0.3918,,0,252,252,220,1,U, , , , ,space,2500,2.5,5c1bd15ba05a64000125c90c,001,2021-08-19_16h00.48.751,natb3,2021.2.3,Win32,21.33333333,5c1bd15ba05a64000125c90c,611e07ecdcc96256ae8d5b80,611e720c340818526b186c46,
,,,,,,,0,253,253,255,1,X, , , , ,,1500,1.5,5c1bd15ba05a64000125c90c,001,2021-08-19_16h00.48.751,natb3,2021.2.3,Win32,21.33333333,5c1bd15ba05a64000125c90c,611e07ecdcc96256ae8d5b80,611e720c340818526b186c46,
,,,,space,0.483599999,,0,254,254,183,1,R, , , , ,space,1500,1.5,5c1bd15ba05a64000125c90c,001,2021-08-19_16h00.48.751,natb3,2021.2.3,Win32,21.33333333,5c1bd15ba05a64000125c90c,611e07ecdcc96256ae8d5b80,611e720c340818526b186c46,
,,,,space,0.570200001,,0,255,255,238,1,D, , , , ,space,1500,1.5,5c1bd15ba05a64000125c90c,001,2021-08-19_16h00.48.751,natb3,2021.2.3,Win32,21.33333333,5c1bd15ba05a64000125c90c,611e07ecdcc96256ae8d5b80,611e720c340818526b186c46,
,,,,space,0.4005,,0,256,256,323,1,M, , , , ,space,2500,2.5,5c1bd15ba05a64000125c90c,001,2021-08-19_16h00.48.751,natb3,2021.2.3,Win32,21.33333333,5c1bd15ba05a64000125c90c,611e07ecdcc96256ae8d5b80,611e720c340818526b186c46,
,,,,space,0.516900001,,0,257,257,103,1,W, , , , ,space,2000,2,5c1bd15ba05a64000125c90c,001,2021-08-19_16h00.48.751,natb3,2021.2.3,Win32,21.33333333,5c1bd15ba05a64000125c90c,611e07ecdcc96256ae8d5b80,611e720c340818526b186c46,
,,,,space,0.4367,,0,258,258,210,1,M, , , , ,space,1500,1.5,5c1bd15ba05a64000125c90c,001,2021-08-19_16h00.48.751,natb3,2021.2.3,Win32,21.33333333,5c1bd15ba05a64000125c90c,611e07ecdcc96256ae8d5b80,611e720c340818526b186c46,
,,,,space,0.4832,,0,259,259,242,1,H, , , , ,space,2500,2.5,5c1bd15ba05a64000125c90c,001,2021-08-19_16h00.48.751,natb3,2021.2.3,Win32,21.33333333,5c1bd15ba05a64000125c90c,611e07ecdcc96256ae8d5b80,611e720c340818526b186c46,
,,,,space,0.4816,,0,260,260,124,1,P, , , , ,space,2000,2,5c1bd15ba05a64000125c90c,001,2021-08-19_16h00.48.751,natb3,2021.2.3,Win32,21.33333333,5c1bd15ba05a64000125c90c,611e07ecdcc96256ae8d5b80,611e720c340818526b186c46,
,,,,space,0.482900001,,0,261,261,49,1,S, , , , ,space,1500,1.5,5c1bd15ba05a64000125c90c,001,2021-08-19_16h00.48.751,natb3,2021.2.3,Win32,21.33333333,5c1bd15ba05a64000125c90c,611e07ecdcc96256ae8d5b80,611e720c340818526b186c46,
,,,,space,0.474700001,,0,262,262,44,1,I, , , , ,space,2500,2.5,5c1bd15ba05a64000125c90c,001,2021-08-19_16h00.48.751,natb3,2021.2.3,Win32,21.33333333,5c1bd15ba05a64000125c90c,611e07ecdcc96256ae8d5b80,611e720c340818526b186c46,
,,,,space,0.4756,,0,263,263,167,1,K, , , , ,space,1500,1.5,5c1bd15ba05a64000125c90c,001,2021-08-19_16h00.48.751,natb3,2021.2.3,Win32,21.33333333,5c1bd15ba05a64000125c90c,611e07ecdcc96256ae8d5b80,611e720c340818526b186c46,
,,,,,,,0,264,264,322,1,X, , ,1,6,,2000,2,5c1bd15ba05a64000125c90c,001,2021-08-19_16h00.48.751,natb3,2021.2.3,Win32,21.33333333,5c1bd15ba05a64000125c90c,611e07ecdcc96256ae8d5b80,611e720c340818526b186c46,
,,,,space,0.6252,,0,265,265,250,1,V, , , , ,space,2000,2,5c1bd15ba05a64000125c90c,001,2021-08-19_16h00.48.751,natb3,2021.2.3,Win32,21.33333333,5c1bd15ba05a64000125c90c,611e07ecdcc96256ae8d5b80,611e720c340818526b186c46,
,,,,,,,0,266,266,148,1,X, , , , ,,2000,2,5c1bd15ba05a64000125c90c,001,2021-08-19_16h00.48.751,natb3,2021.2.3,Win32,21.33333333,5c1bd15ba05a64000125c90c,611e07ecdcc96256ae8d5b80,611e720c340818526b186c46,
,,,,,,,0,267,267,54,1,X, , , , ,,2000,2,5c1bd15ba05a64000125c90c,001,2021-08-19_16h00.48.751,natb3,2021.2.3,Win32,21.33333333,5c1bd15ba05a64000125c90c,611e07ecdcc96256ae8d5b80,611e720c340818526b186c46,
,,,,,,,0,268,268,313,1,X, , , , ,,2500,2.5,5c1bd15ba05a64000125c90c,001,2021-08-19_16h00.48.751,natb3,2021.2.3,Win32,21.33333333,5c1bd15ba05a64000125c90c,611e07ecdcc96256ae8d5b80,611e720c340818526b186c46,
,,,,space,0.5683,,0,269,269,137,1,C, , , , ,space,2500,2.5,5c1bd15ba05a64000125c90c,001,2021-08-19_16h00.48.751,natb3,2021.2.3,Win32,21.33333333,5c1bd15ba05a64000125c90c,611e07ecdcc96256ae8d5b80,611e720c340818526b186c46,
,,,,,,,0,270,270,46,1,X, , , , ,,2000,2,5c1bd15ba05a64000125c90c,001,2021-08-19_16h00.48.751,natb3,2021.2.3,Win32,21.33333333,5c1bd15ba05a64000125c90c,611e07ecdcc96256ae8d5b80,611e720c340818526b186c46,
,,,,,,,0,271,271,329,1,X,3,4, ,2,,2500,2.5,5c1bd15ba05a64000125c90c,001,2021-08-19_16h00.48.751,natb3,2021.2.3,Win32,21.33333333,5c1bd15ba05a64000125c90c,611e07ecdcc96256ae8d5b80,611e720c340818526b186c46,
,,,,space,0.572400001,,0,272,272,20,1,H, , , , ,space,1500,1.5,5c1bd15ba05a64000125c90c,001,2021-08-19_16h00.48.751,natb3,2021.2.3,Win32,21.33333333,5c1bd15ba05a64000125c90c,611e07ecdcc96256ae8d5b80,611e720c340818526b186c46,
,,,,,,,0,273,273,195,1,X, , , , ,,1500,1.5,5c1bd15ba05a64000125c90c,001,2021-08-19_16h00.48.751,natb3,2021.2.3,Win32,21.33333333,5c1bd15ba05a64000125c90c,611e07ecdcc96256ae8d5b80,611e720c340818526b186c46,
,,,,space,0.4606,,0,274,274,280,1,L, , , , ,space,1500,1.5,5c1bd15ba05a64000125c90c,001,2021-08-19_16h00.48.751,natb3,2021.2.3,Win32,21.33333333,5c1bd15ba05a64000125c90c,611e07ecdcc96256ae8d5b80,611e720c340818526b186c46,
,,,,space,0.6168,,0,275,275,68,1,W, , , , ,space,2500,2.5,5c1bd15ba05a64000125c90c,001,2021-08-19_16h00.48.751,natb3,2021.2.3,Win32,21.33333333,5c1bd15ba05a64000125c90c,611e07ecdcc96256ae8d5b80,611e720c340818526b186c46,
,,,,space,0.7022,,0,276,276,144,1,Q, , , , ,space,2500,2.5,5c1bd15ba05a64000125c90c,001,2021-08-19_16h00.48.751,natb3,2021.2.3,Win32,21.33333333,5c1bd15ba05a64000125c90c,611e07ecdcc96256ae8d5b80,611e720c340818526b186c46,
,,,,space,0.4387,,0,277,277,174,1,B, , , , ,space,2500,2.5,5c1bd15ba05a64000125c90c,001,2021-08-19_16h00.48.751,natb3,2021.2.3,Win32,21.33333333,5c1bd15ba05a64000125c90c,611e07ecdcc96256ae8d5b80,611e720c340818526b186c46,
,,,,space,0.4887,,0,278,278,257,1,W, , , , ,space,2000,2,5c1bd15ba05a64000125c90c,001,2021-08-19_16h00.48.751,natb3,2021.2.3,Win32,21.33333333,5c1bd15ba05a64000125c90c,611e07ecdcc96256ae8d5b80,611e720c340818526b186c46,
,,,,,,,0,279,279,166,1,X, , , , ,,2000,2,5c1bd15ba05a64000125c90c,001,2021-08-19_16h00.48.751,natb3,2021.2.3,Win32,21.33333333,5c1bd15ba05a64000125c90c,611e07ecdcc96256ae8d5b80,611e720c340818526b186c46,
,,,,space,0.5175,,0,280,280,0,1,Q, , , , ,space,1500,1.5,5c1bd15ba05a64000125c90c,001,2021-08-19_16h00.48.751,natb3,2021.2.3,Win32,21.33333333,5c1bd15ba05a64000125c90c,611e07ecdcc96256ae8d5b80,611e720c340818526b186c46,
,,,,,,,0,281,281,110,1,I, , , , ,space,1500,1.5,5c1bd15ba05a64000125c90c,001,2021-08-19_16h00.48.751,natb3,2021.2.3,Win32,21.33333333,5c1bd15ba05a64000125c90c,611e07ecdcc96256ae8d5b80,611e720c340818526b186c46,
,,,,,,,0,282,282,295,1,X,8,7,5, ,,2500,2.5,5c1bd15ba05a64000125c90c,001,2021-08-19_16h00.48.751,natb3,2021.2.3,Win32,21.33333333,5c1bd15ba05a64000125c90c,611e07ecdcc96256ae8d5b80,611e720c340818526b186c46,
,,,,space,0.5266,,0,283,283,14,1,S, , , , ,space,2500,2.5,5c1bd15ba05a64000125c90c,001,2021-08-19_16h00.48.751,natb3,2021.2.3,Win32,21.33333333,5c1bd15ba05a64000125c90c,611e07ecdcc96256ae8d5b80,611e720c340818526b186c46,
,,,,space,0.521400001,,0,284,284,315,1,X, , , , ,,2500,2.5,5c1bd15ba05a64000125c90c,001,2021-08-19_16h00.48.751,natb3,2021.2.3,Win32,21.33333333,5c1bd15ba05a64000125c90c,611e07ecdcc96256ae8d5b80,611e720c340818526b186c46,
,,,,space,0.5263,,0,285,285,254,1,M, , , , ,space,1500,1.5,5c1bd15ba05a64000125c90c,001,2021-08-19_16h00.48.751,natb3,2021.2.3,Win32,21.33333333,5c1bd15ba05a64000125c90c,611e07ecdcc96256ae8d5b80,611e720c340818526b186c46,
,,,,,,,0,286,286,23,1,X,1, ,5, ,,2000,2,5c1bd15ba05a64000125c90c,001,2021-08-19_16h00.48.751,natb3,2021.2.3,Win32,21.33333333,5c1bd15ba05a64000125c90c,611e07ecdcc96256ae8d5b80,611e720c340818526b186c46,
,,,,,,,0,287,287,287,1,X, ,2, ,9,,2000,2,5c1bd15ba05a64000125c90c,001,2021-08-19_16h00.48.751,natb3,2021.2.3,Win32,21.33333333,5c1bd15ba05a64000125c90c,611e07ecdcc96256ae8d5b80,611e720c340818526b186c46,
,,,,,,,0,288,288,141,1,X,1, ,4,6,,1500,1.5,5c1bd15ba05a64000125c90c,001,2021-08-19_16h00.48.751,natb3,2021.2.3,Win32,21.33333333,5c1bd15ba05a64000125c90c,611e07ecdcc96256ae8d5b80,611e720c340818526b186c46,
,,,,space,0.567400001,,0,289,289,34,1,Q, , , , ,space,2500,2.5,5c1bd15ba05a64000125c90c,001,2021-08-19_16h00.48.751,natb3,2021.2.3,Win32,21.33333333,5c1bd15ba05a64000125c90c,611e07ecdcc96256ae8d5b80,611e720c340818526b186c46,
,,,,space,0.7008,,0,290,290,286,1,N, , , , ,space,1500,1.5,5c1bd15ba05a64000125c90c,001,2021-08-19_16h00.48.751,natb3,2021.2.3,Win32,21.33333333,5c1bd15ba05a64000125c90c,611e07ecdcc96256ae8d5b80,611e720c340818526b186c46,
,,,,,,,0,291,291,271,1,X, , , , ,,2500,2.5,5c1bd15ba05a64000125c90c,001,2021-08-19_16h00.48.751,natb3,2021.2.3,Win32,21.33333333,5c1bd15ba05a64000125c90c,611e07ecdcc96256ae8d5b80,611e720c340818526b186c46,
,,,,space,0.5223,,0,292,292,328,1,R, , , , ,space,1500,1.5,5c1bd15ba05a64000125c90c,001,2021-08-19_16h00.48.751,natb3,2021.2.3,Win32,21.33333333,5c1bd15ba05a64000125c90c,611e07ecdcc96256ae8d5b80,611e720c340818526b186c46,
,,,,space,0.6537,,0,293,293,201,1,K, , , , ,space,1500,1.5,5c1bd15ba05a64000125c90c,001,2021-08-19_16h00.48.751,natb3,2021.2.3,Win32,21.33333333,5c1bd15ba05a64000125c90c,611e07ecdcc96256ae8d5b80,611e720c340818526b186c46,
,,,,space,0.522200001,,0,294,294,237,1,S, , , , ,space,1500,1.5,5c1bd15ba05a64000125c90c,001,2021-08-19_16h00.48.751,natb3,2021.2.3,Win32,21.33333333,5c1bd15ba05a64000125c90c,611e07ecdcc96256ae8d5b80,611e720c340818526b186c46,
,,,,space,0.567700001,,0,295,295,61,1,C, , , , ,space,2000,2,5c1bd15ba05a64000125c90c,001,2021-08-19_16h00.48.751,natb3,2021.2.3,Win32,21.33333333,5c1bd15ba05a64000125c90c,611e07ecdcc96256ae8d5b80,611e720c340818526b186c46,
,,,,space,0.6512,,0,296,296,45,1,O, , , , ,space,2000,2,5c1bd15ba05a64000125c90c,001,2021-08-19_16h00.48.751,natb3,2021.2.3,Win32,21.33333333,5c1bd15ba05a64000125c90c,611e07ecdcc96256ae8d5b80,611e720c340818526b186c46,
,,,,space,0.5272,,0,297,297,164,1,H, , , , ,space,2500,2.5,5c1bd15ba05a64000125c90c,001,2021-08-19_16h00.48.751,natb3,2021.2.3,Win32,21.33333333,5c1bd15ba05a64000125c90c,611e07ecdcc96256ae8d5b80,611e720c340818526b186c46,
,,,,space,0.442,,0,298,298,240,1,F, , , , ,space,2500,2.5,5c1bd15ba05a64000125c90c,001,2021-08-19_16h00.48.751,natb3,2021.2.3,Win32,21.33333333,5c1bd15ba05a64000125c90c,611e07ecdcc96256ae8d5b80,611e720c340818526b186c46,
,,,,,,,0,299,299,171,1,X, , , , ,,1500,1.5,5c1bd15ba05a64000125c90c,001,2021-08-19_16h00.48.751,natb3,2021.2.3,Win32,21.33333333,5c1bd15ba05a64000125c90c,611e07ecdcc96256ae8d5b80,611e720c340818526b186c46,
,,,,space,0.5265,,0,300,300,212,1,Q, , , , ,space,2500,2.5,5c1bd15ba05a64000125c90c,001,2021-08-19_16h00.48.751,natb3,2021.2.3,Win32,21.33333333,5c1bd15ba05a64000125c90c,611e07ecdcc96256ae8d5b80,611e720c340818526b186c46,
,,,,space,0.5287,,0,301,301,123,1,O, , , , ,space,1500,1.5,5c1bd15ba05a64000125c90c,001,2021-08-19_16h00.48.751,natb3,2021.2.3,Win32,21.33333333,5c1bd15ba05a64000125c90c,611e07ecdcc96256ae8d5b80,611e720c340818526b186c46,
,,,,space,0.444599999,,0,302,302,15,1,X, , , , ,,1500,1.5,5c1bd15ba05a64000125c90c,001,2021-08-19_16h00.48.751,natb3,2021.2.3,Win32,21.33333333,5c1bd15ba05a64000125c90c,611e07ecdcc96256ae8d5b80,611e720c340818526b186c46,
,,,,space,0.5223,,0,303,303,28,1,V, , , , ,space,1500,1.5,5c1bd15ba05a64000125c90c,001,2021-08-19_16h00.48.751,natb3,2021.2.3,Win32,21.33333333,5c1bd15ba05a64000125c90c,611e07ecdcc96256ae8d5b80,611e720c340818526b186c46,
,,,,space,0.6525,,0,304,304,90,1,K, , , , ,space,2000,2,5c1bd15ba05a64000125c90c,001,2021-08-19_16h00.48.751,natb3,2021.2.3,Win32,21.33333333,5c1bd15ba05a64000125c90c,611e07ecdcc96256ae8d5b80,611e720c340818526b186c46,
,,,,space,0.5647,,0,305,305,232,1,O, , , , ,space,2500,2.5,5c1bd15ba05a64000125c90c,001,2021-08-19_16h00.48.751,natb3,2021.2.3,Win32,21.33333333,5c1bd15ba05a64000125c90c,611e07ecdcc96256ae8d5b80,611e720c340818526b186c46,
,,,,space,0.431,,0,306,306,244,1,J, , , , ,space,1500,1.5,5c1bd15ba05a64000125c90c,001,2021-08-19_16h00.48.751,natb3,2021.2.3,Win32,21.33333333,5c1bd15ba05a64000125c90c,611e07ecdcc96256ae8d5b80,611e720c340818526b186c46,
,,,,space,0.693400001,,0,307,307,272,1,D, , , , ,space,2000,2,5c1bd15ba05a64000125c90c,001,2021-08-19_16h00.48.751,natb3,2021.2.3,Win32,21.33333333,5c1bd15ba05a64000125c90c,611e07ecdcc96256ae8d5b80,611e720c340818526b186c46,
,,,,space,0.4767,,0,308,308,213,1,X, , , , ,,2500,2.5,5c1bd15ba05a64000125c90c,001,2021-08-19_16h00.48.751,natb3,2021.2.3,Win32,21.33333333,5c1bd15ba05a64000125c90c,611e07ecdcc96256ae8d5b80,611e720c340818526b186c46,
,,,,space,0.4788,,0,309,309,1,1,W, , , , ,space,2000,2,5c1bd15ba05a64000125c90c,001,2021-08-19_16h00.48.751,natb3,2021.2.3,Win32,21.33333333,5c1bd15ba05a64000125c90c,611e07ecdcc96256ae8d5b80,611e720c340818526b186c46,
,,,,space,0.6047,,0,310,310,111,1,O, , , , ,space,2000,2,5c1bd15ba05a64000125c90c,001,2021-08-19_16h00.48.751,natb3,2021.2.3,Win32,21.33333333,5c1bd15ba05a64000125c90c,611e07ecdcc96256ae8d5b80,611e720c340818526b186c46,
,,,,space,0.6994,,0,311,311,224,1,W, , , , ,space,1500,1.5,5c1bd15ba05a64000125c90c,001,2021-08-19_16h00.48.751,natb3,2021.2.3,Win32,21.33333333,5c1bd15ba05a64000125c90c,611e07ecdcc96256ae8d5b80,611e720c340818526b186c46,
,,,,,,,0,312,312,18,1,X, ,2,5,8,,2500,2.5,5c1bd15ba05a64000125c90c,001,2021-08-19_16h00.48.751,natb3,2021.2.3,Win32,21.33333333,5c1bd15ba05a64000125c90c,611e07ecdcc96256ae8d5b80,611e720c340818526b186c46,
,,,,space,0.74,,0,313,313,25,1,Z, , , , ,space,2500,2.5,5c1bd15ba05a64000125c90c,001,2021-08-19_16h00.48.751,natb3,2021.2.3,Win32,21.33333333,5c1bd15ba05a64000125c90c,611e07ecdcc96256ae8d5b80,611e720c340818526b186c46,
,,,,space,0.5324,,0,314,314,88,1,J, , , , ,space,2500,2.5,5c1bd15ba05a64000125c90c,001,2021-08-19_16h00.48.751,natb3,2021.2.3,Win32,21.33333333,5c1bd15ba05a64000125c90c,611e07ecdcc96256ae8d5b80,611e720c340818526b186c46,
,,,,space,0.6551,,0,315,315,225,1,E, , , , ,space,2000,2,5c1bd15ba05a64000125c90c,001,2021-08-19_16h00.48.751,natb3,2021.2.3,Win32,21.33333333,5c1bd15ba05a64000125c90c,611e07ecdcc96256ae8d5b80,611e720c340818526b186c46,
,,,,space,0.740900001,,0,316,316,9,1,I, , , , ,space,1500,1.5,5c1bd15ba05a64000125c90c,001,2021-08-19_16h00.48.751,natb3,2021.2.3,Win32,21.33333333,5c1bd15ba05a64000125c90c,611e07ecdcc96256ae8d5b80,611e720c340818526b186c46,
,,,,space,0.8422,,0,317,317,127,1,S, , , , ,space,2500,2.5,5c1bd15ba05a64000125c90c,001,2021-08-19_16h00.48.751,natb3,2021.2.3,Win32,21.33333333,5c1bd15ba05a64000125c90c,611e07ecdcc96256ae8d5b80,611e720c340818526b186c46,
,,,,,,,0,318,318,102,1,X, ,6, , ,,1500,1.5,5c1bd15ba05a64000125c90c,001,2021-08-19_16h00.48.751,natb3,2021.2.3,Win32,21.33333333,5c1bd15ba05a64000125c90c,611e07ecdcc96256ae8d5b80,611e720c340818526b186c46,
,,,,,,,0,319,319,211,1,X, , , , ,,2500,2.5,5c1bd15ba05a64000125c90c,001,2021-08-19_16h00.48.751,natb3,2021.2.3,Win32,21.33333333,5c1bd15ba05a64000125c90c,611e07ecdcc96256ae8d5b80,611e720c340818526b186c46,
,,,,space,0.7483,,0,320,320,176,1,N, , , , ,space,1500,1.5,5c1bd15ba05a64000125c90c,001,2021-08-19_16h00.48.751,natb3,2021.2.3,Win32,21.33333333,5c1bd15ba05a64000125c90c,611e07ecdcc96256ae8d5b80,611e720c340818526b186c46,
,,,,,,,0,321,321,93,1,X,5, ,7, ,,2500,2.5,5c1bd15ba05a64000125c90c,001,2021-08-19_16h00.48.751,natb3,2021.2.3,Win32,21.33333333,5c1bd15ba05a64000125c90c,611e07ecdcc96256ae8d5b80,611e720c340818526b186c46,
,,,,space,0.482,,0,322,322,320,1,B, , , , ,space,1500,1.5,5c1bd15ba05a64000125c90c,001,2021-08-19_16h00.48.751,natb3,2021.2.3,Win32,21.33333333,5c1bd15ba05a64000125c90c,611e07ecdcc96256ae8d5b80,611e720c340818526b186c46,
,,,,space,0.54,,0,323,323,47,1,P, , , , ,space,2000,2,5c1bd15ba05a64000125c90c,001,2021-08-19_16h00.48.751,natb3,2021.2.3,Win32,21.33333333,5c1bd15ba05a64000125c90c,611e07ecdcc96256ae8d5b80,611e720c340818526b186c46,
,,,,,,,0,324,324,252,1,X,3, ,6,9,,2000,2,5c1bd15ba05a64000125c90c,001,2021-08-19_16h00.48.751,natb3,2021.2.3,Win32,21.33333333,5c1bd15ba05a64000125c90c,611e07ecdcc96256ae8d5b80,611e720c340818526b186c46,
,,,,space,0.524799999,,0,325,325,267,1,P, , , , ,space,2000,2,5c1bd15ba05a64000125c90c,001,2021-08-19_16h00.48.751,natb3,2021.2.3,Win32,21.33333333,5c1bd15ba05a64000125c90c,611e07ecdcc96256ae8d5b80,611e720c340818526b186c46,
,,,,space,0.870200001,,0,326,326,56,1,J, , , , ,space,1500,1.5,5c1bd15ba05a64000125c90c,001,2021-08-19_16h00.48.751,natb3,2021.2.3,Win32,21.33333333,5c1bd15ba05a64000125c90c,611e07ecdcc96256ae8d5b80,611e720c340818526b186c46,
,,,,space,0.7865,,0,327,327,310,1,J, , , , ,space,2500,2.5,5c1bd15ba05a64000125c90c,001,2021-08-19_16h00.48.751,natb3,2021.2.3,Win32,21.33333333,5c1bd15ba05a64000125c90c,611e07ecdcc96256ae8d5b80,611e720c340818526b186c46,
,,,,space,0.8411,,0,328,328,136,1,Z, , , , ,space,2500,2.5,5c1bd15ba05a64000125c90c,001,2021-08-19_16h00.48.751,natb3,2021.2.3,Win32,21.33333333,5c1bd15ba05a64000125c90c,611e07ecdcc96256ae8d5b80,611e720c340818526b186c46,
,,,,,,,0,329,329,243,1,X, , , , ,,2500,2.5,5c1bd15ba05a64000125c90c,001,2021-08-19_16h00.48.751,natb3,2021.2.3,Win32,21.33333333,5c1bd15ba05a64000125c90c,611e07ecdcc96256ae8d5b80,611e720c340818526b186c46,
,,,,,,,0,330,330,33,1,X, , , , ,,1500,1.5,5c1bd15ba05a64000125c90c,001,2021-08-19_16h00.48.751,natb3,2021.2.3,Win32,21.33333333,5c1bd15ba05a64000125c90c,611e07ecdcc96256ae8d5b80,611e720c340818526b186c46,
,,,,space,0.8384,,0,331,331,29,1,B, , , , ,space,1500,1.5,5c1bd15ba05a64000125c90c,001,2021-08-19_16h00.48.751,natb3,2021.2.3,Win32,21.33333333,5c1bd15ba05a64000125c90c,611e07ecdcc96256ae8d5b80,611e720c340818526b186c46,
,,,,space,0.6575,,0,332,332,5,1,T, , , , ,space,2000,2,5c1bd15ba05a64000125c90c,001,2021-08-19_16h00.48.751,natb3,2021.2.3,Win32,21.33333333,5c1bd15ba05a64000125c90c,611e07ecdcc96256ae8d5b80,611e720c340818526b186c46,
,,,,space,0.6509,,0,333,333,169,1,L, , , , ,space,2500,2.5,5c1bd15ba05a64000125c90c,001,2021-08-19_16h00.48.751,natb3,2021.2.3,Win32,21.33333333,5c1bd15ba05a64000125c90c,611e07ecdcc96256ae8d5b80,611e720c340818526b186c46,
,,,,,,,0,334,334,335,1,P,,,,,space,1500,1.5,5c1bd15ba05a64000125c90c,001,2021-08-19_16h00.48.751,natb3,2021.2.3,Win32,21.33333333,5c1bd15ba05a64000125c90c,611e07ecdcc96256ae8d5b80,611e720c340818526b186c46,
,,,,space,0.6555,,0,335,335,192,1,A, , , , ,space,2000,2,5c1bd15ba05a64000125c90c,001,2021-08-19_16h00.48.751,natb3,2021.2.3,Win32,21.33333333,5c1bd15ba05a64000125c90c,611e07ecdcc96256ae8d5b80,611e720c340818526b186c46,
