key_resp_2.keys,key_resp_2.rt,key_resp_3.keys,key_resp_3.rt,key_resp.keys,key_resp_4.keys,trials.thisRepN,trials.thisTrialN,trials.thisN,trials.thisIndex,trials.ran,stimulus,distractor1,distractor2,distractor3,distractor4,CorrAns,isi_duration,isi_dur_in_seconds,participant,session,date,expName,psychopyVersion,OS,frameRate,PROLIFIC_PID,STUDY_ID,SESSION_ID,key_resp.rt,key_resp_4.rt
return,26.0337,space,19.9136,,,0,0,0,23,1,X,1, ,5, ,,2000,2,5d4b05fd2a4a2f001a4e2510,001,2021-08-19_16h46.33.474,natb3,2021.2.3,Win32,68.76160352,5d4b05fd2a4a2f001a4e2510,611e07ecdcc96256ae8d5b80,611e7c99fbe9366de21c0371,,
,,,,space,,0,1,1,65,1,M, , , , ,space,1500,1.5,5d4b05fd2a4a2f001a4e2510,001,2021-08-19_16h46.33.474,natb3,2021.2.3,Win32,68.76160352,5d4b05fd2a4a2f001a4e2510,611e07ecdcc96256ae8d5b80,611e7c99fbe9366de21c0371,0.5311,
,,,,space,,0,2,2,44,1,I, , , , ,space,2500,2.5,5d4b05fd2a4a2f001a4e2510,001,2021-08-19_16h46.33.474,natb3,2021.2.3,Win32,68.76160352,5d4b05fd2a4a2f001a4e2510,611e07ecdcc96256ae8d5b80,611e7c99fbe9366de21c0371,0.5545,
,,,,space,,0,3,3,136,1,Z, , , , ,space,2500,2.5,5d4b05fd2a4a2f001a4e2510,001,2021-08-19_16h46.33.474,natb3,2021.2.3,Win32,68.76160352,5d4b05fd2a4a2f001a4e2510,611e07ecdcc96256ae8d5b80,611e7c99fbe9366de21c0371,0.5233,
,,,,space,,0,4,4,301,1,P, , , , ,space,1500,1.5,5d4b05fd2a4a2f001a4e2510,001,2021-08-19_16h46.33.474,natb3,2021.2.3,Win32,68.76160352,5d4b05fd2a4a2f001a4e2510,611e07ecdcc96256ae8d5b80,611e7c99fbe9366de21c0371,0.3866,
,,,,space,,0,5,5,69,1,X, , , , ,,1500,1.5,5d4b05fd2a4a2f001a4e2510,001,2021-08-19_16h46.33.474,natb3,2021.2.3,Win32,68.76160352,5d4b05fd2a4a2f001a4e2510,611e07ecdcc96256ae8d5b80,611e7c99fbe9366de21c0371,0.2717,
,,,,space,,0,6,6,114,1,E, , , , ,space,2000,2,5d4b05fd2a4a2f001a4e2510,001,2021-08-19_16h46.33.474,natb3,2021.2.3,Win32,68.76160352,5d4b05fd2a4a2f001a4e2510,611e07ecdcc96256ae8d5b80,611e7c99fbe9366de21c0371,0.3022,
,,,,space,,0,7,7,76,1,I, , , , ,space,2000,2,5d4b05fd2a4a2f001a4e2510,001,2021-08-19_16h46.33.474,natb3,2021.2.3,Win32,68.76160352,5d4b05fd2a4a2f001a4e2510,611e07ecdcc96256ae8d5b80,611e7c99fbe9366de21c0371,0.3703,
,,,,space,,0,8,8,155,1,O, , , , ,space,1500,1.5,5d4b05fd2a4a2f001a4e2510,001,2021-08-19_16h46.33.474,natb3,2021.2.3,Win32,68.76160352,5d4b05fd2a4a2f001a4e2510,611e07ecdcc96256ae8d5b80,611e7c99fbe9366de21c0371,0.3366,
,,,,space,,0,9,9,57,1,K, , , , ,space,2500,2.5,5d4b05fd2a4a2f001a4e2510,001,2021-08-19_16h46.33.474,natb3,2021.2.3,Win32,68.76160352,5d4b05fd2a4a2f001a4e2510,611e07ecdcc96256ae8d5b80,611e7c99fbe9366de21c0371,0.3034,
,,,,space,,0,10,10,47,1,P, , , , ,space,2000,2,5d4b05fd2a4a2f001a4e2510,001,2021-08-19_16h46.33.474,natb3,2021.2.3,Win32,68.76160352,5d4b05fd2a4a2f001a4e2510,611e07ecdcc96256ae8d5b80,611e7c99fbe9366de21c0371,0.3205,
,,,,space,,0,11,11,300,1,O, , , , ,space,2500,2.5,5d4b05fd2a4a2f001a4e2510,001,2021-08-19_16h46.33.474,natb3,2021.2.3,Win32,68.76160352,5d4b05fd2a4a2f001a4e2510,611e07ecdcc96256ae8d5b80,611e7c99fbe9366de21c0371,0.3202,
,,,,space,,0,12,12,164,1,H, , , , ,space,2500,2.5,5d4b05fd2a4a2f001a4e2510,001,2021-08-19_16h46.33.474,natb3,2021.2.3,Win32,68.76160352,5d4b05fd2a4a2f001a4e2510,611e07ecdcc96256ae8d5b80,611e7c99fbe9366de21c0371,0.3048,
,,,,space,,0,13,13,116,1,X, , , , ,,2000,2,5d4b05fd2a4a2f001a4e2510,001,2021-08-19_16h46.33.474,natb3,2021.2.3,Win32,68.76160352,5d4b05fd2a4a2f001a4e2510,611e07ecdcc96256ae8d5b80,611e7c99fbe9366de21c0371,0.3348,
,,,,space,,0,14,14,91,1,L, , , , ,space,2000,2,5d4b05fd2a4a2f001a4e2510,001,2021-08-19_16h46.33.474,natb3,2021.2.3,Win32,68.76160352,5d4b05fd2a4a2f001a4e2510,611e07ecdcc96256ae8d5b80,611e7c99fbe9366de21c0371,0.4342,
,,,,space,,0,15,15,192,1,A, , , , ,space,2000,2,5d4b05fd2a4a2f001a4e2510,001,2021-08-19_16h46.33.474,natb3,2021.2.3,Win32,68.76160352,5d4b05fd2a4a2f001a4e2510,611e07ecdcc96256ae8d5b80,611e7c99fbe9366de21c0371,0.3339,
,,,,space,,0,16,16,272,1,D, , , , ,space,2000,2,5d4b05fd2a4a2f001a4e2510,001,2021-08-19_16h46.33.474,natb3,2021.2.3,Win32,68.76160352,5d4b05fd2a4a2f001a4e2510,611e07ecdcc96256ae8d5b80,611e7c99fbe9366de21c0371,0.3127,
,,,,space,,0,17,17,115,1,R, , , , ,space,1500,1.5,5d4b05fd2a4a2f001a4e2510,001,2021-08-19_16h46.33.474,natb3,2021.2.3,Win32,68.76160352,5d4b05fd2a4a2f001a4e2510,611e07ecdcc96256ae8d5b80,611e7c99fbe9366de21c0371,0.3994,
,,,,space,,0,18,18,81,1,S, , , , ,space,2000,2,5d4b05fd2a4a2f001a4e2510,001,2021-08-19_16h46.33.474,natb3,2021.2.3,Win32,68.76160352,5d4b05fd2a4a2f001a4e2510,611e07ecdcc96256ae8d5b80,611e7c99fbe9366de21c0371,0.3342,
,,,,space,,0,19,19,321,1,N, , , , ,space,2000,2,5d4b05fd2a4a2f001a4e2510,001,2021-08-19_16h46.33.474,natb3,2021.2.3,Win32,68.76160352,5d4b05fd2a4a2f001a4e2510,611e07ecdcc96256ae8d5b80,611e7c99fbe9366de21c0371,0.4482,
,,,,,,0,20,20,78,1,X, , , , ,,2000,2,5d4b05fd2a4a2f001a4e2510,001,2021-08-19_16h46.33.474,natb3,2021.2.3,Win32,68.76160352,5d4b05fd2a4a2f001a4e2510,611e07ecdcc96256ae8d5b80,611e7c99fbe9366de21c0371,,
,,,,space,,0,21,21,36,1,W, , , , ,space,2000,2,5d4b05fd2a4a2f001a4e2510,001,2021-08-19_16h46.33.474,natb3,2021.2.3,Win32,68.76160352,5d4b05fd2a4a2f001a4e2510,611e07ecdcc96256ae8d5b80,611e7c99fbe9366de21c0371,0.5899,
,,,,,,0,22,22,138,1,X,8,5, ,3,,2000,2,5d4b05fd2a4a2f001a4e2510,001,2021-08-19_16h46.33.474,natb3,2021.2.3,Win32,68.76160352,5d4b05fd2a4a2f001a4e2510,611e07ecdcc96256ae8d5b80,611e7c99fbe9366de21c0371,,
,,,,space,,0,23,23,19,1,G, , , , ,space,1500,1.5,5d4b05fd2a4a2f001a4e2510,001,2021-08-19_16h46.33.474,natb3,2021.2.3,Win32,68.76160352,5d4b05fd2a4a2f001a4e2510,611e07ecdcc96256ae8d5b80,611e7c99fbe9366de21c0371,0.4673,
,,,,space,,0,24,24,244,1,J, , , , ,space,1500,1.5,5d4b05fd2a4a2f001a4e2510,001,2021-08-19_16h46.33.474,natb3,2021.2.3,Win32,68.76160352,5d4b05fd2a4a2f001a4e2510,611e07ecdcc96256ae8d5b80,611e7c99fbe9366de21c0371,0.4693,
,,,,,,0,25,25,322,1,X, , ,1,6,,2000,2,5d4b05fd2a4a2f001a4e2510,001,2021-08-19_16h46.33.474,natb3,2021.2.3,Win32,68.76160352,5d4b05fd2a4a2f001a4e2510,611e07ecdcc96256ae8d5b80,611e7c99fbe9366de21c0371,,
,,,,space,,0,26,26,100,1,M, , , , ,space,2000,2,5d4b05fd2a4a2f001a4e2510,001,2021-08-19_16h46.33.474,natb3,2021.2.3,Win32,68.76160352,5d4b05fd2a4a2f001a4e2510,611e07ecdcc96256ae8d5b80,611e7c99fbe9366de21c0371,0.3209,
,,,,,,0,27,27,122,1,X,1, , ,8,,1500,1.5,5d4b05fd2a4a2f001a4e2510,001,2021-08-19_16h46.33.474,natb3,2021.2.3,Win32,68.76160352,5d4b05fd2a4a2f001a4e2510,611e07ecdcc96256ae8d5b80,611e7c99fbe9366de21c0371,,
,,,,space,,0,28,28,206,1,V, , , , ,space,2000,2,5d4b05fd2a4a2f001a4e2510,001,2021-08-19_16h46.33.474,natb3,2021.2.3,Win32,68.76160352,5d4b05fd2a4a2f001a4e2510,611e07ecdcc96256ae8d5b80,611e7c99fbe9366de21c0371,0.3277,
,,,,space,,0,29,29,61,1,C, , , , ,space,2000,2,5d4b05fd2a4a2f001a4e2510,001,2021-08-19_16h46.33.474,natb3,2021.2.3,Win32,68.76160352,5d4b05fd2a4a2f001a4e2510,611e07ecdcc96256ae8d5b80,611e7c99fbe9366de21c0371,0.3676,
,,,,space,,0,30,30,85,1,F, , , , ,space,2500,2.5,5d4b05fd2a4a2f001a4e2510,001,2021-08-19_16h46.33.474,natb3,2021.2.3,Win32,68.76160352,5d4b05fd2a4a2f001a4e2510,611e07ecdcc96256ae8d5b80,611e7c99fbe9366de21c0371,0.3664,
,,,,space,,0,31,31,41,1,Y, , , , ,space,2500,2.5,5d4b05fd2a4a2f001a4e2510,001,2021-08-19_16h46.33.474,natb3,2021.2.3,Win32,68.76160352,5d4b05fd2a4a2f001a4e2510,611e07ecdcc96256ae8d5b80,611e7c99fbe9366de21c0371,0.4034,
,,,,,,0,32,32,252,1,X,3, ,6,9,,2000,2,5d4b05fd2a4a2f001a4e2510,001,2021-08-19_16h46.33.474,natb3,2021.2.3,Win32,68.76160352,5d4b05fd2a4a2f001a4e2510,611e07ecdcc96256ae8d5b80,611e7c99fbe9366de21c0371,,
,,,,space,,0,33,33,101,1,Q, , , , ,space,2500,2.5,5d4b05fd2a4a2f001a4e2510,001,2021-08-19_16h46.33.474,natb3,2021.2.3,Win32,68.76160352,5d4b05fd2a4a2f001a4e2510,611e07ecdcc96256ae8d5b80,611e7c99fbe9366de21c0371,0.4179,
,,,,,,0,34,34,74,1,X, ,4,3,2,,1500,1.5,5d4b05fd2a4a2f001a4e2510,001,2021-08-19_16h46.33.474,natb3,2021.2.3,Win32,68.76160352,5d4b05fd2a4a2f001a4e2510,611e07ecdcc96256ae8d5b80,611e7c99fbe9366de21c0371,,
,,,,,,0,35,35,66,1,X, ,4,7, ,,2000,2,5d4b05fd2a4a2f001a4e2510,001,2021-08-19_16h46.33.474,natb3,2021.2.3,Win32,68.76160352,5d4b05fd2a4a2f001a4e2510,611e07ecdcc96256ae8d5b80,611e7c99fbe9366de21c0371,,
,,,,space,,0,36,36,334,1,O, , , , ,space,1500,1.5,5d4b05fd2a4a2f001a4e2510,001,2021-08-19_16h46.33.474,natb3,2021.2.3,Win32,68.76160352,5d4b05fd2a4a2f001a4e2510,611e07ecdcc96256ae8d5b80,611e7c99fbe9366de21c0371,0.3567,
,,,,,,0,37,37,31,1,X, , , , ,,1500,1.5,5d4b05fd2a4a2f001a4e2510,001,2021-08-19_16h46.33.474,natb3,2021.2.3,Win32,68.76160352,5d4b05fd2a4a2f001a4e2510,611e07ecdcc96256ae8d5b80,611e7c99fbe9366de21c0371,,
,,,,space,,0,38,38,181,1,E, , , , ,space,1500,1.5,5d4b05fd2a4a2f001a4e2510,001,2021-08-19_16h46.33.474,natb3,2021.2.3,Win32,68.76160352,5d4b05fd2a4a2f001a4e2510,611e07ecdcc96256ae8d5b80,611e7c99fbe9366de21c0371,0.4217,
,,,,space,,0,39,39,178,1,Q, , , , ,space,1500,1.5,5d4b05fd2a4a2f001a4e2510,001,2021-08-19_16h46.33.474,natb3,2021.2.3,Win32,68.76160352,5d4b05fd2a4a2f001a4e2510,611e07ecdcc96256ae8d5b80,611e7c99fbe9366de21c0371,0.4534,
,,,,space,,0,40,40,330,1,T, , , , ,space,2500,2.5,5d4b05fd2a4a2f001a4e2510,001,2021-08-19_16h46.33.474,natb3,2021.2.3,Win32,68.76160352,5d4b05fd2a4a2f001a4e2510,611e07ecdcc96256ae8d5b80,611e7c99fbe9366de21c0371,0.4318,
,,,,space,,0,41,41,161,1,F, , , , ,space,1500,1.5,5d4b05fd2a4a2f001a4e2510,001,2021-08-19_16h46.33.474,natb3,2021.2.3,Win32,68.76160352,5d4b05fd2a4a2f001a4e2510,611e07ecdcc96256ae8d5b80,611e7c99fbe9366de21c0371,0.3893,
,,,,space,,0,42,42,288,1,M, , , , ,space,1500,1.5,5d4b05fd2a4a2f001a4e2510,001,2021-08-19_16h46.33.474,natb3,2021.2.3,Win32,68.76160352,5d4b05fd2a4a2f001a4e2510,611e07ecdcc96256ae8d5b80,611e7c99fbe9366de21c0371,0.4089,
,,,,,,0,43,43,182,1,X, , , , ,,1500,1.5,5d4b05fd2a4a2f001a4e2510,001,2021-08-19_16h46.33.474,natb3,2021.2.3,Win32,68.76160352,5d4b05fd2a4a2f001a4e2510,611e07ecdcc96256ae8d5b80,611e7c99fbe9366de21c0371,,
,,,,space,,0,44,44,126,1,A, , , , ,space,2500,2.5,5d4b05fd2a4a2f001a4e2510,001,2021-08-19_16h46.33.474,natb3,2021.2.3,Win32,68.76160352,5d4b05fd2a4a2f001a4e2510,611e07ecdcc96256ae8d5b80,611e7c99fbe9366de21c0371,0.3007,
,,,,space,,0,45,45,227,1,T, , , , ,space,1500,1.5,5d4b05fd2a4a2f001a4e2510,001,2021-08-19_16h46.33.474,natb3,2021.2.3,Win32,68.76160352,5d4b05fd2a4a2f001a4e2510,611e07ecdcc96256ae8d5b80,611e7c99fbe9366de21c0371,0.4542,
,,,,space,,0,46,46,37,1,E, , , , ,space,2500,2.5,5d4b05fd2a4a2f001a4e2510,001,2021-08-19_16h46.33.474,natb3,2021.2.3,Win32,68.76160352,5d4b05fd2a4a2f001a4e2510,611e07ecdcc96256ae8d5b80,611e7c99fbe9366de21c0371,0.4345,
,,,,space,,0,47,47,176,1,N, , , , ,space,1500,1.5,5d4b05fd2a4a2f001a4e2510,001,2021-08-19_16h46.33.474,natb3,2021.2.3,Win32,68.76160352,5d4b05fd2a4a2f001a4e2510,611e07ecdcc96256ae8d5b80,611e7c99fbe9366de21c0371,0.4575,
,,,,space,,0,48,48,308,1,G, , , , ,space,1500,1.5,5d4b05fd2a4a2f001a4e2510,001,2021-08-19_16h46.33.474,natb3,2021.2.3,Win32,68.76160352,5d4b05fd2a4a2f001a4e2510,611e07ecdcc96256ae8d5b80,611e7c99fbe9366de21c0371,0.3937,
,,,,space,,0,49,49,209,1,N, , , , ,space,2000,2,5d4b05fd2a4a2f001a4e2510,001,2021-08-19_16h46.33.474,natb3,2021.2.3,Win32,68.76160352,5d4b05fd2a4a2f001a4e2510,611e07ecdcc96256ae8d5b80,611e7c99fbe9366de21c0371,0.3853,
,,,,space,,0,50,50,165,1,J, , , , ,space,2500,2.5,5d4b05fd2a4a2f001a4e2510,001,2021-08-19_16h46.33.474,natb3,2021.2.3,Win32,68.76160352,5d4b05fd2a4a2f001a4e2510,611e07ecdcc96256ae8d5b80,611e7c99fbe9366de21c0371,0.3875,
,,,,space,,0,51,51,205,1,C, , , , ,space,2000,2,5d4b05fd2a4a2f001a4e2510,001,2021-08-19_16h46.33.474,natb3,2021.2.3,Win32,68.76160352,5d4b05fd2a4a2f001a4e2510,611e07ecdcc96256ae8d5b80,611e7c99fbe9366de21c0371,0.3386,
,,,,,,0,52,52,12,1,X, , , , ,,1500,1.5,5d4b05fd2a4a2f001a4e2510,001,2021-08-19_16h46.33.474,natb3,2021.2.3,Win32,68.76160352,5d4b05fd2a4a2f001a4e2510,611e07ecdcc96256ae8d5b80,611e7c99fbe9366de21c0371,,
,,,,space,,0,53,53,228,1,Y, , , , ,space,2000,2,5d4b05fd2a4a2f001a4e2510,001,2021-08-19_16h46.33.474,natb3,2021.2.3,Win32,68.76160352,5d4b05fd2a4a2f001a4e2510,611e07ecdcc96256ae8d5b80,611e7c99fbe9366de21c0371,0.318,
,,,,,,0,54,54,187,1,X, ,3,7,4,,1500,1.5,5d4b05fd2a4a2f001a4e2510,001,2021-08-19_16h46.33.474,natb3,2021.2.3,Win32,68.76160352,5d4b05fd2a4a2f001a4e2510,611e07ecdcc96256ae8d5b80,611e7c99fbe9366de21c0371,,
,,,,space,,0,55,55,324,1,Q, , , , ,space,2000,2,5d4b05fd2a4a2f001a4e2510,001,2021-08-19_16h46.33.474,natb3,2021.2.3,Win32,68.76160352,5d4b05fd2a4a2f001a4e2510,611e07ecdcc96256ae8d5b80,611e7c99fbe9366de21c0371,0.4227,
,,,,space,,0,56,56,152,1,U, , , , ,space,2000,2,5d4b05fd2a4a2f001a4e2510,001,2021-08-19_16h46.33.474,natb3,2021.2.3,Win32,68.76160352,5d4b05fd2a4a2f001a4e2510,611e07ecdcc96256ae8d5b80,611e7c99fbe9366de21c0371,0.4158,
,,,,space,,0,57,57,59,1,Z, , , , ,space,2000,2,5d4b05fd2a4a2f001a4e2510,001,2021-08-19_16h46.33.474,natb3,2021.2.3,Win32,68.76160352,5d4b05fd2a4a2f001a4e2510,611e07ecdcc96256ae8d5b80,611e7c99fbe9366de21c0371,0.3471,
,,,,space,,0,58,58,10,1,O, , , , ,space,2000,2,5d4b05fd2a4a2f001a4e2510,001,2021-08-19_16h46.33.474,natb3,2021.2.3,Win32,68.76160352,5d4b05fd2a4a2f001a4e2510,611e07ecdcc96256ae8d5b80,611e7c99fbe9366de21c0371,0.3767,
,,,,space,,0,59,59,106,1,T, , , , ,space,1500,1.5,5d4b05fd2a4a2f001a4e2510,001,2021-08-19_16h46.33.474,natb3,2021.2.3,Win32,68.76160352,5d4b05fd2a4a2f001a4e2510,611e07ecdcc96256ae8d5b80,611e7c99fbe9366de21c0371,0.3312,
,,,,space,,0,60,60,201,1,K, , , , ,space,1500,1.5,5d4b05fd2a4a2f001a4e2510,001,2021-08-19_16h46.33.474,natb3,2021.2.3,Win32,68.76160352,5d4b05fd2a4a2f001a4e2510,611e07ecdcc96256ae8d5b80,611e7c99fbe9366de21c0371,0.4346,
,,,,space,,0,61,61,193,1,S, , , , ,space,2500,2.5,5d4b05fd2a4a2f001a4e2510,001,2021-08-19_16h46.33.474,natb3,2021.2.3,Win32,68.76160352,5d4b05fd2a4a2f001a4e2510,611e07ecdcc96256ae8d5b80,611e7c99fbe9366de21c0371,0.3619,
,,,,space,,0,62,62,327,1,E, , , , ,space,1500,1.5,5d4b05fd2a4a2f001a4e2510,001,2021-08-19_16h46.33.474,natb3,2021.2.3,Win32,68.76160352,5d4b05fd2a4a2f001a4e2510,611e07ecdcc96256ae8d5b80,611e7c99fbe9366de21c0371,0.4022,
,,,,,,0,63,63,93,1,X,5, ,7, ,,2500,2.5,5d4b05fd2a4a2f001a4e2510,001,2021-08-19_16h46.33.474,natb3,2021.2.3,Win32,68.76160352,5d4b05fd2a4a2f001a4e2510,611e07ecdcc96256ae8d5b80,611e7c99fbe9366de21c0371,,
,,,,space,,0,64,64,167,1,K, , , , ,space,1500,1.5,5d4b05fd2a4a2f001a4e2510,001,2021-08-19_16h46.33.474,natb3,2021.2.3,Win32,68.76160352,5d4b05fd2a4a2f001a4e2510,611e07ecdcc96256ae8d5b80,611e7c99fbe9366de21c0371,0.3433,
,,,,space,,0,65,65,150,1,T, , , , ,space,2500,2.5,5d4b05fd2a4a2f001a4e2510,001,2021-08-19_16h46.33.474,natb3,2021.2.3,Win32,68.76160352,5d4b05fd2a4a2f001a4e2510,611e07ecdcc96256ae8d5b80,611e7c99fbe9366de21c0371,0.364,
,,,,space,,0,66,66,196,1,F, , , , ,space,1500,1.5,5d4b05fd2a4a2f001a4e2510,001,2021-08-19_16h46.33.474,natb3,2021.2.3,Win32,68.76160352,5d4b05fd2a4a2f001a4e2510,611e07ecdcc96256ae8d5b80,611e7c99fbe9366de21c0371,0.3677,
,,,,,,0,67,67,98,1,X, , , , ,,2500,2.5,5d4b05fd2a4a2f001a4e2510,001,2021-08-19_16h46.33.474,natb3,2021.2.3,Win32,68.76160352,5d4b05fd2a4a2f001a4e2510,611e07ecdcc96256ae8d5b80,611e7c99fbe9366de21c0371,,
,,,,space,,0,68,68,73,1,Y, , , , ,space,2000,2,5d4b05fd2a4a2f001a4e2510,001,2021-08-19_16h46.33.474,natb3,2021.2.3,Win32,68.76160352,5d4b05fd2a4a2f001a4e2510,611e07ecdcc96256ae8d5b80,611e7c99fbe9366de21c0371,0.4665,
,,,,space,,0,69,69,326,1,W, , , , ,space,2000,2,5d4b05fd2a4a2f001a4e2510,001,2021-08-19_16h46.33.474,natb3,2021.2.3,Win32,68.76160352,5d4b05fd2a4a2f001a4e2510,611e07ecdcc96256ae8d5b80,611e7c99fbe9366de21c0371,0.5485,
,,,,space,,0,70,70,247,1,Z, , , , ,space,1500,1.5,5d4b05fd2a4a2f001a4e2510,001,2021-08-19_16h46.33.474,natb3,2021.2.3,Win32,68.76160352,5d4b05fd2a4a2f001a4e2510,611e07ecdcc96256ae8d5b80,611e7c99fbe9366de21c0371,0.3941,
,,,,space,,0,71,71,199,1,J, , , , ,space,2500,2.5,5d4b05fd2a4a2f001a4e2510,001,2021-08-19_16h46.33.474,natb3,2021.2.3,Win32,68.76160352,5d4b05fd2a4a2f001a4e2510,611e07ecdcc96256ae8d5b80,611e7c99fbe9366de21c0371,0.5841,
,,,,space,,0,72,72,304,1,S, , , , ,space,2000,2,5d4b05fd2a4a2f001a4e2510,001,2021-08-19_16h46.33.474,natb3,2021.2.3,Win32,68.76160352,5d4b05fd2a4a2f001a4e2510,611e07ecdcc96256ae8d5b80,611e7c99fbe9366de21c0371,0.3875,
,,,,space,,0,73,73,5,1,T, , , , ,space,2000,2,5d4b05fd2a4a2f001a4e2510,001,2021-08-19_16h46.33.474,natb3,2021.2.3,Win32,68.76160352,5d4b05fd2a4a2f001a4e2510,611e07ecdcc96256ae8d5b80,611e7c99fbe9366de21c0371,0.3702,
,,,,space,,0,74,74,154,1,I, , , , ,space,2500,2.5,5d4b05fd2a4a2f001a4e2510,001,2021-08-19_16h46.33.474,natb3,2021.2.3,Win32,68.76160352,5d4b05fd2a4a2f001a4e2510,611e07ecdcc96256ae8d5b80,611e7c99fbe9366de21c0371,0.3582,
,,,,space,,0,75,75,222,1,O, , , , ,space,2000,2,5d4b05fd2a4a2f001a4e2510,001,2021-08-19_16h46.33.474,natb3,2021.2.3,Win32,68.76160352,5d4b05fd2a4a2f001a4e2510,611e07ecdcc96256ae8d5b80,611e7c99fbe9366de21c0371,0.3845,
,,,,space,,0,76,76,24,1,L, , , , ,space,2500,2.5,5d4b05fd2a4a2f001a4e2510,001,2021-08-19_16h46.33.474,natb3,2021.2.3,Win32,68.76160352,5d4b05fd2a4a2f001a4e2510,611e07ecdcc96256ae8d5b80,611e7c99fbe9366de21c0371,0.3688,
,,,,space,,0,77,77,282,1,X, , , , ,,2500,2.5,5d4b05fd2a4a2f001a4e2510,001,2021-08-19_16h46.33.474,natb3,2021.2.3,Win32,68.76160352,5d4b05fd2a4a2f001a4e2510,611e07ecdcc96256ae8d5b80,611e7c99fbe9366de21c0371,0.2892,
,,,,space,,0,78,78,148,1,X, , , , ,,2000,2,5d4b05fd2a4a2f001a4e2510,001,2021-08-19_16h46.33.474,natb3,2021.2.3,Win32,68.76160352,5d4b05fd2a4a2f001a4e2510,611e07ecdcc96256ae8d5b80,611e7c99fbe9366de21c0371,0.3103,
,,,,,,0,79,79,133,1,X, ,4, ,6,,2500,2.5,5d4b05fd2a4a2f001a4e2510,001,2021-08-19_16h46.33.474,natb3,2021.2.3,Win32,68.76160352,5d4b05fd2a4a2f001a4e2510,611e07ecdcc96256ae8d5b80,611e7c99fbe9366de21c0371,,
,,,,,,0,80,80,291,1,X, , , , ,,2000,2,5d4b05fd2a4a2f001a4e2510,001,2021-08-19_16h46.33.474,natb3,2021.2.3,Win32,68.76160352,5d4b05fd2a4a2f001a4e2510,611e07ecdcc96256ae8d5b80,611e7c99fbe9366de21c0371,,
,,,,space,,0,81,81,87,1,H, , , , ,space,1500,1.5,5d4b05fd2a4a2f001a4e2510,001,2021-08-19_16h46.33.474,natb3,2021.2.3,Win32,68.76160352,5d4b05fd2a4a2f001a4e2510,611e07ecdcc96256ae8d5b80,611e7c99fbe9366de21c0371,0.3547,
,,,,space,,0,82,82,297,1,U, , , , ,space,2000,2,5d4b05fd2a4a2f001a4e2510,001,2021-08-19_16h46.33.474,natb3,2021.2.3,Win32,68.76160352,5d4b05fd2a4a2f001a4e2510,611e07ecdcc96256ae8d5b80,611e7c99fbe9366de21c0371,0.3534,
,,,,space,,0,83,83,290,1,W, , , , ,space,1500,1.5,5d4b05fd2a4a2f001a4e2510,001,2021-08-19_16h46.33.474,natb3,2021.2.3,Win32,68.76160352,5d4b05fd2a4a2f001a4e2510,611e07ecdcc96256ae8d5b80,611e7c99fbe9366de21c0371,0.6841,
,,,,space,,0,84,84,83,1,D, , , , ,space,2000,2,5d4b05fd2a4a2f001a4e2510,001,2021-08-19_16h46.33.474,natb3,2021.2.3,Win32,68.76160352,5d4b05fd2a4a2f001a4e2510,611e07ecdcc96256ae8d5b80,611e7c99fbe9366de21c0371,0.3055,
,,,,space,,0,85,85,38,1,R, , , , ,space,2500,2.5,5d4b05fd2a4a2f001a4e2510,001,2021-08-19_16h46.33.474,natb3,2021.2.3,Win32,68.76160352,5d4b05fd2a4a2f001a4e2510,611e07ecdcc96256ae8d5b80,611e7c99fbe9366de21c0371,0.3542,
,,,,space,,0,86,86,214,1,W, , , , ,space,2000,2,5d4b05fd2a4a2f001a4e2510,001,2021-08-19_16h46.33.474,natb3,2021.2.3,Win32,68.76160352,5d4b05fd2a4a2f001a4e2510,611e07ecdcc96256ae8d5b80,611e7c99fbe9366de21c0371,0.5037,
,,,,space,,0,87,87,99,1,N, , , , ,space,2500,2.5,5d4b05fd2a4a2f001a4e2510,001,2021-08-19_16h46.33.474,natb3,2021.2.3,Win32,68.76160352,5d4b05fd2a4a2f001a4e2510,611e07ecdcc96256ae8d5b80,611e7c99fbe9366de21c0371,0.3738,
,,,,space,,0,88,88,242,1,H, , , , ,space,2500,2.5,5d4b05fd2a4a2f001a4e2510,001,2021-08-19_16h46.33.474,natb3,2021.2.3,Win32,68.76160352,5d4b05fd2a4a2f001a4e2510,611e07ecdcc96256ae8d5b80,611e7c99fbe9366de21c0371,0.2861,
,,,,space,,0,89,89,25,1,Z, , , , ,space,2500,2.5,5d4b05fd2a4a2f001a4e2510,001,2021-08-19_16h46.33.474,natb3,2021.2.3,Win32,68.76160352,5d4b05fd2a4a2f001a4e2510,611e07ecdcc96256ae8d5b80,611e7c99fbe9366de21c0371,0.3176,
,,,,space,,0,90,90,261,1,T, , , , ,space,2000,2,5d4b05fd2a4a2f001a4e2510,001,2021-08-19_16h46.33.474,natb3,2021.2.3,Win32,68.76160352,5d4b05fd2a4a2f001a4e2510,611e07ecdcc96256ae8d5b80,611e7c99fbe9366de21c0371,0.3553,
,,,,space,,0,91,91,225,1,E, , , , ,space,2000,2,5d4b05fd2a4a2f001a4e2510,001,2021-08-19_16h46.33.474,natb3,2021.2.3,Win32,68.76160352,5d4b05fd2a4a2f001a4e2510,611e07ecdcc96256ae8d5b80,611e7c99fbe9366de21c0371,0.3256,
,,,,space,,0,92,92,1,1,W, , , , ,space,2000,2,5d4b05fd2a4a2f001a4e2510,001,2021-08-19_16h46.33.474,natb3,2021.2.3,Win32,68.76160352,5d4b05fd2a4a2f001a4e2510,611e07ecdcc96256ae8d5b80,611e7c99fbe9366de21c0371,0.4026,
,,,,space,,0,93,93,286,1,N, , , , ,space,1500,1.5,5d4b05fd2a4a2f001a4e2510,001,2021-08-19_16h46.33.474,natb3,2021.2.3,Win32,68.76160352,5d4b05fd2a4a2f001a4e2510,611e07ecdcc96256ae8d5b80,611e7c99fbe9366de21c0371,0.3388,
,,,,space,,0,94,94,317,1,C, , , , ,space,2000,2,5d4b05fd2a4a2f001a4e2510,001,2021-08-19_16h46.33.474,natb3,2021.2.3,Win32,68.76160352,5d4b05fd2a4a2f001a4e2510,611e07ecdcc96256ae8d5b80,611e7c99fbe9366de21c0371,0.4039,
,,,,,,0,95,95,107,1,X,9,3, ,2,,2000,2,5d4b05fd2a4a2f001a4e2510,001,2021-08-19_16h46.33.474,natb3,2021.2.3,Win32,68.76160352,5d4b05fd2a4a2f001a4e2510,611e07ecdcc96256ae8d5b80,611e7c99fbe9366de21c0371,,
,,,,,,0,96,96,271,1,X, , , , ,,2500,2.5,5d4b05fd2a4a2f001a4e2510,001,2021-08-19_16h46.33.474,natb3,2021.2.3,Win32,68.76160352,5d4b05fd2a4a2f001a4e2510,611e07ecdcc96256ae8d5b80,611e7c99fbe9366de21c0371,,
,,,,,,0,97,97,15,1,X, , , , ,,1500,1.5,5d4b05fd2a4a2f001a4e2510,001,2021-08-19_16h46.33.474,natb3,2021.2.3,Win32,68.76160352,5d4b05fd2a4a2f001a4e2510,611e07ecdcc96256ae8d5b80,611e7c99fbe9366de21c0371,,
,,,,space,,0,98,98,95,1,V, , , , ,space,1500,1.5,5d4b05fd2a4a2f001a4e2510,001,2021-08-19_16h46.33.474,natb3,2021.2.3,Win32,68.76160352,5d4b05fd2a4a2f001a4e2510,611e07ecdcc96256ae8d5b80,611e7c99fbe9366de21c0371,0.4738,
,,,,space,,0,99,99,32,1,M, , , , ,space,1500,1.5,5d4b05fd2a4a2f001a4e2510,001,2021-08-19_16h46.33.474,natb3,2021.2.3,Win32,68.76160352,5d4b05fd2a4a2f001a4e2510,611e07ecdcc96256ae8d5b80,611e7c99fbe9366de21c0371,0.3755,
,,,,space,,0,100,100,75,1,U, , , , ,space,1500,1.5,5d4b05fd2a4a2f001a4e2510,001,2021-08-19_16h46.33.474,natb3,2021.2.3,Win32,68.76160352,5d4b05fd2a4a2f001a4e2510,611e07ecdcc96256ae8d5b80,611e7c99fbe9366de21c0371,0.5545,
,,,,space,,0,101,101,67,1,Q, , , , ,space,2000,2,5d4b05fd2a4a2f001a4e2510,001,2021-08-19_16h46.33.474,natb3,2021.2.3,Win32,68.76160352,5d4b05fd2a4a2f001a4e2510,611e07ecdcc96256ae8d5b80,611e7c99fbe9366de21c0371,0.3275,
,,,,space,,0,102,102,245,1,K, , , , ,space,2000,2,5d4b05fd2a4a2f001a4e2510,001,2021-08-19_16h46.33.474,natb3,2021.2.3,Win32,68.76160352,5d4b05fd2a4a2f001a4e2510,611e07ecdcc96256ae8d5b80,611e7c99fbe9366de21c0371,0.5174,
,,,,space,,0,103,103,293,1,R, , , , ,space,2500,2.5,5d4b05fd2a4a2f001a4e2510,001,2021-08-19_16h46.33.474,natb3,2021.2.3,Win32,68.76160352,5d4b05fd2a4a2f001a4e2510,611e07ecdcc96256ae8d5b80,611e7c99fbe9366de21c0371,0.3205,
,,,,,,0,104,104,287,1,X, ,2, ,9,,2000,2,5d4b05fd2a4a2f001a4e2510,001,2021-08-19_16h46.33.474,natb3,2021.2.3,Win32,68.76160352,5d4b05fd2a4a2f001a4e2510,611e07ecdcc96256ae8d5b80,611e7c99fbe9366de21c0371,,
,,,,,,0,105,105,191,1,X,1, ,3,4,,2500,2.5,5d4b05fd2a4a2f001a4e2510,001,2021-08-19_16h46.33.474,natb3,2021.2.3,Win32,68.76160352,5d4b05fd2a4a2f001a4e2510,611e07ecdcc96256ae8d5b80,611e7c99fbe9366de21c0371,,
,,,,space,,0,106,106,166,1,X, , , , ,,2000,2,5d4b05fd2a4a2f001a4e2510,001,2021-08-19_16h46.33.474,natb3,2021.2.3,Win32,68.76160352,5d4b05fd2a4a2f001a4e2510,611e07ecdcc96256ae8d5b80,611e7c99fbe9366de21c0371,0.4615,
,,,,space,,0,107,107,194,1,D, , , , ,space,2000,2,5d4b05fd2a4a2f001a4e2510,001,2021-08-19_16h46.33.474,natb3,2021.2.3,Win32,68.76160352,5d4b05fd2a4a2f001a4e2510,611e07ecdcc96256ae8d5b80,611e7c99fbe9366de21c0371,0.4257,
,,,,,,0,108,108,158,1,X, , , , ,,1500,1.5,5d4b05fd2a4a2f001a4e2510,001,2021-08-19_16h46.33.474,natb3,2021.2.3,Win32,68.76160352,5d4b05fd2a4a2f001a4e2510,611e07ecdcc96256ae8d5b80,611e7c99fbe9366de21c0371,,
,,,,space,,0,109,109,8,1,U, , , , ,space,1500,1.5,5d4b05fd2a4a2f001a4e2510,001,2021-08-19_16h46.33.474,natb3,2021.2.3,Win32,68.76160352,5d4b05fd2a4a2f001a4e2510,611e07ecdcc96256ae8d5b80,611e7c99fbe9366de21c0371,0.5011,
,,,,space,,0,110,110,79,1,P, , , , ,space,2000,2,5d4b05fd2a4a2f001a4e2510,001,2021-08-19_16h46.33.474,natb3,2021.2.3,Win32,68.76160352,5d4b05fd2a4a2f001a4e2510,611e07ecdcc96256ae8d5b80,611e7c99fbe9366de21c0371,0.4066,
,,,,space,,0,111,111,72,1,T, , , , ,space,1500,1.5,5d4b05fd2a4a2f001a4e2510,001,2021-08-19_16h46.33.474,natb3,2021.2.3,Win32,68.76160352,5d4b05fd2a4a2f001a4e2510,611e07ecdcc96256ae8d5b80,611e7c99fbe9366de21c0371,0.4535,
,,,,space,,0,112,112,6,1,Y, , , , ,space,2500,2.5,5d4b05fd2a4a2f001a4e2510,001,2021-08-19_16h46.33.474,natb3,2021.2.3,Win32,68.76160352,5d4b05fd2a4a2f001a4e2510,611e07ecdcc96256ae8d5b80,611e7c99fbe9366de21c0371,0.4167,
,,,,space,,0,113,113,16,1,D, , , , ,space,1500,1.5,5d4b05fd2a4a2f001a4e2510,001,2021-08-19_16h46.33.474,natb3,2021.2.3,Win32,68.76160352,5d4b05fd2a4a2f001a4e2510,611e07ecdcc96256ae8d5b80,611e7c99fbe9366de21c0371,0.3533,
,,,,space,,0,114,114,42,1,U, , , , ,space,1500,1.5,5d4b05fd2a4a2f001a4e2510,001,2021-08-19_16h46.33.474,natb3,2021.2.3,Win32,68.76160352,5d4b05fd2a4a2f001a4e2510,611e07ecdcc96256ae8d5b80,611e7c99fbe9366de21c0371,0.3714,
,,,,space,,0,115,115,0,1,Q, , , , ,space,1500,1.5,5d4b05fd2a4a2f001a4e2510,001,2021-08-19_16h46.33.474,natb3,2021.2.3,Win32,68.76160352,5d4b05fd2a4a2f001a4e2510,611e07ecdcc96256ae8d5b80,611e7c99fbe9366de21c0371,0.4742,
,,,,space,,0,116,116,310,1,J, , , , ,space,2500,2.5,5d4b05fd2a4a2f001a4e2510,001,2021-08-19_16h46.33.474,natb3,2021.2.3,Win32,68.76160352,5d4b05fd2a4a2f001a4e2510,611e07ecdcc96256ae8d5b80,611e7c99fbe9366de21c0371,0.4099,
,,,,space,,0,117,117,132,1,H, , , , ,space,2500,2.5,5d4b05fd2a4a2f001a4e2510,001,2021-08-19_16h46.33.474,natb3,2021.2.3,Win32,68.76160352,5d4b05fd2a4a2f001a4e2510,611e07ecdcc96256ae8d5b80,611e7c99fbe9366de21c0371,0.3532,
,,,,,,0,118,118,27,1,X,5, ,1,3,,1500,1.5,5d4b05fd2a4a2f001a4e2510,001,2021-08-19_16h46.33.474,natb3,2021.2.3,Win32,68.76160352,5d4b05fd2a4a2f001a4e2510,611e07ecdcc96256ae8d5b80,611e7c99fbe9366de21c0371,,
,,,,space,,0,119,119,128,1,D, , , , ,space,2500,2.5,5d4b05fd2a4a2f001a4e2510,001,2021-08-19_16h46.33.474,natb3,2021.2.3,Win32,68.76160352,5d4b05fd2a4a2f001a4e2510,611e07ecdcc96256ae8d5b80,611e7c99fbe9366de21c0371,0.4495,
,,,,,,0,120,120,335,1,P,,,,,space,1500,1.5,5d4b05fd2a4a2f001a4e2510,001,2021-08-19_16h46.33.474,natb3,2021.2.3,Win32,68.76160352,5d4b05fd2a4a2f001a4e2510,611e07ecdcc96256ae8d5b80,611e7c99fbe9366de21c0371,,
,,,,space,,0,121,121,20,1,H, , , , ,space,1500,1.5,5d4b05fd2a4a2f001a4e2510,001,2021-08-19_16h46.33.474,natb3,2021.2.3,Win32,68.76160352,5d4b05fd2a4a2f001a4e2510,611e07ecdcc96256ae8d5b80,611e7c99fbe9366de21c0371,0.3564,
,,,,space,,0,122,122,280,1,L, , , , ,space,1500,1.5,5d4b05fd2a4a2f001a4e2510,001,2021-08-19_16h46.33.474,natb3,2021.2.3,Win32,68.76160352,5d4b05fd2a4a2f001a4e2510,611e07ecdcc96256ae8d5b80,611e7c99fbe9366de21c0371,0.4204,
,,,,space,,0,123,123,197,1,G, , , , ,space,2500,2.5,5d4b05fd2a4a2f001a4e2510,001,2021-08-19_16h46.33.474,natb3,2021.2.3,Win32,68.76160352,5d4b05fd2a4a2f001a4e2510,611e07ecdcc96256ae8d5b80,611e7c99fbe9366de21c0371,0.5352,
,,,,,,0,124,124,325,1,X, , , , ,,2500,2.5,5d4b05fd2a4a2f001a4e2510,001,2021-08-19_16h46.33.474,natb3,2021.2.3,Win32,68.76160352,5d4b05fd2a4a2f001a4e2510,611e07ecdcc96256ae8d5b80,611e7c99fbe9366de21c0371,,
,,,,space,,0,125,125,323,1,M, , , , ,space,2500,2.5,5d4b05fd2a4a2f001a4e2510,001,2021-08-19_16h46.33.474,natb3,2021.2.3,Win32,68.76160352,5d4b05fd2a4a2f001a4e2510,611e07ecdcc96256ae8d5b80,611e7c99fbe9366de21c0371,0.3864,
,,,,space,,0,126,126,298,1,I, , , , ,space,2000,2,5d4b05fd2a4a2f001a4e2510,001,2021-08-19_16h46.33.474,natb3,2021.2.3,Win32,68.76160352,5d4b05fd2a4a2f001a4e2510,611e07ecdcc96256ae8d5b80,611e7c99fbe9366de21c0371,0.359,
,,,,space,,0,127,127,333,1,I, , , , ,space,1500,1.5,5d4b05fd2a4a2f001a4e2510,001,2021-08-19_16h46.33.474,natb3,2021.2.3,Win32,68.76160352,5d4b05fd2a4a2f001a4e2510,611e07ecdcc96256ae8d5b80,611e7c99fbe9366de21c0371,0.4208,
,,,,,,0,128,128,35,1,X, , , , ,,2500,2.5,5d4b05fd2a4a2f001a4e2510,001,2021-08-19_16h46.33.474,natb3,2021.2.3,Win32,68.76160352,5d4b05fd2a4a2f001a4e2510,611e07ecdcc96256ae8d5b80,611e7c99fbe9366de21c0371,,
,,,,,,0,129,129,33,1,X, , , , ,,1500,1.5,5d4b05fd2a4a2f001a4e2510,001,2021-08-19_16h46.33.474,natb3,2021.2.3,Win32,68.76160352,5d4b05fd2a4a2f001a4e2510,611e07ecdcc96256ae8d5b80,611e7c99fbe9366de21c0371,,
,,,,space,,0,130,130,332,1,U, , , , ,space,2000,2,5d4b05fd2a4a2f001a4e2510,001,2021-08-19_16h46.33.474,natb3,2021.2.3,Win32,68.76160352,5d4b05fd2a4a2f001a4e2510,611e07ecdcc96256ae8d5b80,611e7c99fbe9366de21c0371,0.4565,
,,,,,,0,131,131,54,1,X, , , , ,,2000,2,5d4b05fd2a4a2f001a4e2510,001,2021-08-19_16h46.33.474,natb3,2021.2.3,Win32,68.76160352,5d4b05fd2a4a2f001a4e2510,611e07ecdcc96256ae8d5b80,611e7c99fbe9366de21c0371,,
,,,,space,,0,132,132,64,1,N, , , , ,space,2000,2,5d4b05fd2a4a2f001a4e2510,001,2021-08-19_16h46.33.474,natb3,2021.2.3,Win32,68.76160352,5d4b05fd2a4a2f001a4e2510,611e07ecdcc96256ae8d5b80,611e7c99fbe9366de21c0371,0.362,
,,,,space,,0,133,133,63,1,B, , , , ,space,2000,2,5d4b05fd2a4a2f001a4e2510,001,2021-08-19_16h46.33.474,natb3,2021.2.3,Win32,68.76160352,5d4b05fd2a4a2f001a4e2510,611e07ecdcc96256ae8d5b80,611e7c99fbe9366de21c0371,0.383,
,,,,,,0,134,134,239,1,X, , , , ,,2000,2,5d4b05fd2a4a2f001a4e2510,001,2021-08-19_16h46.33.474,natb3,2021.2.3,Win32,68.76160352,5d4b05fd2a4a2f001a4e2510,611e07ecdcc96256ae8d5b80,611e7c99fbe9366de21c0371,,
,,,,,,0,135,135,255,1,X, , , , ,,1500,1.5,5d4b05fd2a4a2f001a4e2510,001,2021-08-19_16h46.33.474,natb3,2021.2.3,Win32,68.76160352,5d4b05fd2a4a2f001a4e2510,611e07ecdcc96256ae8d5b80,611e7c99fbe9366de21c0371,,
,,,,space,,0,136,136,163,1,G, , , , ,space,2500,2.5,5d4b05fd2a4a2f001a4e2510,001,2021-08-19_16h46.33.474,natb3,2021.2.3,Win32,68.76160352,5d4b05fd2a4a2f001a4e2510,611e07ecdcc96256ae8d5b80,611e7c99fbe9366de21c0371,0.4246,
,,,,,,0,137,137,129,1,X,2,3,5, ,,1500,1.5,5d4b05fd2a4a2f001a4e2510,001,2021-08-19_16h46.33.474,natb3,2021.2.3,Win32,68.76160352,5d4b05fd2a4a2f001a4e2510,611e07ecdcc96256ae8d5b80,611e7c99fbe9366de21c0371,,
,,,,space,,0,138,138,174,1,B, , , , ,space,2500,2.5,5d4b05fd2a4a2f001a4e2510,001,2021-08-19_16h46.33.474,natb3,2021.2.3,Win32,68.76160352,5d4b05fd2a4a2f001a4e2510,611e07ecdcc96256ae8d5b80,611e7c99fbe9366de21c0371,0.3547,
,,,,,,0,139,139,43,1,X, ,6, ,2,,2500,2.5,5d4b05fd2a4a2f001a4e2510,001,2021-08-19_16h46.33.474,natb3,2021.2.3,Win32,68.76160352,5d4b05fd2a4a2f001a4e2510,611e07ecdcc96256ae8d5b80,611e7c99fbe9366de21c0371,,
,,,,space,,0,140,140,284,1,V, , , , ,space,2500,2.5,5d4b05fd2a4a2f001a4e2510,001,2021-08-19_16h46.33.474,natb3,2021.2.3,Win32,68.76160352,5d4b05fd2a4a2f001a4e2510,611e07ecdcc96256ae8d5b80,611e7c99fbe9366de21c0371,0.5653,
,,,,space,,0,141,141,234,1,P, , , , ,space,2000,2,5d4b05fd2a4a2f001a4e2510,001,2021-08-19_16h46.33.474,natb3,2021.2.3,Win32,68.76160352,5d4b05fd2a4a2f001a4e2510,611e07ecdcc96256ae8d5b80,611e7c99fbe9366de21c0371,0.5588,
,,,,space,,0,142,142,312,1,K, , , , ,space,2000,2,5d4b05fd2a4a2f001a4e2510,001,2021-08-19_16h46.33.474,natb3,2021.2.3,Win32,68.76160352,5d4b05fd2a4a2f001a4e2510,611e07ecdcc96256ae8d5b80,611e7c99fbe9366de21c0371,0.5432,
,,,,space,,0,143,143,92,1,Z, , , , ,space,1500,1.5,5d4b05fd2a4a2f001a4e2510,001,2021-08-19_16h46.33.474,natb3,2021.2.3,Win32,68.76160352,5d4b05fd2a4a2f001a4e2510,611e07ecdcc96256ae8d5b80,611e7c99fbe9366de21c0371,0.6915,
,,,,space,,0,144,144,294,1,T, , , , ,space,2000,2,5d4b05fd2a4a2f001a4e2510,001,2021-08-19_16h46.33.474,natb3,2021.2.3,Win32,68.76160352,5d4b05fd2a4a2f001a4e2510,611e07ecdcc96256ae8d5b80,611e7c99fbe9366de21c0371,0.4017,
,,,,space,,0,145,145,210,1,M, , , , ,space,1500,1.5,5d4b05fd2a4a2f001a4e2510,001,2021-08-19_16h46.33.474,natb3,2021.2.3,Win32,68.76160352,5d4b05fd2a4a2f001a4e2510,611e07ecdcc96256ae8d5b80,611e7c99fbe9366de21c0371,0.3846,
,,,,space,,0,146,146,26,1,C, , , , ,space,2000,2,5d4b05fd2a4a2f001a4e2510,001,2021-08-19_16h46.33.474,natb3,2021.2.3,Win32,68.76160352,5d4b05fd2a4a2f001a4e2510,611e07ecdcc96256ae8d5b80,611e7c99fbe9366de21c0371,0.3486,
,,,,space,,0,147,147,170,1,Z, , , , ,space,2000,2,5d4b05fd2a4a2f001a4e2510,001,2021-08-19_16h46.33.474,natb3,2021.2.3,Win32,68.76160352,5d4b05fd2a4a2f001a4e2510,611e07ecdcc96256ae8d5b80,611e7c99fbe9366de21c0371,0.4221,
,,,,space,,0,148,148,135,1,K, , , , ,space,1500,1.5,5d4b05fd2a4a2f001a4e2510,001,2021-08-19_16h46.33.474,natb3,2021.2.3,Win32,68.76160352,5d4b05fd2a4a2f001a4e2510,611e07ecdcc96256ae8d5b80,611e7c99fbe9366de21c0371,0.4186,
,,,,space,,0,149,149,215,1,E, , , , ,space,2500,2.5,5d4b05fd2a4a2f001a4e2510,001,2021-08-19_16h46.33.474,natb3,2021.2.3,Win32,68.76160352,5d4b05fd2a4a2f001a4e2510,611e07ecdcc96256ae8d5b80,611e7c99fbe9366de21c0371,0.4026,
,,,,space,,0,150,150,281,1,Z, , , , ,space,1500,1.5,5d4b05fd2a4a2f001a4e2510,001,2021-08-19_16h46.33.474,natb3,2021.2.3,Win32,68.76160352,5d4b05fd2a4a2f001a4e2510,611e07ecdcc96256ae8d5b80,611e7c99fbe9366de21c0371,0.6053,
,,,,space,,0,151,151,112,1,Q, , , , ,space,2500,2.5,5d4b05fd2a4a2f001a4e2510,001,2021-08-19_16h46.33.474,natb3,2021.2.3,Win32,68.76160352,5d4b05fd2a4a2f001a4e2510,611e07ecdcc96256ae8d5b80,611e7c99fbe9366de21c0371,0.6708,
,,,,space,,0,152,152,70,1,E, , , , ,space,2500,2.5,5d4b05fd2a4a2f001a4e2510,001,2021-08-19_16h46.33.474,natb3,2021.2.3,Win32,68.76160352,5d4b05fd2a4a2f001a4e2510,611e07ecdcc96256ae8d5b80,611e7c99fbe9366de21c0371,0.3538,
,,,,space,,0,153,153,71,1,R, , , , ,space,2500,2.5,5d4b05fd2a4a2f001a4e2510,001,2021-08-19_16h46.33.474,natb3,2021.2.3,Win32,68.76160352,5d4b05fd2a4a2f001a4e2510,611e07ecdcc96256ae8d5b80,611e7c99fbe9366de21c0371,0.3888,
,,,,,,0,154,154,229,1,X,8, ,2,6,,2500,2.5,5d4b05fd2a4a2f001a4e2510,001,2021-08-19_16h46.33.474,natb3,2021.2.3,Win32,68.76160352,5d4b05fd2a4a2f001a4e2510,611e07ecdcc96256ae8d5b80,611e7c99fbe9366de21c0371,,
,,,,space,,0,155,155,103,1,W, , , , ,space,2000,2,5d4b05fd2a4a2f001a4e2510,001,2021-08-19_16h46.33.474,natb3,2021.2.3,Win32,68.76160352,5d4b05fd2a4a2f001a4e2510,611e07ecdcc96256ae8d5b80,611e7c99fbe9366de21c0371,0.3951,
,,,,space,,0,156,156,232,1,O, , , , ,space,2500,2.5,5d4b05fd2a4a2f001a4e2510,001,2021-08-19_16h46.33.474,natb3,2021.2.3,Win32,68.76160352,5d4b05fd2a4a2f001a4e2510,611e07ecdcc96256ae8d5b80,611e7c99fbe9366de21c0371,0.3346,
,,,,space,,0,157,157,221,1,I, , , , ,space,2500,2.5,5d4b05fd2a4a2f001a4e2510,001,2021-08-19_16h46.33.474,natb3,2021.2.3,Win32,68.76160352,5d4b05fd2a4a2f001a4e2510,611e07ecdcc96256ae8d5b80,611e7c99fbe9366de21c0371,0.404,
,,,,space,,0,158,158,257,1,W, , , , ,space,2000,2,5d4b05fd2a4a2f001a4e2510,001,2021-08-19_16h46.33.474,natb3,2021.2.3,Win32,68.76160352,5d4b05fd2a4a2f001a4e2510,611e07ecdcc96256ae8d5b80,611e7c99fbe9366de21c0371,0.4704,
,,,,space,,0,159,159,190,1,P, , , , ,space,2000,2,5d4b05fd2a4a2f001a4e2510,001,2021-08-19_16h46.33.474,natb3,2021.2.3,Win32,68.76160352,5d4b05fd2a4a2f001a4e2510,611e07ecdcc96256ae8d5b80,611e7c99fbe9366de21c0371,0.4391,
,,,,space,,0,160,160,123,1,O, , , , ,space,1500,1.5,5d4b05fd2a4a2f001a4e2510,001,2021-08-19_16h46.33.474,natb3,2021.2.3,Win32,68.76160352,5d4b05fd2a4a2f001a4e2510,611e07ecdcc96256ae8d5b80,611e7c99fbe9366de21c0371,0.3876,
,,,,space,,0,161,161,250,1,V, , , , ,space,2000,2,5d4b05fd2a4a2f001a4e2510,001,2021-08-19_16h46.33.474,natb3,2021.2.3,Win32,68.76160352,5d4b05fd2a4a2f001a4e2510,611e07ecdcc96256ae8d5b80,611e7c99fbe9366de21c0371,0.3201,
,,,,space,,0,162,162,117,1,T, , , , ,space,2500,2.5,5d4b05fd2a4a2f001a4e2510,001,2021-08-19_16h46.33.474,natb3,2021.2.3,Win32,68.76160352,5d4b05fd2a4a2f001a4e2510,611e07ecdcc96256ae8d5b80,611e7c99fbe9366de21c0371,0.3205,
,,,,space,,0,163,163,265,1,I, , , , ,space,2000,2,5d4b05fd2a4a2f001a4e2510,001,2021-08-19_16h46.33.474,natb3,2021.2.3,Win32,68.76160352,5d4b05fd2a4a2f001a4e2510,611e07ecdcc96256ae8d5b80,611e7c99fbe9366de21c0371,0.3367,
,,,,space,,0,164,164,49,1,S, , , , ,space,1500,1.5,5d4b05fd2a4a2f001a4e2510,001,2021-08-19_16h46.33.474,natb3,2021.2.3,Win32,68.76160352,5d4b05fd2a4a2f001a4e2510,611e07ecdcc96256ae8d5b80,611e7c99fbe9366de21c0371,0.3355,
,,,,space,,0,165,165,157,1,A, , , , ,space,2500,2.5,5d4b05fd2a4a2f001a4e2510,001,2021-08-19_16h46.33.474,natb3,2021.2.3,Win32,68.76160352,5d4b05fd2a4a2f001a4e2510,611e07ecdcc96256ae8d5b80,611e7c99fbe9366de21c0371,0.4007,
,,,,,,0,166,166,102,1,X, ,6, , ,,1500,1.5,5d4b05fd2a4a2f001a4e2510,001,2021-08-19_16h46.33.474,natb3,2021.2.3,Win32,68.76160352,5d4b05fd2a4a2f001a4e2510,611e07ecdcc96256ae8d5b80,611e7c99fbe9366de21c0371,,
,,,,space,space,0,167,167,270,1,S, , , , ,space,1500,1.5,5d4b05fd2a4a2f001a4e2510,001,2021-08-19_16h46.33.474,natb3,2021.2.3,Win32,68.76160352,5d4b05fd2a4a2f001a4e2510,611e07ecdcc96256ae8d5b80,611e7c99fbe9366de21c0371,0.5611,10.0665
,,,,space,,0,168,168,305,1,X, , , , ,,1500,1.5,5d4b05fd2a4a2f001a4e2510,001,2021-08-19_16h46.33.474,natb3,2021.2.3,Win32,68.76160352,5d4b05fd2a4a2f001a4e2510,611e07ecdcc96256ae8d5b80,611e7c99fbe9366de21c0371,0.3564,
,,,,space,,0,169,169,240,1,F, , , , ,space,2500,2.5,5d4b05fd2a4a2f001a4e2510,001,2021-08-19_16h46.33.474,natb3,2021.2.3,Win32,68.76160352,5d4b05fd2a4a2f001a4e2510,611e07ecdcc96256ae8d5b80,611e7c99fbe9366de21c0371,0.3841,
,,,,space,,0,170,170,320,1,B, , , , ,space,1500,1.5,5d4b05fd2a4a2f001a4e2510,001,2021-08-19_16h46.33.474,natb3,2021.2.3,Win32,68.76160352,5d4b05fd2a4a2f001a4e2510,611e07ecdcc96256ae8d5b80,611e7c99fbe9366de21c0371,0.5696,
,,,,space,,0,171,171,80,1,A, , , , ,space,2000,2,5d4b05fd2a4a2f001a4e2510,001,2021-08-19_16h46.33.474,natb3,2021.2.3,Win32,68.76160352,5d4b05fd2a4a2f001a4e2510,611e07ecdcc96256ae8d5b80,611e7c99fbe9366de21c0371,0.5365,
,,,,space,,0,172,172,279,1,K, , , , ,space,2500,2.5,5d4b05fd2a4a2f001a4e2510,001,2021-08-19_16h46.33.474,natb3,2021.2.3,Win32,68.76160352,5d4b05fd2a4a2f001a4e2510,611e07ecdcc96256ae8d5b80,611e7c99fbe9366de21c0371,0.4202,
,,,,space,,0,173,173,278,1,J, , , , ,space,2000,2,5d4b05fd2a4a2f001a4e2510,001,2021-08-19_16h46.33.474,natb3,2021.2.3,Win32,68.76160352,5d4b05fd2a4a2f001a4e2510,611e07ecdcc96256ae8d5b80,611e7c99fbe9366de21c0371,0.3688,
,,,,,,0,174,174,51,1,X,7,5,8, ,,1500,1.5,5d4b05fd2a4a2f001a4e2510,001,2021-08-19_16h46.33.474,natb3,2021.2.3,Win32,68.76160352,5d4b05fd2a4a2f001a4e2510,611e07ecdcc96256ae8d5b80,611e7c99fbe9366de21c0371,,
,,,,space,,0,175,175,111,1,O, , , , ,space,2000,2,5d4b05fd2a4a2f001a4e2510,001,2021-08-19_16h46.33.474,natb3,2021.2.3,Win32,68.76160352,5d4b05fd2a4a2f001a4e2510,611e07ecdcc96256ae8d5b80,611e7c99fbe9366de21c0371,0.4199,
,,,,space,,0,176,176,256,1,Q, , , , ,space,2000,2,5d4b05fd2a4a2f001a4e2510,001,2021-08-19_16h46.33.474,natb3,2021.2.3,Win32,68.76160352,5d4b05fd2a4a2f001a4e2510,611e07ecdcc96256ae8d5b80,611e7c99fbe9366de21c0371,0.3374,
,,,,space,,0,177,177,285,1,B, , , , ,space,1500,1.5,5d4b05fd2a4a2f001a4e2510,001,2021-08-19_16h46.33.474,natb3,2021.2.3,Win32,68.76160352,5d4b05fd2a4a2f001a4e2510,611e07ecdcc96256ae8d5b80,611e7c99fbe9366de21c0371,0.32,
,,,,space,,0,178,178,160,1,D, , , , ,space,1500,1.5,5d4b05fd2a4a2f001a4e2510,001,2021-08-19_16h46.33.474,natb3,2021.2.3,Win32,68.76160352,5d4b05fd2a4a2f001a4e2510,611e07ecdcc96256ae8d5b80,611e7c99fbe9366de21c0371,0.346,
,,,,space,,0,179,179,241,1,G, , , , ,space,2500,2.5,5d4b05fd2a4a2f001a4e2510,001,2021-08-19_16h46.33.474,natb3,2021.2.3,Win32,68.76160352,5d4b05fd2a4a2f001a4e2510,611e07ecdcc96256ae8d5b80,611e7c99fbe9366de21c0371,0.3592,
,,,,,,0,180,180,311,1,X,1,2,7,3,,2500,2.5,5d4b05fd2a4a2f001a4e2510,001,2021-08-19_16h46.33.474,natb3,2021.2.3,Win32,68.76160352,5d4b05fd2a4a2f001a4e2510,611e07ecdcc96256ae8d5b80,611e7c99fbe9366de21c0371,,
,,,,space,,0,181,181,269,1,A, , , , ,space,2500,2.5,5d4b05fd2a4a2f001a4e2510,001,2021-08-19_16h46.33.474,natb3,2021.2.3,Win32,68.76160352,5d4b05fd2a4a2f001a4e2510,611e07ecdcc96256ae8d5b80,611e7c99fbe9366de21c0371,0.3467,
,,,,,,0,182,182,268,1,X,6, ,3, ,,2500,2.5,5d4b05fd2a4a2f001a4e2510,001,2021-08-19_16h46.33.474,natb3,2021.2.3,Win32,68.76160352,5d4b05fd2a4a2f001a4e2510,611e07ecdcc96256ae8d5b80,611e7c99fbe9366de21c0371,,
,,,,,,0,183,183,171,1,X, , , , ,,1500,1.5,5d4b05fd2a4a2f001a4e2510,001,2021-08-19_16h46.33.474,natb3,2021.2.3,Win32,68.76160352,5d4b05fd2a4a2f001a4e2510,611e07ecdcc96256ae8d5b80,611e7c99fbe9366de21c0371,,
,,,,space,,0,184,184,180,1,W, , , , ,space,2000,2,5d4b05fd2a4a2f001a4e2510,001,2021-08-19_16h46.33.474,natb3,2021.2.3,Win32,68.76160352,5d4b05fd2a4a2f001a4e2510,611e07ecdcc96256ae8d5b80,611e7c99fbe9366de21c0371,0.5366,
,,,,space,,0,185,185,238,1,D, , , , ,space,1500,1.5,5d4b05fd2a4a2f001a4e2510,001,2021-08-19_16h46.33.474,natb3,2021.2.3,Win32,68.76160352,5d4b05fd2a4a2f001a4e2510,611e07ecdcc96256ae8d5b80,611e7c99fbe9366de21c0371,0.3699,
,,,,,,0,186,186,213,1,X, , , , ,,2500,2.5,5d4b05fd2a4a2f001a4e2510,001,2021-08-19_16h46.33.474,natb3,2021.2.3,Win32,68.76160352,5d4b05fd2a4a2f001a4e2510,611e07ecdcc96256ae8d5b80,611e7c99fbe9366de21c0371,,
,,,,space,,0,187,187,202,1,L, , , , ,space,2500,2.5,5d4b05fd2a4a2f001a4e2510,001,2021-08-19_16h46.33.474,natb3,2021.2.3,Win32,68.76160352,5d4b05fd2a4a2f001a4e2510,611e07ecdcc96256ae8d5b80,611e7c99fbe9366de21c0371,0.3535,
,,,,space,,0,188,188,147,1,E, , , , ,space,2000,2,5d4b05fd2a4a2f001a4e2510,001,2021-08-19_16h46.33.474,natb3,2021.2.3,Win32,68.76160352,5d4b05fd2a4a2f001a4e2510,611e07ecdcc96256ae8d5b80,611e7c99fbe9366de21c0371,0.3436,
,,,,space,,0,189,189,146,1,W, , , , ,space,1500,1.5,5d4b05fd2a4a2f001a4e2510,001,2021-08-19_16h46.33.474,natb3,2021.2.3,Win32,68.76160352,5d4b05fd2a4a2f001a4e2510,611e07ecdcc96256ae8d5b80,611e7c99fbe9366de21c0371,0.4435,
,,,,space,,0,190,190,315,1,X, , , , ,,2500,2.5,5d4b05fd2a4a2f001a4e2510,001,2021-08-19_16h46.33.474,natb3,2021.2.3,Win32,68.76160352,5d4b05fd2a4a2f001a4e2510,611e07ecdcc96256ae8d5b80,611e7c99fbe9366de21c0371,0.3339,
,,,,space,,0,191,191,62,1,V, , , , ,space,1500,1.5,5d4b05fd2a4a2f001a4e2510,001,2021-08-19_16h46.33.474,natb3,2021.2.3,Win32,68.76160352,5d4b05fd2a4a2f001a4e2510,611e07ecdcc96256ae8d5b80,611e7c99fbe9366de21c0371,0.3859,
,,,,,,0,192,192,145,1,X, , , , ,,2000,2,5d4b05fd2a4a2f001a4e2510,001,2021-08-19_16h46.33.474,natb3,2021.2.3,Win32,68.76160352,5d4b05fd2a4a2f001a4e2510,611e07ecdcc96256ae8d5b80,611e7c99fbe9366de21c0371,,
,,,,,,0,193,193,84,1,X, , , , ,,2000,2,5d4b05fd2a4a2f001a4e2510,001,2021-08-19_16h46.33.474,natb3,2021.2.3,Win32,68.76160352,5d4b05fd2a4a2f001a4e2510,611e07ecdcc96256ae8d5b80,611e7c99fbe9366de21c0371,,
,,,,space,,0,194,194,119,1,Y, , , , ,space,2500,2.5,5d4b05fd2a4a2f001a4e2510,001,2021-08-19_16h46.33.474,natb3,2021.2.3,Win32,68.76160352,5d4b05fd2a4a2f001a4e2510,611e07ecdcc96256ae8d5b80,611e7c99fbe9366de21c0371,0.4399,
,,,,space,,0,195,195,58,1,L, , , , ,space,2000,2,5d4b05fd2a4a2f001a4e2510,001,2021-08-19_16h46.33.474,natb3,2021.2.3,Win32,68.76160352,5d4b05fd2a4a2f001a4e2510,611e07ecdcc96256ae8d5b80,611e7c99fbe9366de21c0371,0.4372,
,,,,space,,0,196,196,246,1,L, , , , ,space,2500,2.5,5d4b05fd2a4a2f001a4e2510,001,2021-08-19_16h46.33.474,natb3,2021.2.3,Win32,68.76160352,5d4b05fd2a4a2f001a4e2510,611e07ecdcc96256ae8d5b80,611e7c99fbe9366de21c0371,0.437,
,,,,space,,0,197,197,251,1,B, , , , ,space,1500,1.5,5d4b05fd2a4a2f001a4e2510,001,2021-08-19_16h46.33.474,natb3,2021.2.3,Win32,68.76160352,5d4b05fd2a4a2f001a4e2510,611e07ecdcc96256ae8d5b80,611e7c99fbe9366de21c0371,0.5841,
,,,,,,0,198,198,318,1,X, , , , ,,1500,1.5,5d4b05fd2a4a2f001a4e2510,001,2021-08-19_16h46.33.474,natb3,2021.2.3,Win32,68.76160352,5d4b05fd2a4a2f001a4e2510,611e07ecdcc96256ae8d5b80,611e7c99fbe9366de21c0371,,
,,,,,,0,199,199,277,1,X,8,5, ,2,,2000,2,5d4b05fd2a4a2f001a4e2510,001,2021-08-19_16h46.33.474,natb3,2021.2.3,Win32,68.76160352,5d4b05fd2a4a2f001a4e2510,611e07ecdcc96256ae8d5b80,611e7c99fbe9366de21c0371,,
,,,,space,,0,200,200,173,1,V, , , , ,space,1500,1.5,5d4b05fd2a4a2f001a4e2510,001,2021-08-19_16h46.33.474,natb3,2021.2.3,Win32,68.76160352,5d4b05fd2a4a2f001a4e2510,611e07ecdcc96256ae8d5b80,611e7c99fbe9366de21c0371,0.4335,
,,,,,,0,201,201,248,1,X, ,1,5, ,,1500,1.5,5d4b05fd2a4a2f001a4e2510,001,2021-08-19_16h46.33.474,natb3,2021.2.3,Win32,68.76160352,5d4b05fd2a4a2f001a4e2510,611e07ecdcc96256ae8d5b80,611e7c99fbe9366de21c0371,,
,,,,space,,0,202,202,110,1,I, , , , ,space,1500,1.5,5d4b05fd2a4a2f001a4e2510,001,2021-08-19_16h46.33.474,natb3,2021.2.3,Win32,68.76160352,5d4b05fd2a4a2f001a4e2510,611e07ecdcc96256ae8d5b80,611e7c99fbe9366de21c0371,0.3938,
,,,,,,0,203,203,118,1,X, , , , ,,2000,2,5d4b05fd2a4a2f001a4e2510,001,2021-08-19_16h46.33.474,natb3,2021.2.3,Win32,68.76160352,5d4b05fd2a4a2f001a4e2510,611e07ecdcc96256ae8d5b80,611e7c99fbe9366de21c0371,,
,,,,space,,0,204,204,316,1,Z, , , , ,space,1500,1.5,5d4b05fd2a4a2f001a4e2510,001,2021-08-19_16h46.33.474,natb3,2021.2.3,Win32,68.76160352,5d4b05fd2a4a2f001a4e2510,611e07ecdcc96256ae8d5b80,611e7c99fbe9366de21c0371,0.3538,
,,,,space,,0,205,205,28,1,V, , , , ,space,1500,1.5,5d4b05fd2a4a2f001a4e2510,001,2021-08-19_16h46.33.474,natb3,2021.2.3,Win32,68.76160352,5d4b05fd2a4a2f001a4e2510,611e07ecdcc96256ae8d5b80,611e7c99fbe9366de21c0371,0.3439,
,,,,,,0,206,206,153,1,X,4,7, ,6,,2000,2,5d4b05fd2a4a2f001a4e2510,001,2021-08-19_16h46.33.474,natb3,2021.2.3,Win32,68.76160352,5d4b05fd2a4a2f001a4e2510,611e07ecdcc96256ae8d5b80,611e7c99fbe9366de21c0371,,
,,,,space,,0,207,207,134,1,J, , , , ,space,2000,2,5d4b05fd2a4a2f001a4e2510,001,2021-08-19_16h46.33.474,natb3,2021.2.3,Win32,68.76160352,5d4b05fd2a4a2f001a4e2510,611e07ecdcc96256ae8d5b80,611e7c99fbe9366de21c0371,0.3633,
,,,,space,,0,208,208,231,1,I, , , , ,space,2500,2.5,5d4b05fd2a4a2f001a4e2510,001,2021-08-19_16h46.33.474,natb3,2021.2.3,Win32,68.76160352,5d4b05fd2a4a2f001a4e2510,611e07ecdcc96256ae8d5b80,611e7c99fbe9366de21c0371,0.3316,
,,,,,,0,209,209,243,1,X, , , , ,,2500,2.5,5d4b05fd2a4a2f001a4e2510,001,2021-08-19_16h46.33.474,natb3,2021.2.3,Win32,68.76160352,5d4b05fd2a4a2f001a4e2510,611e07ecdcc96256ae8d5b80,611e7c99fbe9366de21c0371,,
,,,,space,,0,210,210,9,1,I, , , , ,space,1500,1.5,5d4b05fd2a4a2f001a4e2510,001,2021-08-19_16h46.33.474,natb3,2021.2.3,Win32,68.76160352,5d4b05fd2a4a2f001a4e2510,611e07ecdcc96256ae8d5b80,611e7c99fbe9366de21c0371,0.4551,
,,,,space,,0,211,211,208,1,B, , , , ,space,1500,1.5,5d4b05fd2a4a2f001a4e2510,001,2021-08-19_16h46.33.474,natb3,2021.2.3,Win32,68.76160352,5d4b05fd2a4a2f001a4e2510,611e07ecdcc96256ae8d5b80,611e7c99fbe9366de21c0371,0.5031,
,,,,space,,0,212,212,212,1,Q, , , , ,space,2500,2.5,5d4b05fd2a4a2f001a4e2510,001,2021-08-19_16h46.33.474,natb3,2021.2.3,Win32,68.76160352,5d4b05fd2a4a2f001a4e2510,611e07ecdcc96256ae8d5b80,611e7c99fbe9366de21c0371,0.4367,
,,,,,,0,213,213,295,1,X,8,7,5, ,,2500,2.5,5d4b05fd2a4a2f001a4e2510,001,2021-08-19_16h46.33.474,natb3,2021.2.3,Win32,68.76160352,5d4b05fd2a4a2f001a4e2510,611e07ecdcc96256ae8d5b80,611e7c99fbe9366de21c0371,,
,,,,,,0,214,214,141,1,X,1, ,4,6,,1500,1.5,5d4b05fd2a4a2f001a4e2510,001,2021-08-19_16h46.33.474,natb3,2021.2.3,Win32,68.76160352,5d4b05fd2a4a2f001a4e2510,611e07ecdcc96256ae8d5b80,611e7c99fbe9366de21c0371,,
,,,,space,,0,215,215,17,1,F, , , , ,space,2500,2.5,5d4b05fd2a4a2f001a4e2510,001,2021-08-19_16h46.33.474,natb3,2021.2.3,Win32,68.76160352,5d4b05fd2a4a2f001a4e2510,611e07ecdcc96256ae8d5b80,611e7c99fbe9366de21c0371,0.3505,
,,,,space,,0,216,216,30,1,N, , , , ,space,2500,2.5,5d4b05fd2a4a2f001a4e2510,001,2021-08-19_16h46.33.474,natb3,2021.2.3,Win32,68.76160352,5d4b05fd2a4a2f001a4e2510,611e07ecdcc96256ae8d5b80,611e7c99fbe9366de21c0371,0.3934,
,,,,,,0,217,217,162,1,X,1,6, ,2,,1500,1.5,5d4b05fd2a4a2f001a4e2510,001,2021-08-19_16h46.33.474,natb3,2021.2.3,Win32,68.76160352,5d4b05fd2a4a2f001a4e2510,611e07ecdcc96256ae8d5b80,611e7c99fbe9366de21c0371,,
,,,,,,0,218,218,195,1,X, , , , ,,1500,1.5,5d4b05fd2a4a2f001a4e2510,001,2021-08-19_16h46.33.474,natb3,2021.2.3,Win32,68.76160352,5d4b05fd2a4a2f001a4e2510,611e07ecdcc96256ae8d5b80,611e7c99fbe9366de21c0371,,
,,,,,,0,219,219,39,1,X,6,2, , ,,1500,1.5,5d4b05fd2a4a2f001a4e2510,001,2021-08-19_16h46.33.474,natb3,2021.2.3,Win32,68.76160352,5d4b05fd2a4a2f001a4e2510,611e07ecdcc96256ae8d5b80,611e7c99fbe9366de21c0371,,
,,,,space,,0,220,220,21,1,J, , , , ,space,1500,1.5,5d4b05fd2a4a2f001a4e2510,001,2021-08-19_16h46.33.474,natb3,2021.2.3,Win32,68.76160352,5d4b05fd2a4a2f001a4e2510,611e07ecdcc96256ae8d5b80,611e7c99fbe9366de21c0371,0.7019,
,,,,space,,0,221,221,220,1,U, , , , ,space,2500,2.5,5d4b05fd2a4a2f001a4e2510,001,2021-08-19_16h46.33.474,natb3,2021.2.3,Win32,68.76160352,5d4b05fd2a4a2f001a4e2510,611e07ecdcc96256ae8d5b80,611e7c99fbe9366de21c0371,0.5865,
,,,,space,,0,222,222,159,1,S, , , , ,space,2500,2.5,5d4b05fd2a4a2f001a4e2510,001,2021-08-19_16h46.33.474,natb3,2021.2.3,Win32,68.76160352,5d4b05fd2a4a2f001a4e2510,611e07ecdcc96256ae8d5b80,611e7c99fbe9366de21c0371,0.3502,
,,,,space,,0,223,223,262,1,Y, , , , ,space,2500,2.5,5d4b05fd2a4a2f001a4e2510,001,2021-08-19_16h46.33.474,natb3,2021.2.3,Win32,68.76160352,5d4b05fd2a4a2f001a4e2510,611e07ecdcc96256ae8d5b80,611e7c99fbe9366de21c0371,0.3433,
,,,,space,,0,224,224,249,1,C, , , , ,space,2000,2,5d4b05fd2a4a2f001a4e2510,001,2021-08-19_16h46.33.474,natb3,2021.2.3,Win32,68.76160352,5d4b05fd2a4a2f001a4e2510,611e07ecdcc96256ae8d5b80,611e7c99fbe9366de21c0371,0.3219,
,,,,space,,0,225,225,275,1,G, , , , ,space,1500,1.5,5d4b05fd2a4a2f001a4e2510,001,2021-08-19_16h46.33.474,natb3,2021.2.3,Win32,68.76160352,5d4b05fd2a4a2f001a4e2510,611e07ecdcc96256ae8d5b80,611e7c99fbe9366de21c0371,0.3369,
,,,,space,,0,226,226,156,1,P, , , , ,space,1500,1.5,5d4b05fd2a4a2f001a4e2510,001,2021-08-19_16h46.33.474,natb3,2021.2.3,Win32,68.76160352,5d4b05fd2a4a2f001a4e2510,611e07ecdcc96256ae8d5b80,611e7c99fbe9366de21c0371,0.3186,
,,,,,,0,227,227,46,1,X, , , , ,,2000,2,5d4b05fd2a4a2f001a4e2510,001,2021-08-19_16h46.33.474,natb3,2021.2.3,Win32,68.76160352,5d4b05fd2a4a2f001a4e2510,611e07ecdcc96256ae8d5b80,611e7c99fbe9366de21c0371,,
,,,,space,,0,228,228,204,1,Z, , , , ,space,2000,2,5d4b05fd2a4a2f001a4e2510,001,2021-08-19_16h46.33.474,natb3,2021.2.3,Win32,68.76160352,5d4b05fd2a4a2f001a4e2510,611e07ecdcc96256ae8d5b80,611e7c99fbe9366de21c0371,0.3038,
,,,,space,,0,229,229,137,1,C, , , , ,space,2500,2.5,5d4b05fd2a4a2f001a4e2510,001,2021-08-19_16h46.33.474,natb3,2021.2.3,Win32,68.76160352,5d4b05fd2a4a2f001a4e2510,611e07ecdcc96256ae8d5b80,611e7c99fbe9366de21c0371,0.362,
,,,,space,,0,230,230,113,1,W, , , , ,space,2500,2.5,5d4b05fd2a4a2f001a4e2510,001,2021-08-19_16h46.33.474,natb3,2021.2.3,Win32,68.76160352,5d4b05fd2a4a2f001a4e2510,611e07ecdcc96256ae8d5b80,611e7c99fbe9366de21c0371,0.4684,
,,,,space,,0,231,231,283,1,C, , , , ,space,1500,1.5,5d4b05fd2a4a2f001a4e2510,001,2021-08-19_16h46.33.474,natb3,2021.2.3,Win32,68.76160352,5d4b05fd2a4a2f001a4e2510,611e07ecdcc96256ae8d5b80,611e7c99fbe9366de21c0371,0.3976,
,,,,space,,0,232,232,149,1,R, , , , ,space,2000,2,5d4b05fd2a4a2f001a4e2510,001,2021-08-19_16h46.33.474,natb3,2021.2.3,Win32,68.76160352,5d4b05fd2a4a2f001a4e2510,611e07ecdcc96256ae8d5b80,611e7c99fbe9366de21c0371,0.4005,
,,,,space,,0,233,233,260,1,R, , , , ,space,2000,2,5d4b05fd2a4a2f001a4e2510,001,2021-08-19_16h46.33.474,natb3,2021.2.3,Win32,68.76160352,5d4b05fd2a4a2f001a4e2510,611e07ecdcc96256ae8d5b80,611e7c99fbe9366de21c0371,0.3022,
,,,,space,,0,234,234,139,1,V, , , , ,space,2000,2,5d4b05fd2a4a2f001a4e2510,001,2021-08-19_16h46.33.474,natb3,2021.2.3,Win32,68.76160352,5d4b05fd2a4a2f001a4e2510,611e07ecdcc96256ae8d5b80,611e7c99fbe9366de21c0371,0.3786,
,,,,space,,0,235,235,53,1,G, , , , ,space,2500,2.5,5d4b05fd2a4a2f001a4e2510,001,2021-08-19_16h46.33.474,natb3,2021.2.3,Win32,68.76160352,5d4b05fd2a4a2f001a4e2510,611e07ecdcc96256ae8d5b80,611e7c99fbe9366de21c0371,0.3349,
,,,,,,0,236,236,168,1,X, , , , ,,2500,2.5,5d4b05fd2a4a2f001a4e2510,001,2021-08-19_16h46.33.474,natb3,2021.2.3,Win32,68.76160352,5d4b05fd2a4a2f001a4e2510,611e07ecdcc96256ae8d5b80,611e7c99fbe9366de21c0371,,
,,,,space,,0,237,237,198,1,H, , , , ,space,2500,2.5,5d4b05fd2a4a2f001a4e2510,001,2021-08-19_16h46.33.474,natb3,2021.2.3,Win32,68.76160352,5d4b05fd2a4a2f001a4e2510,611e07ecdcc96256ae8d5b80,611e7c99fbe9366de21c0371,0.352,
,,,,space,,0,238,238,108,1,Y, , , , ,space,2500,2.5,5d4b05fd2a4a2f001a4e2510,001,2021-08-19_16h46.33.474,natb3,2021.2.3,Win32,68.76160352,5d4b05fd2a4a2f001a4e2510,611e07ecdcc96256ae8d5b80,611e7c99fbe9366de21c0371,0.3321,
,,,,space,,0,239,239,274,1,F, , , , ,space,2000,2,5d4b05fd2a4a2f001a4e2510,001,2021-08-19_16h46.33.474,natb3,2021.2.3,Win32,68.76160352,5d4b05fd2a4a2f001a4e2510,611e07ecdcc96256ae8d5b80,611e7c99fbe9366de21c0371,0.3765,
,,,,space,,0,240,240,189,1,O, , , , ,space,1500,1.5,5d4b05fd2a4a2f001a4e2510,001,2021-08-19_16h46.33.474,natb3,2021.2.3,Win32,68.76160352,5d4b05fd2a4a2f001a4e2510,611e07ecdcc96256ae8d5b80,611e7c99fbe9366de21c0371,0.3571,
,,,,space,,0,241,241,223,1,Q, , , , ,space,2000,2,5d4b05fd2a4a2f001a4e2510,001,2021-08-19_16h46.33.474,natb3,2021.2.3,Win32,68.76160352,5d4b05fd2a4a2f001a4e2510,611e07ecdcc96256ae8d5b80,611e7c99fbe9366de21c0371,0.3017,
,,,,space,,0,242,242,50,1,D, , , , ,space,1500,1.5,5d4b05fd2a4a2f001a4e2510,001,2021-08-19_16h46.33.474,natb3,2021.2.3,Win32,68.76160352,5d4b05fd2a4a2f001a4e2510,611e07ecdcc96256ae8d5b80,611e7c99fbe9366de21c0371,0.4159,
,,,,space,,0,243,243,94,1,C, , , , ,space,2000,2,5d4b05fd2a4a2f001a4e2510,001,2021-08-19_16h46.33.474,natb3,2021.2.3,Win32,68.76160352,5d4b05fd2a4a2f001a4e2510,611e07ecdcc96256ae8d5b80,611e7c99fbe9366de21c0371,0.3371,
,,,,space,,0,244,244,264,1,U, , , , ,space,2000,2,5d4b05fd2a4a2f001a4e2510,001,2021-08-19_16h46.33.474,natb3,2021.2.3,Win32,68.76160352,5d4b05fd2a4a2f001a4e2510,611e07ecdcc96256ae8d5b80,611e7c99fbe9366de21c0371,0.3171,
,,,,space,,0,245,245,97,1,B, , , , ,space,2500,2.5,5d4b05fd2a4a2f001a4e2510,001,2021-08-19_16h46.33.474,natb3,2021.2.3,Win32,68.76160352,5d4b05fd2a4a2f001a4e2510,611e07ecdcc96256ae8d5b80,611e7c99fbe9366de21c0371,0.3177,
,,,,space,,0,246,246,177,1,M, , , , ,space,2500,2.5,5d4b05fd2a4a2f001a4e2510,001,2021-08-19_16h46.33.474,natb3,2021.2.3,Win32,68.76160352,5d4b05fd2a4a2f001a4e2510,611e07ecdcc96256ae8d5b80,611e7c99fbe9366de21c0371,0.3516,
,,,,space,,0,247,247,183,1,R, , , , ,space,1500,1.5,5d4b05fd2a4a2f001a4e2510,001,2021-08-19_16h46.33.474,natb3,2021.2.3,Win32,68.76160352,5d4b05fd2a4a2f001a4e2510,611e07ecdcc96256ae8d5b80,611e7c99fbe9366de21c0371,0.3755,
,,,,space,,0,248,248,48,1,A, , , , ,space,2500,2.5,5d4b05fd2a4a2f001a4e2510,001,2021-08-19_16h46.33.474,natb3,2021.2.3,Win32,68.76160352,5d4b05fd2a4a2f001a4e2510,611e07ecdcc96256ae8d5b80,611e7c99fbe9366de21c0371,0.3761,
,,,,space,,0,249,249,40,1,T, , , , ,space,1500,1.5,5d4b05fd2a4a2f001a4e2510,001,2021-08-19_16h46.33.474,natb3,2021.2.3,Win32,68.76160352,5d4b05fd2a4a2f001a4e2510,611e07ecdcc96256ae8d5b80,611e7c99fbe9366de21c0371,0.5167,
,,,,space,,0,250,250,130,1,F, , , , ,space,2000,2,5d4b05fd2a4a2f001a4e2510,001,2021-08-19_16h46.33.474,natb3,2021.2.3,Win32,68.76160352,5d4b05fd2a4a2f001a4e2510,611e07ecdcc96256ae8d5b80,611e7c99fbe9366de21c0371,0.3696,
,,,,space,,0,251,251,224,1,W, , , , ,space,1500,1.5,5d4b05fd2a4a2f001a4e2510,001,2021-08-19_16h46.33.474,natb3,2021.2.3,Win32,68.76160352,5d4b05fd2a4a2f001a4e2510,611e07ecdcc96256ae8d5b80,611e7c99fbe9366de21c0371,0.5028,
,,,,space,,0,252,252,188,1,I, , , , ,space,2500,2.5,5d4b05fd2a4a2f001a4e2510,001,2021-08-19_16h46.33.474,natb3,2021.2.3,Win32,68.76160352,5d4b05fd2a4a2f001a4e2510,611e07ecdcc96256ae8d5b80,611e7c99fbe9366de21c0371,0.4008,
,,,,,,0,253,253,218,1,X,1,3, ,8,,1500,1.5,5d4b05fd2a4a2f001a4e2510,001,2021-08-19_16h46.33.474,natb3,2021.2.3,Win32,68.76160352,5d4b05fd2a4a2f001a4e2510,611e07ecdcc96256ae8d5b80,611e7c99fbe9366de21c0371,,
,,,,space,,0,254,254,331,1,Y, , , , ,space,2500,2.5,5d4b05fd2a4a2f001a4e2510,001,2021-08-19_16h46.33.474,natb3,2021.2.3,Win32,68.76160352,5d4b05fd2a4a2f001a4e2510,611e07ecdcc96256ae8d5b80,611e7c99fbe9366de21c0371,0.3626,
,,,,,,0,255,255,207,1,X,9, ,2, ,,2500,2.5,5d4b05fd2a4a2f001a4e2510,001,2021-08-19_16h46.33.474,natb3,2021.2.3,Win32,68.76160352,5d4b05fd2a4a2f001a4e2510,611e07ecdcc96256ae8d5b80,611e7c99fbe9366de21c0371,,
,,,,space,,0,256,256,186,1,U, , , , ,space,2500,2.5,5d4b05fd2a4a2f001a4e2510,001,2021-08-19_16h46.33.474,natb3,2021.2.3,Win32,68.76160352,5d4b05fd2a4a2f001a4e2510,611e07ecdcc96256ae8d5b80,611e7c99fbe9366de21c0371,0.3652,
,,,,space,,0,257,257,185,1,Y, , , , ,space,2500,2.5,5d4b05fd2a4a2f001a4e2510,001,2021-08-19_16h46.33.474,natb3,2021.2.3,Win32,68.76160352,5d4b05fd2a4a2f001a4e2510,611e07ecdcc96256ae8d5b80,611e7c99fbe9366de21c0371,0.3671,
,,,,,,0,258,258,18,1,X, ,2,5,8,,2500,2.5,5d4b05fd2a4a2f001a4e2510,001,2021-08-19_16h46.33.474,natb3,2021.2.3,Win32,68.76160352,5d4b05fd2a4a2f001a4e2510,611e07ecdcc96256ae8d5b80,611e7c99fbe9366de21c0371,,
,,,,,,0,259,259,175,1,X,7, ,4,2,,1500,1.5,5d4b05fd2a4a2f001a4e2510,001,2021-08-19_16h46.33.474,natb3,2021.2.3,Win32,68.76160352,5d4b05fd2a4a2f001a4e2510,611e07ecdcc96256ae8d5b80,611e7c99fbe9366de21c0371,,
,,,,space,,0,260,260,230,1,U, , , , ,space,1500,1.5,5d4b05fd2a4a2f001a4e2510,001,2021-08-19_16h46.33.474,natb3,2021.2.3,Win32,68.76160352,5d4b05fd2a4a2f001a4e2510,611e07ecdcc96256ae8d5b80,611e7c99fbe9366de21c0371,0.36,
,,,,space,,0,261,261,13,1,A, , , , ,space,2000,2,5d4b05fd2a4a2f001a4e2510,001,2021-08-19_16h46.33.474,natb3,2021.2.3,Win32,68.76160352,5d4b05fd2a4a2f001a4e2510,611e07ecdcc96256ae8d5b80,611e7c99fbe9366de21c0371,0.3343,
,,,,space,,0,262,262,217,1,T, , , , ,space,2500,2.5,5d4b05fd2a4a2f001a4e2510,001,2021-08-19_16h46.33.474,natb3,2021.2.3,Win32,68.76160352,5d4b05fd2a4a2f001a4e2510,611e07ecdcc96256ae8d5b80,611e7c99fbe9366de21c0371,0.3338,
,,,,,,0,263,263,211,1,X, , , , ,,2500,2.5,5d4b05fd2a4a2f001a4e2510,001,2021-08-19_16h46.33.474,natb3,2021.2.3,Win32,68.76160352,5d4b05fd2a4a2f001a4e2510,611e07ecdcc96256ae8d5b80,611e7c99fbe9366de21c0371,,
,,,,space,,0,264,264,52,1,F, , , , ,space,1500,1.5,5d4b05fd2a4a2f001a4e2510,001,2021-08-19_16h46.33.474,natb3,2021.2.3,Win32,68.76160352,5d4b05fd2a4a2f001a4e2510,611e07ecdcc96256ae8d5b80,611e7c99fbe9366de21c0371,0.575,
,,,,space,,0,265,265,151,1,Y, , , , ,space,2500,2.5,5d4b05fd2a4a2f001a4e2510,001,2021-08-19_16h46.33.474,natb3,2021.2.3,Win32,68.76160352,5d4b05fd2a4a2f001a4e2510,611e07ecdcc96256ae8d5b80,611e7c99fbe9366de21c0371,0.4366,
,,,,space,,0,266,266,143,1,M, , , , ,space,2500,2.5,5d4b05fd2a4a2f001a4e2510,001,2021-08-19_16h46.33.474,natb3,2021.2.3,Win32,68.76160352,5d4b05fd2a4a2f001a4e2510,611e07ecdcc96256ae8d5b80,611e7c99fbe9366de21c0371,0.5215,
,,,,space,,0,267,267,266,1,O, , , , ,space,1500,1.5,5d4b05fd2a4a2f001a4e2510,001,2021-08-19_16h46.33.474,natb3,2021.2.3,Win32,68.76160352,5d4b05fd2a4a2f001a4e2510,611e07ecdcc96256ae8d5b80,611e7c99fbe9366de21c0371,0.3873,
,,,,,,0,268,268,60,1,X,7,3,5, ,,1500,1.5,5d4b05fd2a4a2f001a4e2510,001,2021-08-19_16h46.33.474,natb3,2021.2.3,Win32,68.76160352,5d4b05fd2a4a2f001a4e2510,611e07ecdcc96256ae8d5b80,611e7c99fbe9366de21c0371,,
,,,,space,,0,269,269,169,1,L, , , , ,space,2500,2.5,5d4b05fd2a4a2f001a4e2510,001,2021-08-19_16h46.33.474,natb3,2021.2.3,Win32,68.76160352,5d4b05fd2a4a2f001a4e2510,611e07ecdcc96256ae8d5b80,611e7c99fbe9366de21c0371,0.413,
,,,,space,,0,270,270,253,1,N, , , , ,space,2500,2.5,5d4b05fd2a4a2f001a4e2510,001,2021-08-19_16h46.33.474,natb3,2021.2.3,Win32,68.76160352,5d4b05fd2a4a2f001a4e2510,611e07ecdcc96256ae8d5b80,611e7c99fbe9366de21c0371,0.3701,
,,,,space,,0,271,271,55,1,H, , , , ,space,2500,2.5,5d4b05fd2a4a2f001a4e2510,001,2021-08-19_16h46.33.474,natb3,2021.2.3,Win32,68.76160352,5d4b05fd2a4a2f001a4e2510,611e07ecdcc96256ae8d5b80,611e7c99fbe9366de21c0371,0.4197,
,,,,,,0,272,272,89,1,X,3, , , ,,2000,2,5d4b05fd2a4a2f001a4e2510,001,2021-08-19_16h46.33.474,natb3,2021.2.3,Win32,68.76160352,5d4b05fd2a4a2f001a4e2510,611e07ecdcc96256ae8d5b80,611e7c99fbe9366de21c0371,,
,,,,space,,0,273,273,296,1,Y, , , , ,space,2500,2.5,5d4b05fd2a4a2f001a4e2510,001,2021-08-19_16h46.33.474,natb3,2021.2.3,Win32,68.76160352,5d4b05fd2a4a2f001a4e2510,611e07ecdcc96256ae8d5b80,611e7c99fbe9366de21c0371,0.7406,
,,,,space,,0,274,274,303,1,A, , , , ,space,2000,2,5d4b05fd2a4a2f001a4e2510,001,2021-08-19_16h46.33.474,natb3,2021.2.3,Win32,68.76160352,5d4b05fd2a4a2f001a4e2510,611e07ecdcc96256ae8d5b80,611e7c99fbe9366de21c0371,0.3702,
,,,,,,0,275,275,7,1,X, , , , ,,1500,1.5,5d4b05fd2a4a2f001a4e2510,001,2021-08-19_16h46.33.474,natb3,2021.2.3,Win32,68.76160352,5d4b05fd2a4a2f001a4e2510,611e07ecdcc96256ae8d5b80,611e7c99fbe9366de21c0371,,
,,,,space,,0,276,276,104,1,E, , , , ,space,2000,2,5d4b05fd2a4a2f001a4e2510,001,2021-08-19_16h46.33.474,natb3,2021.2.3,Win32,68.76160352,5d4b05fd2a4a2f001a4e2510,611e07ecdcc96256ae8d5b80,611e7c99fbe9366de21c0371,0.3703,
,,,,space,,0,277,277,203,1,X, , , , ,,2500,2.5,5d4b05fd2a4a2f001a4e2510,001,2021-08-19_16h46.33.474,natb3,2021.2.3,Win32,68.76160352,5d4b05fd2a4a2f001a4e2510,611e07ecdcc96256ae8d5b80,611e7c99fbe9366de21c0371,0.3544,
,,,,,,0,278,278,299,1,X, , , , ,,2500,2.5,5d4b05fd2a4a2f001a4e2510,001,2021-08-19_16h46.33.474,natb3,2021.2.3,Win32,68.76160352,5d4b05fd2a4a2f001a4e2510,611e07ecdcc96256ae8d5b80,611e7c99fbe9366de21c0371,,
,,,,,,0,279,279,329,1,X,3,4, ,2,,2500,2.5,5d4b05fd2a4a2f001a4e2510,001,2021-08-19_16h46.33.474,natb3,2021.2.3,Win32,68.76160352,5d4b05fd2a4a2f001a4e2510,611e07ecdcc96256ae8d5b80,611e7c99fbe9366de21c0371,,
,,,,,,0,280,280,236,1,X,3, ,4,7,,2500,2.5,5d4b05fd2a4a2f001a4e2510,001,2021-08-19_16h46.33.474,natb3,2021.2.3,Win32,68.76160352,5d4b05fd2a4a2f001a4e2510,611e07ecdcc96256ae8d5b80,611e7c99fbe9366de21c0371,,
,,,,space,,0,281,281,29,1,B, , , , ,space,1500,1.5,5d4b05fd2a4a2f001a4e2510,001,2021-08-19_16h46.33.474,natb3,2021.2.3,Win32,68.76160352,5d4b05fd2a4a2f001a4e2510,611e07ecdcc96256ae8d5b80,611e7c99fbe9366de21c0371,0.5558,
,,,,space,,0,282,282,140,1,B, , , , ,space,2500,2.5,5d4b05fd2a4a2f001a4e2510,001,2021-08-19_16h46.33.474,natb3,2021.2.3,Win32,68.76160352,5d4b05fd2a4a2f001a4e2510,611e07ecdcc96256ae8d5b80,611e7c99fbe9366de21c0371,0.4205,
,,,,space,,0,283,283,184,1,T, , , , ,space,2000,2,5d4b05fd2a4a2f001a4e2510,001,2021-08-19_16h46.33.474,natb3,2021.2.3,Win32,68.76160352,5d4b05fd2a4a2f001a4e2510,611e07ecdcc96256ae8d5b80,611e7c99fbe9366de21c0371,0.4522,
,,,,,,0,284,284,96,1,X, , , , ,,1500,1.5,5d4b05fd2a4a2f001a4e2510,001,2021-08-19_16h46.33.474,natb3,2021.2.3,Win32,68.76160352,5d4b05fd2a4a2f001a4e2510,611e07ecdcc96256ae8d5b80,611e7c99fbe9366de21c0371,,
,,,,,,0,285,285,200,1,X,7, ,5,3,,1500,1.5,5d4b05fd2a4a2f001a4e2510,001,2021-08-19_16h46.33.474,natb3,2021.2.3,Win32,68.76160352,5d4b05fd2a4a2f001a4e2510,611e07ecdcc96256ae8d5b80,611e7c99fbe9366de21c0371,,
,,,,space,,0,286,286,306,1,D, , , , ,space,2000,2,5d4b05fd2a4a2f001a4e2510,001,2021-08-19_16h46.33.474,natb3,2021.2.3,Win32,68.76160352,5d4b05fd2a4a2f001a4e2510,611e07ecdcc96256ae8d5b80,611e7c99fbe9366de21c0371,0.3946,
,,,,space,,0,287,287,219,1,Y, , , , ,space,2000,2,5d4b05fd2a4a2f001a4e2510,001,2021-08-19_16h46.33.474,natb3,2021.2.3,Win32,68.76160352,5d4b05fd2a4a2f001a4e2510,611e07ecdcc96256ae8d5b80,611e7c99fbe9366de21c0371,0.5106,
,,,,space,,0,288,288,11,1,P, , , , ,space,2500,2.5,5d4b05fd2a4a2f001a4e2510,001,2021-08-19_16h46.33.474,natb3,2021.2.3,Win32,68.76160352,5d4b05fd2a4a2f001a4e2510,611e07ecdcc96256ae8d5b80,611e7c99fbe9366de21c0371,0.5089,
,,,,space,,0,289,289,127,1,S, , , , ,space,2500,2.5,5d4b05fd2a4a2f001a4e2510,001,2021-08-19_16h46.33.474,natb3,2021.2.3,Win32,68.76160352,5d4b05fd2a4a2f001a4e2510,611e07ecdcc96256ae8d5b80,611e7c99fbe9366de21c0371,0.4269,
,,,,space,,0,290,290,121,1,I, , , , ,space,2000,2,5d4b05fd2a4a2f001a4e2510,001,2021-08-19_16h46.33.474,natb3,2021.2.3,Win32,68.76160352,5d4b05fd2a4a2f001a4e2510,611e07ecdcc96256ae8d5b80,611e7c99fbe9366de21c0371,0.4063,
,,,,space,,0,291,291,14,1,S, , , , ,space,2500,2.5,5d4b05fd2a4a2f001a4e2510,001,2021-08-19_16h46.33.474,natb3,2021.2.3,Win32,68.76160352,5d4b05fd2a4a2f001a4e2510,611e07ecdcc96256ae8d5b80,611e7c99fbe9366de21c0371,0.3509,
,,,,space,,0,292,292,237,1,S, , , , ,space,1500,1.5,5d4b05fd2a4a2f001a4e2510,001,2021-08-19_16h46.33.474,natb3,2021.2.3,Win32,68.76160352,5d4b05fd2a4a2f001a4e2510,611e07ecdcc96256ae8d5b80,611e7c99fbe9366de21c0371,0.4523,
,,,,space,,0,293,293,90,1,K, , , , ,space,2000,2,5d4b05fd2a4a2f001a4e2510,001,2021-08-19_16h46.33.474,natb3,2021.2.3,Win32,68.76160352,5d4b05fd2a4a2f001a4e2510,611e07ecdcc96256ae8d5b80,611e7c99fbe9366de21c0371,0.3522,
,,,,,,0,294,294,302,1,X, , , , ,,2000,2,5d4b05fd2a4a2f001a4e2510,001,2021-08-19_16h46.33.474,natb3,2021.2.3,Win32,68.76160352,5d4b05fd2a4a2f001a4e2510,611e07ecdcc96256ae8d5b80,611e7c99fbe9366de21c0371,,
,,,,space,,0,295,295,319,1,V, , , , ,space,2000,2,5d4b05fd2a4a2f001a4e2510,001,2021-08-19_16h46.33.474,natb3,2021.2.3,Win32,68.76160352,5d4b05fd2a4a2f001a4e2510,611e07ecdcc96256ae8d5b80,611e7c99fbe9366de21c0371,0.3372,
,,,,space,,0,296,296,105,1,R, , , , ,space,2500,2.5,5d4b05fd2a4a2f001a4e2510,001,2021-08-19_16h46.33.474,natb3,2021.2.3,Win32,68.76160352,5d4b05fd2a4a2f001a4e2510,611e07ecdcc96256ae8d5b80,611e7c99fbe9366de21c0371,0.3664,
,,,,space,,0,297,297,328,1,R, , , , ,space,1500,1.5,5d4b05fd2a4a2f001a4e2510,001,2021-08-19_16h46.33.474,natb3,2021.2.3,Win32,68.76160352,5d4b05fd2a4a2f001a4e2510,611e07ecdcc96256ae8d5b80,611e7c99fbe9366de21c0371,0.4042,
,,,,space,,0,298,298,45,1,O, , , , ,space,2000,2,5d4b05fd2a4a2f001a4e2510,001,2021-08-19_16h46.33.474,natb3,2021.2.3,Win32,68.76160352,5d4b05fd2a4a2f001a4e2510,611e07ecdcc96256ae8d5b80,611e7c99fbe9366de21c0371,0.3057,
,,,,space,,0,299,299,144,1,Q, , , , ,space,2500,2.5,5d4b05fd2a4a2f001a4e2510,001,2021-08-19_16h46.33.474,natb3,2021.2.3,Win32,68.76160352,5d4b05fd2a4a2f001a4e2510,611e07ecdcc96256ae8d5b80,611e7c99fbe9366de21c0371,0.37,
,,,,,,0,300,300,179,1,X, ,9, ,2,,1500,1.5,5d4b05fd2a4a2f001a4e2510,001,2021-08-19_16h46.33.474,natb3,2021.2.3,Win32,68.76160352,5d4b05fd2a4a2f001a4e2510,611e07ecdcc96256ae8d5b80,611e7c99fbe9366de21c0371,,
,,,,space,,0,301,301,3,1,R, , , , ,space,2000,2,5d4b05fd2a4a2f001a4e2510,001,2021-08-19_16h46.33.474,natb3,2021.2.3,Win32,68.76160352,5d4b05fd2a4a2f001a4e2510,611e07ecdcc96256ae8d5b80,611e7c99fbe9366de21c0371,0.318,
,,,,space,,0,302,302,309,1,H, , , , ,space,2500,2.5,5d4b05fd2a4a2f001a4e2510,001,2021-08-19_16h46.33.474,natb3,2021.2.3,Win32,68.76160352,5d4b05fd2a4a2f001a4e2510,611e07ecdcc96256ae8d5b80,611e7c99fbe9366de21c0371,0.3329,
,,,,space,,0,303,303,22,1,K, , , , ,space,2000,2,5d4b05fd2a4a2f001a4e2510,001,2021-08-19_16h46.33.474,natb3,2021.2.3,Win32,68.76160352,5d4b05fd2a4a2f001a4e2510,611e07ecdcc96256ae8d5b80,611e7c99fbe9366de21c0371,0.3211,
,,,,space,,0,304,304,258,1,E, , , , ,space,1500,1.5,5d4b05fd2a4a2f001a4e2510,001,2021-08-19_16h46.33.474,natb3,2021.2.3,Win32,68.76160352,5d4b05fd2a4a2f001a4e2510,611e07ecdcc96256ae8d5b80,611e7c99fbe9366de21c0371,0.3182,
,,,,space,,0,305,305,289,1,Q, , , , ,space,2000,2,5d4b05fd2a4a2f001a4e2510,001,2021-08-19_16h46.33.474,natb3,2021.2.3,Win32,68.76160352,5d4b05fd2a4a2f001a4e2510,611e07ecdcc96256ae8d5b80,611e7c99fbe9366de21c0371,0.3063,
,,,,,,0,306,306,233,1,X, ,2, ,5,,1500,1.5,5d4b05fd2a4a2f001a4e2510,001,2021-08-19_16h46.33.474,natb3,2021.2.3,Win32,68.76160352,5d4b05fd2a4a2f001a4e2510,611e07ecdcc96256ae8d5b80,611e7c99fbe9366de21c0371,,
,,,,,,0,307,307,273,1,X, , , , ,,2000,2,5d4b05fd2a4a2f001a4e2510,001,2021-08-19_16h46.33.474,natb3,2021.2.3,Win32,68.76160352,5d4b05fd2a4a2f001a4e2510,611e07ecdcc96256ae8d5b80,611e7c99fbe9366de21c0371,,
,,,,space,,0,308,308,124,1,P, , , , ,space,2000,2,5d4b05fd2a4a2f001a4e2510,001,2021-08-19_16h46.33.474,natb3,2021.2.3,Win32,68.76160352,5d4b05fd2a4a2f001a4e2510,611e07ecdcc96256ae8d5b80,611e7c99fbe9366de21c0371,0.4107,
,,,,space,,0,309,309,226,1,R, , , , ,space,2000,2,5d4b05fd2a4a2f001a4e2510,001,2021-08-19_16h46.33.474,natb3,2021.2.3,Win32,68.76160352,5d4b05fd2a4a2f001a4e2510,611e07ecdcc96256ae8d5b80,611e7c99fbe9366de21c0371,0.3585,
,,,,space,,0,310,310,120,1,U, , , , ,space,1500,1.5,5d4b05fd2a4a2f001a4e2510,001,2021-08-19_16h46.33.474,natb3,2021.2.3,Win32,68.76160352,5d4b05fd2a4a2f001a4e2510,611e07ecdcc96256ae8d5b80,611e7c99fbe9366de21c0371,0.3332,
,,,,space,,0,311,311,142,1,N, , , , ,space,2500,2.5,5d4b05fd2a4a2f001a4e2510,001,2021-08-19_16h46.33.474,natb3,2021.2.3,Win32,68.76160352,5d4b05fd2a4a2f001a4e2510,611e07ecdcc96256ae8d5b80,611e7c99fbe9366de21c0371,0.3015,
,,,,space,,0,312,312,292,1,E, , , , ,space,2000,2,5d4b05fd2a4a2f001a4e2510,001,2021-08-19_16h46.33.474,natb3,2021.2.3,Win32,68.76160352,5d4b05fd2a4a2f001a4e2510,611e07ecdcc96256ae8d5b80,611e7c99fbe9366de21c0371,0.3207,
,,,,space,,0,313,313,77,1,O, , , , ,space,2000,2,5d4b05fd2a4a2f001a4e2510,001,2021-08-19_16h46.33.474,natb3,2021.2.3,Win32,68.76160352,5d4b05fd2a4a2f001a4e2510,611e07ecdcc96256ae8d5b80,611e7c99fbe9366de21c0371,0.2895,
,,,,,,0,314,314,4,1,X, , , , ,,2000,2,5d4b05fd2a4a2f001a4e2510,001,2021-08-19_16h46.33.474,natb3,2021.2.3,Win32,68.76160352,5d4b05fd2a4a2f001a4e2510,611e07ecdcc96256ae8d5b80,611e7c99fbe9366de21c0371,,
,,,,space,,0,315,315,86,1,G, , , , ,space,2000,2,5d4b05fd2a4a2f001a4e2510,001,2021-08-19_16h46.33.474,natb3,2021.2.3,Win32,68.76160352,5d4b05fd2a4a2f001a4e2510,611e07ecdcc96256ae8d5b80,611e7c99fbe9366de21c0371,0.3773,
,,,,space,,0,316,316,68,1,W, , , , ,space,2500,2.5,5d4b05fd2a4a2f001a4e2510,001,2021-08-19_16h46.33.474,natb3,2021.2.3,Win32,68.76160352,5d4b05fd2a4a2f001a4e2510,611e07ecdcc96256ae8d5b80,611e7c99fbe9366de21c0371,0.4847,
,,,,,,0,317,317,82,1,X,4,6,1,7,,2000,2,5d4b05fd2a4a2f001a4e2510,001,2021-08-19_16h46.33.474,natb3,2021.2.3,Win32,68.76160352,5d4b05fd2a4a2f001a4e2510,611e07ecdcc96256ae8d5b80,611e7c99fbe9366de21c0371,,
,,,,space,,0,318,318,216,1,R, , , , ,space,1500,1.5,5d4b05fd2a4a2f001a4e2510,001,2021-08-19_16h46.33.474,natb3,2021.2.3,Win32,68.76160352,5d4b05fd2a4a2f001a4e2510,611e07ecdcc96256ae8d5b80,611e7c99fbe9366de21c0371,0.3848,
,,,,space,,0,319,319,34,1,Q, , , , ,space,2500,2.5,5d4b05fd2a4a2f001a4e2510,001,2021-08-19_16h46.33.474,natb3,2021.2.3,Win32,68.76160352,5d4b05fd2a4a2f001a4e2510,611e07ecdcc96256ae8d5b80,611e7c99fbe9366de21c0371,0.385,
,,,,space,,0,320,320,235,1,A, , , , ,space,1500,1.5,5d4b05fd2a4a2f001a4e2510,001,2021-08-19_16h46.33.474,natb3,2021.2.3,Win32,68.76160352,5d4b05fd2a4a2f001a4e2510,611e07ecdcc96256ae8d5b80,611e7c99fbe9366de21c0371,0.3535,
,,,,space,,0,321,321,125,1,X, , , , ,,2000,2,5d4b05fd2a4a2f001a4e2510,001,2021-08-19_16h46.33.474,natb3,2021.2.3,Win32,68.76160352,5d4b05fd2a4a2f001a4e2510,611e07ecdcc96256ae8d5b80,611e7c99fbe9366de21c0371,0.354,
,,,,space,,0,322,322,2,1,E, , , , ,space,2500,2.5,5d4b05fd2a4a2f001a4e2510,001,2021-08-19_16h46.33.474,natb3,2021.2.3,Win32,68.76160352,5d4b05fd2a4a2f001a4e2510,611e07ecdcc96256ae8d5b80,611e7c99fbe9366de21c0371,0.387,
,,,,space,,0,323,323,172,1,C, , , , ,space,1500,1.5,5d4b05fd2a4a2f001a4e2510,001,2021-08-19_16h46.33.474,natb3,2021.2.3,Win32,68.76160352,5d4b05fd2a4a2f001a4e2510,611e07ecdcc96256ae8d5b80,611e7c99fbe9366de21c0371,0.3537,
,,,,space,,0,324,324,254,1,M, , , , ,space,1500,1.5,5d4b05fd2a4a2f001a4e2510,001,2021-08-19_16h46.33.474,natb3,2021.2.3,Win32,68.76160352,5d4b05fd2a4a2f001a4e2510,611e07ecdcc96256ae8d5b80,611e7c99fbe9366de21c0371,0.3345,
,,,,,,0,325,325,263,1,X,4, ,6, ,,1500,1.5,5d4b05fd2a4a2f001a4e2510,001,2021-08-19_16h46.33.474,natb3,2021.2.3,Win32,68.76160352,5d4b05fd2a4a2f001a4e2510,611e07ecdcc96256ae8d5b80,611e7c99fbe9366de21c0371,,
,,,,,,0,326,326,259,1,X,8, , ,3,,2500,2.5,5d4b05fd2a4a2f001a4e2510,001,2021-08-19_16h46.33.474,natb3,2021.2.3,Win32,68.76160352,5d4b05fd2a4a2f001a4e2510,611e07ecdcc96256ae8d5b80,611e7c99fbe9366de21c0371,,
,,,,space,,0,327,327,307,1,F, , , , ,space,2500,2.5,5d4b05fd2a4a2f001a4e2510,001,2021-08-19_16h46.33.474,natb3,2021.2.3,Win32,68.76160352,5d4b05fd2a4a2f001a4e2510,611e07ecdcc96256ae8d5b80,611e7c99fbe9366de21c0371,0.3772,
,,,,space,,0,328,328,314,1,L, , , , ,space,1500,1.5,5d4b05fd2a4a2f001a4e2510,001,2021-08-19_16h46.33.474,natb3,2021.2.3,Win32,68.76160352,5d4b05fd2a4a2f001a4e2510,611e07ecdcc96256ae8d5b80,611e7c99fbe9366de21c0371,0.3539,
,,,,space,,0,329,329,267,1,P, , , , ,space,2000,2,5d4b05fd2a4a2f001a4e2510,001,2021-08-19_16h46.33.474,natb3,2021.2.3,Win32,68.76160352,5d4b05fd2a4a2f001a4e2510,611e07ecdcc96256ae8d5b80,611e7c99fbe9366de21c0371,0.3678,
,,,,space,,0,330,330,109,1,U, , , , ,space,1500,1.5,5d4b05fd2a4a2f001a4e2510,001,2021-08-19_16h46.33.474,natb3,2021.2.3,Win32,68.76160352,5d4b05fd2a4a2f001a4e2510,611e07ecdcc96256ae8d5b80,611e7c99fbe9366de21c0371,0.3269,
,,,,space,,0,331,331,276,1,H, , , , ,space,2000,2,5d4b05fd2a4a2f001a4e2510,001,2021-08-19_16h46.33.474,natb3,2021.2.3,Win32,68.76160352,5d4b05fd2a4a2f001a4e2510,611e07ecdcc96256ae8d5b80,611e7c99fbe9366de21c0371,0.3342,
,,,,space,,0,332,332,131,1,G, , , , ,space,1500,1.5,5d4b05fd2a4a2f001a4e2510,001,2021-08-19_16h46.33.474,natb3,2021.2.3,Win32,68.76160352,5d4b05fd2a4a2f001a4e2510,611e07ecdcc96256ae8d5b80,611e7c99fbe9366de21c0371,0.3563,
,,,,space,,0,333,333,88,1,J, , , , ,space,2500,2.5,5d4b05fd2a4a2f001a4e2510,001,2021-08-19_16h46.33.474,natb3,2021.2.3,Win32,68.76160352,5d4b05fd2a4a2f001a4e2510,611e07ecdcc96256ae8d5b80,611e7c99fbe9366de21c0371,0.519,
,,,,space,,0,334,334,56,1,J, , , , ,space,1500,1.5,5d4b05fd2a4a2f001a4e2510,001,2021-08-19_16h46.33.474,natb3,2021.2.3,Win32,68.76160352,5d4b05fd2a4a2f001a4e2510,611e07ecdcc96256ae8d5b80,611e7c99fbe9366de21c0371,0.337,
,,,,,,0,335,335,313,1,X, , , , ,,2500,2.5,5d4b05fd2a4a2f001a4e2510,001,2021-08-19_16h46.33.474,natb3,2021.2.3,Win32,68.76160352,5d4b05fd2a4a2f001a4e2510,611e07ecdcc96256ae8d5b80,611e7c99fbe9366de21c0371,,
