key_resp_2.keys,key_resp_2.rt,key_resp_3.keys,key_resp_3.rt,key_resp.keys,key_resp.rt,key_resp_4.keys,trials.thisRepN,trials.thisTrialN,trials.thisN,trials.thisIndex,trials.ran,stimulus,distractor1,distractor2,distractor3,distractor4,CorrAns,isi_duration,isi_dur_in_seconds,participant,session,date,expName,psychopyVersion,OS,frameRate,PROLIFIC_PID,STUDY_ID,SESSION_ID,key_resp_4.rt
return,60.4872,space,18.9914,space,0.7434,,0,0,0,279,1,K, , , , ,space,2500,2.5,5d5ac30f0cfdb7000151c903,001,2021-08-19_16h16.22.667,natb3,2021.2.3,MacIntel,60.0024001,5d5ac30f0cfdb7000151c903,611e07ecdcc96256ae8d5b80,611e75b0cbfc55a46d9a2ef4,
,,,,space,0.6422,,0,1,1,144,1,Q, , , , ,space,2500,2.5,5d5ac30f0cfdb7000151c903,001,2021-08-19_16h16.22.667,natb3,2021.2.3,MacIntel,60.0024001,5d5ac30f0cfdb7000151c903,611e07ecdcc96256ae8d5b80,611e75b0cbfc55a46d9a2ef4,
,,,,space,0.3716,,0,2,2,57,1,K, , , , ,space,2500,2.5,5d5ac30f0cfdb7000151c903,001,2021-08-19_16h16.22.667,natb3,2021.2.3,MacIntel,60.0024001,5d5ac30f0cfdb7000151c903,611e07ecdcc96256ae8d5b80,611e75b0cbfc55a46d9a2ef4,
,,,,space,0.4093,,0,3,3,250,1,V, , , , ,space,2000,2,5d5ac30f0cfdb7000151c903,001,2021-08-19_16h16.22.667,natb3,2021.2.3,MacIntel,60.0024001,5d5ac30f0cfdb7000151c903,611e07ecdcc96256ae8d5b80,611e75b0cbfc55a46d9a2ef4,
,,,,space,0.3392,,0,4,4,72,1,T, , , , ,space,1500,1.5,5d5ac30f0cfdb7000151c903,001,2021-08-19_16h16.22.667,natb3,2021.2.3,MacIntel,60.0024001,5d5ac30f0cfdb7000151c903,611e07ecdcc96256ae8d5b80,611e75b0cbfc55a46d9a2ef4,
,,,,space,0.5828,,0,5,5,177,1,M, , , , ,space,2500,2.5,5d5ac30f0cfdb7000151c903,001,2021-08-19_16h16.22.667,natb3,2021.2.3,MacIntel,60.0024001,5d5ac30f0cfdb7000151c903,611e07ecdcc96256ae8d5b80,611e75b0cbfc55a46d9a2ef4,
,,,,space,0.5392,,0,6,6,34,1,Q, , , , ,space,2500,2.5,5d5ac30f0cfdb7000151c903,001,2021-08-19_16h16.22.667,natb3,2021.2.3,MacIntel,60.0024001,5d5ac30f0cfdb7000151c903,611e07ecdcc96256ae8d5b80,611e75b0cbfc55a46d9a2ef4,
,,,,,,,0,7,7,33,1,X, , , , ,,1500,1.5,5d5ac30f0cfdb7000151c903,001,2021-08-19_16h16.22.667,natb3,2021.2.3,MacIntel,60.0024001,5d5ac30f0cfdb7000151c903,611e07ecdcc96256ae8d5b80,611e75b0cbfc55a46d9a2ef4,
,,,,space,0.5782,,0,8,8,48,1,A, , , , ,space,2500,2.5,5d5ac30f0cfdb7000151c903,001,2021-08-19_16h16.22.667,natb3,2021.2.3,MacIntel,60.0024001,5d5ac30f0cfdb7000151c903,611e07ecdcc96256ae8d5b80,611e75b0cbfc55a46d9a2ef4,
,,,,space,0.4614,,0,9,9,184,1,T, , , , ,space,2000,2,5d5ac30f0cfdb7000151c903,001,2021-08-19_16h16.22.667,natb3,2021.2.3,MacIntel,60.0024001,5d5ac30f0cfdb7000151c903,611e07ecdcc96256ae8d5b80,611e75b0cbfc55a46d9a2ef4,
,,,,space,0.5427,,0,10,10,290,1,W, , , , ,space,1500,1.5,5d5ac30f0cfdb7000151c903,001,2021-08-19_16h16.22.667,natb3,2021.2.3,MacIntel,60.0024001,5d5ac30f0cfdb7000151c903,611e07ecdcc96256ae8d5b80,611e75b0cbfc55a46d9a2ef4,
,,,,space,0.585,,0,11,11,142,1,N, , , , ,space,2500,2.5,5d5ac30f0cfdb7000151c903,001,2021-08-19_16h16.22.667,natb3,2021.2.3,MacIntel,60.0024001,5d5ac30f0cfdb7000151c903,611e07ecdcc96256ae8d5b80,611e75b0cbfc55a46d9a2ef4,
,,,,space,0.4169,,0,12,12,163,1,G, , , , ,space,2500,2.5,5d5ac30f0cfdb7000151c903,001,2021-08-19_16h16.22.667,natb3,2021.2.3,MacIntel,60.0024001,5d5ac30f0cfdb7000151c903,611e07ecdcc96256ae8d5b80,611e75b0cbfc55a46d9a2ef4,
,,,,,,,0,13,13,4,1,X, , , , ,,2000,2,5d5ac30f0cfdb7000151c903,001,2021-08-19_16h16.22.667,natb3,2021.2.3,MacIntel,60.0024001,5d5ac30f0cfdb7000151c903,611e07ecdcc96256ae8d5b80,611e75b0cbfc55a46d9a2ef4,
,,,,space,0.501,,0,14,14,303,1,A, , , , ,space,2000,2,5d5ac30f0cfdb7000151c903,001,2021-08-19_16h16.22.667,natb3,2021.2.3,MacIntel,60.0024001,5d5ac30f0cfdb7000151c903,611e07ecdcc96256ae8d5b80,611e75b0cbfc55a46d9a2ef4,
,,,,space,0.4374,,0,15,15,193,1,S, , , , ,space,2500,2.5,5d5ac30f0cfdb7000151c903,001,2021-08-19_16h16.22.667,natb3,2021.2.3,MacIntel,60.0024001,5d5ac30f0cfdb7000151c903,611e07ecdcc96256ae8d5b80,611e75b0cbfc55a46d9a2ef4,
,,,,space,0.545,,0,16,16,161,1,F, , , , ,space,1500,1.5,5d5ac30f0cfdb7000151c903,001,2021-08-19_16h16.22.667,natb3,2021.2.3,MacIntel,60.0024001,5d5ac30f0cfdb7000151c903,611e07ecdcc96256ae8d5b80,611e75b0cbfc55a46d9a2ef4,
,,,,space,0.4128,,0,17,17,67,1,Q, , , , ,space,2000,2,5d5ac30f0cfdb7000151c903,001,2021-08-19_16h16.22.667,natb3,2021.2.3,MacIntel,60.0024001,5d5ac30f0cfdb7000151c903,611e07ecdcc96256ae8d5b80,611e75b0cbfc55a46d9a2ef4,
,,,,space,0.4449,,0,18,18,8,1,U, , , , ,space,1500,1.5,5d5ac30f0cfdb7000151c903,001,2021-08-19_16h16.22.667,natb3,2021.2.3,MacIntel,60.0024001,5d5ac30f0cfdb7000151c903,611e07ecdcc96256ae8d5b80,611e75b0cbfc55a46d9a2ef4,
,,,,,,,0,19,19,69,1,X, , , , ,,1500,1.5,5d5ac30f0cfdb7000151c903,001,2021-08-19_16h16.22.667,natb3,2021.2.3,MacIntel,60.0024001,5d5ac30f0cfdb7000151c903,611e07ecdcc96256ae8d5b80,611e75b0cbfc55a46d9a2ef4,
,,,,space,0.4328,,0,20,20,139,1,V, , , , ,space,2000,2,5d5ac30f0cfdb7000151c903,001,2021-08-19_16h16.22.667,natb3,2021.2.3,MacIntel,60.0024001,5d5ac30f0cfdb7000151c903,611e07ecdcc96256ae8d5b80,611e75b0cbfc55a46d9a2ef4,
,,,,,,,0,21,21,125,1,X, , , , ,,2000,2,5d5ac30f0cfdb7000151c903,001,2021-08-19_16h16.22.667,natb3,2021.2.3,MacIntel,60.0024001,5d5ac30f0cfdb7000151c903,611e07ecdcc96256ae8d5b80,611e75b0cbfc55a46d9a2ef4,
,,,,space,0.4108,,0,22,22,267,1,P, , , , ,space,2000,2,5d5ac30f0cfdb7000151c903,001,2021-08-19_16h16.22.667,natb3,2021.2.3,MacIntel,60.0024001,5d5ac30f0cfdb7000151c903,611e07ecdcc96256ae8d5b80,611e75b0cbfc55a46d9a2ef4,
,,,,space,0.8606,,0,23,23,165,1,J, , , , ,space,2500,2.5,5d5ac30f0cfdb7000151c903,001,2021-08-19_16h16.22.667,natb3,2021.2.3,MacIntel,60.0024001,5d5ac30f0cfdb7000151c903,611e07ecdcc96256ae8d5b80,611e75b0cbfc55a46d9a2ef4,
,,,,,,,0,24,24,335,1,P,,,,,space,1500,1.5,5d5ac30f0cfdb7000151c903,001,2021-08-19_16h16.22.667,natb3,2021.2.3,MacIntel,60.0024001,5d5ac30f0cfdb7000151c903,611e07ecdcc96256ae8d5b80,611e75b0cbfc55a46d9a2ef4,
,,,,space,0.5069,,0,25,25,176,1,N, , , , ,space,1500,1.5,5d5ac30f0cfdb7000151c903,001,2021-08-19_16h16.22.667,natb3,2021.2.3,MacIntel,60.0024001,5d5ac30f0cfdb7000151c903,611e07ecdcc96256ae8d5b80,611e75b0cbfc55a46d9a2ef4,
,,,,space,0.4267,,0,26,26,298,1,I, , , , ,space,2000,2,5d5ac30f0cfdb7000151c903,001,2021-08-19_16h16.22.667,natb3,2021.2.3,MacIntel,60.0024001,5d5ac30f0cfdb7000151c903,611e07ecdcc96256ae8d5b80,611e75b0cbfc55a46d9a2ef4,
,,,,space,0.5474,,0,27,27,219,1,Y, , , , ,space,2000,2,5d5ac30f0cfdb7000151c903,001,2021-08-19_16h16.22.667,natb3,2021.2.3,MacIntel,60.0024001,5d5ac30f0cfdb7000151c903,611e07ecdcc96256ae8d5b80,611e75b0cbfc55a46d9a2ef4,
,,,,space,0.4688,,0,28,28,64,1,N, , , , ,space,2000,2,5d5ac30f0cfdb7000151c903,001,2021-08-19_16h16.22.667,natb3,2021.2.3,MacIntel,60.0024001,5d5ac30f0cfdb7000151c903,611e07ecdcc96256ae8d5b80,611e75b0cbfc55a46d9a2ef4,
,,,,space,0.4601,,0,29,29,235,1,A, , , , ,space,1500,1.5,5d5ac30f0cfdb7000151c903,001,2021-08-19_16h16.22.667,natb3,2021.2.3,MacIntel,60.0024001,5d5ac30f0cfdb7000151c903,611e07ecdcc96256ae8d5b80,611e75b0cbfc55a46d9a2ef4,
,,,,,,,0,30,30,179,1,X, ,9, ,2,,1500,1.5,5d5ac30f0cfdb7000151c903,001,2021-08-19_16h16.22.667,natb3,2021.2.3,MacIntel,60.0024001,5d5ac30f0cfdb7000151c903,611e07ecdcc96256ae8d5b80,611e75b0cbfc55a46d9a2ef4,
,,,,,,,0,31,31,191,1,X,1, ,3,4,,2500,2.5,5d5ac30f0cfdb7000151c903,001,2021-08-19_16h16.22.667,natb3,2021.2.3,MacIntel,60.0024001,5d5ac30f0cfdb7000151c903,611e07ecdcc96256ae8d5b80,611e75b0cbfc55a46d9a2ef4,
,,,,space,0.5629,,0,32,32,94,1,C, , , , ,space,2000,2,5d5ac30f0cfdb7000151c903,001,2021-08-19_16h16.22.667,natb3,2021.2.3,MacIntel,60.0024001,5d5ac30f0cfdb7000151c903,611e07ecdcc96256ae8d5b80,611e75b0cbfc55a46d9a2ef4,
,,,,space,0.8785,,0,33,33,183,1,R, , , , ,space,1500,1.5,5d5ac30f0cfdb7000151c903,001,2021-08-19_16h16.22.667,natb3,2021.2.3,MacIntel,60.0024001,5d5ac30f0cfdb7000151c903,611e07ecdcc96256ae8d5b80,611e75b0cbfc55a46d9a2ef4,
,,,,,,,0,34,34,281,1,Z, , , , ,space,1500,1.5,5d5ac30f0cfdb7000151c903,001,2021-08-19_16h16.22.667,natb3,2021.2.3,MacIntel,60.0024001,5d5ac30f0cfdb7000151c903,611e07ecdcc96256ae8d5b80,611e75b0cbfc55a46d9a2ef4,
,,,,space,0.3646,,0,35,35,330,1,T, , , , ,space,2500,2.5,5d5ac30f0cfdb7000151c903,001,2021-08-19_16h16.22.667,natb3,2021.2.3,MacIntel,60.0024001,5d5ac30f0cfdb7000151c903,611e07ecdcc96256ae8d5b80,611e75b0cbfc55a46d9a2ef4,
,,,,,,,0,36,36,318,1,X, , , , ,,1500,1.5,5d5ac30f0cfdb7000151c903,001,2021-08-19_16h16.22.667,natb3,2021.2.3,MacIntel,60.0024001,5d5ac30f0cfdb7000151c903,611e07ecdcc96256ae8d5b80,611e75b0cbfc55a46d9a2ef4,
,,,,space,0.3806,,0,37,37,209,1,N, , , , ,space,2000,2,5d5ac30f0cfdb7000151c903,001,2021-08-19_16h16.22.667,natb3,2021.2.3,MacIntel,60.0024001,5d5ac30f0cfdb7000151c903,611e07ecdcc96256ae8d5b80,611e75b0cbfc55a46d9a2ef4,
,,,,,,,0,38,38,275,1,G, , , , ,space,1500,1.5,5d5ac30f0cfdb7000151c903,001,2021-08-19_16h16.22.667,natb3,2021.2.3,MacIntel,60.0024001,5d5ac30f0cfdb7000151c903,611e07ecdcc96256ae8d5b80,611e75b0cbfc55a46d9a2ef4,
,,,,,,,0,39,39,236,1,X,3, ,4,7,,2500,2.5,5d5ac30f0cfdb7000151c903,001,2021-08-19_16h16.22.667,natb3,2021.2.3,MacIntel,60.0024001,5d5ac30f0cfdb7000151c903,611e07ecdcc96256ae8d5b80,611e75b0cbfc55a46d9a2ef4,
,,,,space,0.5107,,0,40,40,167,1,K, , , , ,space,1500,1.5,5d5ac30f0cfdb7000151c903,001,2021-08-19_16h16.22.667,natb3,2021.2.3,MacIntel,60.0024001,5d5ac30f0cfdb7000151c903,611e07ecdcc96256ae8d5b80,611e75b0cbfc55a46d9a2ef4,
,,,,space,0.9307,,0,41,41,251,1,B, , , , ,space,1500,1.5,5d5ac30f0cfdb7000151c903,001,2021-08-19_16h16.22.667,natb3,2021.2.3,MacIntel,60.0024001,5d5ac30f0cfdb7000151c903,611e07ecdcc96256ae8d5b80,611e75b0cbfc55a46d9a2ef4,
,,,,space,0.6967,,0,42,42,109,1,U, , , , ,space,1500,1.5,5d5ac30f0cfdb7000151c903,001,2021-08-19_16h16.22.667,natb3,2021.2.3,MacIntel,60.0024001,5d5ac30f0cfdb7000151c903,611e07ecdcc96256ae8d5b80,611e75b0cbfc55a46d9a2ef4,
,,,,,,,0,43,43,269,1,A, , , , ,space,2500,2.5,5d5ac30f0cfdb7000151c903,001,2021-08-19_16h16.22.667,natb3,2021.2.3,MacIntel,60.0024001,5d5ac30f0cfdb7000151c903,611e07ecdcc96256ae8d5b80,611e75b0cbfc55a46d9a2ef4,
,,,,space,0.4103,,0,44,44,92,1,Z, , , , ,space,1500,1.5,5d5ac30f0cfdb7000151c903,001,2021-08-19_16h16.22.667,natb3,2021.2.3,MacIntel,60.0024001,5d5ac30f0cfdb7000151c903,611e07ecdcc96256ae8d5b80,611e75b0cbfc55a46d9a2ef4,
,,,,,,,0,45,45,49,1,S, , , , ,space,1500,1.5,5d5ac30f0cfdb7000151c903,001,2021-08-19_16h16.22.667,natb3,2021.2.3,MacIntel,60.0024001,5d5ac30f0cfdb7000151c903,611e07ecdcc96256ae8d5b80,611e75b0cbfc55a46d9a2ef4,
,,,,,,,0,46,46,286,1,N, , , , ,space,1500,1.5,5d5ac30f0cfdb7000151c903,001,2021-08-19_16h16.22.667,natb3,2021.2.3,MacIntel,60.0024001,5d5ac30f0cfdb7000151c903,611e07ecdcc96256ae8d5b80,611e75b0cbfc55a46d9a2ef4,
,,,,space,0.3792,,0,47,47,264,1,U, , , , ,space,2000,2,5d5ac30f0cfdb7000151c903,001,2021-08-19_16h16.22.667,natb3,2021.2.3,MacIntel,60.0024001,5d5ac30f0cfdb7000151c903,611e07ecdcc96256ae8d5b80,611e75b0cbfc55a46d9a2ef4,
,,,,space,0.627,,0,48,48,247,1,Z, , , , ,space,1500,1.5,5d5ac30f0cfdb7000151c903,001,2021-08-19_16h16.22.667,natb3,2021.2.3,MacIntel,60.0024001,5d5ac30f0cfdb7000151c903,611e07ecdcc96256ae8d5b80,611e75b0cbfc55a46d9a2ef4,
,,,,space,0.3752,,0,49,49,53,1,G, , , , ,space,2500,2.5,5d5ac30f0cfdb7000151c903,001,2021-08-19_16h16.22.667,natb3,2021.2.3,MacIntel,60.0024001,5d5ac30f0cfdb7000151c903,611e07ecdcc96256ae8d5b80,611e75b0cbfc55a46d9a2ef4,
,,,,space,0.7682,,0,50,50,240,1,F, , , , ,space,2500,2.5,5d5ac30f0cfdb7000151c903,001,2021-08-19_16h16.22.667,natb3,2021.2.3,MacIntel,60.0024001,5d5ac30f0cfdb7000151c903,611e07ecdcc96256ae8d5b80,611e75b0cbfc55a46d9a2ef4,
,,,,,,,0,51,51,149,1,R, , , , ,space,2000,2,5d5ac30f0cfdb7000151c903,001,2021-08-19_16h16.22.667,natb3,2021.2.3,MacIntel,60.0024001,5d5ac30f0cfdb7000151c903,611e07ecdcc96256ae8d5b80,611e75b0cbfc55a46d9a2ef4,
,,,,space,0.3906,,0,52,52,317,1,C, , , , ,space,2000,2,5d5ac30f0cfdb7000151c903,001,2021-08-19_16h16.22.667,natb3,2021.2.3,MacIntel,60.0024001,5d5ac30f0cfdb7000151c903,611e07ecdcc96256ae8d5b80,611e75b0cbfc55a46d9a2ef4,
,,,,space,0.3737,,0,53,53,96,1,X, , , , ,,1500,1.5,5d5ac30f0cfdb7000151c903,001,2021-08-19_16h16.22.667,natb3,2021.2.3,MacIntel,60.0024001,5d5ac30f0cfdb7000151c903,611e07ecdcc96256ae8d5b80,611e75b0cbfc55a46d9a2ef4,
,,,,,,,0,54,54,78,1,X, , , , ,,2000,2,5d5ac30f0cfdb7000151c903,001,2021-08-19_16h16.22.667,natb3,2021.2.3,MacIntel,60.0024001,5d5ac30f0cfdb7000151c903,611e07ecdcc96256ae8d5b80,611e75b0cbfc55a46d9a2ef4,
,,,,space,0.6444,,0,55,55,238,1,D, , , , ,space,1500,1.5,5d5ac30f0cfdb7000151c903,001,2021-08-19_16h16.22.667,natb3,2021.2.3,MacIntel,60.0024001,5d5ac30f0cfdb7000151c903,611e07ecdcc96256ae8d5b80,611e75b0cbfc55a46d9a2ef4,
,,,,,,,0,56,56,74,1,X, ,4,3,2,,1500,1.5,5d5ac30f0cfdb7000151c903,001,2021-08-19_16h16.22.667,natb3,2021.2.3,MacIntel,60.0024001,5d5ac30f0cfdb7000151c903,611e07ecdcc96256ae8d5b80,611e75b0cbfc55a46d9a2ef4,
,,,,space,0.7415,,0,57,57,120,1,U, , , , ,space,1500,1.5,5d5ac30f0cfdb7000151c903,001,2021-08-19_16h16.22.667,natb3,2021.2.3,MacIntel,60.0024001,5d5ac30f0cfdb7000151c903,611e07ecdcc96256ae8d5b80,611e75b0cbfc55a46d9a2ef4,
,,,,,,,0,58,58,213,1,X, , , , ,,2500,2.5,5d5ac30f0cfdb7000151c903,001,2021-08-19_16h16.22.667,natb3,2021.2.3,MacIntel,60.0024001,5d5ac30f0cfdb7000151c903,611e07ecdcc96256ae8d5b80,611e75b0cbfc55a46d9a2ef4,
,,,,space,0.7647,,0,59,59,5,1,T, , , , ,space,2000,2,5d5ac30f0cfdb7000151c903,001,2021-08-19_16h16.22.667,natb3,2021.2.3,MacIntel,60.0024001,5d5ac30f0cfdb7000151c903,611e07ecdcc96256ae8d5b80,611e75b0cbfc55a46d9a2ef4,
,,,,,,,0,60,60,166,1,X, , , , ,,2000,2,5d5ac30f0cfdb7000151c903,001,2021-08-19_16h16.22.667,natb3,2021.2.3,MacIntel,60.0024001,5d5ac30f0cfdb7000151c903,611e07ecdcc96256ae8d5b80,611e75b0cbfc55a46d9a2ef4,
,,,,,,,0,61,61,157,1,A, , , , ,space,2500,2.5,5d5ac30f0cfdb7000151c903,001,2021-08-19_16h16.22.667,natb3,2021.2.3,MacIntel,60.0024001,5d5ac30f0cfdb7000151c903,611e07ecdcc96256ae8d5b80,611e75b0cbfc55a46d9a2ef4,
,,,,space,0.4992,,0,62,62,113,1,W, , , , ,space,2500,2.5,5d5ac30f0cfdb7000151c903,001,2021-08-19_16h16.22.667,natb3,2021.2.3,MacIntel,60.0024001,5d5ac30f0cfdb7000151c903,611e07ecdcc96256ae8d5b80,611e75b0cbfc55a46d9a2ef4,
,,,,space,0.9688,,0,63,63,3,1,R, , , , ,space,2000,2,5d5ac30f0cfdb7000151c903,001,2021-08-19_16h16.22.667,natb3,2021.2.3,MacIntel,60.0024001,5d5ac30f0cfdb7000151c903,611e07ecdcc96256ae8d5b80,611e75b0cbfc55a46d9a2ef4,
,,,,space,0.5786,,0,64,64,25,1,Z, , , , ,space,2500,2.5,5d5ac30f0cfdb7000151c903,001,2021-08-19_16h16.22.667,natb3,2021.2.3,MacIntel,60.0024001,5d5ac30f0cfdb7000151c903,611e07ecdcc96256ae8d5b80,611e75b0cbfc55a46d9a2ef4,
,,,,space,0.9007,,0,65,65,147,1,E, , , , ,space,2000,2,5d5ac30f0cfdb7000151c903,001,2021-08-19_16h16.22.667,natb3,2021.2.3,MacIntel,60.0024001,5d5ac30f0cfdb7000151c903,611e07ecdcc96256ae8d5b80,611e75b0cbfc55a46d9a2ef4,
,,,,space,0.5839,,0,66,66,28,1,V, , , , ,space,1500,1.5,5d5ac30f0cfdb7000151c903,001,2021-08-19_16h16.22.667,natb3,2021.2.3,MacIntel,60.0024001,5d5ac30f0cfdb7000151c903,611e07ecdcc96256ae8d5b80,611e75b0cbfc55a46d9a2ef4,
,,,,space,0.5953,,0,67,67,197,1,G, , , , ,space,2500,2.5,5d5ac30f0cfdb7000151c903,001,2021-08-19_16h16.22.667,natb3,2021.2.3,MacIntel,60.0024001,5d5ac30f0cfdb7000151c903,611e07ecdcc96256ae8d5b80,611e75b0cbfc55a46d9a2ef4,
,,,,space,0.4075,,0,68,68,234,1,P, , , , ,space,2000,2,5d5ac30f0cfdb7000151c903,001,2021-08-19_16h16.22.667,natb3,2021.2.3,MacIntel,60.0024001,5d5ac30f0cfdb7000151c903,611e07ecdcc96256ae8d5b80,611e75b0cbfc55a46d9a2ef4,
,,,,,,,0,69,69,233,1,X, ,2, ,5,,1500,1.5,5d5ac30f0cfdb7000151c903,001,2021-08-19_16h16.22.667,natb3,2021.2.3,MacIntel,60.0024001,5d5ac30f0cfdb7000151c903,611e07ecdcc96256ae8d5b80,611e75b0cbfc55a46d9a2ef4,
,,,,space,0.5271,,0,70,70,310,1,J, , , , ,space,2500,2.5,5d5ac30f0cfdb7000151c903,001,2021-08-19_16h16.22.667,natb3,2021.2.3,MacIntel,60.0024001,5d5ac30f0cfdb7000151c903,611e07ecdcc96256ae8d5b80,611e75b0cbfc55a46d9a2ef4,
,,,,,,,0,71,71,50,1,D, , , , ,space,1500,1.5,5d5ac30f0cfdb7000151c903,001,2021-08-19_16h16.22.667,natb3,2021.2.3,MacIntel,60.0024001,5d5ac30f0cfdb7000151c903,611e07ecdcc96256ae8d5b80,611e75b0cbfc55a46d9a2ef4,
,,,,space,0.4425,,0,72,72,265,1,I, , , , ,space,2000,2,5d5ac30f0cfdb7000151c903,001,2021-08-19_16h16.22.667,natb3,2021.2.3,MacIntel,60.0024001,5d5ac30f0cfdb7000151c903,611e07ecdcc96256ae8d5b80,611e75b0cbfc55a46d9a2ef4,
,,,,space,0.4229,,0,73,73,306,1,D, , , , ,space,2000,2,5d5ac30f0cfdb7000151c903,001,2021-08-19_16h16.22.667,natb3,2021.2.3,MacIntel,60.0024001,5d5ac30f0cfdb7000151c903,611e07ecdcc96256ae8d5b80,611e75b0cbfc55a46d9a2ef4,
,,,,space,0.3639,,0,74,74,45,1,O, , , , ,space,2000,2,5d5ac30f0cfdb7000151c903,001,2021-08-19_16h16.22.667,natb3,2021.2.3,MacIntel,60.0024001,5d5ac30f0cfdb7000151c903,611e07ecdcc96256ae8d5b80,611e75b0cbfc55a46d9a2ef4,
,,,,,,,0,75,75,82,1,X,4,6,1,7,,2000,2,5d5ac30f0cfdb7000151c903,001,2021-08-19_16h16.22.667,natb3,2021.2.3,MacIntel,60.0024001,5d5ac30f0cfdb7000151c903,611e07ecdcc96256ae8d5b80,611e75b0cbfc55a46d9a2ef4,
,,,,space,0.3816,,0,76,76,126,1,A, , , , ,space,2500,2.5,5d5ac30f0cfdb7000151c903,001,2021-08-19_16h16.22.667,natb3,2021.2.3,MacIntel,60.0024001,5d5ac30f0cfdb7000151c903,611e07ecdcc96256ae8d5b80,611e75b0cbfc55a46d9a2ef4,
,,,,space,0.4264,,0,77,77,319,1,V, , , , ,space,2000,2,5d5ac30f0cfdb7000151c903,001,2021-08-19_16h16.22.667,natb3,2021.2.3,MacIntel,60.0024001,5d5ac30f0cfdb7000151c903,611e07ecdcc96256ae8d5b80,611e75b0cbfc55a46d9a2ef4,
,,,,,,,0,78,78,277,1,X,8,5, ,2,,2000,2,5d5ac30f0cfdb7000151c903,001,2021-08-19_16h16.22.667,natb3,2021.2.3,MacIntel,60.0024001,5d5ac30f0cfdb7000151c903,611e07ecdcc96256ae8d5b80,611e75b0cbfc55a46d9a2ef4,
,,,,,,,0,79,79,133,1,X, ,4, ,6,,2500,2.5,5d5ac30f0cfdb7000151c903,001,2021-08-19_16h16.22.667,natb3,2021.2.3,MacIntel,60.0024001,5d5ac30f0cfdb7000151c903,611e07ecdcc96256ae8d5b80,611e75b0cbfc55a46d9a2ef4,
,,,,space,0.5856,,0,80,80,13,1,A, , , , ,space,2000,2,5d5ac30f0cfdb7000151c903,001,2021-08-19_16h16.22.667,natb3,2021.2.3,MacIntel,60.0024001,5d5ac30f0cfdb7000151c903,611e07ecdcc96256ae8d5b80,611e75b0cbfc55a46d9a2ef4,
,,,,space,0.5421,,0,81,81,244,1,J, , , , ,space,1500,1.5,5d5ac30f0cfdb7000151c903,001,2021-08-19_16h16.22.667,natb3,2021.2.3,MacIntel,60.0024001,5d5ac30f0cfdb7000151c903,611e07ecdcc96256ae8d5b80,611e75b0cbfc55a46d9a2ef4,
,,,,space,0.4564,,0,82,82,278,1,J, , , , ,space,2000,2,5d5ac30f0cfdb7000151c903,001,2021-08-19_16h16.22.667,natb3,2021.2.3,MacIntel,60.0024001,5d5ac30f0cfdb7000151c903,611e07ecdcc96256ae8d5b80,611e75b0cbfc55a46d9a2ef4,
,,,,space,0.4092,,0,83,83,201,1,K, , , , ,space,1500,1.5,5d5ac30f0cfdb7000151c903,001,2021-08-19_16h16.22.667,natb3,2021.2.3,MacIntel,60.0024001,5d5ac30f0cfdb7000151c903,611e07ecdcc96256ae8d5b80,611e75b0cbfc55a46d9a2ef4,
,,,,space,0.4615,,0,84,84,146,1,W, , , , ,space,1500,1.5,5d5ac30f0cfdb7000151c903,001,2021-08-19_16h16.22.667,natb3,2021.2.3,MacIntel,60.0024001,5d5ac30f0cfdb7000151c903,611e07ecdcc96256ae8d5b80,611e75b0cbfc55a46d9a2ef4,
,,,,space,0.433,,0,85,85,62,1,V, , , , ,space,1500,1.5,5d5ac30f0cfdb7000151c903,001,2021-08-19_16h16.22.667,natb3,2021.2.3,MacIntel,60.0024001,5d5ac30f0cfdb7000151c903,611e07ecdcc96256ae8d5b80,611e75b0cbfc55a46d9a2ef4,
,,,,space,0.3178,,0,86,86,15,1,X, , , , ,,1500,1.5,5d5ac30f0cfdb7000151c903,001,2021-08-19_16h16.22.667,natb3,2021.2.3,MacIntel,60.0024001,5d5ac30f0cfdb7000151c903,611e07ecdcc96256ae8d5b80,611e75b0cbfc55a46d9a2ef4,
,,,,space,0.5856,,0,87,87,124,1,P, , , , ,space,2000,2,5d5ac30f0cfdb7000151c903,001,2021-08-19_16h16.22.667,natb3,2021.2.3,MacIntel,60.0024001,5d5ac30f0cfdb7000151c903,611e07ecdcc96256ae8d5b80,611e75b0cbfc55a46d9a2ef4,
,,,,,,,0,88,88,84,1,X, , , , ,,2000,2,5d5ac30f0cfdb7000151c903,001,2021-08-19_16h16.22.667,natb3,2021.2.3,MacIntel,60.0024001,5d5ac30f0cfdb7000151c903,611e07ecdcc96256ae8d5b80,611e75b0cbfc55a46d9a2ef4,
,,,,,,,0,89,89,248,1,X, ,1,5, ,,1500,1.5,5d5ac30f0cfdb7000151c903,001,2021-08-19_16h16.22.667,natb3,2021.2.3,MacIntel,60.0024001,5d5ac30f0cfdb7000151c903,611e07ecdcc96256ae8d5b80,611e75b0cbfc55a46d9a2ef4,
,,,,space,0.5148,,0,90,90,214,1,W, , , , ,space,2000,2,5d5ac30f0cfdb7000151c903,001,2021-08-19_16h16.22.667,natb3,2021.2.3,MacIntel,60.0024001,5d5ac30f0cfdb7000151c903,611e07ecdcc96256ae8d5b80,611e75b0cbfc55a46d9a2ef4,
,,,,right,0.4271,,0,91,91,223,1,Q, , , , ,space,2000,2,5d5ac30f0cfdb7000151c903,001,2021-08-19_16h16.22.667,natb3,2021.2.3,MacIntel,60.0024001,5d5ac30f0cfdb7000151c903,611e07ecdcc96256ae8d5b80,611e75b0cbfc55a46d9a2ef4,
,,,,space,0.4557,,0,92,92,327,1,E, , , , ,space,1500,1.5,5d5ac30f0cfdb7000151c903,001,2021-08-19_16h16.22.667,natb3,2021.2.3,MacIntel,60.0024001,5d5ac30f0cfdb7000151c903,611e07ecdcc96256ae8d5b80,611e75b0cbfc55a46d9a2ef4,
,,,,space,0.0974,,0,93,93,262,1,Y, , , , ,space,2500,2.5,5d5ac30f0cfdb7000151c903,001,2021-08-19_16h16.22.667,natb3,2021.2.3,MacIntel,60.0024001,5d5ac30f0cfdb7000151c903,611e07ecdcc96256ae8d5b80,611e75b0cbfc55a46d9a2ef4,
,,,,space,0.4429,,0,94,94,101,1,Q, , , , ,space,2500,2.5,5d5ac30f0cfdb7000151c903,001,2021-08-19_16h16.22.667,natb3,2021.2.3,MacIntel,60.0024001,5d5ac30f0cfdb7000151c903,611e07ecdcc96256ae8d5b80,611e75b0cbfc55a46d9a2ef4,
,,,,space,0.5586,,0,95,95,301,1,P, , , , ,space,1500,1.5,5d5ac30f0cfdb7000151c903,001,2021-08-19_16h16.22.667,natb3,2021.2.3,MacIntel,60.0024001,5d5ac30f0cfdb7000151c903,611e07ecdcc96256ae8d5b80,611e75b0cbfc55a46d9a2ef4,
,,,,space,0.7598,,0,96,96,280,1,L, , , , ,space,1500,1.5,5d5ac30f0cfdb7000151c903,001,2021-08-19_16h16.22.667,natb3,2021.2.3,MacIntel,60.0024001,5d5ac30f0cfdb7000151c903,611e07ecdcc96256ae8d5b80,611e75b0cbfc55a46d9a2ef4,
,,,,space,0.5757,,0,97,97,198,1,H, , , , ,space,2500,2.5,5d5ac30f0cfdb7000151c903,001,2021-08-19_16h16.22.667,natb3,2021.2.3,MacIntel,60.0024001,5d5ac30f0cfdb7000151c903,611e07ecdcc96256ae8d5b80,611e75b0cbfc55a46d9a2ef4,
,,,,space,0.6334,,0,98,98,9,1,I, , , , ,space,1500,1.5,5d5ac30f0cfdb7000151c903,001,2021-08-19_16h16.22.667,natb3,2021.2.3,MacIntel,60.0024001,5d5ac30f0cfdb7000151c903,611e07ecdcc96256ae8d5b80,611e75b0cbfc55a46d9a2ef4,
,,,,,,,0,99,99,195,1,X, , , , ,,1500,1.5,5d5ac30f0cfdb7000151c903,001,2021-08-19_16h16.22.667,natb3,2021.2.3,MacIntel,60.0024001,5d5ac30f0cfdb7000151c903,611e07ecdcc96256ae8d5b80,611e75b0cbfc55a46d9a2ef4,
,,,,,,,0,100,100,54,1,X, , , , ,,2000,2,5d5ac30f0cfdb7000151c903,001,2021-08-19_16h16.22.667,natb3,2021.2.3,MacIntel,60.0024001,5d5ac30f0cfdb7000151c903,611e07ecdcc96256ae8d5b80,611e75b0cbfc55a46d9a2ef4,
,,,,,,,0,101,101,321,1,N, , , , ,space,2000,2,5d5ac30f0cfdb7000151c903,001,2021-08-19_16h16.22.667,natb3,2021.2.3,MacIntel,60.0024001,5d5ac30f0cfdb7000151c903,611e07ecdcc96256ae8d5b80,611e75b0cbfc55a46d9a2ef4,
,,,,space,0.6759,,0,102,102,231,1,I, , , , ,space,2500,2.5,5d5ac30f0cfdb7000151c903,001,2021-08-19_16h16.22.667,natb3,2021.2.3,MacIntel,60.0024001,5d5ac30f0cfdb7000151c903,611e07ecdcc96256ae8d5b80,611e75b0cbfc55a46d9a2ef4,
,,,,,,,0,103,103,263,1,X,4, ,6, ,,1500,1.5,5d5ac30f0cfdb7000151c903,001,2021-08-19_16h16.22.667,natb3,2021.2.3,MacIntel,60.0024001,5d5ac30f0cfdb7000151c903,611e07ecdcc96256ae8d5b80,611e75b0cbfc55a46d9a2ef4,
,,,,,,,0,104,104,60,1,X,7,3,5, ,,1500,1.5,5d5ac30f0cfdb7000151c903,001,2021-08-19_16h16.22.667,natb3,2021.2.3,MacIntel,60.0024001,5d5ac30f0cfdb7000151c903,611e07ecdcc96256ae8d5b80,611e75b0cbfc55a46d9a2ef4,
,,,,space,0.6345,,0,105,105,164,1,H, , , , ,space,2500,2.5,5d5ac30f0cfdb7000151c903,001,2021-08-19_16h16.22.667,natb3,2021.2.3,MacIntel,60.0024001,5d5ac30f0cfdb7000151c903,611e07ecdcc96256ae8d5b80,611e75b0cbfc55a46d9a2ef4,
,,,,,,,0,106,106,40,1,T, , , , ,space,1500,1.5,5d5ac30f0cfdb7000151c903,001,2021-08-19_16h16.22.667,natb3,2021.2.3,MacIntel,60.0024001,5d5ac30f0cfdb7000151c903,611e07ecdcc96256ae8d5b80,611e75b0cbfc55a46d9a2ef4,
,,,,,,,0,107,107,20,1,H, , , , ,space,1500,1.5,5d5ac30f0cfdb7000151c903,001,2021-08-19_16h16.22.667,natb3,2021.2.3,MacIntel,60.0024001,5d5ac30f0cfdb7000151c903,611e07ecdcc96256ae8d5b80,611e75b0cbfc55a46d9a2ef4,
,,,,space,0.5938,,0,108,108,71,1,R, , , , ,space,2500,2.5,5d5ac30f0cfdb7000151c903,001,2021-08-19_16h16.22.667,natb3,2021.2.3,MacIntel,60.0024001,5d5ac30f0cfdb7000151c903,611e07ecdcc96256ae8d5b80,611e75b0cbfc55a46d9a2ef4,
,,,,space,0.5936,,0,109,109,2,1,E, , , , ,space,2500,2.5,5d5ac30f0cfdb7000151c903,001,2021-08-19_16h16.22.667,natb3,2021.2.3,MacIntel,60.0024001,5d5ac30f0cfdb7000151c903,611e07ecdcc96256ae8d5b80,611e75b0cbfc55a46d9a2ef4,
,,,,,,,0,110,110,43,1,X, ,6, ,2,,2500,2.5,5d5ac30f0cfdb7000151c903,001,2021-08-19_16h16.22.667,natb3,2021.2.3,MacIntel,60.0024001,5d5ac30f0cfdb7000151c903,611e07ecdcc96256ae8d5b80,611e75b0cbfc55a46d9a2ef4,
,,,,,,,0,111,111,140,1,B, , , , ,space,2500,2.5,5d5ac30f0cfdb7000151c903,001,2021-08-19_16h16.22.667,natb3,2021.2.3,MacIntel,60.0024001,5d5ac30f0cfdb7000151c903,611e07ecdcc96256ae8d5b80,611e75b0cbfc55a46d9a2ef4,
,,,,space,0.4119,,0,112,112,93,1,X,5, ,7, ,,2500,2.5,5d5ac30f0cfdb7000151c903,001,2021-08-19_16h16.22.667,natb3,2021.2.3,MacIntel,60.0024001,5d5ac30f0cfdb7000151c903,611e07ecdcc96256ae8d5b80,611e75b0cbfc55a46d9a2ef4,
,,,,,,,0,113,113,203,1,X, , , , ,,2500,2.5,5d5ac30f0cfdb7000151c903,001,2021-08-19_16h16.22.667,natb3,2021.2.3,MacIntel,60.0024001,5d5ac30f0cfdb7000151c903,611e07ecdcc96256ae8d5b80,611e75b0cbfc55a46d9a2ef4,
,,,,space,0.5249,,0,114,114,194,1,D, , , , ,space,2000,2,5d5ac30f0cfdb7000151c903,001,2021-08-19_16h16.22.667,natb3,2021.2.3,MacIntel,60.0024001,5d5ac30f0cfdb7000151c903,611e07ecdcc96256ae8d5b80,611e75b0cbfc55a46d9a2ef4,
,,,,,,,0,115,115,274,1,F, , , , ,space,2000,2,5d5ac30f0cfdb7000151c903,001,2021-08-19_16h16.22.667,natb3,2021.2.3,MacIntel,60.0024001,5d5ac30f0cfdb7000151c903,611e07ecdcc96256ae8d5b80,611e75b0cbfc55a46d9a2ef4,
,,,,space,0.8928,,0,116,116,204,1,Z, , , , ,space,2000,2,5d5ac30f0cfdb7000151c903,001,2021-08-19_16h16.22.667,natb3,2021.2.3,MacIntel,60.0024001,5d5ac30f0cfdb7000151c903,611e07ecdcc96256ae8d5b80,611e75b0cbfc55a46d9a2ef4,
,,,,,,,0,117,117,36,1,W, , , , ,space,2000,2,5d5ac30f0cfdb7000151c903,001,2021-08-19_16h16.22.667,natb3,2021.2.3,MacIntel,60.0024001,5d5ac30f0cfdb7000151c903,611e07ecdcc96256ae8d5b80,611e75b0cbfc55a46d9a2ef4,
,,,,,,,0,118,118,314,1,L, , , , ,space,1500,1.5,5d5ac30f0cfdb7000151c903,001,2021-08-19_16h16.22.667,natb3,2021.2.3,MacIntel,60.0024001,5d5ac30f0cfdb7000151c903,611e07ecdcc96256ae8d5b80,611e75b0cbfc55a46d9a2ef4,
,,,,,,,0,119,119,289,1,Q, , , , ,space,2000,2,5d5ac30f0cfdb7000151c903,001,2021-08-19_16h16.22.667,natb3,2021.2.3,MacIntel,60.0024001,5d5ac30f0cfdb7000151c903,611e07ecdcc96256ae8d5b80,611e75b0cbfc55a46d9a2ef4,
,,,,,,,0,120,120,24,1,L, , , , ,space,2500,2.5,5d5ac30f0cfdb7000151c903,001,2021-08-19_16h16.22.667,natb3,2021.2.3,MacIntel,60.0024001,5d5ac30f0cfdb7000151c903,611e07ecdcc96256ae8d5b80,611e75b0cbfc55a46d9a2ef4,
,,,,,,,0,121,121,29,1,B, , , , ,space,1500,1.5,5d5ac30f0cfdb7000151c903,001,2021-08-19_16h16.22.667,natb3,2021.2.3,MacIntel,60.0024001,5d5ac30f0cfdb7000151c903,611e07ecdcc96256ae8d5b80,611e75b0cbfc55a46d9a2ef4,
,,,,,,,0,122,122,174,1,B, , , , ,space,2500,2.5,5d5ac30f0cfdb7000151c903,001,2021-08-19_16h16.22.667,natb3,2021.2.3,MacIntel,60.0024001,5d5ac30f0cfdb7000151c903,611e07ecdcc96256ae8d5b80,611e75b0cbfc55a46d9a2ef4,
,,,,space,0.8964,,0,123,123,218,1,X,1,3, ,8,,1500,1.5,5d5ac30f0cfdb7000151c903,001,2021-08-19_16h16.22.667,natb3,2021.2.3,MacIntel,60.0024001,5d5ac30f0cfdb7000151c903,611e07ecdcc96256ae8d5b80,611e75b0cbfc55a46d9a2ef4,
,,,,,,,0,124,124,112,1,Q, , , , ,space,2500,2.5,5d5ac30f0cfdb7000151c903,001,2021-08-19_16h16.22.667,natb3,2021.2.3,MacIntel,60.0024001,5d5ac30f0cfdb7000151c903,611e07ecdcc96256ae8d5b80,611e75b0cbfc55a46d9a2ef4,
,,,,,,,0,125,125,226,1,R, , , , ,space,2000,2,5d5ac30f0cfdb7000151c903,001,2021-08-19_16h16.22.667,natb3,2021.2.3,MacIntel,60.0024001,5d5ac30f0cfdb7000151c903,611e07ecdcc96256ae8d5b80,611e75b0cbfc55a46d9a2ef4,
,,,,,,,0,126,126,259,1,X,8, , ,3,,2500,2.5,5d5ac30f0cfdb7000151c903,001,2021-08-19_16h16.22.667,natb3,2021.2.3,MacIntel,60.0024001,5d5ac30f0cfdb7000151c903,611e07ecdcc96256ae8d5b80,611e75b0cbfc55a46d9a2ef4,
,,,,space,0.9261,,0,127,127,118,1,X, , , , ,,2000,2,5d5ac30f0cfdb7000151c903,001,2021-08-19_16h16.22.667,natb3,2021.2.3,MacIntel,60.0024001,5d5ac30f0cfdb7000151c903,611e07ecdcc96256ae8d5b80,611e75b0cbfc55a46d9a2ef4,
,,,,,,,0,128,128,55,1,H, , , , ,space,2500,2.5,5d5ac30f0cfdb7000151c903,001,2021-08-19_16h16.22.667,natb3,2021.2.3,MacIntel,60.0024001,5d5ac30f0cfdb7000151c903,611e07ecdcc96256ae8d5b80,611e75b0cbfc55a46d9a2ef4,
,,,,,,,0,129,129,128,1,D, , , , ,space,2500,2.5,5d5ac30f0cfdb7000151c903,001,2021-08-19_16h16.22.667,natb3,2021.2.3,MacIntel,60.0024001,5d5ac30f0cfdb7000151c903,611e07ecdcc96256ae8d5b80,611e75b0cbfc55a46d9a2ef4,
,,,,,,,0,130,130,102,1,X, ,6, , ,,1500,1.5,5d5ac30f0cfdb7000151c903,001,2021-08-19_16h16.22.667,natb3,2021.2.3,MacIntel,60.0024001,5d5ac30f0cfdb7000151c903,611e07ecdcc96256ae8d5b80,611e75b0cbfc55a46d9a2ef4,
,,,,,,,0,131,131,51,1,X,7,5,8, ,,1500,1.5,5d5ac30f0cfdb7000151c903,001,2021-08-19_16h16.22.667,natb3,2021.2.3,MacIntel,60.0024001,5d5ac30f0cfdb7000151c903,611e07ecdcc96256ae8d5b80,611e75b0cbfc55a46d9a2ef4,
,,,,,,,0,132,132,293,1,R, , , , ,space,2500,2.5,5d5ac30f0cfdb7000151c903,001,2021-08-19_16h16.22.667,natb3,2021.2.3,MacIntel,60.0024001,5d5ac30f0cfdb7000151c903,611e07ecdcc96256ae8d5b80,611e75b0cbfc55a46d9a2ef4,
,,,,,,,0,133,133,73,1,Y, , , , ,space,2000,2,5d5ac30f0cfdb7000151c903,001,2021-08-19_16h16.22.667,natb3,2021.2.3,MacIntel,60.0024001,5d5ac30f0cfdb7000151c903,611e07ecdcc96256ae8d5b80,611e75b0cbfc55a46d9a2ef4,
,,,,,,,0,134,134,249,1,C, , , , ,space,2000,2,5d5ac30f0cfdb7000151c903,001,2021-08-19_16h16.22.667,natb3,2021.2.3,MacIntel,60.0024001,5d5ac30f0cfdb7000151c903,611e07ecdcc96256ae8d5b80,611e75b0cbfc55a46d9a2ef4,
,,,,space,0.431,,0,135,135,58,1,L, , , , ,space,2000,2,5d5ac30f0cfdb7000151c903,001,2021-08-19_16h16.22.667,natb3,2021.2.3,MacIntel,60.0024001,5d5ac30f0cfdb7000151c903,611e07ecdcc96256ae8d5b80,611e75b0cbfc55a46d9a2ef4,
,,,,,,,0,136,136,153,1,X,4,7, ,6,,2000,2,5d5ac30f0cfdb7000151c903,001,2021-08-19_16h16.22.667,natb3,2021.2.3,MacIntel,60.0024001,5d5ac30f0cfdb7000151c903,611e07ecdcc96256ae8d5b80,611e75b0cbfc55a46d9a2ef4,
,,,,,,,0,137,137,229,1,X,8, ,2,6,,2500,2.5,5d5ac30f0cfdb7000151c903,001,2021-08-19_16h16.22.667,natb3,2021.2.3,MacIntel,60.0024001,5d5ac30f0cfdb7000151c903,611e07ecdcc96256ae8d5b80,611e75b0cbfc55a46d9a2ef4,
,,,,,,,0,138,138,46,1,X, , , , ,,2000,2,5d5ac30f0cfdb7000151c903,001,2021-08-19_16h16.22.667,natb3,2021.2.3,MacIntel,60.0024001,5d5ac30f0cfdb7000151c903,611e07ecdcc96256ae8d5b80,611e75b0cbfc55a46d9a2ef4,
,,,,,,,0,139,139,243,1,X, , , , ,,2500,2.5,5d5ac30f0cfdb7000151c903,001,2021-08-19_16h16.22.667,natb3,2021.2.3,MacIntel,60.0024001,5d5ac30f0cfdb7000151c903,611e07ecdcc96256ae8d5b80,611e75b0cbfc55a46d9a2ef4,
,,,,,,,0,140,140,270,1,S, , , , ,space,1500,1.5,5d5ac30f0cfdb7000151c903,001,2021-08-19_16h16.22.667,natb3,2021.2.3,MacIntel,60.0024001,5d5ac30f0cfdb7000151c903,611e07ecdcc96256ae8d5b80,611e75b0cbfc55a46d9a2ef4,
,,,,,,,0,141,141,14,1,S, , , , ,space,2500,2.5,5d5ac30f0cfdb7000151c903,001,2021-08-19_16h16.22.667,natb3,2021.2.3,MacIntel,60.0024001,5d5ac30f0cfdb7000151c903,611e07ecdcc96256ae8d5b80,611e75b0cbfc55a46d9a2ef4,
,,,,,,,0,142,142,32,1,M, , , , ,space,1500,1.5,5d5ac30f0cfdb7000151c903,001,2021-08-19_16h16.22.667,natb3,2021.2.3,MacIntel,60.0024001,5d5ac30f0cfdb7000151c903,611e07ecdcc96256ae8d5b80,611e75b0cbfc55a46d9a2ef4,
,,,,space,0.7271,,0,143,143,297,1,U, , , , ,space,2000,2,5d5ac30f0cfdb7000151c903,001,2021-08-19_16h16.22.667,natb3,2021.2.3,MacIntel,60.0024001,5d5ac30f0cfdb7000151c903,611e07ecdcc96256ae8d5b80,611e75b0cbfc55a46d9a2ef4,
,,,,,,,0,144,144,208,1,B, , , , ,space,1500,1.5,5d5ac30f0cfdb7000151c903,001,2021-08-19_16h16.22.667,natb3,2021.2.3,MacIntel,60.0024001,5d5ac30f0cfdb7000151c903,611e07ecdcc96256ae8d5b80,611e75b0cbfc55a46d9a2ef4,
,,,,,,,0,145,145,108,1,Y, , , , ,space,2500,2.5,5d5ac30f0cfdb7000151c903,001,2021-08-19_16h16.22.667,natb3,2021.2.3,MacIntel,60.0024001,5d5ac30f0cfdb7000151c903,611e07ecdcc96256ae8d5b80,611e75b0cbfc55a46d9a2ef4,
,,,,space,0.5272,,0,146,146,261,1,T, , , , ,space,2000,2,5d5ac30f0cfdb7000151c903,001,2021-08-19_16h16.22.667,natb3,2021.2.3,MacIntel,60.0024001,5d5ac30f0cfdb7000151c903,611e07ecdcc96256ae8d5b80,611e75b0cbfc55a46d9a2ef4,
,,,,,,,0,147,147,132,1,H, , , , ,space,2500,2.5,5d5ac30f0cfdb7000151c903,001,2021-08-19_16h16.22.667,natb3,2021.2.3,MacIntel,60.0024001,5d5ac30f0cfdb7000151c903,611e07ecdcc96256ae8d5b80,611e75b0cbfc55a46d9a2ef4,
,,,,space,0.6834,,0,148,148,47,1,P, , , , ,space,2000,2,5d5ac30f0cfdb7000151c903,001,2021-08-19_16h16.22.667,natb3,2021.2.3,MacIntel,60.0024001,5d5ac30f0cfdb7000151c903,611e07ecdcc96256ae8d5b80,611e75b0cbfc55a46d9a2ef4,
,,,,space,0.675,,0,149,149,199,1,J, , , , ,space,2500,2.5,5d5ac30f0cfdb7000151c903,001,2021-08-19_16h16.22.667,natb3,2021.2.3,MacIntel,60.0024001,5d5ac30f0cfdb7000151c903,611e07ecdcc96256ae8d5b80,611e75b0cbfc55a46d9a2ef4,
,,,,,,,0,150,150,104,1,E, , , , ,space,2000,2,5d5ac30f0cfdb7000151c903,001,2021-08-19_16h16.22.667,natb3,2021.2.3,MacIntel,60.0024001,5d5ac30f0cfdb7000151c903,611e07ecdcc96256ae8d5b80,611e75b0cbfc55a46d9a2ef4,
,,,,space,0.4577,,0,151,151,87,1,H, , , , ,space,1500,1.5,5d5ac30f0cfdb7000151c903,001,2021-08-19_16h16.22.667,natb3,2021.2.3,MacIntel,60.0024001,5d5ac30f0cfdb7000151c903,611e07ecdcc96256ae8d5b80,611e75b0cbfc55a46d9a2ef4,
,,,,space,0.0935,,0,152,152,241,1,G, , , , ,space,2500,2.5,5d5ac30f0cfdb7000151c903,001,2021-08-19_16h16.22.667,natb3,2021.2.3,MacIntel,60.0024001,5d5ac30f0cfdb7000151c903,611e07ecdcc96256ae8d5b80,611e75b0cbfc55a46d9a2ef4,
,,,,space,0.1235,,0,153,153,22,1,K, , , , ,space,2000,2,5d5ac30f0cfdb7000151c903,001,2021-08-19_16h16.22.667,natb3,2021.2.3,MacIntel,60.0024001,5d5ac30f0cfdb7000151c903,611e07ecdcc96256ae8d5b80,611e75b0cbfc55a46d9a2ef4,
,,,,space,0.5779,,0,154,154,143,1,M, , , , ,space,2500,2.5,5d5ac30f0cfdb7000151c903,001,2021-08-19_16h16.22.667,natb3,2021.2.3,MacIntel,60.0024001,5d5ac30f0cfdb7000151c903,611e07ecdcc96256ae8d5b80,611e75b0cbfc55a46d9a2ef4,
,,,,,,,0,155,155,186,1,U, , , , ,space,2500,2.5,5d5ac30f0cfdb7000151c903,001,2021-08-19_16h16.22.667,natb3,2021.2.3,MacIntel,60.0024001,5d5ac30f0cfdb7000151c903,611e07ecdcc96256ae8d5b80,611e75b0cbfc55a46d9a2ef4,
,,,,,,,0,156,156,0,1,Q, , , , ,space,1500,1.5,5d5ac30f0cfdb7000151c903,001,2021-08-19_16h16.22.667,natb3,2021.2.3,MacIntel,60.0024001,5d5ac30f0cfdb7000151c903,611e07ecdcc96256ae8d5b80,611e75b0cbfc55a46d9a2ef4,
,,,,space,0.1947,,0,157,157,155,1,O, , , , ,space,1500,1.5,5d5ac30f0cfdb7000151c903,001,2021-08-19_16h16.22.667,natb3,2021.2.3,MacIntel,60.0024001,5d5ac30f0cfdb7000151c903,611e07ecdcc96256ae8d5b80,611e75b0cbfc55a46d9a2ef4,
,,,,,,,0,158,158,322,1,X, , ,1,6,,2000,2,5d5ac30f0cfdb7000151c903,001,2021-08-19_16h16.22.667,natb3,2021.2.3,MacIntel,60.0024001,5d5ac30f0cfdb7000151c903,611e07ecdcc96256ae8d5b80,611e75b0cbfc55a46d9a2ef4,
,,,,space,0.3935,,0,159,159,185,1,Y, , , , ,space,2500,2.5,5d5ac30f0cfdb7000151c903,001,2021-08-19_16h16.22.667,natb3,2021.2.3,MacIntel,60.0024001,5d5ac30f0cfdb7000151c903,611e07ecdcc96256ae8d5b80,611e75b0cbfc55a46d9a2ef4,
,,,,space,0.4721,,0,160,160,61,1,C, , , , ,space,2000,2,5d5ac30f0cfdb7000151c903,001,2021-08-19_16h16.22.667,natb3,2021.2.3,MacIntel,60.0024001,5d5ac30f0cfdb7000151c903,611e07ecdcc96256ae8d5b80,611e75b0cbfc55a46d9a2ef4,
,,,,space,0.4096,,0,161,161,169,1,L, , , , ,space,2500,2.5,5d5ac30f0cfdb7000151c903,001,2021-08-19_16h16.22.667,natb3,2021.2.3,MacIntel,60.0024001,5d5ac30f0cfdb7000151c903,611e07ecdcc96256ae8d5b80,611e75b0cbfc55a46d9a2ef4,
,,,,space,0.5886,,0,162,162,86,1,G, , , , ,space,2000,2,5d5ac30f0cfdb7000151c903,001,2021-08-19_16h16.22.667,natb3,2021.2.3,MacIntel,60.0024001,5d5ac30f0cfdb7000151c903,611e07ecdcc96256ae8d5b80,611e75b0cbfc55a46d9a2ef4,
,,,,space,0.3834,,0,163,163,283,1,C, , , , ,space,1500,1.5,5d5ac30f0cfdb7000151c903,001,2021-08-19_16h16.22.667,natb3,2021.2.3,MacIntel,60.0024001,5d5ac30f0cfdb7000151c903,611e07ecdcc96256ae8d5b80,611e75b0cbfc55a46d9a2ef4,
,,,,space,0.4778,,0,164,164,68,1,W, , , , ,space,2500,2.5,5d5ac30f0cfdb7000151c903,001,2021-08-19_16h16.22.667,natb3,2021.2.3,MacIntel,60.0024001,5d5ac30f0cfdb7000151c903,611e07ecdcc96256ae8d5b80,611e75b0cbfc55a46d9a2ef4,
,,,,space,0.3599,,0,165,165,192,1,A, , , , ,space,2000,2,5d5ac30f0cfdb7000151c903,001,2021-08-19_16h16.22.667,natb3,2021.2.3,MacIntel,60.0024001,5d5ac30f0cfdb7000151c903,611e07ecdcc96256ae8d5b80,611e75b0cbfc55a46d9a2ef4,
,,,,space,0.3935,,0,166,166,188,1,I, , , , ,space,2500,2.5,5d5ac30f0cfdb7000151c903,001,2021-08-19_16h16.22.667,natb3,2021.2.3,MacIntel,60.0024001,5d5ac30f0cfdb7000151c903,611e07ecdcc96256ae8d5b80,611e75b0cbfc55a46d9a2ef4,
,,,,space,0.4098,space,0,167,167,258,1,E, , , , ,space,1500,1.5,5d5ac30f0cfdb7000151c903,001,2021-08-19_16h16.22.667,natb3,2021.2.3,MacIntel,60.0024001,5d5ac30f0cfdb7000151c903,611e07ecdcc96256ae8d5b80,611e75b0cbfc55a46d9a2ef4,8.6163
,,,,space,0.5471,,0,168,168,127,1,S, , , , ,space,2500,2.5,5d5ac30f0cfdb7000151c903,001,2021-08-19_16h16.22.667,natb3,2021.2.3,MacIntel,60.0024001,5d5ac30f0cfdb7000151c903,611e07ecdcc96256ae8d5b80,611e75b0cbfc55a46d9a2ef4,
,,,,,,,0,169,169,141,1,X,1, ,4,6,,1500,1.5,5d5ac30f0cfdb7000151c903,001,2021-08-19_16h16.22.667,natb3,2021.2.3,MacIntel,60.0024001,5d5ac30f0cfdb7000151c903,611e07ecdcc96256ae8d5b80,611e75b0cbfc55a46d9a2ef4,
,,,,,,,0,170,170,35,1,X, , , , ,,2500,2.5,5d5ac30f0cfdb7000151c903,001,2021-08-19_16h16.22.667,natb3,2021.2.3,MacIntel,60.0024001,5d5ac30f0cfdb7000151c903,611e07ecdcc96256ae8d5b80,611e75b0cbfc55a46d9a2ef4,
,,,,,,,0,171,171,31,1,X, , , , ,,1500,1.5,5d5ac30f0cfdb7000151c903,001,2021-08-19_16h16.22.667,natb3,2021.2.3,MacIntel,60.0024001,5d5ac30f0cfdb7000151c903,611e07ecdcc96256ae8d5b80,611e75b0cbfc55a46d9a2ef4,
,,,,space,0.6123,,0,172,172,106,1,T, , , , ,space,1500,1.5,5d5ac30f0cfdb7000151c903,001,2021-08-19_16h16.22.667,natb3,2021.2.3,MacIntel,60.0024001,5d5ac30f0cfdb7000151c903,611e07ecdcc96256ae8d5b80,611e75b0cbfc55a46d9a2ef4,
,,,,space,0.5099,,0,173,173,296,1,Y, , , , ,space,2500,2.5,5d5ac30f0cfdb7000151c903,001,2021-08-19_16h16.22.667,natb3,2021.2.3,MacIntel,60.0024001,5d5ac30f0cfdb7000151c903,611e07ecdcc96256ae8d5b80,611e75b0cbfc55a46d9a2ef4,
,,,,space,0.5726,,0,174,174,41,1,Y, , , , ,space,2500,2.5,5d5ac30f0cfdb7000151c903,001,2021-08-19_16h16.22.667,natb3,2021.2.3,MacIntel,60.0024001,5d5ac30f0cfdb7000151c903,611e07ecdcc96256ae8d5b80,611e75b0cbfc55a46d9a2ef4,
,,,,,,,0,175,175,325,1,X, , , , ,,2500,2.5,5d5ac30f0cfdb7000151c903,001,2021-08-19_16h16.22.667,natb3,2021.2.3,MacIntel,60.0024001,5d5ac30f0cfdb7000151c903,611e07ecdcc96256ae8d5b80,611e75b0cbfc55a46d9a2ef4,
,,,,space,0.6093,,0,176,176,59,1,Z, , , , ,space,2000,2,5d5ac30f0cfdb7000151c903,001,2021-08-19_16h16.22.667,natb3,2021.2.3,MacIntel,60.0024001,5d5ac30f0cfdb7000151c903,611e07ecdcc96256ae8d5b80,611e75b0cbfc55a46d9a2ef4,
,,,,space,0.6125,,0,177,177,316,1,Z, , , , ,space,1500,1.5,5d5ac30f0cfdb7000151c903,001,2021-08-19_16h16.22.667,natb3,2021.2.3,MacIntel,60.0024001,5d5ac30f0cfdb7000151c903,611e07ecdcc96256ae8d5b80,611e75b0cbfc55a46d9a2ef4,
,,,,,,,0,178,178,138,1,X,8,5, ,3,,2000,2,5d5ac30f0cfdb7000151c903,001,2021-08-19_16h16.22.667,natb3,2021.2.3,MacIntel,60.0024001,5d5ac30f0cfdb7000151c903,611e07ecdcc96256ae8d5b80,611e75b0cbfc55a46d9a2ef4,
,,,,,,,0,179,179,178,1,Q, , , , ,space,1500,1.5,5d5ac30f0cfdb7000151c903,001,2021-08-19_16h16.22.667,natb3,2021.2.3,MacIntel,60.0024001,5d5ac30f0cfdb7000151c903,611e07ecdcc96256ae8d5b80,611e75b0cbfc55a46d9a2ef4,
,,,,space,0.6651,,0,180,180,333,1,I, , , , ,space,1500,1.5,5d5ac30f0cfdb7000151c903,001,2021-08-19_16h16.22.667,natb3,2021.2.3,MacIntel,60.0024001,5d5ac30f0cfdb7000151c903,611e07ecdcc96256ae8d5b80,611e75b0cbfc55a46d9a2ef4,
,,,,,,,0,181,181,225,1,E, , , , ,space,2000,2,5d5ac30f0cfdb7000151c903,001,2021-08-19_16h16.22.667,natb3,2021.2.3,MacIntel,60.0024001,5d5ac30f0cfdb7000151c903,611e07ecdcc96256ae8d5b80,611e75b0cbfc55a46d9a2ef4,
,,,,space,0.1807,,0,182,182,65,1,M, , , , ,space,1500,1.5,5d5ac30f0cfdb7000151c903,001,2021-08-19_16h16.22.667,natb3,2021.2.3,MacIntel,60.0024001,5d5ac30f0cfdb7000151c903,611e07ecdcc96256ae8d5b80,611e75b0cbfc55a46d9a2ef4,
,,,,space,0.7558,,0,183,183,288,1,M, , , , ,space,1500,1.5,5d5ac30f0cfdb7000151c903,001,2021-08-19_16h16.22.667,natb3,2021.2.3,MacIntel,60.0024001,5d5ac30f0cfdb7000151c903,611e07ecdcc96256ae8d5b80,611e75b0cbfc55a46d9a2ef4,
,,,,space,0.8828,,0,184,184,110,1,I, , , , ,space,1500,1.5,5d5ac30f0cfdb7000151c903,001,2021-08-19_16h16.22.667,natb3,2021.2.3,MacIntel,60.0024001,5d5ac30f0cfdb7000151c903,611e07ecdcc96256ae8d5b80,611e75b0cbfc55a46d9a2ef4,
,,,,space,0.6115,,0,185,185,175,1,X,7, ,4,2,,1500,1.5,5d5ac30f0cfdb7000151c903,001,2021-08-19_16h16.22.667,natb3,2021.2.3,MacIntel,60.0024001,5d5ac30f0cfdb7000151c903,611e07ecdcc96256ae8d5b80,611e75b0cbfc55a46d9a2ef4,
,,,,space,0.5373,,0,186,186,103,1,W, , , , ,space,2000,2,5d5ac30f0cfdb7000151c903,001,2021-08-19_16h16.22.667,natb3,2021.2.3,MacIntel,60.0024001,5d5ac30f0cfdb7000151c903,611e07ecdcc96256ae8d5b80,611e75b0cbfc55a46d9a2ef4,
,,,,space,0.5666,,0,187,187,21,1,J, , , , ,space,1500,1.5,5d5ac30f0cfdb7000151c903,001,2021-08-19_16h16.22.667,natb3,2021.2.3,MacIntel,60.0024001,5d5ac30f0cfdb7000151c903,611e07ecdcc96256ae8d5b80,611e75b0cbfc55a46d9a2ef4,
,,,,,,,0,188,188,311,1,X,1,2,7,3,,2500,2.5,5d5ac30f0cfdb7000151c903,001,2021-08-19_16h16.22.667,natb3,2021.2.3,MacIntel,60.0024001,5d5ac30f0cfdb7000151c903,611e07ecdcc96256ae8d5b80,611e75b0cbfc55a46d9a2ef4,
,,,,,,,0,189,189,271,1,X, , , , ,,2500,2.5,5d5ac30f0cfdb7000151c903,001,2021-08-19_16h16.22.667,natb3,2021.2.3,MacIntel,60.0024001,5d5ac30f0cfdb7000151c903,611e07ecdcc96256ae8d5b80,611e75b0cbfc55a46d9a2ef4,
,,,,,,,0,190,190,116,1,X, , , , ,,2000,2,5d5ac30f0cfdb7000151c903,001,2021-08-19_16h16.22.667,natb3,2021.2.3,MacIntel,60.0024001,5d5ac30f0cfdb7000151c903,611e07ecdcc96256ae8d5b80,611e75b0cbfc55a46d9a2ef4,
,,,,space,0.5478,,0,191,191,245,1,K, , , , ,space,2000,2,5d5ac30f0cfdb7000151c903,001,2021-08-19_16h16.22.667,natb3,2021.2.3,MacIntel,60.0024001,5d5ac30f0cfdb7000151c903,611e07ecdcc96256ae8d5b80,611e75b0cbfc55a46d9a2ef4,
,,,,,,,0,192,192,295,1,X,8,7,5, ,,2500,2.5,5d5ac30f0cfdb7000151c903,001,2021-08-19_16h16.22.667,natb3,2021.2.3,MacIntel,60.0024001,5d5ac30f0cfdb7000151c903,611e07ecdcc96256ae8d5b80,611e75b0cbfc55a46d9a2ef4,
,,,,space,0.5097,,0,193,193,210,1,M, , , , ,space,1500,1.5,5d5ac30f0cfdb7000151c903,001,2021-08-19_16h16.22.667,natb3,2021.2.3,MacIntel,60.0024001,5d5ac30f0cfdb7000151c903,611e07ecdcc96256ae8d5b80,611e75b0cbfc55a46d9a2ef4,
,,,,space,0.4645,,0,194,194,172,1,C, , , , ,space,1500,1.5,5d5ac30f0cfdb7000151c903,001,2021-08-19_16h16.22.667,natb3,2021.2.3,MacIntel,60.0024001,5d5ac30f0cfdb7000151c903,611e07ecdcc96256ae8d5b80,611e75b0cbfc55a46d9a2ef4,
,,,,space,0.5624,,0,195,195,37,1,E, , , , ,space,2500,2.5,5d5ac30f0cfdb7000151c903,001,2021-08-19_16h16.22.667,natb3,2021.2.3,MacIntel,60.0024001,5d5ac30f0cfdb7000151c903,611e07ecdcc96256ae8d5b80,611e75b0cbfc55a46d9a2ef4,
,,,,space,0.3939,,0,196,196,117,1,T, , , , ,space,2500,2.5,5d5ac30f0cfdb7000151c903,001,2021-08-19_16h16.22.667,natb3,2021.2.3,MacIntel,60.0024001,5d5ac30f0cfdb7000151c903,611e07ecdcc96256ae8d5b80,611e75b0cbfc55a46d9a2ef4,
,,,,,,,0,197,197,107,1,X,9,3, ,2,,2000,2,5d5ac30f0cfdb7000151c903,001,2021-08-19_16h16.22.667,natb3,2021.2.3,MacIntel,60.0024001,5d5ac30f0cfdb7000151c903,611e07ecdcc96256ae8d5b80,611e75b0cbfc55a46d9a2ef4,
,,,,space,0.4448,,0,198,198,205,1,C, , , , ,space,2000,2,5d5ac30f0cfdb7000151c903,001,2021-08-19_16h16.22.667,natb3,2021.2.3,MacIntel,60.0024001,5d5ac30f0cfdb7000151c903,611e07ecdcc96256ae8d5b80,611e75b0cbfc55a46d9a2ef4,
,,,,space,0.5913,,0,199,199,135,1,K, , , , ,space,1500,1.5,5d5ac30f0cfdb7000151c903,001,2021-08-19_16h16.22.667,natb3,2021.2.3,MacIntel,60.0024001,5d5ac30f0cfdb7000151c903,611e07ecdcc96256ae8d5b80,611e75b0cbfc55a46d9a2ef4,
,,,,space,0.543,,0,200,200,305,1,X, , , , ,,1500,1.5,5d5ac30f0cfdb7000151c903,001,2021-08-19_16h16.22.667,natb3,2021.2.3,MacIntel,60.0024001,5d5ac30f0cfdb7000151c903,611e07ecdcc96256ae8d5b80,611e75b0cbfc55a46d9a2ef4,
,,,,space,0.7231,,0,201,201,80,1,A, , , , ,space,2000,2,5d5ac30f0cfdb7000151c903,001,2021-08-19_16h16.22.667,natb3,2021.2.3,MacIntel,60.0024001,5d5ac30f0cfdb7000151c903,611e07ecdcc96256ae8d5b80,611e75b0cbfc55a46d9a2ef4,
,,,,space,0.6587,,0,202,202,30,1,N, , , , ,space,2500,2.5,5d5ac30f0cfdb7000151c903,001,2021-08-19_16h16.22.667,natb3,2021.2.3,MacIntel,60.0024001,5d5ac30f0cfdb7000151c903,611e07ecdcc96256ae8d5b80,611e75b0cbfc55a46d9a2ef4,
,,,,space,0.4261,,0,203,203,115,1,R, , , , ,space,1500,1.5,5d5ac30f0cfdb7000151c903,001,2021-08-19_16h16.22.667,natb3,2021.2.3,MacIntel,60.0024001,5d5ac30f0cfdb7000151c903,611e07ecdcc96256ae8d5b80,611e75b0cbfc55a46d9a2ef4,
,,,,space,0.7414,,0,204,204,334,1,O, , , , ,space,1500,1.5,5d5ac30f0cfdb7000151c903,001,2021-08-19_16h16.22.667,natb3,2021.2.3,MacIntel,60.0024001,5d5ac30f0cfdb7000151c903,611e07ecdcc96256ae8d5b80,611e75b0cbfc55a46d9a2ef4,
,,,,,,,0,205,205,273,1,X, , , , ,,2000,2,5d5ac30f0cfdb7000151c903,001,2021-08-19_16h16.22.667,natb3,2021.2.3,MacIntel,60.0024001,5d5ac30f0cfdb7000151c903,611e07ecdcc96256ae8d5b80,611e75b0cbfc55a46d9a2ef4,
,,,,,,,0,206,206,221,1,I, , , , ,space,2500,2.5,5d5ac30f0cfdb7000151c903,001,2021-08-19_16h16.22.667,natb3,2021.2.3,MacIntel,60.0024001,5d5ac30f0cfdb7000151c903,611e07ecdcc96256ae8d5b80,611e75b0cbfc55a46d9a2ef4,
,,,,space,0.6746,,0,207,207,95,1,V, , , , ,space,1500,1.5,5d5ac30f0cfdb7000151c903,001,2021-08-19_16h16.22.667,natb3,2021.2.3,MacIntel,60.0024001,5d5ac30f0cfdb7000151c903,611e07ecdcc96256ae8d5b80,611e75b0cbfc55a46d9a2ef4,
,,,,,,,0,208,208,98,1,X, , , , ,,2500,2.5,5d5ac30f0cfdb7000151c903,001,2021-08-19_16h16.22.667,natb3,2021.2.3,MacIntel,60.0024001,5d5ac30f0cfdb7000151c903,611e07ecdcc96256ae8d5b80,611e75b0cbfc55a46d9a2ef4,
,,,,space,0.6075,,0,209,209,216,1,R, , , , ,space,1500,1.5,5d5ac30f0cfdb7000151c903,001,2021-08-19_16h16.22.667,natb3,2021.2.3,MacIntel,60.0024001,5d5ac30f0cfdb7000151c903,611e07ecdcc96256ae8d5b80,611e75b0cbfc55a46d9a2ef4,
,,,,,,,0,210,210,211,1,X, , , , ,,2500,2.5,5d5ac30f0cfdb7000151c903,001,2021-08-19_16h16.22.667,natb3,2021.2.3,MacIntel,60.0024001,5d5ac30f0cfdb7000151c903,611e07ecdcc96256ae8d5b80,611e75b0cbfc55a46d9a2ef4,
,,,,space,0.5277,,0,211,211,272,1,D, , , , ,space,2000,2,5d5ac30f0cfdb7000151c903,001,2021-08-19_16h16.22.667,natb3,2021.2.3,MacIntel,60.0024001,5d5ac30f0cfdb7000151c903,611e07ecdcc96256ae8d5b80,611e75b0cbfc55a46d9a2ef4,
,,,,space,0.5123,,0,212,212,99,1,N, , , , ,space,2500,2.5,5d5ac30f0cfdb7000151c903,001,2021-08-19_16h16.22.667,natb3,2021.2.3,MacIntel,60.0024001,5d5ac30f0cfdb7000151c903,611e07ecdcc96256ae8d5b80,611e75b0cbfc55a46d9a2ef4,
,,,,space,0.3926,,0,213,213,230,1,U, , , , ,space,1500,1.5,5d5ac30f0cfdb7000151c903,001,2021-08-19_16h16.22.667,natb3,2021.2.3,MacIntel,60.0024001,5d5ac30f0cfdb7000151c903,611e07ecdcc96256ae8d5b80,611e75b0cbfc55a46d9a2ef4,
,,,,space,0.394,,0,214,214,292,1,E, , , , ,space,2000,2,5d5ac30f0cfdb7000151c903,001,2021-08-19_16h16.22.667,natb3,2021.2.3,MacIntel,60.0024001,5d5ac30f0cfdb7000151c903,611e07ecdcc96256ae8d5b80,611e75b0cbfc55a46d9a2ef4,
,,,,space,0.4281,,0,215,215,150,1,T, , , , ,space,2500,2.5,5d5ac30f0cfdb7000151c903,001,2021-08-19_16h16.22.667,natb3,2021.2.3,MacIntel,60.0024001,5d5ac30f0cfdb7000151c903,611e07ecdcc96256ae8d5b80,611e75b0cbfc55a46d9a2ef4,
,,,,space,0.3931,,0,216,216,328,1,R, , , , ,space,1500,1.5,5d5ac30f0cfdb7000151c903,001,2021-08-19_16h16.22.667,natb3,2021.2.3,MacIntel,60.0024001,5d5ac30f0cfdb7000151c903,611e07ecdcc96256ae8d5b80,611e75b0cbfc55a46d9a2ef4,
,,,,space,0.4747,,0,217,217,88,1,J, , , , ,space,2500,2.5,5d5ac30f0cfdb7000151c903,001,2021-08-19_16h16.22.667,natb3,2021.2.3,MacIntel,60.0024001,5d5ac30f0cfdb7000151c903,611e07ecdcc96256ae8d5b80,611e75b0cbfc55a46d9a2ef4,
,,,,space,0.3978,,0,218,218,100,1,M, , , , ,space,2000,2,5d5ac30f0cfdb7000151c903,001,2021-08-19_16h16.22.667,natb3,2021.2.3,MacIntel,60.0024001,5d5ac30f0cfdb7000151c903,611e07ecdcc96256ae8d5b80,611e75b0cbfc55a46d9a2ef4,
,,,,space,0.4615,,0,219,219,257,1,W, , , , ,space,2000,2,5d5ac30f0cfdb7000151c903,001,2021-08-19_16h16.22.667,natb3,2021.2.3,MacIntel,60.0024001,5d5ac30f0cfdb7000151c903,611e07ecdcc96256ae8d5b80,611e75b0cbfc55a46d9a2ef4,
,,,,space,0.8046,,0,220,220,76,1,I, , , , ,space,2000,2,5d5ac30f0cfdb7000151c903,001,2021-08-19_16h16.22.667,natb3,2021.2.3,MacIntel,60.0024001,5d5ac30f0cfdb7000151c903,611e07ecdcc96256ae8d5b80,611e75b0cbfc55a46d9a2ef4,
,,,,space,0.5834,,0,221,221,276,1,H, , , , ,space,2000,2,5d5ac30f0cfdb7000151c903,001,2021-08-19_16h16.22.667,natb3,2021.2.3,MacIntel,60.0024001,5d5ac30f0cfdb7000151c903,611e07ecdcc96256ae8d5b80,611e75b0cbfc55a46d9a2ef4,
,,,,space,0.0191,,0,222,222,207,1,X,9, ,2, ,,2500,2.5,5d5ac30f0cfdb7000151c903,001,2021-08-19_16h16.22.667,natb3,2021.2.3,MacIntel,60.0024001,5d5ac30f0cfdb7000151c903,611e07ecdcc96256ae8d5b80,611e75b0cbfc55a46d9a2ef4,
,,,,space,0.5799,,0,223,223,42,1,U, , , , ,space,1500,1.5,5d5ac30f0cfdb7000151c903,001,2021-08-19_16h16.22.667,natb3,2021.2.3,MacIntel,60.0024001,5d5ac30f0cfdb7000151c903,611e07ecdcc96256ae8d5b80,611e75b0cbfc55a46d9a2ef4,
,,,,,,,0,224,224,162,1,X,1,6, ,2,,1500,1.5,5d5ac30f0cfdb7000151c903,001,2021-08-19_16h16.22.667,natb3,2021.2.3,MacIntel,60.0024001,5d5ac30f0cfdb7000151c903,611e07ecdcc96256ae8d5b80,611e75b0cbfc55a46d9a2ef4,
,,,,space,0.6087,,0,225,225,81,1,S, , , , ,space,2000,2,5d5ac30f0cfdb7000151c903,001,2021-08-19_16h16.22.667,natb3,2021.2.3,MacIntel,60.0024001,5d5ac30f0cfdb7000151c903,611e07ecdcc96256ae8d5b80,611e75b0cbfc55a46d9a2ef4,
,,,,,,,0,226,226,187,1,X, ,3,7,4,,1500,1.5,5d5ac30f0cfdb7000151c903,001,2021-08-19_16h16.22.667,natb3,2021.2.3,MacIntel,60.0024001,5d5ac30f0cfdb7000151c903,611e07ecdcc96256ae8d5b80,611e75b0cbfc55a46d9a2ef4,
,,,,,,,0,227,227,18,1,X, ,2,5,8,,2500,2.5,5d5ac30f0cfdb7000151c903,001,2021-08-19_16h16.22.667,natb3,2021.2.3,MacIntel,60.0024001,5d5ac30f0cfdb7000151c903,611e07ecdcc96256ae8d5b80,611e75b0cbfc55a46d9a2ef4,
,,,,space,0.645,,0,228,228,309,1,H, , , , ,space,2500,2.5,5d5ac30f0cfdb7000151c903,001,2021-08-19_16h16.22.667,natb3,2021.2.3,MacIntel,60.0024001,5d5ac30f0cfdb7000151c903,611e07ecdcc96256ae8d5b80,611e75b0cbfc55a46d9a2ef4,
,,,,,,,0,229,229,268,1,X,6, ,3, ,,2500,2.5,5d5ac30f0cfdb7000151c903,001,2021-08-19_16h16.22.667,natb3,2021.2.3,MacIntel,60.0024001,5d5ac30f0cfdb7000151c903,611e07ecdcc96256ae8d5b80,611e75b0cbfc55a46d9a2ef4,
,,,,,,,0,230,230,23,1,X,1, ,5, ,,2000,2,5d5ac30f0cfdb7000151c903,001,2021-08-19_16h16.22.667,natb3,2021.2.3,MacIntel,60.0024001,5d5ac30f0cfdb7000151c903,611e07ecdcc96256ae8d5b80,611e75b0cbfc55a46d9a2ef4,
,,,,space,0.4416,,0,231,231,114,1,E, , , , ,space,2000,2,5d5ac30f0cfdb7000151c903,001,2021-08-19_16h16.22.667,natb3,2021.2.3,MacIntel,60.0024001,5d5ac30f0cfdb7000151c903,611e07ecdcc96256ae8d5b80,611e75b0cbfc55a46d9a2ef4,
,,,,space,0.6834,,0,232,232,77,1,O, , , , ,space,2000,2,5d5ac30f0cfdb7000151c903,001,2021-08-19_16h16.22.667,natb3,2021.2.3,MacIntel,60.0024001,5d5ac30f0cfdb7000151c903,611e07ecdcc96256ae8d5b80,611e75b0cbfc55a46d9a2ef4,
,,,,space,0.5825,,0,233,233,90,1,K, , , , ,space,2000,2,5d5ac30f0cfdb7000151c903,001,2021-08-19_16h16.22.667,natb3,2021.2.3,MacIntel,60.0024001,5d5ac30f0cfdb7000151c903,611e07ecdcc96256ae8d5b80,611e75b0cbfc55a46d9a2ef4,
,,,,,,,0,234,234,287,1,X, ,2, ,9,,2000,2,5d5ac30f0cfdb7000151c903,001,2021-08-19_16h16.22.667,natb3,2021.2.3,MacIntel,60.0024001,5d5ac30f0cfdb7000151c903,611e07ecdcc96256ae8d5b80,611e75b0cbfc55a46d9a2ef4,
,,,,space,0.94,,0,235,235,253,1,N, , , , ,space,2500,2.5,5d5ac30f0cfdb7000151c903,001,2021-08-19_16h16.22.667,natb3,2021.2.3,MacIntel,60.0024001,5d5ac30f0cfdb7000151c903,611e07ecdcc96256ae8d5b80,611e75b0cbfc55a46d9a2ef4,
,,,,space,0.825,,0,236,236,19,1,G, , , , ,space,1500,1.5,5d5ac30f0cfdb7000151c903,001,2021-08-19_16h16.22.667,natb3,2021.2.3,MacIntel,60.0024001,5d5ac30f0cfdb7000151c903,611e07ecdcc96256ae8d5b80,611e75b0cbfc55a46d9a2ef4,
,,,,,,,0,237,237,27,1,X,5, ,1,3,,1500,1.5,5d5ac30f0cfdb7000151c903,001,2021-08-19_16h16.22.667,natb3,2021.2.3,MacIntel,60.0024001,5d5ac30f0cfdb7000151c903,611e07ecdcc96256ae8d5b80,611e75b0cbfc55a46d9a2ef4,
,,,,space,0.7864,,0,238,238,160,1,D, , , , ,space,1500,1.5,5d5ac30f0cfdb7000151c903,001,2021-08-19_16h16.22.667,natb3,2021.2.3,MacIntel,60.0024001,5d5ac30f0cfdb7000151c903,611e07ecdcc96256ae8d5b80,611e75b0cbfc55a46d9a2ef4,
,,,,space,0.4288,,0,239,239,284,1,V, , , , ,space,2500,2.5,5d5ac30f0cfdb7000151c903,001,2021-08-19_16h16.22.667,natb3,2021.2.3,MacIntel,60.0024001,5d5ac30f0cfdb7000151c903,611e07ecdcc96256ae8d5b80,611e75b0cbfc55a46d9a2ef4,
,,,,,,,0,240,240,252,1,X,3, ,6,9,,2000,2,5d5ac30f0cfdb7000151c903,001,2021-08-19_16h16.22.667,natb3,2021.2.3,MacIntel,60.0024001,5d5ac30f0cfdb7000151c903,611e07ecdcc96256ae8d5b80,611e75b0cbfc55a46d9a2ef4,
,,,,space,0.3463,,0,241,241,70,1,E, , , , ,space,2500,2.5,5d5ac30f0cfdb7000151c903,001,2021-08-19_16h16.22.667,natb3,2021.2.3,MacIntel,60.0024001,5d5ac30f0cfdb7000151c903,611e07ecdcc96256ae8d5b80,611e75b0cbfc55a46d9a2ef4,
,,,,,,,0,242,242,220,1,U, , , , ,space,2500,2.5,5d5ac30f0cfdb7000151c903,001,2021-08-19_16h16.22.667,natb3,2021.2.3,MacIntel,60.0024001,5d5ac30f0cfdb7000151c903,611e07ecdcc96256ae8d5b80,611e75b0cbfc55a46d9a2ef4,
,,,,space,0.527,,0,243,243,189,1,O, , , , ,space,1500,1.5,5d5ac30f0cfdb7000151c903,001,2021-08-19_16h16.22.667,natb3,2021.2.3,MacIntel,60.0024001,5d5ac30f0cfdb7000151c903,611e07ecdcc96256ae8d5b80,611e75b0cbfc55a46d9a2ef4,
,,,,,,,0,244,244,329,1,X,3,4, ,2,,2500,2.5,5d5ac30f0cfdb7000151c903,001,2021-08-19_16h16.22.667,natb3,2021.2.3,MacIntel,60.0024001,5d5ac30f0cfdb7000151c903,611e07ecdcc96256ae8d5b80,611e75b0cbfc55a46d9a2ef4,
,,,,space,0.4987,,0,245,245,232,1,O, , , , ,space,2500,2.5,5d5ac30f0cfdb7000151c903,001,2021-08-19_16h16.22.667,natb3,2021.2.3,MacIntel,60.0024001,5d5ac30f0cfdb7000151c903,611e07ecdcc96256ae8d5b80,611e75b0cbfc55a46d9a2ef4,
,,,,space,0.5751,,0,246,246,75,1,U, , , , ,space,1500,1.5,5d5ac30f0cfdb7000151c903,001,2021-08-19_16h16.22.667,natb3,2021.2.3,MacIntel,60.0024001,5d5ac30f0cfdb7000151c903,611e07ecdcc96256ae8d5b80,611e75b0cbfc55a46d9a2ef4,
,,,,space,0.4847,,0,247,247,170,1,Z, , , , ,space,2000,2,5d5ac30f0cfdb7000151c903,001,2021-08-19_16h16.22.667,natb3,2021.2.3,MacIntel,60.0024001,5d5ac30f0cfdb7000151c903,611e07ecdcc96256ae8d5b80,611e75b0cbfc55a46d9a2ef4,
,,,,space,0.4414,,0,248,248,10,1,O, , , , ,space,2000,2,5d5ac30f0cfdb7000151c903,001,2021-08-19_16h16.22.667,natb3,2021.2.3,MacIntel,60.0024001,5d5ac30f0cfdb7000151c903,611e07ecdcc96256ae8d5b80,611e75b0cbfc55a46d9a2ef4,
,,,,space,0.4903,,0,249,249,332,1,U, , , , ,space,2000,2,5d5ac30f0cfdb7000151c903,001,2021-08-19_16h16.22.667,natb3,2021.2.3,MacIntel,60.0024001,5d5ac30f0cfdb7000151c903,611e07ecdcc96256ae8d5b80,611e75b0cbfc55a46d9a2ef4,
,,,,space,0.3622,,0,250,250,302,1,X, , , , ,,2000,2,5d5ac30f0cfdb7000151c903,001,2021-08-19_16h16.22.667,natb3,2021.2.3,MacIntel,60.0024001,5d5ac30f0cfdb7000151c903,611e07ecdcc96256ae8d5b80,611e75b0cbfc55a46d9a2ef4,
,,,,,,,0,251,251,182,1,X, , , , ,,1500,1.5,5d5ac30f0cfdb7000151c903,001,2021-08-19_16h16.22.667,natb3,2021.2.3,MacIntel,60.0024001,5d5ac30f0cfdb7000151c903,611e07ecdcc96256ae8d5b80,611e75b0cbfc55a46d9a2ef4,
,,,,space,0.5981,,0,252,252,121,1,I, , , , ,space,2000,2,5d5ac30f0cfdb7000151c903,001,2021-08-19_16h16.22.667,natb3,2021.2.3,MacIntel,60.0024001,5d5ac30f0cfdb7000151c903,611e07ecdcc96256ae8d5b80,611e75b0cbfc55a46d9a2ef4,
,,,,space,0.7303,,0,253,253,111,1,O, , , , ,space,2000,2,5d5ac30f0cfdb7000151c903,001,2021-08-19_16h16.22.667,natb3,2021.2.3,MacIntel,60.0024001,5d5ac30f0cfdb7000151c903,611e07ecdcc96256ae8d5b80,611e75b0cbfc55a46d9a2ef4,
,,,,space,0.3953,,0,254,254,300,1,O, , , , ,space,2500,2.5,5d5ac30f0cfdb7000151c903,001,2021-08-19_16h16.22.667,natb3,2021.2.3,MacIntel,60.0024001,5d5ac30f0cfdb7000151c903,611e07ecdcc96256ae8d5b80,611e75b0cbfc55a46d9a2ef4,
,,,,space,0.394,,0,255,255,85,1,F, , , , ,space,2500,2.5,5d5ac30f0cfdb7000151c903,001,2021-08-19_16h16.22.667,natb3,2021.2.3,MacIntel,60.0024001,5d5ac30f0cfdb7000151c903,611e07ecdcc96256ae8d5b80,611e75b0cbfc55a46d9a2ef4,
,,,,space,0.5223,,0,256,256,52,1,F, , , , ,space,1500,1.5,5d5ac30f0cfdb7000151c903,001,2021-08-19_16h16.22.667,natb3,2021.2.3,MacIntel,60.0024001,5d5ac30f0cfdb7000151c903,611e07ecdcc96256ae8d5b80,611e75b0cbfc55a46d9a2ef4,
,,,,space,0.4314,,0,257,257,282,1,X, , , , ,,2500,2.5,5d5ac30f0cfdb7000151c903,001,2021-08-19_16h16.22.667,natb3,2021.2.3,MacIntel,60.0024001,5d5ac30f0cfdb7000151c903,611e07ecdcc96256ae8d5b80,611e75b0cbfc55a46d9a2ef4,
,,,,space,0.4589,,0,258,258,304,1,S, , , , ,space,2000,2,5d5ac30f0cfdb7000151c903,001,2021-08-19_16h16.22.667,natb3,2021.2.3,MacIntel,60.0024001,5d5ac30f0cfdb7000151c903,611e07ecdcc96256ae8d5b80,611e75b0cbfc55a46d9a2ef4,
,,,,space,0.551,,0,259,259,181,1,E, , , , ,space,1500,1.5,5d5ac30f0cfdb7000151c903,001,2021-08-19_16h16.22.667,natb3,2021.2.3,MacIntel,60.0024001,5d5ac30f0cfdb7000151c903,611e07ecdcc96256ae8d5b80,611e75b0cbfc55a46d9a2ef4,
,,,,,,,0,260,260,291,1,X, , , , ,,2000,2,5d5ac30f0cfdb7000151c903,001,2021-08-19_16h16.22.667,natb3,2021.2.3,MacIntel,60.0024001,5d5ac30f0cfdb7000151c903,611e07ecdcc96256ae8d5b80,611e75b0cbfc55a46d9a2ef4,
,,,,space,0.4775,,0,261,261,79,1,P, , , , ,space,2000,2,5d5ac30f0cfdb7000151c903,001,2021-08-19_16h16.22.667,natb3,2021.2.3,MacIntel,60.0024001,5d5ac30f0cfdb7000151c903,611e07ecdcc96256ae8d5b80,611e75b0cbfc55a46d9a2ef4,
,,,,,,,0,262,262,168,1,X, , , , ,,2500,2.5,5d5ac30f0cfdb7000151c903,001,2021-08-19_16h16.22.667,natb3,2021.2.3,MacIntel,60.0024001,5d5ac30f0cfdb7000151c903,611e07ecdcc96256ae8d5b80,611e75b0cbfc55a46d9a2ef4,
,,,,,,,0,263,263,152,1,U, , , , ,space,2000,2,5d5ac30f0cfdb7000151c903,001,2021-08-19_16h16.22.667,natb3,2021.2.3,MacIntel,60.0024001,5d5ac30f0cfdb7000151c903,611e07ecdcc96256ae8d5b80,611e75b0cbfc55a46d9a2ef4,
,,,,,,,0,264,264,66,1,X, ,4,7, ,,2000,2,5d5ac30f0cfdb7000151c903,001,2021-08-19_16h16.22.667,natb3,2021.2.3,MacIntel,60.0024001,5d5ac30f0cfdb7000151c903,611e07ecdcc96256ae8d5b80,611e75b0cbfc55a46d9a2ef4,
,,,,,,,0,265,265,122,1,X,1, , ,8,,1500,1.5,5d5ac30f0cfdb7000151c903,001,2021-08-19_16h16.22.667,natb3,2021.2.3,MacIntel,60.0024001,5d5ac30f0cfdb7000151c903,611e07ecdcc96256ae8d5b80,611e75b0cbfc55a46d9a2ef4,
,,,,space,0.961,,0,266,266,256,1,Q, , , , ,space,2000,2,5d5ac30f0cfdb7000151c903,001,2021-08-19_16h16.22.667,natb3,2021.2.3,MacIntel,60.0024001,5d5ac30f0cfdb7000151c903,611e07ecdcc96256ae8d5b80,611e75b0cbfc55a46d9a2ef4,
,,,,space,0.5612,,0,267,267,156,1,P, , , , ,space,1500,1.5,5d5ac30f0cfdb7000151c903,001,2021-08-19_16h16.22.667,natb3,2021.2.3,MacIntel,60.0024001,5d5ac30f0cfdb7000151c903,611e07ecdcc96256ae8d5b80,611e75b0cbfc55a46d9a2ef4,
,,,,,,,0,268,268,299,1,X, , , , ,,2500,2.5,5d5ac30f0cfdb7000151c903,001,2021-08-19_16h16.22.667,natb3,2021.2.3,MacIntel,60.0024001,5d5ac30f0cfdb7000151c903,611e07ecdcc96256ae8d5b80,611e75b0cbfc55a46d9a2ef4,
,,,,space,0.5601,,0,269,269,237,1,S, , , , ,space,1500,1.5,5d5ac30f0cfdb7000151c903,001,2021-08-19_16h16.22.667,natb3,2021.2.3,MacIntel,60.0024001,5d5ac30f0cfdb7000151c903,611e07ecdcc96256ae8d5b80,611e75b0cbfc55a46d9a2ef4,
,,,,,,,0,270,270,148,1,X, , , , ,,2000,2,5d5ac30f0cfdb7000151c903,001,2021-08-19_16h16.22.667,natb3,2021.2.3,MacIntel,60.0024001,5d5ac30f0cfdb7000151c903,611e07ecdcc96256ae8d5b80,611e75b0cbfc55a46d9a2ef4,
,,,,space,0.4184,,0,271,271,119,1,Y, , , , ,space,2500,2.5,5d5ac30f0cfdb7000151c903,001,2021-08-19_16h16.22.667,natb3,2021.2.3,MacIntel,60.0024001,5d5ac30f0cfdb7000151c903,611e07ecdcc96256ae8d5b80,611e75b0cbfc55a46d9a2ef4,
,,,,space,0.9295,,0,272,272,17,1,F, , , , ,space,2500,2.5,5d5ac30f0cfdb7000151c903,001,2021-08-19_16h16.22.667,natb3,2021.2.3,MacIntel,60.0024001,5d5ac30f0cfdb7000151c903,611e07ecdcc96256ae8d5b80,611e75b0cbfc55a46d9a2ef4,
,,,,space,0.7416,,0,273,273,56,1,J, , , , ,space,1500,1.5,5d5ac30f0cfdb7000151c903,001,2021-08-19_16h16.22.667,natb3,2021.2.3,MacIntel,60.0024001,5d5ac30f0cfdb7000151c903,611e07ecdcc96256ae8d5b80,611e75b0cbfc55a46d9a2ef4,
,,,,space,0.777,,0,274,274,307,1,F, , , , ,space,2500,2.5,5d5ac30f0cfdb7000151c903,001,2021-08-19_16h16.22.667,natb3,2021.2.3,MacIntel,60.0024001,5d5ac30f0cfdb7000151c903,611e07ecdcc96256ae8d5b80,611e75b0cbfc55a46d9a2ef4,
,,,,,,,0,275,275,105,1,R, , , , ,space,2500,2.5,5d5ac30f0cfdb7000151c903,001,2021-08-19_16h16.22.667,natb3,2021.2.3,MacIntel,60.0024001,5d5ac30f0cfdb7000151c903,611e07ecdcc96256ae8d5b80,611e75b0cbfc55a46d9a2ef4,
,,,,space,0.4439,,0,276,276,7,1,X, , , , ,,1500,1.5,5d5ac30f0cfdb7000151c903,001,2021-08-19_16h16.22.667,natb3,2021.2.3,MacIntel,60.0024001,5d5ac30f0cfdb7000151c903,611e07ecdcc96256ae8d5b80,611e75b0cbfc55a46d9a2ef4,
,,,,,,,0,277,277,154,1,I, , , , ,space,2500,2.5,5d5ac30f0cfdb7000151c903,001,2021-08-19_16h16.22.667,natb3,2021.2.3,MacIntel,60.0024001,5d5ac30f0cfdb7000151c903,611e07ecdcc96256ae8d5b80,611e75b0cbfc55a46d9a2ef4,
,,,,space,0.6309,,0,278,278,136,1,Z, , , , ,space,2500,2.5,5d5ac30f0cfdb7000151c903,001,2021-08-19_16h16.22.667,natb3,2021.2.3,MacIntel,60.0024001,5d5ac30f0cfdb7000151c903,611e07ecdcc96256ae8d5b80,611e75b0cbfc55a46d9a2ef4,
,,,,,,,0,279,279,200,1,X,7, ,5,3,,1500,1.5,5d5ac30f0cfdb7000151c903,001,2021-08-19_16h16.22.667,natb3,2021.2.3,MacIntel,60.0024001,5d5ac30f0cfdb7000151c903,611e07ecdcc96256ae8d5b80,611e75b0cbfc55a46d9a2ef4,
,,,,space,0.6818,,0,280,280,222,1,O, , , , ,space,2000,2,5d5ac30f0cfdb7000151c903,001,2021-08-19_16h16.22.667,natb3,2021.2.3,MacIntel,60.0024001,5d5ac30f0cfdb7000151c903,611e07ecdcc96256ae8d5b80,611e75b0cbfc55a46d9a2ef4,
,,,,space,0.4232,,0,281,281,137,1,C, , , , ,space,2500,2.5,5d5ac30f0cfdb7000151c903,001,2021-08-19_16h16.22.667,natb3,2021.2.3,MacIntel,60.0024001,5d5ac30f0cfdb7000151c903,611e07ecdcc96256ae8d5b80,611e75b0cbfc55a46d9a2ef4,
,,,,,,,0,282,282,227,1,T, , , , ,space,1500,1.5,5d5ac30f0cfdb7000151c903,001,2021-08-19_16h16.22.667,natb3,2021.2.3,MacIntel,60.0024001,5d5ac30f0cfdb7000151c903,611e07ecdcc96256ae8d5b80,611e75b0cbfc55a46d9a2ef4,
,,,,,,,0,283,283,173,1,V, , , , ,space,1500,1.5,5d5ac30f0cfdb7000151c903,001,2021-08-19_16h16.22.667,natb3,2021.2.3,MacIntel,60.0024001,5d5ac30f0cfdb7000151c903,611e07ecdcc96256ae8d5b80,611e75b0cbfc55a46d9a2ef4,
,,,,space,0.3595,,0,284,284,44,1,I, , , , ,space,2500,2.5,5d5ac30f0cfdb7000151c903,001,2021-08-19_16h16.22.667,natb3,2021.2.3,MacIntel,60.0024001,5d5ac30f0cfdb7000151c903,611e07ecdcc96256ae8d5b80,611e75b0cbfc55a46d9a2ef4,
,,,,space,0.6621,,0,285,285,16,1,D, , , , ,space,1500,1.5,5d5ac30f0cfdb7000151c903,001,2021-08-19_16h16.22.667,natb3,2021.2.3,MacIntel,60.0024001,5d5ac30f0cfdb7000151c903,611e07ecdcc96256ae8d5b80,611e75b0cbfc55a46d9a2ef4,
,,,,,,,0,286,286,39,1,X,6,2, , ,,1500,1.5,5d5ac30f0cfdb7000151c903,001,2021-08-19_16h16.22.667,natb3,2021.2.3,MacIntel,60.0024001,5d5ac30f0cfdb7000151c903,611e07ecdcc96256ae8d5b80,611e75b0cbfc55a46d9a2ef4,
,,,,space,0.5541,,0,287,287,294,1,T, , , , ,space,2000,2,5d5ac30f0cfdb7000151c903,001,2021-08-19_16h16.22.667,natb3,2021.2.3,MacIntel,60.0024001,5d5ac30f0cfdb7000151c903,611e07ecdcc96256ae8d5b80,611e75b0cbfc55a46d9a2ef4,
,,,,,,,0,288,288,129,1,X,2,3,5, ,,1500,1.5,5d5ac30f0cfdb7000151c903,001,2021-08-19_16h16.22.667,natb3,2021.2.3,MacIntel,60.0024001,5d5ac30f0cfdb7000151c903,611e07ecdcc96256ae8d5b80,611e75b0cbfc55a46d9a2ef4,
,,,,,,,0,289,289,1,1,W, , , , ,space,2000,2,5d5ac30f0cfdb7000151c903,001,2021-08-19_16h16.22.667,natb3,2021.2.3,MacIntel,60.0024001,5d5ac30f0cfdb7000151c903,611e07ecdcc96256ae8d5b80,611e75b0cbfc55a46d9a2ef4,
,,,,space,0.6267,,0,290,290,285,1,B, , , , ,space,1500,1.5,5d5ac30f0cfdb7000151c903,001,2021-08-19_16h16.22.667,natb3,2021.2.3,MacIntel,60.0024001,5d5ac30f0cfdb7000151c903,611e07ecdcc96256ae8d5b80,611e75b0cbfc55a46d9a2ef4,
,,,,,,,0,291,291,206,1,V, , , , ,space,2000,2,5d5ac30f0cfdb7000151c903,001,2021-08-19_16h16.22.667,natb3,2021.2.3,MacIntel,60.0024001,5d5ac30f0cfdb7000151c903,611e07ecdcc96256ae8d5b80,611e75b0cbfc55a46d9a2ef4,
,,,,space,0.5529,,0,292,292,324,1,Q, , , , ,space,2000,2,5d5ac30f0cfdb7000151c903,001,2021-08-19_16h16.22.667,natb3,2021.2.3,MacIntel,60.0024001,5d5ac30f0cfdb7000151c903,611e07ecdcc96256ae8d5b80,611e75b0cbfc55a46d9a2ef4,
,,,,space,0.4931,,0,293,293,134,1,J, , , , ,space,2000,2,5d5ac30f0cfdb7000151c903,001,2021-08-19_16h16.22.667,natb3,2021.2.3,MacIntel,60.0024001,5d5ac30f0cfdb7000151c903,611e07ecdcc96256ae8d5b80,611e75b0cbfc55a46d9a2ef4,
,,,,space,0.4439,,0,294,294,224,1,W, , , , ,space,1500,1.5,5d5ac30f0cfdb7000151c903,001,2021-08-19_16h16.22.667,natb3,2021.2.3,MacIntel,60.0024001,5d5ac30f0cfdb7000151c903,611e07ecdcc96256ae8d5b80,611e75b0cbfc55a46d9a2ef4,
,,,,space,0.4444,,0,295,295,266,1,O, , , , ,space,1500,1.5,5d5ac30f0cfdb7000151c903,001,2021-08-19_16h16.22.667,natb3,2021.2.3,MacIntel,60.0024001,5d5ac30f0cfdb7000151c903,611e07ecdcc96256ae8d5b80,611e75b0cbfc55a46d9a2ef4,
,,,,space,0.6015,,0,296,296,6,1,Y, , , , ,space,2500,2.5,5d5ac30f0cfdb7000151c903,001,2021-08-19_16h16.22.667,natb3,2021.2.3,MacIntel,60.0024001,5d5ac30f0cfdb7000151c903,611e07ecdcc96256ae8d5b80,611e75b0cbfc55a46d9a2ef4,
,,,,space,0.3137,,0,297,297,196,1,F, , , , ,space,1500,1.5,5d5ac30f0cfdb7000151c903,001,2021-08-19_16h16.22.667,natb3,2021.2.3,MacIntel,60.0024001,5d5ac30f0cfdb7000151c903,611e07ecdcc96256ae8d5b80,611e75b0cbfc55a46d9a2ef4,
,,,,space,0.7401,,0,298,298,11,1,P, , , , ,space,2500,2.5,5d5ac30f0cfdb7000151c903,001,2021-08-19_16h16.22.667,natb3,2021.2.3,MacIntel,60.0024001,5d5ac30f0cfdb7000151c903,611e07ecdcc96256ae8d5b80,611e75b0cbfc55a46d9a2ef4,
,,,,space,0.6905,,0,299,299,312,1,K, , , , ,space,2000,2,5d5ac30f0cfdb7000151c903,001,2021-08-19_16h16.22.667,natb3,2021.2.3,MacIntel,60.0024001,5d5ac30f0cfdb7000151c903,611e07ecdcc96256ae8d5b80,611e75b0cbfc55a46d9a2ef4,
,,,,space,0.66,,0,300,300,159,1,S, , , , ,space,2500,2.5,5d5ac30f0cfdb7000151c903,001,2021-08-19_16h16.22.667,natb3,2021.2.3,MacIntel,60.0024001,5d5ac30f0cfdb7000151c903,611e07ecdcc96256ae8d5b80,611e75b0cbfc55a46d9a2ef4,
,,,,space,0.5316,,0,301,301,331,1,Y, , , , ,space,2500,2.5,5d5ac30f0cfdb7000151c903,001,2021-08-19_16h16.22.667,natb3,2021.2.3,MacIntel,60.0024001,5d5ac30f0cfdb7000151c903,611e07ecdcc96256ae8d5b80,611e75b0cbfc55a46d9a2ef4,
,,,,space,0.5599,,0,302,302,215,1,E, , , , ,space,2500,2.5,5d5ac30f0cfdb7000151c903,001,2021-08-19_16h16.22.667,natb3,2021.2.3,MacIntel,60.0024001,5d5ac30f0cfdb7000151c903,611e07ecdcc96256ae8d5b80,611e75b0cbfc55a46d9a2ef4,
,,,,space,0.0731,,0,303,303,308,1,G, , , , ,space,1500,1.5,5d5ac30f0cfdb7000151c903,001,2021-08-19_16h16.22.667,natb3,2021.2.3,MacIntel,60.0024001,5d5ac30f0cfdb7000151c903,611e07ecdcc96256ae8d5b80,611e75b0cbfc55a46d9a2ef4,
,,,,,,,0,304,304,89,1,X,3, , , ,,2000,2,5d5ac30f0cfdb7000151c903,001,2021-08-19_16h16.22.667,natb3,2021.2.3,MacIntel,60.0024001,5d5ac30f0cfdb7000151c903,611e07ecdcc96256ae8d5b80,611e75b0cbfc55a46d9a2ef4,
,,,,space,0.9212,,0,305,305,212,1,Q, , , , ,space,2500,2.5,5d5ac30f0cfdb7000151c903,001,2021-08-19_16h16.22.667,natb3,2021.2.3,MacIntel,60.0024001,5d5ac30f0cfdb7000151c903,611e07ecdcc96256ae8d5b80,611e75b0cbfc55a46d9a2ef4,
,,,,,,,0,306,306,145,1,X, , , , ,,2000,2,5d5ac30f0cfdb7000151c903,001,2021-08-19_16h16.22.667,natb3,2021.2.3,MacIntel,60.0024001,5d5ac30f0cfdb7000151c903,611e07ecdcc96256ae8d5b80,611e75b0cbfc55a46d9a2ef4,
,,,,space,0.5101,,0,307,307,38,1,R, , , , ,space,2500,2.5,5d5ac30f0cfdb7000151c903,001,2021-08-19_16h16.22.667,natb3,2021.2.3,MacIntel,60.0024001,5d5ac30f0cfdb7000151c903,611e07ecdcc96256ae8d5b80,611e75b0cbfc55a46d9a2ef4,
,,,,space,0.576,,0,308,308,180,1,W, , , , ,space,2000,2,5d5ac30f0cfdb7000151c903,001,2021-08-19_16h16.22.667,natb3,2021.2.3,MacIntel,60.0024001,5d5ac30f0cfdb7000151c903,611e07ecdcc96256ae8d5b80,611e75b0cbfc55a46d9a2ef4,
,,,,,,,0,309,309,158,1,X, , , , ,,1500,1.5,5d5ac30f0cfdb7000151c903,001,2021-08-19_16h16.22.667,natb3,2021.2.3,MacIntel,60.0024001,5d5ac30f0cfdb7000151c903,611e07ecdcc96256ae8d5b80,611e75b0cbfc55a46d9a2ef4,
,,,,space,0.5327,,0,310,310,130,1,F, , , , ,space,2000,2,5d5ac30f0cfdb7000151c903,001,2021-08-19_16h16.22.667,natb3,2021.2.3,MacIntel,60.0024001,5d5ac30f0cfdb7000151c903,611e07ecdcc96256ae8d5b80,611e75b0cbfc55a46d9a2ef4,
,,,,,,,0,311,311,239,1,X, , , , ,,2000,2,5d5ac30f0cfdb7000151c903,001,2021-08-19_16h16.22.667,natb3,2021.2.3,MacIntel,60.0024001,5d5ac30f0cfdb7000151c903,611e07ecdcc96256ae8d5b80,611e75b0cbfc55a46d9a2ef4,
,,,,,,,0,312,312,171,1,X, , , , ,,1500,1.5,5d5ac30f0cfdb7000151c903,001,2021-08-19_16h16.22.667,natb3,2021.2.3,MacIntel,60.0024001,5d5ac30f0cfdb7000151c903,611e07ecdcc96256ae8d5b80,611e75b0cbfc55a46d9a2ef4,
,,,,space,0.5603,,0,313,313,123,1,O, , , , ,space,1500,1.5,5d5ac30f0cfdb7000151c903,001,2021-08-19_16h16.22.667,natb3,2021.2.3,MacIntel,60.0024001,5d5ac30f0cfdb7000151c903,611e07ecdcc96256ae8d5b80,611e75b0cbfc55a46d9a2ef4,
,,,,,,,0,314,314,254,1,M, , , , ,space,1500,1.5,5d5ac30f0cfdb7000151c903,001,2021-08-19_16h16.22.667,natb3,2021.2.3,MacIntel,60.0024001,5d5ac30f0cfdb7000151c903,611e07ecdcc96256ae8d5b80,611e75b0cbfc55a46d9a2ef4,
,,,,,,,0,315,315,246,1,L, , , , ,space,2500,2.5,5d5ac30f0cfdb7000151c903,001,2021-08-19_16h16.22.667,natb3,2021.2.3,MacIntel,60.0024001,5d5ac30f0cfdb7000151c903,611e07ecdcc96256ae8d5b80,611e75b0cbfc55a46d9a2ef4,
,,,,space,0.6252,,0,316,316,26,1,C, , , , ,space,2000,2,5d5ac30f0cfdb7000151c903,001,2021-08-19_16h16.22.667,natb3,2021.2.3,MacIntel,60.0024001,5d5ac30f0cfdb7000151c903,611e07ecdcc96256ae8d5b80,611e75b0cbfc55a46d9a2ef4,
,,,,,,,0,317,317,255,1,X, , , , ,,1500,1.5,5d5ac30f0cfdb7000151c903,001,2021-08-19_16h16.22.667,natb3,2021.2.3,MacIntel,60.0024001,5d5ac30f0cfdb7000151c903,611e07ecdcc96256ae8d5b80,611e75b0cbfc55a46d9a2ef4,
,,,,space,0.8682,,0,318,318,326,1,W, , , , ,space,2000,2,5d5ac30f0cfdb7000151c903,001,2021-08-19_16h16.22.667,natb3,2021.2.3,MacIntel,60.0024001,5d5ac30f0cfdb7000151c903,611e07ecdcc96256ae8d5b80,611e75b0cbfc55a46d9a2ef4,
,,,,,,,0,319,319,83,1,D, , , , ,space,2000,2,5d5ac30f0cfdb7000151c903,001,2021-08-19_16h16.22.667,natb3,2021.2.3,MacIntel,60.0024001,5d5ac30f0cfdb7000151c903,611e07ecdcc96256ae8d5b80,611e75b0cbfc55a46d9a2ef4,
,,,,space,0.4849,,0,320,320,217,1,T, , , , ,space,2500,2.5,5d5ac30f0cfdb7000151c903,001,2021-08-19_16h16.22.667,natb3,2021.2.3,MacIntel,60.0024001,5d5ac30f0cfdb7000151c903,611e07ecdcc96256ae8d5b80,611e75b0cbfc55a46d9a2ef4,
,,,,,,,0,321,321,97,1,B, , , , ,space,2500,2.5,5d5ac30f0cfdb7000151c903,001,2021-08-19_16h16.22.667,natb3,2021.2.3,MacIntel,60.0024001,5d5ac30f0cfdb7000151c903,611e07ecdcc96256ae8d5b80,611e75b0cbfc55a46d9a2ef4,
,,,,space,0.8487,,0,322,322,242,1,H, , , , ,space,2500,2.5,5d5ac30f0cfdb7000151c903,001,2021-08-19_16h16.22.667,natb3,2021.2.3,MacIntel,60.0024001,5d5ac30f0cfdb7000151c903,611e07ecdcc96256ae8d5b80,611e75b0cbfc55a46d9a2ef4,
,,,,,,,0,323,323,190,1,P, , , , ,space,2000,2,5d5ac30f0cfdb7000151c903,001,2021-08-19_16h16.22.667,natb3,2021.2.3,MacIntel,60.0024001,5d5ac30f0cfdb7000151c903,611e07ecdcc96256ae8d5b80,611e75b0cbfc55a46d9a2ef4,
,,,,space,0.396,,0,324,324,91,1,L, , , , ,space,2000,2,5d5ac30f0cfdb7000151c903,001,2021-08-19_16h16.22.667,natb3,2021.2.3,MacIntel,60.0024001,5d5ac30f0cfdb7000151c903,611e07ecdcc96256ae8d5b80,611e75b0cbfc55a46d9a2ef4,
,,,,,,,0,325,325,323,1,M, , , , ,space,2500,2.5,5d5ac30f0cfdb7000151c903,001,2021-08-19_16h16.22.667,natb3,2021.2.3,MacIntel,60.0024001,5d5ac30f0cfdb7000151c903,611e07ecdcc96256ae8d5b80,611e75b0cbfc55a46d9a2ef4,
,,,,space,0.5755,,0,326,326,63,1,B, , , , ,space,2000,2,5d5ac30f0cfdb7000151c903,001,2021-08-19_16h16.22.667,natb3,2021.2.3,MacIntel,60.0024001,5d5ac30f0cfdb7000151c903,611e07ecdcc96256ae8d5b80,611e75b0cbfc55a46d9a2ef4,
,,,,space,0.4715,,0,327,327,320,1,B, , , , ,space,1500,1.5,5d5ac30f0cfdb7000151c903,001,2021-08-19_16h16.22.667,natb3,2021.2.3,MacIntel,60.0024001,5d5ac30f0cfdb7000151c903,611e07ecdcc96256ae8d5b80,611e75b0cbfc55a46d9a2ef4,
,,,,,,,0,328,328,131,1,G, , , , ,space,1500,1.5,5d5ac30f0cfdb7000151c903,001,2021-08-19_16h16.22.667,natb3,2021.2.3,MacIntel,60.0024001,5d5ac30f0cfdb7000151c903,611e07ecdcc96256ae8d5b80,611e75b0cbfc55a46d9a2ef4,
,,,,,,,0,329,329,202,1,L, , , , ,space,2500,2.5,5d5ac30f0cfdb7000151c903,001,2021-08-19_16h16.22.667,natb3,2021.2.3,MacIntel,60.0024001,5d5ac30f0cfdb7000151c903,611e07ecdcc96256ae8d5b80,611e75b0cbfc55a46d9a2ef4,
,,,,,,,0,330,330,228,1,Y, , , , ,space,2000,2,5d5ac30f0cfdb7000151c903,001,2021-08-19_16h16.22.667,natb3,2021.2.3,MacIntel,60.0024001,5d5ac30f0cfdb7000151c903,611e07ecdcc96256ae8d5b80,611e75b0cbfc55a46d9a2ef4,
,,,,,,,0,331,331,313,1,X, , , , ,,2500,2.5,5d5ac30f0cfdb7000151c903,001,2021-08-19_16h16.22.667,natb3,2021.2.3,MacIntel,60.0024001,5d5ac30f0cfdb7000151c903,611e07ecdcc96256ae8d5b80,611e75b0cbfc55a46d9a2ef4,
,,,,,,,0,332,332,12,1,X, , , , ,,1500,1.5,5d5ac30f0cfdb7000151c903,001,2021-08-19_16h16.22.667,natb3,2021.2.3,MacIntel,60.0024001,5d5ac30f0cfdb7000151c903,611e07ecdcc96256ae8d5b80,611e75b0cbfc55a46d9a2ef4,
,,,,space,0.6288,,0,333,333,151,1,Y, , , , ,space,2500,2.5,5d5ac30f0cfdb7000151c903,001,2021-08-19_16h16.22.667,natb3,2021.2.3,MacIntel,60.0024001,5d5ac30f0cfdb7000151c903,611e07ecdcc96256ae8d5b80,611e75b0cbfc55a46d9a2ef4,
,,,,,,,0,334,334,315,1,X, , , , ,,2500,2.5,5d5ac30f0cfdb7000151c903,001,2021-08-19_16h16.22.667,natb3,2021.2.3,MacIntel,60.0024001,5d5ac30f0cfdb7000151c903,611e07ecdcc96256ae8d5b80,611e75b0cbfc55a46d9a2ef4,
,,,,space,0.7917,,0,335,335,260,1,R, , , , ,space,2000,2,5d5ac30f0cfdb7000151c903,001,2021-08-19_16h16.22.667,natb3,2021.2.3,MacIntel,60.0024001,5d5ac30f0cfdb7000151c903,611e07ecdcc96256ae8d5b80,611e75b0cbfc55a46d9a2ef4,
