key_resp_2.keys,key_resp_2.rt,key_resp_3.keys,key_resp_3.rt,key_resp.keys,key_resp_4.keys,trials.thisRepN,trials.thisTrialN,trials.thisN,trials.thisIndex,trials.ran,stimulus,distractor1,distractor2,distractor3,distractor4,CorrAns,isi_duration,isi_dur_in_seconds,participant,session,date,expName,psychopyVersion,OS,frameRate,PROLIFIC_PID,STUDY_ID,SESSION_ID,key_resp.rt,key_resp_4.rt
return,23.147,space,11.774,,,0,0,0,205,1,C, , , , ,space,2000,2,5da09f733c3367001a72dec6,001,2021-08-17_17h21.18,natb3,2021.2.3,MacIntel,58.82352941,5da09f733c3367001a72dec6,6107d0959f7c4c3641818b95,611be1df3abd857eda8e482f,,
,,,,space,,0,1,1,249,1,C, , , , ,space,2000,2,5da09f733c3367001a72dec6,001,2021-08-17_17h21.18,natb3,2021.2.3,MacIntel,58.82352941,5da09f733c3367001a72dec6,6107d0959f7c4c3641818b95,611be1df3abd857eda8e482f,0.222,
,,,,space,,0,2,2,267,1,P, , , , ,space,2000,2,5da09f733c3367001a72dec6,001,2021-08-17_17h21.18,natb3,2021.2.3,MacIntel,58.82352941,5da09f733c3367001a72dec6,6107d0959f7c4c3641818b95,611be1df3abd857eda8e482f,0.329,
,,,,space,,0,3,3,283,1,C, , , , ,space,1500,1.5,5da09f733c3367001a72dec6,001,2021-08-17_17h21.18,natb3,2021.2.3,MacIntel,58.82352941,5da09f733c3367001a72dec6,6107d0959f7c4c3641818b95,611be1df3abd857eda8e482f,0.369,
,,,,space,,0,4,4,192,1,A, , , , ,space,2000,2,5da09f733c3367001a72dec6,001,2021-08-17_17h21.18,natb3,2021.2.3,MacIntel,58.82352941,5da09f733c3367001a72dec6,6107d0959f7c4c3641818b95,611be1df3abd857eda8e482f,0.302,
,,,,,,0,5,5,74,1,X, ,4,3,2,,1500,1.5,5da09f733c3367001a72dec6,001,2021-08-17_17h21.18,natb3,2021.2.3,MacIntel,58.82352941,5da09f733c3367001a72dec6,6107d0959f7c4c3641818b95,611be1df3abd857eda8e482f,,
,,,,space,,0,6,6,310,1,J, , , , ,space,2500,2.5,5da09f733c3367001a72dec6,001,2021-08-17_17h21.18,natb3,2021.2.3,MacIntel,58.82352941,5da09f733c3367001a72dec6,6107d0959f7c4c3641818b95,611be1df3abd857eda8e482f,0.415,
,,,,space,,0,7,7,185,1,Y, , , , ,space,2500,2.5,5da09f733c3367001a72dec6,001,2021-08-17_17h21.18,natb3,2021.2.3,MacIntel,58.82352941,5da09f733c3367001a72dec6,6107d0959f7c4c3641818b95,611be1df3abd857eda8e482f,0.316,
,,,,space,,0,8,8,276,1,H, , , , ,space,2000,2,5da09f733c3367001a72dec6,001,2021-08-17_17h21.18,natb3,2021.2.3,MacIntel,58.82352941,5da09f733c3367001a72dec6,6107d0959f7c4c3641818b95,611be1df3abd857eda8e482f,0.402,
,,,,,,0,9,9,93,1,X,5, ,7, ,,2500,2.5,5da09f733c3367001a72dec6,001,2021-08-17_17h21.18,natb3,2021.2.3,MacIntel,58.82352941,5da09f733c3367001a72dec6,6107d0959f7c4c3641818b95,611be1df3abd857eda8e482f,,
,,,,space,,0,10,10,108,1,Y, , , , ,space,2500,2.5,5da09f733c3367001a72dec6,001,2021-08-17_17h21.18,natb3,2021.2.3,MacIntel,58.82352941,5da09f733c3367001a72dec6,6107d0959f7c4c3641818b95,611be1df3abd857eda8e482f,0.427,
,,,,,,0,11,11,102,1,X, ,6, , ,,1500,1.5,5da09f733c3367001a72dec6,001,2021-08-17_17h21.18,natb3,2021.2.3,MacIntel,58.82352941,5da09f733c3367001a72dec6,6107d0959f7c4c3641818b95,611be1df3abd857eda8e482f,,
,,,,space,,0,12,12,293,1,R, , , , ,space,2500,2.5,5da09f733c3367001a72dec6,001,2021-08-17_17h21.18,natb3,2021.2.3,MacIntel,58.82352941,5da09f733c3367001a72dec6,6107d0959f7c4c3641818b95,611be1df3abd857eda8e482f,0.374,
,,,,space,,0,13,13,220,1,U, , , , ,space,2500,2.5,5da09f733c3367001a72dec6,001,2021-08-17_17h21.18,natb3,2021.2.3,MacIntel,58.82352941,5da09f733c3367001a72dec6,6107d0959f7c4c3641818b95,611be1df3abd857eda8e482f,0.413,
,,,,space,,0,14,14,200,1,X,7, ,5,3,,1500,1.5,5da09f733c3367001a72dec6,001,2021-08-17_17h21.18,natb3,2021.2.3,MacIntel,58.82352941,5da09f733c3367001a72dec6,6107d0959f7c4c3641818b95,611be1df3abd857eda8e482f,0.536,
,,,,space,,0,15,15,22,1,K, , , , ,space,2000,2,5da09f733c3367001a72dec6,001,2021-08-17_17h21.18,natb3,2021.2.3,MacIntel,58.82352941,5da09f733c3367001a72dec6,6107d0959f7c4c3641818b95,611be1df3abd857eda8e482f,0.518,
,,,,space,,0,16,16,96,1,X, , , , ,,1500,1.5,5da09f733c3367001a72dec6,001,2021-08-17_17h21.18,natb3,2021.2.3,MacIntel,58.82352941,5da09f733c3367001a72dec6,6107d0959f7c4c3641818b95,611be1df3abd857eda8e482f,0.412,
,,,,,,0,17,17,116,1,X, , , , ,,2000,2,5da09f733c3367001a72dec6,001,2021-08-17_17h21.18,natb3,2021.2.3,MacIntel,58.82352941,5da09f733c3367001a72dec6,6107d0959f7c4c3641818b95,611be1df3abd857eda8e482f,,
,,,,space,,0,18,18,83,1,D, , , , ,space,2000,2,5da09f733c3367001a72dec6,001,2021-08-17_17h21.18,natb3,2021.2.3,MacIntel,58.82352941,5da09f733c3367001a72dec6,6107d0959f7c4c3641818b95,611be1df3abd857eda8e482f,0.414,
,,,,,,0,19,19,35,1,X, , , , ,,2500,2.5,5da09f733c3367001a72dec6,001,2021-08-17_17h21.18,natb3,2021.2.3,MacIntel,58.82352941,5da09f733c3367001a72dec6,6107d0959f7c4c3641818b95,611be1df3abd857eda8e482f,,
,,,,space,,0,20,20,196,1,F, , , , ,space,1500,1.5,5da09f733c3367001a72dec6,001,2021-08-17_17h21.18,natb3,2021.2.3,MacIntel,58.82352941,5da09f733c3367001a72dec6,6107d0959f7c4c3641818b95,611be1df3abd857eda8e482f,0.496,
,,,,space,,0,21,21,289,1,Q, , , , ,space,2000,2,5da09f733c3367001a72dec6,001,2021-08-17_17h21.18,natb3,2021.2.3,MacIntel,58.82352941,5da09f733c3367001a72dec6,6107d0959f7c4c3641818b95,611be1df3abd857eda8e482f,0.431,
,,,,,,0,22,22,182,1,X, , , , ,,1500,1.5,5da09f733c3367001a72dec6,001,2021-08-17_17h21.18,natb3,2021.2.3,MacIntel,58.82352941,5da09f733c3367001a72dec6,6107d0959f7c4c3641818b95,611be1df3abd857eda8e482f,,
,,,,space,,0,23,23,63,1,B, , , , ,space,2000,2,5da09f733c3367001a72dec6,001,2021-08-17_17h21.18,natb3,2021.2.3,MacIntel,58.82352941,5da09f733c3367001a72dec6,6107d0959f7c4c3641818b95,611be1df3abd857eda8e482f,0.398,
,,,,,,0,24,24,27,1,X,5, ,1,3,,1500,1.5,5da09f733c3367001a72dec6,001,2021-08-17_17h21.18,natb3,2021.2.3,MacIntel,58.82352941,5da09f733c3367001a72dec6,6107d0959f7c4c3641818b95,611be1df3abd857eda8e482f,,
,,,,space,,0,25,25,164,1,H, , , , ,space,2500,2.5,5da09f733c3367001a72dec6,001,2021-08-17_17h21.18,natb3,2021.2.3,MacIntel,58.82352941,5da09f733c3367001a72dec6,6107d0959f7c4c3641818b95,611be1df3abd857eda8e482f,0.425,
,,,,space,,0,26,26,327,1,E, , , , ,space,1500,1.5,5da09f733c3367001a72dec6,001,2021-08-17_17h21.18,natb3,2021.2.3,MacIntel,58.82352941,5da09f733c3367001a72dec6,6107d0959f7c4c3641818b95,611be1df3abd857eda8e482f,0.595,
,,,,space,,0,27,27,100,1,M, , , , ,space,2000,2,5da09f733c3367001a72dec6,001,2021-08-17_17h21.18,natb3,2021.2.3,MacIntel,58.82352941,5da09f733c3367001a72dec6,6107d0959f7c4c3641818b95,611be1df3abd857eda8e482f,0.403,
,,,,space,,0,28,28,240,1,F, , , , ,space,2500,2.5,5da09f733c3367001a72dec6,001,2021-08-17_17h21.18,natb3,2021.2.3,MacIntel,58.82352941,5da09f733c3367001a72dec6,6107d0959f7c4c3641818b95,611be1df3abd857eda8e482f,0.464,
,,,,space,,0,29,29,216,1,R, , , , ,space,1500,1.5,5da09f733c3367001a72dec6,001,2021-08-17_17h21.18,natb3,2021.2.3,MacIntel,58.82352941,5da09f733c3367001a72dec6,6107d0959f7c4c3641818b95,611be1df3abd857eda8e482f,0.629,
,,,,space,,0,30,30,77,1,O, , , , ,space,2000,2,5da09f733c3367001a72dec6,001,2021-08-17_17h21.18,natb3,2021.2.3,MacIntel,58.82352941,5da09f733c3367001a72dec6,6107d0959f7c4c3641818b95,611be1df3abd857eda8e482f,0.417,
,,,,space,,0,31,31,28,1,V, , , , ,space,1500,1.5,5da09f733c3367001a72dec6,001,2021-08-17_17h21.18,natb3,2021.2.3,MacIntel,58.82352941,5da09f733c3367001a72dec6,6107d0959f7c4c3641818b95,611be1df3abd857eda8e482f,0.503,
,,,,,,0,32,32,263,1,X,4, ,6, ,,1500,1.5,5da09f733c3367001a72dec6,001,2021-08-17_17h21.18,natb3,2021.2.3,MacIntel,58.82352941,5da09f733c3367001a72dec6,6107d0959f7c4c3641818b95,611be1df3abd857eda8e482f,,
,,,,,,0,33,33,273,1,X, , , , ,,2000,2,5da09f733c3367001a72dec6,001,2021-08-17_17h21.18,natb3,2021.2.3,MacIntel,58.82352941,5da09f733c3367001a72dec6,6107d0959f7c4c3641818b95,611be1df3abd857eda8e482f,,
,,,,space,,0,34,34,70,1,E, , , , ,space,2500,2.5,5da09f733c3367001a72dec6,001,2021-08-17_17h21.18,natb3,2021.2.3,MacIntel,58.82352941,5da09f733c3367001a72dec6,6107d0959f7c4c3641818b95,611be1df3abd857eda8e482f,0.537,
,,,,,,0,35,35,252,1,X,3, ,6,9,,2000,2,5da09f733c3367001a72dec6,001,2021-08-17_17h21.18,natb3,2021.2.3,MacIntel,58.82352941,5da09f733c3367001a72dec6,6107d0959f7c4c3641818b95,611be1df3abd857eda8e482f,,
,,,,,,0,36,36,54,1,X, , , , ,,2000,2,5da09f733c3367001a72dec6,001,2021-08-17_17h21.18,natb3,2021.2.3,MacIntel,58.82352941,5da09f733c3367001a72dec6,6107d0959f7c4c3641818b95,611be1df3abd857eda8e482f,,
,,,,space,,0,37,37,142,1,N, , , , ,space,2500,2.5,5da09f733c3367001a72dec6,001,2021-08-17_17h21.18,natb3,2021.2.3,MacIntel,58.82352941,5da09f733c3367001a72dec6,6107d0959f7c4c3641818b95,611be1df3abd857eda8e482f,0.404,
,,,,space,,0,38,38,294,1,T, , , , ,space,2000,2,5da09f733c3367001a72dec6,001,2021-08-17_17h21.18,natb3,2021.2.3,MacIntel,58.82352941,5da09f733c3367001a72dec6,6107d0959f7c4c3641818b95,611be1df3abd857eda8e482f,0.78,
,,,,space,,0,39,39,165,1,J, , , , ,space,2500,2.5,5da09f733c3367001a72dec6,001,2021-08-17_17h21.18,natb3,2021.2.3,MacIntel,58.82352941,5da09f733c3367001a72dec6,6107d0959f7c4c3641818b95,611be1df3abd857eda8e482f,0.38,
,,,,space,,0,40,40,272,1,D, , , , ,space,2000,2,5da09f733c3367001a72dec6,001,2021-08-17_17h21.18,natb3,2021.2.3,MacIntel,58.82352941,5da09f733c3367001a72dec6,6107d0959f7c4c3641818b95,611be1df3abd857eda8e482f,0.397,
,,,,space,,0,41,41,24,1,L, , , , ,space,2500,2.5,5da09f733c3367001a72dec6,001,2021-08-17_17h21.18,natb3,2021.2.3,MacIntel,58.82352941,5da09f733c3367001a72dec6,6107d0959f7c4c3641818b95,611be1df3abd857eda8e482f,0.467,
,,,,space,,0,42,42,168,1,X, , , , ,,2500,2.5,5da09f733c3367001a72dec6,001,2021-08-17_17h21.18,natb3,2021.2.3,MacIntel,58.82352941,5da09f733c3367001a72dec6,6107d0959f7c4c3641818b95,611be1df3abd857eda8e482f,0.311,
,,,,space,,0,43,43,132,1,H, , , , ,space,2500,2.5,5da09f733c3367001a72dec6,001,2021-08-17_17h21.18,natb3,2021.2.3,MacIntel,58.82352941,5da09f733c3367001a72dec6,6107d0959f7c4c3641818b95,611be1df3abd857eda8e482f,0.43,
,,,,space,,0,44,44,135,1,K, , , , ,space,1500,1.5,5da09f733c3367001a72dec6,001,2021-08-17_17h21.18,natb3,2021.2.3,MacIntel,58.82352941,5da09f733c3367001a72dec6,6107d0959f7c4c3641818b95,611be1df3abd857eda8e482f,0.436,
,,,,space,,0,45,45,90,1,K, , , , ,space,2000,2,5da09f733c3367001a72dec6,001,2021-08-17_17h21.18,natb3,2021.2.3,MacIntel,58.82352941,5da09f733c3367001a72dec6,6107d0959f7c4c3641818b95,611be1df3abd857eda8e482f,0.415,
,,,,,,0,46,46,133,1,X, ,4, ,6,,2500,2.5,5da09f733c3367001a72dec6,001,2021-08-17_17h21.18,natb3,2021.2.3,MacIntel,58.82352941,5da09f733c3367001a72dec6,6107d0959f7c4c3641818b95,611be1df3abd857eda8e482f,,
,,,,,,0,47,47,311,1,X,1,2,7,3,,2500,2.5,5da09f733c3367001a72dec6,001,2021-08-17_17h21.18,natb3,2021.2.3,MacIntel,58.82352941,5da09f733c3367001a72dec6,6107d0959f7c4c3641818b95,611be1df3abd857eda8e482f,,
,,,,space,,0,48,48,26,1,C, , , , ,space,2000,2,5da09f733c3367001a72dec6,001,2021-08-17_17h21.18,natb3,2021.2.3,MacIntel,58.82352941,5da09f733c3367001a72dec6,6107d0959f7c4c3641818b95,611be1df3abd857eda8e482f,0.907,
,,,,space,,0,49,49,8,1,U, , , , ,space,1500,1.5,5da09f733c3367001a72dec6,001,2021-08-17_17h21.18,natb3,2021.2.3,MacIntel,58.82352941,5da09f733c3367001a72dec6,6107d0959f7c4c3641818b95,611be1df3abd857eda8e482f,0.455,
,,,,,,0,50,50,243,1,X, , , , ,,2500,2.5,5da09f733c3367001a72dec6,001,2021-08-17_17h21.18,natb3,2021.2.3,MacIntel,58.82352941,5da09f733c3367001a72dec6,6107d0959f7c4c3641818b95,611be1df3abd857eda8e482f,,
,,,,space,,0,51,51,332,1,U, , , , ,space,2000,2,5da09f733c3367001a72dec6,001,2021-08-17_17h21.18,natb3,2021.2.3,MacIntel,58.82352941,5da09f733c3367001a72dec6,6107d0959f7c4c3641818b95,611be1df3abd857eda8e482f,0.445,
,,,,space,,0,52,52,230,1,U, , , , ,space,1500,1.5,5da09f733c3367001a72dec6,001,2021-08-17_17h21.18,natb3,2021.2.3,MacIntel,58.82352941,5da09f733c3367001a72dec6,6107d0959f7c4c3641818b95,611be1df3abd857eda8e482f,0.424,
,,,,space,,0,53,53,307,1,F, , , , ,space,2500,2.5,5da09f733c3367001a72dec6,001,2021-08-17_17h21.18,natb3,2021.2.3,MacIntel,58.82352941,5da09f733c3367001a72dec6,6107d0959f7c4c3641818b95,611be1df3abd857eda8e482f,0.422,
,,,,space,,0,54,54,193,1,S, , , , ,space,2500,2.5,5da09f733c3367001a72dec6,001,2021-08-17_17h21.18,natb3,2021.2.3,MacIntel,58.82352941,5da09f733c3367001a72dec6,6107d0959f7c4c3641818b95,611be1df3abd857eda8e482f,0.379,
,,,,,,0,55,55,141,1,X,1, ,4,6,,1500,1.5,5da09f733c3367001a72dec6,001,2021-08-17_17h21.18,natb3,2021.2.3,MacIntel,58.82352941,5da09f733c3367001a72dec6,6107d0959f7c4c3641818b95,611be1df3abd857eda8e482f,,
,,,,space,,0,56,56,306,1,D, , , , ,space,2000,2,5da09f733c3367001a72dec6,001,2021-08-17_17h21.18,natb3,2021.2.3,MacIntel,58.82352941,5da09f733c3367001a72dec6,6107d0959f7c4c3641818b95,611be1df3abd857eda8e482f,0.38,
,,,,,,0,57,57,66,1,X, ,4,7, ,,2000,2,5da09f733c3367001a72dec6,001,2021-08-17_17h21.18,natb3,2021.2.3,MacIntel,58.82352941,5da09f733c3367001a72dec6,6107d0959f7c4c3641818b95,611be1df3abd857eda8e482f,,
,,,,,,0,58,58,60,1,X,7,3,5, ,,1500,1.5,5da09f733c3367001a72dec6,001,2021-08-17_17h21.18,natb3,2021.2.3,MacIntel,58.82352941,5da09f733c3367001a72dec6,6107d0959f7c4c3641818b95,611be1df3abd857eda8e482f,,
,,,,space,,0,59,59,177,1,M, , , , ,space,2500,2.5,5da09f733c3367001a72dec6,001,2021-08-17_17h21.18,natb3,2021.2.3,MacIntel,58.82352941,5da09f733c3367001a72dec6,6107d0959f7c4c3641818b95,611be1df3abd857eda8e482f,0.487,
,,,,,,0,60,60,322,1,X, , ,1,6,,2000,2,5da09f733c3367001a72dec6,001,2021-08-17_17h21.18,natb3,2021.2.3,MacIntel,58.82352941,5da09f733c3367001a72dec6,6107d0959f7c4c3641818b95,611be1df3abd857eda8e482f,,
,,,,space,,0,61,61,265,1,I, , , , ,space,2000,2,5da09f733c3367001a72dec6,001,2021-08-17_17h21.18,natb3,2021.2.3,MacIntel,58.82352941,5da09f733c3367001a72dec6,6107d0959f7c4c3641818b95,611be1df3abd857eda8e482f,0.472,
,,,,space,,0,62,62,0,1,Q, , , , ,space,1500,1.5,5da09f733c3367001a72dec6,001,2021-08-17_17h21.18,natb3,2021.2.3,MacIntel,58.82352941,5da09f733c3367001a72dec6,6107d0959f7c4c3641818b95,611be1df3abd857eda8e482f,0.462,
,,,,space,,0,63,63,314,1,L, , , , ,space,1500,1.5,5da09f733c3367001a72dec6,001,2021-08-17_17h21.18,natb3,2021.2.3,MacIntel,58.82352941,5da09f733c3367001a72dec6,6107d0959f7c4c3641818b95,611be1df3abd857eda8e482f,0.436,
,,,,space,,0,64,64,209,1,N, , , , ,space,2000,2,5da09f733c3367001a72dec6,001,2021-08-17_17h21.18,natb3,2021.2.3,MacIntel,58.82352941,5da09f733c3367001a72dec6,6107d0959f7c4c3641818b95,611be1df3abd857eda8e482f,0.438,
,,,,space,,0,65,65,227,1,T, , , , ,space,1500,1.5,5da09f733c3367001a72dec6,001,2021-08-17_17h21.18,natb3,2021.2.3,MacIntel,58.82352941,5da09f733c3367001a72dec6,6107d0959f7c4c3641818b95,611be1df3abd857eda8e482f,0.445,
,,,,space,,0,66,66,76,1,I, , , , ,space,2000,2,5da09f733c3367001a72dec6,001,2021-08-17_17h21.18,natb3,2021.2.3,MacIntel,58.82352941,5da09f733c3367001a72dec6,6107d0959f7c4c3641818b95,611be1df3abd857eda8e482f,0.519,
,,,,,,0,67,67,271,1,X, , , , ,,2500,2.5,5da09f733c3367001a72dec6,001,2021-08-17_17h21.18,natb3,2021.2.3,MacIntel,58.82352941,5da09f733c3367001a72dec6,6107d0959f7c4c3641818b95,611be1df3abd857eda8e482f,,
,,,,space,,0,68,68,326,1,W, , , , ,space,2000,2,5da09f733c3367001a72dec6,001,2021-08-17_17h21.18,natb3,2021.2.3,MacIntel,58.82352941,5da09f733c3367001a72dec6,6107d0959f7c4c3641818b95,611be1df3abd857eda8e482f,0.478,
,,,,space,,0,69,69,87,1,H, , , , ,space,1500,1.5,5da09f733c3367001a72dec6,001,2021-08-17_17h21.18,natb3,2021.2.3,MacIntel,58.82352941,5da09f733c3367001a72dec6,6107d0959f7c4c3641818b95,611be1df3abd857eda8e482f,0.406,
,,,,space,,0,70,70,228,1,Y, , , , ,space,2000,2,5da09f733c3367001a72dec6,001,2021-08-17_17h21.18,natb3,2021.2.3,MacIntel,58.82352941,5da09f733c3367001a72dec6,6107d0959f7c4c3641818b95,611be1df3abd857eda8e482f,0.4,
,,,,space,,0,71,71,80,1,A, , , , ,space,2000,2,5da09f733c3367001a72dec6,001,2021-08-17_17h21.18,natb3,2021.2.3,MacIntel,58.82352941,5da09f733c3367001a72dec6,6107d0959f7c4c3641818b95,611be1df3abd857eda8e482f,0.428,
,,,,space,,0,72,72,139,1,V, , , , ,space,2000,2,5da09f733c3367001a72dec6,001,2021-08-17_17h21.18,natb3,2021.2.3,MacIntel,58.82352941,5da09f733c3367001a72dec6,6107d0959f7c4c3641818b95,611be1df3abd857eda8e482f,0.461,
,,,,space,,0,73,73,244,1,J, , , , ,space,1500,1.5,5da09f733c3367001a72dec6,001,2021-08-17_17h21.18,natb3,2021.2.3,MacIntel,58.82352941,5da09f733c3367001a72dec6,6107d0959f7c4c3641818b95,611be1df3abd857eda8e482f,0.396,
,,,,space,,0,74,74,5,1,T, , , , ,space,2000,2,5da09f733c3367001a72dec6,001,2021-08-17_17h21.18,natb3,2021.2.3,MacIntel,58.82352941,5da09f733c3367001a72dec6,6107d0959f7c4c3641818b95,611be1df3abd857eda8e482f,0.854,
,,,,,,0,75,75,7,1,X, , , , ,,1500,1.5,5da09f733c3367001a72dec6,001,2021-08-17_17h21.18,natb3,2021.2.3,MacIntel,58.82352941,5da09f733c3367001a72dec6,6107d0959f7c4c3641818b95,611be1df3abd857eda8e482f,,
,,,,,,0,76,76,259,1,X,8, , ,3,,2500,2.5,5da09f733c3367001a72dec6,001,2021-08-17_17h21.18,natb3,2021.2.3,MacIntel,58.82352941,5da09f733c3367001a72dec6,6107d0959f7c4c3641818b95,611be1df3abd857eda8e482f,,
,,,,,,0,77,77,23,1,X,1, ,5, ,,2000,2,5da09f733c3367001a72dec6,001,2021-08-17_17h21.18,natb3,2021.2.3,MacIntel,58.82352941,5da09f733c3367001a72dec6,6107d0959f7c4c3641818b95,611be1df3abd857eda8e482f,,
,,,,space,,0,78,78,104,1,E, , , , ,space,2000,2,5da09f733c3367001a72dec6,001,2021-08-17_17h21.18,natb3,2021.2.3,MacIntel,58.82352941,5da09f733c3367001a72dec6,6107d0959f7c4c3641818b95,611be1df3abd857eda8e482f,0.412,
,,,,,,0,79,79,325,1,X, , , , ,,2500,2.5,5da09f733c3367001a72dec6,001,2021-08-17_17h21.18,natb3,2021.2.3,MacIntel,58.82352941,5da09f733c3367001a72dec6,6107d0959f7c4c3641818b95,611be1df3abd857eda8e482f,,
,,,,space,,0,80,80,105,1,R, , , , ,space,2500,2.5,5da09f733c3367001a72dec6,001,2021-08-17_17h21.18,natb3,2021.2.3,MacIntel,58.82352941,5da09f733c3367001a72dec6,6107d0959f7c4c3641818b95,611be1df3abd857eda8e482f,0.397,
,,,,space,,0,81,81,319,1,V, , , , ,space,2000,2,5da09f733c3367001a72dec6,001,2021-08-17_17h21.18,natb3,2021.2.3,MacIntel,58.82352941,5da09f733c3367001a72dec6,6107d0959f7c4c3641818b95,611be1df3abd857eda8e482f,0.527,
,,,,space,,0,82,82,151,1,Y, , , , ,space,2500,2.5,5da09f733c3367001a72dec6,001,2021-08-17_17h21.18,natb3,2021.2.3,MacIntel,58.82352941,5da09f733c3367001a72dec6,6107d0959f7c4c3641818b95,611be1df3abd857eda8e482f,0.351,
,,,,space,,0,83,83,121,1,I, , , , ,space,2000,2,5da09f733c3367001a72dec6,001,2021-08-17_17h21.18,natb3,2021.2.3,MacIntel,58.82352941,5da09f733c3367001a72dec6,6107d0959f7c4c3641818b95,611be1df3abd857eda8e482f,0.437,
,,,,space,,0,84,84,180,1,W, , , , ,space,2000,2,5da09f733c3367001a72dec6,001,2021-08-17_17h21.18,natb3,2021.2.3,MacIntel,58.82352941,5da09f733c3367001a72dec6,6107d0959f7c4c3641818b95,611be1df3abd857eda8e482f,0.449,
,,,,space,,0,85,85,280,1,L, , , , ,space,1500,1.5,5da09f733c3367001a72dec6,001,2021-08-17_17h21.18,natb3,2021.2.3,MacIntel,58.82352941,5da09f733c3367001a72dec6,6107d0959f7c4c3641818b95,611be1df3abd857eda8e482f,0.462,
,,,,space,,0,86,86,113,1,W, , , , ,space,2500,2.5,5da09f733c3367001a72dec6,001,2021-08-17_17h21.18,natb3,2021.2.3,MacIntel,58.82352941,5da09f733c3367001a72dec6,6107d0959f7c4c3641818b95,611be1df3abd857eda8e482f,0.431,
,,,,space,,0,87,87,238,1,D, , , , ,space,1500,1.5,5da09f733c3367001a72dec6,001,2021-08-17_17h21.18,natb3,2021.2.3,MacIntel,58.82352941,5da09f733c3367001a72dec6,6107d0959f7c4c3641818b95,611be1df3abd857eda8e482f,0.453,
,,,,space,,0,88,88,95,1,V, , , , ,space,1500,1.5,5da09f733c3367001a72dec6,001,2021-08-17_17h21.18,natb3,2021.2.3,MacIntel,58.82352941,5da09f733c3367001a72dec6,6107d0959f7c4c3641818b95,611be1df3abd857eda8e482f,0.455,
,,,,space,,0,89,89,170,1,Z, , , , ,space,2000,2,5da09f733c3367001a72dec6,001,2021-08-17_17h21.18,natb3,2021.2.3,MacIntel,58.82352941,5da09f733c3367001a72dec6,6107d0959f7c4c3641818b95,611be1df3abd857eda8e482f,0.514,
,,,,space,,0,90,90,183,1,R, , , , ,space,1500,1.5,5da09f733c3367001a72dec6,001,2021-08-17_17h21.18,natb3,2021.2.3,MacIntel,58.82352941,5da09f733c3367001a72dec6,6107d0959f7c4c3641818b95,611be1df3abd857eda8e482f,0.413,
,,,,space,,0,91,91,163,1,G, , , , ,space,2500,2.5,5da09f733c3367001a72dec6,001,2021-08-17_17h21.18,natb3,2021.2.3,MacIntel,58.82352941,5da09f733c3367001a72dec6,6107d0959f7c4c3641818b95,611be1df3abd857eda8e482f,0.332,
,,,,space,,0,92,92,48,1,A, , , , ,space,2500,2.5,5da09f733c3367001a72dec6,001,2021-08-17_17h21.18,natb3,2021.2.3,MacIntel,58.82352941,5da09f733c3367001a72dec6,6107d0959f7c4c3641818b95,611be1df3abd857eda8e482f,0.386,
,,,,space,,0,93,93,38,1,R, , , , ,space,2500,2.5,5da09f733c3367001a72dec6,001,2021-08-17_17h21.18,natb3,2021.2.3,MacIntel,58.82352941,5da09f733c3367001a72dec6,6107d0959f7c4c3641818b95,611be1df3abd857eda8e482f,0.379,
,,,,space,,0,94,94,308,1,G, , , , ,space,1500,1.5,5da09f733c3367001a72dec6,001,2021-08-17_17h21.18,natb3,2021.2.3,MacIntel,58.82352941,5da09f733c3367001a72dec6,6107d0959f7c4c3641818b95,611be1df3abd857eda8e482f,0.367,
,,,,space,,0,95,95,94,1,C, , , , ,space,2000,2,5da09f733c3367001a72dec6,001,2021-08-17_17h21.18,natb3,2021.2.3,MacIntel,58.82352941,5da09f733c3367001a72dec6,6107d0959f7c4c3641818b95,611be1df3abd857eda8e482f,0.396,
,,,,space,,0,96,96,114,1,E, , , , ,space,2000,2,5da09f733c3367001a72dec6,001,2021-08-17_17h21.18,natb3,2021.2.3,MacIntel,58.82352941,5da09f733c3367001a72dec6,6107d0959f7c4c3641818b95,611be1df3abd857eda8e482f,0.404,
,,,,,,0,97,97,107,1,X,9,3, ,2,,2000,2,5da09f733c3367001a72dec6,001,2021-08-17_17h21.18,natb3,2021.2.3,MacIntel,58.82352941,5da09f733c3367001a72dec6,6107d0959f7c4c3641818b95,611be1df3abd857eda8e482f,,
,,,,space,,0,98,98,253,1,N, , , , ,space,2500,2.5,5da09f733c3367001a72dec6,001,2021-08-17_17h21.18,natb3,2021.2.3,MacIntel,58.82352941,5da09f733c3367001a72dec6,6107d0959f7c4c3641818b95,611be1df3abd857eda8e482f,0.455,
,,,,space,,0,99,99,300,1,O, , , , ,space,2500,2.5,5da09f733c3367001a72dec6,001,2021-08-17_17h21.18,natb3,2021.2.3,MacIntel,58.82352941,5da09f733c3367001a72dec6,6107d0959f7c4c3641818b95,611be1df3abd857eda8e482f,0.497,
,,,,space,,0,100,100,32,1,M, , , , ,space,1500,1.5,5da09f733c3367001a72dec6,001,2021-08-17_17h21.18,natb3,2021.2.3,MacIntel,58.82352941,5da09f733c3367001a72dec6,6107d0959f7c4c3641818b95,611be1df3abd857eda8e482f,0.384,
,,,,space,,0,101,101,119,1,Y, , , , ,space,2500,2.5,5da09f733c3367001a72dec6,001,2021-08-17_17h21.18,natb3,2021.2.3,MacIntel,58.82352941,5da09f733c3367001a72dec6,6107d0959f7c4c3641818b95,611be1df3abd857eda8e482f,0.43,
,,,,space,,0,102,102,85,1,F, , , , ,space,2500,2.5,5da09f733c3367001a72dec6,001,2021-08-17_17h21.18,natb3,2021.2.3,MacIntel,58.82352941,5da09f733c3367001a72dec6,6107d0959f7c4c3641818b95,611be1df3abd857eda8e482f,0.431,
,,,,,,0,103,103,171,1,X, , , , ,,1500,1.5,5da09f733c3367001a72dec6,001,2021-08-17_17h21.18,natb3,2021.2.3,MacIntel,58.82352941,5da09f733c3367001a72dec6,6107d0959f7c4c3641818b95,611be1df3abd857eda8e482f,,
,,,,space,,0,104,104,181,1,E, , , , ,space,1500,1.5,5da09f733c3367001a72dec6,001,2021-08-17_17h21.18,natb3,2021.2.3,MacIntel,58.82352941,5da09f733c3367001a72dec6,6107d0959f7c4c3641818b95,611be1df3abd857eda8e482f,0.429,
,,,,space,,0,105,105,57,1,K, , , , ,space,2500,2.5,5da09f733c3367001a72dec6,001,2021-08-17_17h21.18,natb3,2021.2.3,MacIntel,58.82352941,5da09f733c3367001a72dec6,6107d0959f7c4c3641818b95,611be1df3abd857eda8e482f,0.479,
,,,,space,,0,106,106,232,1,O, , , , ,space,2500,2.5,5da09f733c3367001a72dec6,001,2021-08-17_17h21.18,natb3,2021.2.3,MacIntel,58.82352941,5da09f733c3367001a72dec6,6107d0959f7c4c3641818b95,611be1df3abd857eda8e482f,0.435,
,,,,space,,0,107,107,147,1,E, , , , ,space,2000,2,5da09f733c3367001a72dec6,001,2021-08-17_17h21.18,natb3,2021.2.3,MacIntel,58.82352941,5da09f733c3367001a72dec6,6107d0959f7c4c3641818b95,611be1df3abd857eda8e482f,0.414,
,,,,space,,0,108,108,290,1,W, , , , ,space,1500,1.5,5da09f733c3367001a72dec6,001,2021-08-17_17h21.18,natb3,2021.2.3,MacIntel,58.82352941,5da09f733c3367001a72dec6,6107d0959f7c4c3641818b95,611be1df3abd857eda8e482f,0.618,
,,,,space,,0,109,109,112,1,Q, , , , ,space,2500,2.5,5da09f733c3367001a72dec6,001,2021-08-17_17h21.18,natb3,2021.2.3,MacIntel,58.82352941,5da09f733c3367001a72dec6,6107d0959f7c4c3641818b95,611be1df3abd857eda8e482f,0.379,
,,,,space,,0,110,110,299,1,X, , , , ,,2500,2.5,5da09f733c3367001a72dec6,001,2021-08-17_17h21.18,natb3,2021.2.3,MacIntel,58.82352941,5da09f733c3367001a72dec6,6107d0959f7c4c3641818b95,611be1df3abd857eda8e482f,0.376,
,,,,space,,0,111,111,261,1,T, , , , ,space,2000,2,5da09f733c3367001a72dec6,001,2021-08-17_17h21.18,natb3,2021.2.3,MacIntel,58.82352941,5da09f733c3367001a72dec6,6107d0959f7c4c3641818b95,611be1df3abd857eda8e482f,0.413,
,,,,,,0,112,112,305,1,X, , , , ,,1500,1.5,5da09f733c3367001a72dec6,001,2021-08-17_17h21.18,natb3,2021.2.3,MacIntel,58.82352941,5da09f733c3367001a72dec6,6107d0959f7c4c3641818b95,611be1df3abd857eda8e482f,,
,,,,space,,0,113,113,75,1,U, , , , ,space,1500,1.5,5da09f733c3367001a72dec6,001,2021-08-17_17h21.18,natb3,2021.2.3,MacIntel,58.82352941,5da09f733c3367001a72dec6,6107d0959f7c4c3641818b95,611be1df3abd857eda8e482f,0.405,
,,,,,,0,114,114,166,1,X, , , , ,,2000,2,5da09f733c3367001a72dec6,001,2021-08-17_17h21.18,natb3,2021.2.3,MacIntel,58.82352941,5da09f733c3367001a72dec6,6107d0959f7c4c3641818b95,611be1df3abd857eda8e482f,,
,,,,,,0,115,115,302,1,X, , , , ,,2000,2,5da09f733c3367001a72dec6,001,2021-08-17_17h21.18,natb3,2021.2.3,MacIntel,58.82352941,5da09f733c3367001a72dec6,6107d0959f7c4c3641818b95,611be1df3abd857eda8e482f,,
,,,,space,,0,116,116,303,1,A, , , , ,space,2000,2,5da09f733c3367001a72dec6,001,2021-08-17_17h21.18,natb3,2021.2.3,MacIntel,58.82352941,5da09f733c3367001a72dec6,6107d0959f7c4c3641818b95,611be1df3abd857eda8e482f,0.462,
,,,,,,0,117,117,175,1,X,7, ,4,2,,1500,1.5,5da09f733c3367001a72dec6,001,2021-08-17_17h21.18,natb3,2021.2.3,MacIntel,58.82352941,5da09f733c3367001a72dec6,6107d0959f7c4c3641818b95,611be1df3abd857eda8e482f,,
,,,,,,0,118,118,43,1,X, ,6, ,2,,2500,2.5,5da09f733c3367001a72dec6,001,2021-08-17_17h21.18,natb3,2021.2.3,MacIntel,58.82352941,5da09f733c3367001a72dec6,6107d0959f7c4c3641818b95,611be1df3abd857eda8e482f,,
,,,,space,,0,119,119,120,1,U, , , , ,space,1500,1.5,5da09f733c3367001a72dec6,001,2021-08-17_17h21.18,natb3,2021.2.3,MacIntel,58.82352941,5da09f733c3367001a72dec6,6107d0959f7c4c3641818b95,611be1df3abd857eda8e482f,0.509,
,,,,space,,0,120,120,235,1,A, , , , ,space,1500,1.5,5da09f733c3367001a72dec6,001,2021-08-17_17h21.18,natb3,2021.2.3,MacIntel,58.82352941,5da09f733c3367001a72dec6,6107d0959f7c4c3641818b95,611be1df3abd857eda8e482f,0.506,
,,,,space,,0,121,121,262,1,Y, , , , ,space,2500,2.5,5da09f733c3367001a72dec6,001,2021-08-17_17h21.18,natb3,2021.2.3,MacIntel,58.82352941,5da09f733c3367001a72dec6,6107d0959f7c4c3641818b95,611be1df3abd857eda8e482f,0.562,
,,,,,,0,122,122,18,1,X, ,2,5,8,,2500,2.5,5da09f733c3367001a72dec6,001,2021-08-17_17h21.18,natb3,2021.2.3,MacIntel,58.82352941,5da09f733c3367001a72dec6,6107d0959f7c4c3641818b95,611be1df3abd857eda8e482f,,
,,,,space,,0,123,123,67,1,Q, , , , ,space,2000,2,5da09f733c3367001a72dec6,001,2021-08-17_17h21.18,natb3,2021.2.3,MacIntel,58.82352941,5da09f733c3367001a72dec6,6107d0959f7c4c3641818b95,611be1df3abd857eda8e482f,0.414,
,,,,,,0,124,124,313,1,X, , , , ,,2500,2.5,5da09f733c3367001a72dec6,001,2021-08-17_17h21.18,natb3,2021.2.3,MacIntel,58.82352941,5da09f733c3367001a72dec6,6107d0959f7c4c3641818b95,611be1df3abd857eda8e482f,,
,,,,space,,0,125,125,34,1,Q, , , , ,space,2500,2.5,5da09f733c3367001a72dec6,001,2021-08-17_17h21.18,natb3,2021.2.3,MacIntel,58.82352941,5da09f733c3367001a72dec6,6107d0959f7c4c3641818b95,611be1df3abd857eda8e482f,0.347,
,,,,,,0,126,126,82,1,X,4,6,1,7,,2000,2,5da09f733c3367001a72dec6,001,2021-08-17_17h21.18,natb3,2021.2.3,MacIntel,58.82352941,5da09f733c3367001a72dec6,6107d0959f7c4c3641818b95,611be1df3abd857eda8e482f,,
,,,,space,,0,127,127,316,1,Z, , , , ,space,1500,1.5,5da09f733c3367001a72dec6,001,2021-08-17_17h21.18,natb3,2021.2.3,MacIntel,58.82352941,5da09f733c3367001a72dec6,6107d0959f7c4c3641818b95,611be1df3abd857eda8e482f,0.383,
,,,,,,0,128,128,148,1,X, , , , ,,2000,2,5da09f733c3367001a72dec6,001,2021-08-17_17h21.18,natb3,2021.2.3,MacIntel,58.82352941,5da09f733c3367001a72dec6,6107d0959f7c4c3641818b95,611be1df3abd857eda8e482f,,
,,,,,,0,129,129,19,1,G, , , , ,space,1500,1.5,5da09f733c3367001a72dec6,001,2021-08-17_17h21.18,natb3,2021.2.3,MacIntel,58.82352941,5da09f733c3367001a72dec6,6107d0959f7c4c3641818b95,611be1df3abd857eda8e482f,,
,,,,space,,0,130,130,212,1,Q, , , , ,space,2500,2.5,5da09f733c3367001a72dec6,001,2021-08-17_17h21.18,natb3,2021.2.3,MacIntel,58.82352941,5da09f733c3367001a72dec6,6107d0959f7c4c3641818b95,611be1df3abd857eda8e482f,0.375,
,,,,,,0,131,131,84,1,X, , , , ,,2000,2,5da09f733c3367001a72dec6,001,2021-08-17_17h21.18,natb3,2021.2.3,MacIntel,58.82352941,5da09f733c3367001a72dec6,6107d0959f7c4c3641818b95,611be1df3abd857eda8e482f,,
,,,,space,,0,132,132,117,1,T, , , , ,space,2500,2.5,5da09f733c3367001a72dec6,001,2021-08-17_17h21.18,natb3,2021.2.3,MacIntel,58.82352941,5da09f733c3367001a72dec6,6107d0959f7c4c3641818b95,611be1df3abd857eda8e482f,0.413,
,,,,space,,0,133,133,30,1,N, , , , ,space,2500,2.5,5da09f733c3367001a72dec6,001,2021-08-17_17h21.18,natb3,2021.2.3,MacIntel,58.82352941,5da09f733c3367001a72dec6,6107d0959f7c4c3641818b95,611be1df3abd857eda8e482f,0.41,
,,,,space,,0,134,134,231,1,I, , , , ,space,2500,2.5,5da09f733c3367001a72dec6,001,2021-08-17_17h21.18,natb3,2021.2.3,MacIntel,58.82352941,5da09f733c3367001a72dec6,6107d0959f7c4c3641818b95,611be1df3abd857eda8e482f,0.447,
,,,,space,,0,135,135,321,1,N, , , , ,space,2000,2,5da09f733c3367001a72dec6,001,2021-08-17_17h21.18,natb3,2021.2.3,MacIntel,58.82352941,5da09f733c3367001a72dec6,6107d0959f7c4c3641818b95,611be1df3abd857eda8e482f,0.788,
,,,,space,,0,136,136,50,1,D, , , , ,space,1500,1.5,5da09f733c3367001a72dec6,001,2021-08-17_17h21.18,natb3,2021.2.3,MacIntel,58.82352941,5da09f733c3367001a72dec6,6107d0959f7c4c3641818b95,611be1df3abd857eda8e482f,0.837,
,,,,space,,0,137,137,61,1,C, , , , ,space,2000,2,5da09f733c3367001a72dec6,001,2021-08-17_17h21.18,natb3,2021.2.3,MacIntel,58.82352941,5da09f733c3367001a72dec6,6107d0959f7c4c3641818b95,611be1df3abd857eda8e482f,0.646,
,,,,,,0,138,138,162,1,X,1,6, ,2,,1500,1.5,5da09f733c3367001a72dec6,001,2021-08-17_17h21.18,natb3,2021.2.3,MacIntel,58.82352941,5da09f733c3367001a72dec6,6107d0959f7c4c3641818b95,611be1df3abd857eda8e482f,,
,,,,space,,0,139,139,81,1,S, , , , ,space,2000,2,5da09f733c3367001a72dec6,001,2021-08-17_17h21.18,natb3,2021.2.3,MacIntel,58.82352941,5da09f733c3367001a72dec6,6107d0959f7c4c3641818b95,611be1df3abd857eda8e482f,0.379,
,,,,,,0,140,140,287,1,X, ,2, ,9,,2000,2,5da09f733c3367001a72dec6,001,2021-08-17_17h21.18,natb3,2021.2.3,MacIntel,58.82352941,5da09f733c3367001a72dec6,6107d0959f7c4c3641818b95,611be1df3abd857eda8e482f,,
,,,,,,0,141,141,191,1,X,1, ,3,4,,2500,2.5,5da09f733c3367001a72dec6,001,2021-08-17_17h21.18,natb3,2021.2.3,MacIntel,58.82352941,5da09f733c3367001a72dec6,6107d0959f7c4c3641818b95,611be1df3abd857eda8e482f,,
,,,,space,,0,142,142,264,1,U, , , , ,space,2000,2,5da09f733c3367001a72dec6,001,2021-08-17_17h21.18,natb3,2021.2.3,MacIntel,58.82352941,5da09f733c3367001a72dec6,6107d0959f7c4c3641818b95,611be1df3abd857eda8e482f,0.569,
,,,,,,0,143,143,318,1,X, , , , ,,1500,1.5,5da09f733c3367001a72dec6,001,2021-08-17_17h21.18,natb3,2021.2.3,MacIntel,58.82352941,5da09f733c3367001a72dec6,6107d0959f7c4c3641818b95,611be1df3abd857eda8e482f,,
,,,,space,,0,144,144,37,1,E, , , , ,space,2500,2.5,5da09f733c3367001a72dec6,001,2021-08-17_17h21.18,natb3,2021.2.3,MacIntel,58.82352941,5da09f733c3367001a72dec6,6107d0959f7c4c3641818b95,611be1df3abd857eda8e482f,0.388,
,,,,,,0,145,145,179,1,X, ,9, ,2,,1500,1.5,5da09f733c3367001a72dec6,001,2021-08-17_17h21.18,natb3,2021.2.3,MacIntel,58.82352941,5da09f733c3367001a72dec6,6107d0959f7c4c3641818b95,611be1df3abd857eda8e482f,,
,,,,,,0,146,146,89,1,X,3, , , ,,2000,2,5da09f733c3367001a72dec6,001,2021-08-17_17h21.18,natb3,2021.2.3,MacIntel,58.82352941,5da09f733c3367001a72dec6,6107d0959f7c4c3641818b95,611be1df3abd857eda8e482f,,
,,,,space,,0,147,147,199,1,J, , , , ,space,2500,2.5,5da09f733c3367001a72dec6,001,2021-08-17_17h21.18,natb3,2021.2.3,MacIntel,58.82352941,5da09f733c3367001a72dec6,6107d0959f7c4c3641818b95,611be1df3abd857eda8e482f,0.459,
,,,,space,,0,148,148,53,1,G, , , , ,space,2500,2.5,5da09f733c3367001a72dec6,001,2021-08-17_17h21.18,natb3,2021.2.3,MacIntel,58.82352941,5da09f733c3367001a72dec6,6107d0959f7c4c3641818b95,611be1df3abd857eda8e482f,0.45,
,,,,,,0,149,149,118,1,X, , , , ,,2000,2,5da09f733c3367001a72dec6,001,2021-08-17_17h21.18,natb3,2021.2.3,MacIntel,58.82352941,5da09f733c3367001a72dec6,6107d0959f7c4c3641818b95,611be1df3abd857eda8e482f,,
,,,,space,,0,150,150,215,1,E, , , , ,space,2500,2.5,5da09f733c3367001a72dec6,001,2021-08-17_17h21.18,natb3,2021.2.3,MacIntel,58.82352941,5da09f733c3367001a72dec6,6107d0959f7c4c3641818b95,611be1df3abd857eda8e482f,0.47,
,,,,space,,0,151,151,56,1,J, , , , ,space,1500,1.5,5da09f733c3367001a72dec6,001,2021-08-17_17h21.18,natb3,2021.2.3,MacIntel,58.82352941,5da09f733c3367001a72dec6,6107d0959f7c4c3641818b95,611be1df3abd857eda8e482f,0.606,
,,,,,,0,152,152,4,1,X, , , , ,,2000,2,5da09f733c3367001a72dec6,001,2021-08-17_17h21.18,natb3,2021.2.3,MacIntel,58.82352941,5da09f733c3367001a72dec6,6107d0959f7c4c3641818b95,611be1df3abd857eda8e482f,,
,,,,space,,0,153,153,78,1,X, , , , ,,2000,2,5da09f733c3367001a72dec6,001,2021-08-17_17h21.18,natb3,2021.2.3,MacIntel,58.82352941,5da09f733c3367001a72dec6,6107d0959f7c4c3641818b95,611be1df3abd857eda8e482f,0.311,
,,,,space,,0,154,154,68,1,W, , , , ,space,2500,2.5,5da09f733c3367001a72dec6,001,2021-08-17_17h21.18,natb3,2021.2.3,MacIntel,58.82352941,5da09f733c3367001a72dec6,6107d0959f7c4c3641818b95,611be1df3abd857eda8e482f,0.564,
,,,,space,,0,155,155,172,1,C, , , , ,space,1500,1.5,5da09f733c3367001a72dec6,001,2021-08-17_17h21.18,natb3,2021.2.3,MacIntel,58.82352941,5da09f733c3367001a72dec6,6107d0959f7c4c3641818b95,611be1df3abd857eda8e482f,0.448,
,,,,,,0,156,156,125,1,X, , , , ,,2000,2,5da09f733c3367001a72dec6,001,2021-08-17_17h21.18,natb3,2021.2.3,MacIntel,58.82352941,5da09f733c3367001a72dec6,6107d0959f7c4c3641818b95,611be1df3abd857eda8e482f,,
,,,,space,,0,157,157,159,1,S, , , , ,space,2500,2.5,5da09f733c3367001a72dec6,001,2021-08-17_17h21.18,natb3,2021.2.3,MacIntel,58.82352941,5da09f733c3367001a72dec6,6107d0959f7c4c3641818b95,611be1df3abd857eda8e482f,0.437,
,,,,,,0,158,158,9,1,I, , , , ,space,1500,1.5,5da09f733c3367001a72dec6,001,2021-08-17_17h21.18,natb3,2021.2.3,MacIntel,58.82352941,5da09f733c3367001a72dec6,6107d0959f7c4c3641818b95,611be1df3abd857eda8e482f,,
,,,,,,0,159,159,210,1,M, , , , ,space,1500,1.5,5da09f733c3367001a72dec6,001,2021-08-17_17h21.18,natb3,2021.2.3,MacIntel,58.82352941,5da09f733c3367001a72dec6,6107d0959f7c4c3641818b95,611be1df3abd857eda8e482f,,
,,,,space,,0,160,160,204,1,Z, , , , ,space,2000,2,5da09f733c3367001a72dec6,001,2021-08-17_17h21.18,natb3,2021.2.3,MacIntel,58.82352941,5da09f733c3367001a72dec6,6107d0959f7c4c3641818b95,611be1df3abd857eda8e482f,0.463,
,,,,,,0,161,161,47,1,P, , , , ,space,2000,2,5da09f733c3367001a72dec6,001,2021-08-17_17h21.18,natb3,2021.2.3,MacIntel,58.82352941,5da09f733c3367001a72dec6,6107d0959f7c4c3641818b95,611be1df3abd857eda8e482f,,
,,,,space,,0,162,162,211,1,X, , , , ,,2500,2.5,5da09f733c3367001a72dec6,001,2021-08-17_17h21.18,natb3,2021.2.3,MacIntel,58.82352941,5da09f733c3367001a72dec6,6107d0959f7c4c3641818b95,611be1df3abd857eda8e482f,0.421,
,,,,space,,0,163,163,323,1,M, , , , ,space,2500,2.5,5da09f733c3367001a72dec6,001,2021-08-17_17h21.18,natb3,2021.2.3,MacIntel,58.82352941,5da09f733c3367001a72dec6,6107d0959f7c4c3641818b95,611be1df3abd857eda8e482f,0.385,
,,,,,,0,164,164,46,1,X, , , , ,,2000,2,5da09f733c3367001a72dec6,001,2021-08-17_17h21.18,natb3,2021.2.3,MacIntel,58.82352941,5da09f733c3367001a72dec6,6107d0959f7c4c3641818b95,611be1df3abd857eda8e482f,,
,,,,space,,0,165,165,41,1,Y, , , , ,space,2500,2.5,5da09f733c3367001a72dec6,001,2021-08-17_17h21.18,natb3,2021.2.3,MacIntel,58.82352941,5da09f733c3367001a72dec6,6107d0959f7c4c3641818b95,611be1df3abd857eda8e482f,0.456,
,,,,space,,0,166,166,330,1,T, , , , ,space,2500,2.5,5da09f733c3367001a72dec6,001,2021-08-17_17h21.18,natb3,2021.2.3,MacIntel,58.82352941,5da09f733c3367001a72dec6,6107d0959f7c4c3641818b95,611be1df3abd857eda8e482f,0.441,
,,,,space,space,0,167,167,2,1,E, , , , ,space,2500,2.5,5da09f733c3367001a72dec6,001,2021-08-17_17h21.18,natb3,2021.2.3,MacIntel,58.82352941,5da09f733c3367001a72dec6,6107d0959f7c4c3641818b95,611be1df3abd857eda8e482f,0.431,8.245
,,,,space,,0,168,168,324,1,Q, , , , ,space,2000,2,5da09f733c3367001a72dec6,001,2021-08-17_17h21.18,natb3,2021.2.3,MacIntel,58.82352941,5da09f733c3367001a72dec6,6107d0959f7c4c3641818b95,611be1df3abd857eda8e482f,0.472,
,,,,space,,0,169,169,6,1,Y, , , , ,space,2500,2.5,5da09f733c3367001a72dec6,001,2021-08-17_17h21.18,natb3,2021.2.3,MacIntel,58.82352941,5da09f733c3367001a72dec6,6107d0959f7c4c3641818b95,611be1df3abd857eda8e482f,0.421,
,,,,,,0,170,170,51,1,X,7,5,8, ,,1500,1.5,5da09f733c3367001a72dec6,001,2021-08-17_17h21.18,natb3,2021.2.3,MacIntel,58.82352941,5da09f733c3367001a72dec6,6107d0959f7c4c3641818b95,611be1df3abd857eda8e482f,,
,,,,space,,0,171,171,281,1,Z, , , , ,space,1500,1.5,5da09f733c3367001a72dec6,001,2021-08-17_17h21.18,natb3,2021.2.3,MacIntel,58.82352941,5da09f733c3367001a72dec6,6107d0959f7c4c3641818b95,611be1df3abd857eda8e482f,0.444,
,,,,space,,0,172,172,134,1,J, , , , ,space,2000,2,5da09f733c3367001a72dec6,001,2021-08-17_17h21.18,natb3,2021.2.3,MacIntel,58.82352941,5da09f733c3367001a72dec6,6107d0959f7c4c3641818b95,611be1df3abd857eda8e482f,0.401,
,,,,space,,0,173,173,286,1,N, , , , ,space,1500,1.5,5da09f733c3367001a72dec6,001,2021-08-17_17h21.18,natb3,2021.2.3,MacIntel,58.82352941,5da09f733c3367001a72dec6,6107d0959f7c4c3641818b95,611be1df3abd857eda8e482f,0.572,
,,,,space,,0,174,174,254,1,M, , , , ,space,1500,1.5,5da09f733c3367001a72dec6,001,2021-08-17_17h21.18,natb3,2021.2.3,MacIntel,58.82352941,5da09f733c3367001a72dec6,6107d0959f7c4c3641818b95,611be1df3abd857eda8e482f,0.713,
,,,,space,,0,175,175,52,1,F, , , , ,space,1500,1.5,5da09f733c3367001a72dec6,001,2021-08-17_17h21.18,natb3,2021.2.3,MacIntel,58.82352941,5da09f733c3367001a72dec6,6107d0959f7c4c3641818b95,611be1df3abd857eda8e482f,0.435,
,,,,space,,0,176,176,36,1,W, , , , ,space,2000,2,5da09f733c3367001a72dec6,001,2021-08-17_17h21.18,natb3,2021.2.3,MacIntel,58.82352941,5da09f733c3367001a72dec6,6107d0959f7c4c3641818b95,611be1df3abd857eda8e482f,0.313,
,,,,,,0,177,177,213,1,X, , , , ,,2500,2.5,5da09f733c3367001a72dec6,001,2021-08-17_17h21.18,natb3,2021.2.3,MacIntel,58.82352941,5da09f733c3367001a72dec6,6107d0959f7c4c3641818b95,611be1df3abd857eda8e482f,,
,,,,space,,0,178,178,123,1,O, , , , ,space,1500,1.5,5da09f733c3367001a72dec6,001,2021-08-17_17h21.18,natb3,2021.2.3,MacIntel,58.82352941,5da09f733c3367001a72dec6,6107d0959f7c4c3641818b95,611be1df3abd857eda8e482f,0.397,
,,,,space,,0,179,179,246,1,L, , , , ,space,2500,2.5,5da09f733c3367001a72dec6,001,2021-08-17_17h21.18,natb3,2021.2.3,MacIntel,58.82352941,5da09f733c3367001a72dec6,6107d0959f7c4c3641818b95,611be1df3abd857eda8e482f,0.59,
,,,,space,,0,180,180,115,1,R, , , , ,space,1500,1.5,5da09f733c3367001a72dec6,001,2021-08-17_17h21.18,natb3,2021.2.3,MacIntel,58.82352941,5da09f733c3367001a72dec6,6107d0959f7c4c3641818b95,611be1df3abd857eda8e482f,0.449,
,,,,space,,0,181,181,226,1,R, , , , ,space,2000,2,5da09f733c3367001a72dec6,001,2021-08-17_17h21.18,natb3,2021.2.3,MacIntel,58.82352941,5da09f733c3367001a72dec6,6107d0959f7c4c3641818b95,611be1df3abd857eda8e482f,0.506,
,,,,space,,0,182,182,279,1,K, , , , ,space,2500,2.5,5da09f733c3367001a72dec6,001,2021-08-17_17h21.18,natb3,2021.2.3,MacIntel,58.82352941,5da09f733c3367001a72dec6,6107d0959f7c4c3641818b95,611be1df3abd857eda8e482f,0.446,
,,,,,,0,183,183,282,1,X, , , , ,,2500,2.5,5da09f733c3367001a72dec6,001,2021-08-17_17h21.18,natb3,2021.2.3,MacIntel,58.82352941,5da09f733c3367001a72dec6,6107d0959f7c4c3641818b95,611be1df3abd857eda8e482f,,
,,,,space,,0,184,184,29,1,B, , , , ,space,1500,1.5,5da09f733c3367001a72dec6,001,2021-08-17_17h21.18,natb3,2021.2.3,MacIntel,58.82352941,5da09f733c3367001a72dec6,6107d0959f7c4c3641818b95,611be1df3abd857eda8e482f,0.435,
,,,,,,0,185,185,39,1,X,6,2, , ,,1500,1.5,5da09f733c3367001a72dec6,001,2021-08-17_17h21.18,natb3,2021.2.3,MacIntel,58.82352941,5da09f733c3367001a72dec6,6107d0959f7c4c3641818b95,611be1df3abd857eda8e482f,,
,,,,space,,0,186,186,241,1,G, , , , ,space,2500,2.5,5da09f733c3367001a72dec6,001,2021-08-17_17h21.18,natb3,2021.2.3,MacIntel,58.82352941,5da09f733c3367001a72dec6,6107d0959f7c4c3641818b95,611be1df3abd857eda8e482f,0.466,
,,,,,,0,187,187,15,1,X, , , , ,,1500,1.5,5da09f733c3367001a72dec6,001,2021-08-17_17h21.18,natb3,2021.2.3,MacIntel,58.82352941,5da09f733c3367001a72dec6,6107d0959f7c4c3641818b95,611be1df3abd857eda8e482f,,
,,,,,,0,188,188,291,1,X, , , , ,,2000,2,5da09f733c3367001a72dec6,001,2021-08-17_17h21.18,natb3,2021.2.3,MacIntel,58.82352941,5da09f733c3367001a72dec6,6107d0959f7c4c3641818b95,611be1df3abd857eda8e482f,,
,,,,,,0,189,189,229,1,X,8, ,2,6,,2500,2.5,5da09f733c3367001a72dec6,001,2021-08-17_17h21.18,natb3,2021.2.3,MacIntel,58.82352941,5da09f733c3367001a72dec6,6107d0959f7c4c3641818b95,611be1df3abd857eda8e482f,,
,,,,space,,0,190,190,178,1,Q, , , , ,space,1500,1.5,5da09f733c3367001a72dec6,001,2021-08-17_17h21.18,natb3,2021.2.3,MacIntel,58.82352941,5da09f733c3367001a72dec6,6107d0959f7c4c3641818b95,611be1df3abd857eda8e482f,0.696,
,,,,space,,0,191,191,45,1,O, , , , ,space,2000,2,5da09f733c3367001a72dec6,001,2021-08-17_17h21.18,natb3,2021.2.3,MacIntel,58.82352941,5da09f733c3367001a72dec6,6107d0959f7c4c3641818b95,611be1df3abd857eda8e482f,0.497,
,,,,space,,0,192,192,149,1,R, , , , ,space,2000,2,5da09f733c3367001a72dec6,001,2021-08-17_17h21.18,natb3,2021.2.3,MacIntel,58.82352941,5da09f733c3367001a72dec6,6107d0959f7c4c3641818b95,611be1df3abd857eda8e482f,0.612,
,,,,space,,0,193,193,144,1,Q, , , , ,space,2500,2.5,5da09f733c3367001a72dec6,001,2021-08-17_17h21.18,natb3,2021.2.3,MacIntel,58.82352941,5da09f733c3367001a72dec6,6107d0959f7c4c3641818b95,611be1df3abd857eda8e482f,0.432,
,,,,space,,0,194,194,269,1,A, , , , ,space,2500,2.5,5da09f733c3367001a72dec6,001,2021-08-17_17h21.18,natb3,2021.2.3,MacIntel,58.82352941,5da09f733c3367001a72dec6,6107d0959f7c4c3641818b95,611be1df3abd857eda8e482f,0.501,
,,,,space,,0,195,195,101,1,Q, , , , ,space,2500,2.5,5da09f733c3367001a72dec6,001,2021-08-17_17h21.18,natb3,2021.2.3,MacIntel,58.82352941,5da09f733c3367001a72dec6,6107d0959f7c4c3641818b95,611be1df3abd857eda8e482f,0.414,
,,,,space,,0,196,196,274,1,F, , , , ,space,2000,2,5da09f733c3367001a72dec6,001,2021-08-17_17h21.18,natb3,2021.2.3,MacIntel,58.82352941,5da09f733c3367001a72dec6,6107d0959f7c4c3641818b95,611be1df3abd857eda8e482f,0.502,
,,,,space,,0,197,197,176,1,N, , , , ,space,1500,1.5,5da09f733c3367001a72dec6,001,2021-08-17_17h21.18,natb3,2021.2.3,MacIntel,58.82352941,5da09f733c3367001a72dec6,6107d0959f7c4c3641818b95,611be1df3abd857eda8e482f,0.529,
,,,,space,,0,198,198,260,1,R, , , , ,space,2000,2,5da09f733c3367001a72dec6,001,2021-08-17_17h21.18,natb3,2021.2.3,MacIntel,58.82352941,5da09f733c3367001a72dec6,6107d0959f7c4c3641818b95,611be1df3abd857eda8e482f,0.43,
,,,,space,,0,199,199,11,1,P, , , , ,space,2500,2.5,5da09f733c3367001a72dec6,001,2021-08-17_17h21.18,natb3,2021.2.3,MacIntel,58.82352941,5da09f733c3367001a72dec6,6107d0959f7c4c3641818b95,611be1df3abd857eda8e482f,0.313,
,,,,space,,0,200,200,137,1,C, , , , ,space,2500,2.5,5da09f733c3367001a72dec6,001,2021-08-17_17h21.18,natb3,2021.2.3,MacIntel,58.82352941,5da09f733c3367001a72dec6,6107d0959f7c4c3641818b95,611be1df3abd857eda8e482f,0.386,
,,,,,,0,201,201,98,1,X, , , , ,,2500,2.5,5da09f733c3367001a72dec6,001,2021-08-17_17h21.18,natb3,2021.2.3,MacIntel,58.82352941,5da09f733c3367001a72dec6,6107d0959f7c4c3641818b95,611be1df3abd857eda8e482f,,
,,,,,,0,202,202,138,1,X,8,5, ,3,,2000,2,5da09f733c3367001a72dec6,001,2021-08-17_17h21.18,natb3,2021.2.3,MacIntel,58.82352941,5da09f733c3367001a72dec6,6107d0959f7c4c3641818b95,611be1df3abd857eda8e482f,,
,,,,space,,0,203,203,184,1,T, , , , ,space,2000,2,5da09f733c3367001a72dec6,001,2021-08-17_17h21.18,natb3,2021.2.3,MacIntel,58.82352941,5da09f733c3367001a72dec6,6107d0959f7c4c3641818b95,611be1df3abd857eda8e482f,0.421,
,,,,space,,0,204,204,217,1,T, , , , ,space,2500,2.5,5da09f733c3367001a72dec6,001,2021-08-17_17h21.18,natb3,2021.2.3,MacIntel,58.82352941,5da09f733c3367001a72dec6,6107d0959f7c4c3641818b95,611be1df3abd857eda8e482f,0.768,
,,,,,,0,205,205,329,1,X,3,4, ,2,,2500,2.5,5da09f733c3367001a72dec6,001,2021-08-17_17h21.18,natb3,2021.2.3,MacIntel,58.82352941,5da09f733c3367001a72dec6,6107d0959f7c4c3641818b95,611be1df3abd857eda8e482f,,
,,,,,,0,206,206,167,1,K, , , , ,space,1500,1.5,5da09f733c3367001a72dec6,001,2021-08-17_17h21.18,natb3,2021.2.3,MacIntel,58.82352941,5da09f733c3367001a72dec6,6107d0959f7c4c3641818b95,611be1df3abd857eda8e482f,,
,,,,space,,0,207,207,40,1,T, , , , ,space,1500,1.5,5da09f733c3367001a72dec6,001,2021-08-17_17h21.18,natb3,2021.2.3,MacIntel,58.82352941,5da09f733c3367001a72dec6,6107d0959f7c4c3641818b95,611be1df3abd857eda8e482f,0.38,
,,,,space,,0,208,208,173,1,V, , , , ,space,1500,1.5,5da09f733c3367001a72dec6,001,2021-08-17_17h21.18,natb3,2021.2.3,MacIntel,58.82352941,5da09f733c3367001a72dec6,6107d0959f7c4c3641818b95,611be1df3abd857eda8e482f,0.813,
,,,,space,,0,209,209,88,1,J, , , , ,space,2500,2.5,5da09f733c3367001a72dec6,001,2021-08-17_17h21.18,natb3,2021.2.3,MacIntel,58.82352941,5da09f733c3367001a72dec6,6107d0959f7c4c3641818b95,611be1df3abd857eda8e482f,0.43,
,,,,,,0,210,210,239,1,X, , , , ,,2000,2,5da09f733c3367001a72dec6,001,2021-08-17_17h21.18,natb3,2021.2.3,MacIntel,58.82352941,5da09f733c3367001a72dec6,6107d0959f7c4c3641818b95,611be1df3abd857eda8e482f,,
,,,,,,0,211,211,31,1,X, , , , ,,1500,1.5,5da09f733c3367001a72dec6,001,2021-08-17_17h21.18,natb3,2021.2.3,MacIntel,58.82352941,5da09f733c3367001a72dec6,6107d0959f7c4c3641818b95,611be1df3abd857eda8e482f,,
,,,,space,,0,212,212,223,1,Q, , , , ,space,2000,2,5da09f733c3367001a72dec6,001,2021-08-17_17h21.18,natb3,2021.2.3,MacIntel,58.82352941,5da09f733c3367001a72dec6,6107d0959f7c4c3641818b95,611be1df3abd857eda8e482f,0.346,
,,,,space,,0,213,213,219,1,Y, , , , ,space,2000,2,5da09f733c3367001a72dec6,001,2021-08-17_17h21.18,natb3,2021.2.3,MacIntel,58.82352941,5da09f733c3367001a72dec6,6107d0959f7c4c3641818b95,611be1df3abd857eda8e482f,0.719,
,,,,space,,0,214,214,103,1,W, , , , ,space,2000,2,5da09f733c3367001a72dec6,001,2021-08-17_17h21.18,natb3,2021.2.3,MacIntel,58.82352941,5da09f733c3367001a72dec6,6107d0959f7c4c3641818b95,611be1df3abd857eda8e482f,0.654,
,,,,space,,0,215,215,64,1,N, , , , ,space,2000,2,5da09f733c3367001a72dec6,001,2021-08-17_17h21.18,natb3,2021.2.3,MacIntel,58.82352941,5da09f733c3367001a72dec6,6107d0959f7c4c3641818b95,611be1df3abd857eda8e482f,0.402,
,,,,space,,0,216,216,188,1,I, , , , ,space,2500,2.5,5da09f733c3367001a72dec6,001,2021-08-17_17h21.18,natb3,2021.2.3,MacIntel,58.82352941,5da09f733c3367001a72dec6,6107d0959f7c4c3641818b95,611be1df3abd857eda8e482f,0.447,
,,,,,,0,217,217,131,1,G, , , , ,space,1500,1.5,5da09f733c3367001a72dec6,001,2021-08-17_17h21.18,natb3,2021.2.3,MacIntel,58.82352941,5da09f733c3367001a72dec6,6107d0959f7c4c3641818b95,611be1df3abd857eda8e482f,,
,,,,space,,0,218,218,250,1,V, , , , ,space,2000,2,5da09f733c3367001a72dec6,001,2021-08-17_17h21.18,natb3,2021.2.3,MacIntel,58.82352941,5da09f733c3367001a72dec6,6107d0959f7c4c3641818b95,611be1df3abd857eda8e482f,0.419,
,,,,space,,0,219,219,334,1,O, , , , ,space,1500,1.5,5da09f733c3367001a72dec6,001,2021-08-17_17h21.18,natb3,2021.2.3,MacIntel,58.82352941,5da09f733c3367001a72dec6,6107d0959f7c4c3641818b95,611be1df3abd857eda8e482f,0.698,
,,,,space,,0,220,220,25,1,Z, , , , ,space,2500,2.5,5da09f733c3367001a72dec6,001,2021-08-17_17h21.18,natb3,2021.2.3,MacIntel,58.82352941,5da09f733c3367001a72dec6,6107d0959f7c4c3641818b95,611be1df3abd857eda8e482f,0.413,
,,,,space,,0,221,221,328,1,R, , , , ,space,1500,1.5,5da09f733c3367001a72dec6,001,2021-08-17_17h21.18,natb3,2021.2.3,MacIntel,58.82352941,5da09f733c3367001a72dec6,6107d0959f7c4c3641818b95,611be1df3abd857eda8e482f,0.745,
,,,,space,,0,222,222,128,1,D, , , , ,space,2500,2.5,5da09f733c3367001a72dec6,001,2021-08-17_17h21.18,natb3,2021.2.3,MacIntel,58.82352941,5da09f733c3367001a72dec6,6107d0959f7c4c3641818b95,611be1df3abd857eda8e482f,0.435,
,,,,space,,0,223,223,297,1,U, , , , ,space,2000,2,5da09f733c3367001a72dec6,001,2021-08-17_17h21.18,natb3,2021.2.3,MacIntel,58.82352941,5da09f733c3367001a72dec6,6107d0959f7c4c3641818b95,611be1df3abd857eda8e482f,0.466,
,,,,space,,0,224,224,71,1,R, , , , ,space,2500,2.5,5da09f733c3367001a72dec6,001,2021-08-17_17h21.18,natb3,2021.2.3,MacIntel,58.82352941,5da09f733c3367001a72dec6,6107d0959f7c4c3641818b95,611be1df3abd857eda8e482f,0.386,
,,,,space,,0,225,225,62,1,V, , , , ,space,1500,1.5,5da09f733c3367001a72dec6,001,2021-08-17_17h21.18,natb3,2021.2.3,MacIntel,58.82352941,5da09f733c3367001a72dec6,6107d0959f7c4c3641818b95,611be1df3abd857eda8e482f,0.469,
,,,,,,0,226,226,233,1,X, ,2, ,5,,1500,1.5,5da09f733c3367001a72dec6,001,2021-08-17_17h21.18,natb3,2021.2.3,MacIntel,58.82352941,5da09f733c3367001a72dec6,6107d0959f7c4c3641818b95,611be1df3abd857eda8e482f,,
,,,,,,0,227,227,218,1,X,1,3, ,8,,1500,1.5,5da09f733c3367001a72dec6,001,2021-08-17_17h21.18,natb3,2021.2.3,MacIntel,58.82352941,5da09f733c3367001a72dec6,6107d0959f7c4c3641818b95,611be1df3abd857eda8e482f,,
,,,,,,0,228,228,277,1,X,8,5, ,2,,2000,2,5da09f733c3367001a72dec6,001,2021-08-17_17h21.18,natb3,2021.2.3,MacIntel,58.82352941,5da09f733c3367001a72dec6,6107d0959f7c4c3641818b95,611be1df3abd857eda8e482f,,
,,,,,,0,229,229,158,1,X, , , , ,,1500,1.5,5da09f733c3367001a72dec6,001,2021-08-17_17h21.18,natb3,2021.2.3,MacIntel,58.82352941,5da09f733c3367001a72dec6,6107d0959f7c4c3641818b95,611be1df3abd857eda8e482f,,
,,,,space,,0,230,230,320,1,B, , , , ,space,1500,1.5,5da09f733c3367001a72dec6,001,2021-08-17_17h21.18,natb3,2021.2.3,MacIntel,58.82352941,5da09f733c3367001a72dec6,6107d0959f7c4c3641818b95,611be1df3abd857eda8e482f,0.638,
,,,,,,0,231,231,122,1,X,1, , ,8,,1500,1.5,5da09f733c3367001a72dec6,001,2021-08-17_17h21.18,natb3,2021.2.3,MacIntel,58.82352941,5da09f733c3367001a72dec6,6107d0959f7c4c3641818b95,611be1df3abd857eda8e482f,,
,,,,space,,0,232,232,156,1,P, , , , ,space,1500,1.5,5da09f733c3367001a72dec6,001,2021-08-17_17h21.18,natb3,2021.2.3,MacIntel,58.82352941,5da09f733c3367001a72dec6,6107d0959f7c4c3641818b95,611be1df3abd857eda8e482f,0.631,
,,,,space,,0,233,233,126,1,A, , , , ,space,2500,2.5,5da09f733c3367001a72dec6,001,2021-08-17_17h21.18,natb3,2021.2.3,MacIntel,58.82352941,5da09f733c3367001a72dec6,6107d0959f7c4c3641818b95,611be1df3abd857eda8e482f,0.446,
,,,,space,,0,234,234,169,1,L, , , , ,space,2500,2.5,5da09f733c3367001a72dec6,001,2021-08-17_17h21.18,natb3,2021.2.3,MacIntel,58.82352941,5da09f733c3367001a72dec6,6107d0959f7c4c3641818b95,611be1df3abd857eda8e482f,0.488,
,,,,space,,0,235,235,10,1,O, , , , ,space,2000,2,5da09f733c3367001a72dec6,001,2021-08-17_17h21.18,natb3,2021.2.3,MacIntel,58.82352941,5da09f733c3367001a72dec6,6107d0959f7c4c3641818b95,611be1df3abd857eda8e482f,0.615,
,,,,,,0,236,236,203,1,X, , , , ,,2500,2.5,5da09f733c3367001a72dec6,001,2021-08-17_17h21.18,natb3,2021.2.3,MacIntel,58.82352941,5da09f733c3367001a72dec6,6107d0959f7c4c3641818b95,611be1df3abd857eda8e482f,,
,,,,space,,0,237,237,109,1,U, , , , ,space,1500,1.5,5da09f733c3367001a72dec6,001,2021-08-17_17h21.18,natb3,2021.2.3,MacIntel,58.82352941,5da09f733c3367001a72dec6,6107d0959f7c4c3641818b95,611be1df3abd857eda8e482f,0.451,
,,,,space,,0,238,238,86,1,G, , , , ,space,2000,2,5da09f733c3367001a72dec6,001,2021-08-17_17h21.18,natb3,2021.2.3,MacIntel,58.82352941,5da09f733c3367001a72dec6,6107d0959f7c4c3641818b95,611be1df3abd857eda8e482f,0.337,
,,,,space,,0,239,239,225,1,E, , , , ,space,2000,2,5da09f733c3367001a72dec6,001,2021-08-17_17h21.18,natb3,2021.2.3,MacIntel,58.82352941,5da09f733c3367001a72dec6,6107d0959f7c4c3641818b95,611be1df3abd857eda8e482f,0.586,
,,,,,,0,240,240,136,1,Z, , , , ,space,2500,2.5,5da09f733c3367001a72dec6,001,2021-08-17_17h21.18,natb3,2021.2.3,MacIntel,58.82352941,5da09f733c3367001a72dec6,6107d0959f7c4c3641818b95,611be1df3abd857eda8e482f,,
,,,,space,,0,241,241,154,1,I, , , , ,space,2500,2.5,5da09f733c3367001a72dec6,001,2021-08-17_17h21.18,natb3,2021.2.3,MacIntel,58.82352941,5da09f733c3367001a72dec6,6107d0959f7c4c3641818b95,611be1df3abd857eda8e482f,0.431,
,,,,space,,0,242,242,258,1,E, , , , ,space,1500,1.5,5da09f733c3367001a72dec6,001,2021-08-17_17h21.18,natb3,2021.2.3,MacIntel,58.82352941,5da09f733c3367001a72dec6,6107d0959f7c4c3641818b95,611be1df3abd857eda8e482f,0.498,
,,,,space,,0,243,243,16,1,D, , , , ,space,1500,1.5,5da09f733c3367001a72dec6,001,2021-08-17_17h21.18,natb3,2021.2.3,MacIntel,58.82352941,5da09f733c3367001a72dec6,6107d0959f7c4c3641818b95,611be1df3abd857eda8e482f,0.439,
,,,,space,,0,244,244,312,1,K, , , , ,space,2000,2,5da09f733c3367001a72dec6,001,2021-08-17_17h21.18,natb3,2021.2.3,MacIntel,58.82352941,5da09f733c3367001a72dec6,6107d0959f7c4c3641818b95,611be1df3abd857eda8e482f,0.447,
,,,,space,,0,245,245,309,1,H, , , , ,space,2500,2.5,5da09f733c3367001a72dec6,001,2021-08-17_17h21.18,natb3,2021.2.3,MacIntel,58.82352941,5da09f733c3367001a72dec6,6107d0959f7c4c3641818b95,611be1df3abd857eda8e482f,0.422,
,,,,space,,0,246,246,44,1,I, , , , ,space,2500,2.5,5da09f733c3367001a72dec6,001,2021-08-17_17h21.18,natb3,2021.2.3,MacIntel,58.82352941,5da09f733c3367001a72dec6,6107d0959f7c4c3641818b95,611be1df3abd857eda8e482f,0.496,
,,,,,,0,247,247,248,1,X, ,1,5, ,,1500,1.5,5da09f733c3367001a72dec6,001,2021-08-17_17h21.18,natb3,2021.2.3,MacIntel,58.82352941,5da09f733c3367001a72dec6,6107d0959f7c4c3641818b95,611be1df3abd857eda8e482f,,
,,,,space,,0,248,248,155,1,O, , , , ,space,1500,1.5,5da09f733c3367001a72dec6,001,2021-08-17_17h21.18,natb3,2021.2.3,MacIntel,58.82352941,5da09f733c3367001a72dec6,6107d0959f7c4c3641818b95,611be1df3abd857eda8e482f,0.49,
,,,,,,0,249,249,295,1,X,8,7,5, ,,2500,2.5,5da09f733c3367001a72dec6,001,2021-08-17_17h21.18,natb3,2021.2.3,MacIntel,58.82352941,5da09f733c3367001a72dec6,6107d0959f7c4c3641818b95,611be1df3abd857eda8e482f,,
,,,,space,,0,250,250,97,1,B, , , , ,space,2500,2.5,5da09f733c3367001a72dec6,001,2021-08-17_17h21.18,natb3,2021.2.3,MacIntel,58.82352941,5da09f733c3367001a72dec6,6107d0959f7c4c3641818b95,611be1df3abd857eda8e482f,0.42,
,,,,space,,0,251,251,111,1,O, , , , ,space,2000,2,5da09f733c3367001a72dec6,001,2021-08-17_17h21.18,natb3,2021.2.3,MacIntel,58.82352941,5da09f733c3367001a72dec6,6107d0959f7c4c3641818b95,611be1df3abd857eda8e482f,0.522,
,,,,space,,0,252,252,65,1,M, , , , ,space,1500,1.5,5da09f733c3367001a72dec6,001,2021-08-17_17h21.18,natb3,2021.2.3,MacIntel,58.82352941,5da09f733c3367001a72dec6,6107d0959f7c4c3641818b95,611be1df3abd857eda8e482f,0.388,
,,,,space,,0,253,253,127,1,S, , , , ,space,2500,2.5,5da09f733c3367001a72dec6,001,2021-08-17_17h21.18,natb3,2021.2.3,MacIntel,58.82352941,5da09f733c3367001a72dec6,6107d0959f7c4c3641818b95,611be1df3abd857eda8e482f,0.471,
,,,,space,,0,254,254,152,1,U, , , , ,space,2000,2,5da09f733c3367001a72dec6,001,2021-08-17_17h21.18,natb3,2021.2.3,MacIntel,58.82352941,5da09f733c3367001a72dec6,6107d0959f7c4c3641818b95,611be1df3abd857eda8e482f,0.72,
,,,,space,,0,255,255,49,1,S, , , , ,space,1500,1.5,5da09f733c3367001a72dec6,001,2021-08-17_17h21.18,natb3,2021.2.3,MacIntel,58.82352941,5da09f733c3367001a72dec6,6107d0959f7c4c3641818b95,611be1df3abd857eda8e482f,0.442,
,,,,,,0,256,256,236,1,X,3, ,4,7,,2500,2.5,5da09f733c3367001a72dec6,001,2021-08-17_17h21.18,natb3,2021.2.3,MacIntel,58.82352941,5da09f733c3367001a72dec6,6107d0959f7c4c3641818b95,611be1df3abd857eda8e482f,,
,,,,space,,0,257,257,42,1,U, , , , ,space,1500,1.5,5da09f733c3367001a72dec6,001,2021-08-17_17h21.18,natb3,2021.2.3,MacIntel,58.82352941,5da09f733c3367001a72dec6,6107d0959f7c4c3641818b95,611be1df3abd857eda8e482f,0.596,
,,,,space,,0,258,258,59,1,Z, , , , ,space,2000,2,5da09f733c3367001a72dec6,001,2021-08-17_17h21.18,natb3,2021.2.3,MacIntel,58.82352941,5da09f733c3367001a72dec6,6107d0959f7c4c3641818b95,611be1df3abd857eda8e482f,0.431,
,,,,,,0,259,259,153,1,X,4,7, ,6,,2000,2,5da09f733c3367001a72dec6,001,2021-08-17_17h21.18,natb3,2021.2.3,MacIntel,58.82352941,5da09f733c3367001a72dec6,6107d0959f7c4c3641818b95,611be1df3abd857eda8e482f,,
,,,,space,,0,260,260,99,1,N, , , , ,space,2500,2.5,5da09f733c3367001a72dec6,001,2021-08-17_17h21.18,natb3,2021.2.3,MacIntel,58.82352941,5da09f733c3367001a72dec6,6107d0959f7c4c3641818b95,611be1df3abd857eda8e482f,0.411,
,,,,space,,0,261,261,160,1,D, , , , ,space,1500,1.5,5da09f733c3367001a72dec6,001,2021-08-17_17h21.18,natb3,2021.2.3,MacIntel,58.82352941,5da09f733c3367001a72dec6,6107d0959f7c4c3641818b95,611be1df3abd857eda8e482f,0.469,
,,,,,,0,262,262,33,1,X, , , , ,,1500,1.5,5da09f733c3367001a72dec6,001,2021-08-17_17h21.18,natb3,2021.2.3,MacIntel,58.82352941,5da09f733c3367001a72dec6,6107d0959f7c4c3641818b95,611be1df3abd857eda8e482f,,
,,,,space,,0,263,263,17,1,F, , , , ,space,2500,2.5,5da09f733c3367001a72dec6,001,2021-08-17_17h21.18,natb3,2021.2.3,MacIntel,58.82352941,5da09f733c3367001a72dec6,6107d0959f7c4c3641818b95,611be1df3abd857eda8e482f,0.426,
,,,,space,,0,264,264,186,1,U, , , , ,space,2500,2.5,5da09f733c3367001a72dec6,001,2021-08-17_17h21.18,natb3,2021.2.3,MacIntel,58.82352941,5da09f733c3367001a72dec6,6107d0959f7c4c3641818b95,611be1df3abd857eda8e482f,0.586,
,,,,space,,0,265,265,194,1,D, , , , ,space,2000,2,5da09f733c3367001a72dec6,001,2021-08-17_17h21.18,natb3,2021.2.3,MacIntel,58.82352941,5da09f733c3367001a72dec6,6107d0959f7c4c3641818b95,611be1df3abd857eda8e482f,0.449,
,,,,space,,0,266,266,72,1,T, , , , ,space,1500,1.5,5da09f733c3367001a72dec6,001,2021-08-17_17h21.18,natb3,2021.2.3,MacIntel,58.82352941,5da09f733c3367001a72dec6,6107d0959f7c4c3641818b95,611be1df3abd857eda8e482f,0.466,
,,,,space,,0,267,267,278,1,J, , , , ,space,2000,2,5da09f733c3367001a72dec6,001,2021-08-17_17h21.18,natb3,2021.2.3,MacIntel,58.82352941,5da09f733c3367001a72dec6,6107d0959f7c4c3641818b95,611be1df3abd857eda8e482f,0.364,
,,,,space,,0,268,268,157,1,A, , , , ,space,2500,2.5,5da09f733c3367001a72dec6,001,2021-08-17_17h21.18,natb3,2021.2.3,MacIntel,58.82352941,5da09f733c3367001a72dec6,6107d0959f7c4c3641818b95,611be1df3abd857eda8e482f,0.646,
,,,,space,,0,269,269,245,1,K, , , , ,space,2000,2,5da09f733c3367001a72dec6,001,2021-08-17_17h21.18,natb3,2021.2.3,MacIntel,58.82352941,5da09f733c3367001a72dec6,6107d0959f7c4c3641818b95,611be1df3abd857eda8e482f,0.553,
,,,,space,,0,270,270,145,1,X, , , , ,,2000,2,5da09f733c3367001a72dec6,001,2021-08-17_17h21.18,natb3,2021.2.3,MacIntel,58.82352941,5da09f733c3367001a72dec6,6107d0959f7c4c3641818b95,611be1df3abd857eda8e482f,0.782,
,,,,space,,0,271,271,21,1,J, , , , ,space,1500,1.5,5da09f733c3367001a72dec6,001,2021-08-17_17h21.18,natb3,2021.2.3,MacIntel,58.82352941,5da09f733c3367001a72dec6,6107d0959f7c4c3641818b95,611be1df3abd857eda8e482f,0.569,
,,,,space,,0,272,272,79,1,P, , , , ,space,2000,2,5da09f733c3367001a72dec6,001,2021-08-17_17h21.18,natb3,2021.2.3,MacIntel,58.82352941,5da09f733c3367001a72dec6,6107d0959f7c4c3641818b95,611be1df3abd857eda8e482f,0.438,
,,,,space,,0,273,273,106,1,T, , , , ,space,1500,1.5,5da09f733c3367001a72dec6,001,2021-08-17_17h21.18,natb3,2021.2.3,MacIntel,58.82352941,5da09f733c3367001a72dec6,6107d0959f7c4c3641818b95,611be1df3abd857eda8e482f,0.627,
,,,,space,,0,274,274,140,1,B, , , , ,space,2500,2.5,5da09f733c3367001a72dec6,001,2021-08-17_17h21.18,natb3,2021.2.3,MacIntel,58.82352941,5da09f733c3367001a72dec6,6107d0959f7c4c3641818b95,611be1df3abd857eda8e482f,0.351,
,,,,,,0,275,275,268,1,X,6, ,3, ,,2500,2.5,5da09f733c3367001a72dec6,001,2021-08-17_17h21.18,natb3,2021.2.3,MacIntel,58.82352941,5da09f733c3367001a72dec6,6107d0959f7c4c3641818b95,611be1df3abd857eda8e482f,,
,,,,space,,0,276,276,3,1,R, , , , ,space,2000,2,5da09f733c3367001a72dec6,001,2021-08-17_17h21.18,natb3,2021.2.3,MacIntel,58.82352941,5da09f733c3367001a72dec6,6107d0959f7c4c3641818b95,611be1df3abd857eda8e482f,0.504,
,,,,space,,0,277,277,234,1,P, , , , ,space,2000,2,5da09f733c3367001a72dec6,001,2021-08-17_17h21.18,natb3,2021.2.3,MacIntel,58.82352941,5da09f733c3367001a72dec6,6107d0959f7c4c3641818b95,611be1df3abd857eda8e482f,0.388,
,,,,,,0,278,278,266,1,O, , , , ,space,1500,1.5,5da09f733c3367001a72dec6,001,2021-08-17_17h21.18,natb3,2021.2.3,MacIntel,58.82352941,5da09f733c3367001a72dec6,6107d0959f7c4c3641818b95,611be1df3abd857eda8e482f,,
,,,,space,,0,279,279,292,1,E, , , , ,space,2000,2,5da09f733c3367001a72dec6,001,2021-08-17_17h21.18,natb3,2021.2.3,MacIntel,58.82352941,5da09f733c3367001a72dec6,6107d0959f7c4c3641818b95,611be1df3abd857eda8e482f,0.531,
,,,,,,0,280,280,301,1,P, , , , ,space,1500,1.5,5da09f733c3367001a72dec6,001,2021-08-17_17h21.18,natb3,2021.2.3,MacIntel,58.82352941,5da09f733c3367001a72dec6,6107d0959f7c4c3641818b95,611be1df3abd857eda8e482f,,
,,,,space,,0,281,281,251,1,B, , , , ,space,1500,1.5,5da09f733c3367001a72dec6,001,2021-08-17_17h21.18,natb3,2021.2.3,MacIntel,58.82352941,5da09f733c3367001a72dec6,6107d0959f7c4c3641818b95,611be1df3abd857eda8e482f,0.512,
,,,,space,,0,282,282,285,1,B, , , , ,space,1500,1.5,5da09f733c3367001a72dec6,001,2021-08-17_17h21.18,natb3,2021.2.3,MacIntel,58.82352941,5da09f733c3367001a72dec6,6107d0959f7c4c3641818b95,611be1df3abd857eda8e482f,0.718,
,,,,space,,0,283,283,304,1,S, , , , ,space,2000,2,5da09f733c3367001a72dec6,001,2021-08-17_17h21.18,natb3,2021.2.3,MacIntel,58.82352941,5da09f733c3367001a72dec6,6107d0959f7c4c3641818b95,611be1df3abd857eda8e482f,0.751,
,,,,space,,0,284,284,221,1,I, , , , ,space,2500,2.5,5da09f733c3367001a72dec6,001,2021-08-17_17h21.18,natb3,2021.2.3,MacIntel,58.82352941,5da09f733c3367001a72dec6,6107d0959f7c4c3641818b95,611be1df3abd857eda8e482f,0.447,
,,,,space,,0,285,285,146,1,W, , , , ,space,1500,1.5,5da09f733c3367001a72dec6,001,2021-08-17_17h21.18,natb3,2021.2.3,MacIntel,58.82352941,5da09f733c3367001a72dec6,6107d0959f7c4c3641818b95,611be1df3abd857eda8e482f,0.837,
,,,,space,,0,286,286,222,1,O, , , , ,space,2000,2,5da09f733c3367001a72dec6,001,2021-08-17_17h21.18,natb3,2021.2.3,MacIntel,58.82352941,5da09f733c3367001a72dec6,6107d0959f7c4c3641818b95,611be1df3abd857eda8e482f,0.462,
,,,,space,,0,287,287,55,1,H, , , , ,space,2500,2.5,5da09f733c3367001a72dec6,001,2021-08-17_17h21.18,natb3,2021.2.3,MacIntel,58.82352941,5da09f733c3367001a72dec6,6107d0959f7c4c3641818b95,611be1df3abd857eda8e482f,0.466,
,,,,space,,0,288,288,130,1,F, , , , ,space,2000,2,5da09f733c3367001a72dec6,001,2021-08-17_17h21.18,natb3,2021.2.3,MacIntel,58.82352941,5da09f733c3367001a72dec6,6107d0959f7c4c3641818b95,611be1df3abd857eda8e482f,0.421,
,,,,space,,0,289,289,275,1,G, , , , ,space,1500,1.5,5da09f733c3367001a72dec6,001,2021-08-17_17h21.18,natb3,2021.2.3,MacIntel,58.82352941,5da09f733c3367001a72dec6,6107d0959f7c4c3641818b95,611be1df3abd857eda8e482f,0.463,
,,,,space,,0,290,290,1,1,W, , , , ,space,2000,2,5da09f733c3367001a72dec6,001,2021-08-17_17h21.18,natb3,2021.2.3,MacIntel,58.82352941,5da09f733c3367001a72dec6,6107d0959f7c4c3641818b95,611be1df3abd857eda8e482f,0.336,
,,,,space,,0,291,291,202,1,L, , , , ,space,2500,2.5,5da09f733c3367001a72dec6,001,2021-08-17_17h21.18,natb3,2021.2.3,MacIntel,58.82352941,5da09f733c3367001a72dec6,6107d0959f7c4c3641818b95,611be1df3abd857eda8e482f,0.415,
,,,,,,0,292,292,69,1,X, , , , ,,1500,1.5,5da09f733c3367001a72dec6,001,2021-08-17_17h21.18,natb3,2021.2.3,MacIntel,58.82352941,5da09f733c3367001a72dec6,6107d0959f7c4c3641818b95,611be1df3abd857eda8e482f,,
,,,,space,,0,293,293,247,1,Z, , , , ,space,1500,1.5,5da09f733c3367001a72dec6,001,2021-08-17_17h21.18,natb3,2021.2.3,MacIntel,58.82352941,5da09f733c3367001a72dec6,6107d0959f7c4c3641818b95,611be1df3abd857eda8e482f,0.487,
,,,,space,,0,294,294,198,1,H, , , , ,space,2500,2.5,5da09f733c3367001a72dec6,001,2021-08-17_17h21.18,natb3,2021.2.3,MacIntel,58.82352941,5da09f733c3367001a72dec6,6107d0959f7c4c3641818b95,611be1df3abd857eda8e482f,0.429,
,,,,space,,0,295,295,150,1,T, , , , ,space,2500,2.5,5da09f733c3367001a72dec6,001,2021-08-17_17h21.18,natb3,2021.2.3,MacIntel,58.82352941,5da09f733c3367001a72dec6,6107d0959f7c4c3641818b95,611be1df3abd857eda8e482f,0.719,
,,,,,,0,296,296,207,1,X,9, ,2, ,,2500,2.5,5da09f733c3367001a72dec6,001,2021-08-17_17h21.18,natb3,2021.2.3,MacIntel,58.82352941,5da09f733c3367001a72dec6,6107d0959f7c4c3641818b95,611be1df3abd857eda8e482f,,
,,,,,,0,297,297,315,1,X, , , , ,,2500,2.5,5da09f733c3367001a72dec6,001,2021-08-17_17h21.18,natb3,2021.2.3,MacIntel,58.82352941,5da09f733c3367001a72dec6,6107d0959f7c4c3641818b95,611be1df3abd857eda8e482f,,
,,,,space,,0,298,298,317,1,C, , , , ,space,2000,2,5da09f733c3367001a72dec6,001,2021-08-17_17h21.18,natb3,2021.2.3,MacIntel,58.82352941,5da09f733c3367001a72dec6,6107d0959f7c4c3641818b95,611be1df3abd857eda8e482f,0.448,
,,,,space,,0,299,299,257,1,W, , , , ,space,2000,2,5da09f733c3367001a72dec6,001,2021-08-17_17h21.18,natb3,2021.2.3,MacIntel,58.82352941,5da09f733c3367001a72dec6,6107d0959f7c4c3641818b95,611be1df3abd857eda8e482f,0.493,
,,,,,,0,300,300,335,1,P,,,,,space,1500,1.5,5da09f733c3367001a72dec6,001,2021-08-17_17h21.18,natb3,2021.2.3,MacIntel,58.82352941,5da09f733c3367001a72dec6,6107d0959f7c4c3641818b95,611be1df3abd857eda8e482f,,
,,,,space,,0,301,301,13,1,A, , , , ,space,2000,2,5da09f733c3367001a72dec6,001,2021-08-17_17h21.18,natb3,2021.2.3,MacIntel,58.82352941,5da09f733c3367001a72dec6,6107d0959f7c4c3641818b95,611be1df3abd857eda8e482f,0.468,
,,,,space,,0,302,302,224,1,W, , , , ,space,1500,1.5,5da09f733c3367001a72dec6,001,2021-08-17_17h21.18,natb3,2021.2.3,MacIntel,58.82352941,5da09f733c3367001a72dec6,6107d0959f7c4c3641818b95,611be1df3abd857eda8e482f,0.432,
,,,,space,,0,303,303,189,1,O, , , , ,space,1500,1.5,5da09f733c3367001a72dec6,001,2021-08-17_17h21.18,natb3,2021.2.3,MacIntel,58.82352941,5da09f733c3367001a72dec6,6107d0959f7c4c3641818b95,611be1df3abd857eda8e482f,0.395,
,,,,,,0,304,304,195,1,X, , , , ,,1500,1.5,5da09f733c3367001a72dec6,001,2021-08-17_17h21.18,natb3,2021.2.3,MacIntel,58.82352941,5da09f733c3367001a72dec6,6107d0959f7c4c3641818b95,611be1df3abd857eda8e482f,,
,,,,space,,0,305,305,58,1,L, , , , ,space,2000,2,5da09f733c3367001a72dec6,001,2021-08-17_17h21.18,natb3,2021.2.3,MacIntel,58.82352941,5da09f733c3367001a72dec6,6107d0959f7c4c3641818b95,611be1df3abd857eda8e482f,0.417,
,,,,space,,0,306,306,124,1,P, , , , ,space,2000,2,5da09f733c3367001a72dec6,001,2021-08-17_17h21.18,natb3,2021.2.3,MacIntel,58.82352941,5da09f733c3367001a72dec6,6107d0959f7c4c3641818b95,611be1df3abd857eda8e482f,0.447,
,,,,space,,0,307,307,333,1,I, , , , ,space,1500,1.5,5da09f733c3367001a72dec6,001,2021-08-17_17h21.18,natb3,2021.2.3,MacIntel,58.82352941,5da09f733c3367001a72dec6,6107d0959f7c4c3641818b95,611be1df3abd857eda8e482f,0.421,
,,,,space,,0,308,308,208,1,B, , , , ,space,1500,1.5,5da09f733c3367001a72dec6,001,2021-08-17_17h21.18,natb3,2021.2.3,MacIntel,58.82352941,5da09f733c3367001a72dec6,6107d0959f7c4c3641818b95,611be1df3abd857eda8e482f,0.353,
,,,,space,,0,309,309,256,1,Q, , , , ,space,2000,2,5da09f733c3367001a72dec6,001,2021-08-17_17h21.18,natb3,2021.2.3,MacIntel,58.82352941,5da09f733c3367001a72dec6,6107d0959f7c4c3641818b95,611be1df3abd857eda8e482f,0.396,
,,,,space,,0,310,310,201,1,K, , , , ,space,1500,1.5,5da09f733c3367001a72dec6,001,2021-08-17_17h21.18,natb3,2021.2.3,MacIntel,58.82352941,5da09f733c3367001a72dec6,6107d0959f7c4c3641818b95,611be1df3abd857eda8e482f,0.367,
,,,,space,,0,311,311,92,1,Z, , , , ,space,1500,1.5,5da09f733c3367001a72dec6,001,2021-08-17_17h21.18,natb3,2021.2.3,MacIntel,58.82352941,5da09f733c3367001a72dec6,6107d0959f7c4c3641818b95,611be1df3abd857eda8e482f,0.717,
,,,,space,,0,312,312,270,1,S, , , , ,space,1500,1.5,5da09f733c3367001a72dec6,001,2021-08-17_17h21.18,natb3,2021.2.3,MacIntel,58.82352941,5da09f733c3367001a72dec6,6107d0959f7c4c3641818b95,611be1df3abd857eda8e482f,0.336,
,,,,space,,0,313,313,14,1,S, , , , ,space,2500,2.5,5da09f733c3367001a72dec6,001,2021-08-17_17h21.18,natb3,2021.2.3,MacIntel,58.82352941,5da09f733c3367001a72dec6,6107d0959f7c4c3641818b95,611be1df3abd857eda8e482f,0.507,
,,,,space,,0,314,314,73,1,Y, , , , ,space,2000,2,5da09f733c3367001a72dec6,001,2021-08-17_17h21.18,natb3,2021.2.3,MacIntel,58.82352941,5da09f733c3367001a72dec6,6107d0959f7c4c3641818b95,611be1df3abd857eda8e482f,0.902,
,,,,,,0,315,315,255,1,X, , , , ,,1500,1.5,5da09f733c3367001a72dec6,001,2021-08-17_17h21.18,natb3,2021.2.3,MacIntel,58.82352941,5da09f733c3367001a72dec6,6107d0959f7c4c3641818b95,611be1df3abd857eda8e482f,,
,,,,,,0,316,316,12,1,X, , , , ,,1500,1.5,5da09f733c3367001a72dec6,001,2021-08-17_17h21.18,natb3,2021.2.3,MacIntel,58.82352941,5da09f733c3367001a72dec6,6107d0959f7c4c3641818b95,611be1df3abd857eda8e482f,,
,,,,space,,0,317,317,20,1,H, , , , ,space,1500,1.5,5da09f733c3367001a72dec6,001,2021-08-17_17h21.18,natb3,2021.2.3,MacIntel,58.82352941,5da09f733c3367001a72dec6,6107d0959f7c4c3641818b95,611be1df3abd857eda8e482f,0.411,
,,,,space,,0,318,318,298,1,I, , , , ,space,2000,2,5da09f733c3367001a72dec6,001,2021-08-17_17h21.18,natb3,2021.2.3,MacIntel,58.82352941,5da09f733c3367001a72dec6,6107d0959f7c4c3641818b95,611be1df3abd857eda8e482f,0.671,
,,,,space,,0,319,319,237,1,S, , , , ,space,1500,1.5,5da09f733c3367001a72dec6,001,2021-08-17_17h21.18,natb3,2021.2.3,MacIntel,58.82352941,5da09f733c3367001a72dec6,6107d0959f7c4c3641818b95,611be1df3abd857eda8e482f,0.629,
,,,,space,,0,320,320,143,1,M, , , , ,space,2500,2.5,5da09f733c3367001a72dec6,001,2021-08-17_17h21.18,natb3,2021.2.3,MacIntel,58.82352941,5da09f733c3367001a72dec6,6107d0959f7c4c3641818b95,611be1df3abd857eda8e482f,0.649,
,,,,space,,0,321,321,174,1,B, , , , ,space,2500,2.5,5da09f733c3367001a72dec6,001,2021-08-17_17h21.18,natb3,2021.2.3,MacIntel,58.82352941,5da09f733c3367001a72dec6,6107d0959f7c4c3641818b95,611be1df3abd857eda8e482f,0.396,
,,,,space,,0,322,322,91,1,L, , , , ,space,2000,2,5da09f733c3367001a72dec6,001,2021-08-17_17h21.18,natb3,2021.2.3,MacIntel,58.82352941,5da09f733c3367001a72dec6,6107d0959f7c4c3641818b95,611be1df3abd857eda8e482f,0.464,
,,,,space,,0,323,323,197,1,G, , , , ,space,2500,2.5,5da09f733c3367001a72dec6,001,2021-08-17_17h21.18,natb3,2021.2.3,MacIntel,58.82352941,5da09f733c3367001a72dec6,6107d0959f7c4c3641818b95,611be1df3abd857eda8e482f,0.438,
,,,,,,0,324,324,129,1,X,2,3,5, ,,1500,1.5,5da09f733c3367001a72dec6,001,2021-08-17_17h21.18,natb3,2021.2.3,MacIntel,58.82352941,5da09f733c3367001a72dec6,6107d0959f7c4c3641818b95,611be1df3abd857eda8e482f,,
,,,,space,,0,325,325,214,1,W, , , , ,space,2000,2,5da09f733c3367001a72dec6,001,2021-08-17_17h21.18,natb3,2021.2.3,MacIntel,58.82352941,5da09f733c3367001a72dec6,6107d0959f7c4c3641818b95,611be1df3abd857eda8e482f,0.529,
,,,,space,,0,326,326,242,1,H, , , , ,space,2500,2.5,5da09f733c3367001a72dec6,001,2021-08-17_17h21.18,natb3,2021.2.3,MacIntel,58.82352941,5da09f733c3367001a72dec6,6107d0959f7c4c3641818b95,611be1df3abd857eda8e482f,0.435,
,,,,space,,0,327,327,110,1,I, , , , ,space,1500,1.5,5da09f733c3367001a72dec6,001,2021-08-17_17h21.18,natb3,2021.2.3,MacIntel,58.82352941,5da09f733c3367001a72dec6,6107d0959f7c4c3641818b95,611be1df3abd857eda8e482f,0.679,
,,,,,,0,328,328,187,1,X, ,3,7,4,,1500,1.5,5da09f733c3367001a72dec6,001,2021-08-17_17h21.18,natb3,2021.2.3,MacIntel,58.82352941,5da09f733c3367001a72dec6,6107d0959f7c4c3641818b95,611be1df3abd857eda8e482f,,
,,,,space,,0,329,329,161,1,F, , , , ,space,1500,1.5,5da09f733c3367001a72dec6,001,2021-08-17_17h21.18,natb3,2021.2.3,MacIntel,58.82352941,5da09f733c3367001a72dec6,6107d0959f7c4c3641818b95,611be1df3abd857eda8e482f,0.454,
,,,,space,,0,330,330,190,1,P, , , , ,space,2000,2,5da09f733c3367001a72dec6,001,2021-08-17_17h21.18,natb3,2021.2.3,MacIntel,58.82352941,5da09f733c3367001a72dec6,6107d0959f7c4c3641818b95,611be1df3abd857eda8e482f,0.381,
,,,,space,,0,331,331,284,1,V, , , , ,space,2500,2.5,5da09f733c3367001a72dec6,001,2021-08-17_17h21.18,natb3,2021.2.3,MacIntel,58.82352941,5da09f733c3367001a72dec6,6107d0959f7c4c3641818b95,611be1df3abd857eda8e482f,0.404,
,,,,space,,0,332,332,296,1,Y, , , , ,space,2500,2.5,5da09f733c3367001a72dec6,001,2021-08-17_17h21.18,natb3,2021.2.3,MacIntel,58.82352941,5da09f733c3367001a72dec6,6107d0959f7c4c3641818b95,611be1df3abd857eda8e482f,0.704,
,,,,space,,0,333,333,288,1,M, , , , ,space,1500,1.5,5da09f733c3367001a72dec6,001,2021-08-17_17h21.18,natb3,2021.2.3,MacIntel,58.82352941,5da09f733c3367001a72dec6,6107d0959f7c4c3641818b95,611be1df3abd857eda8e482f,0.633,
,,,,space,,0,334,334,206,1,V, , , , ,space,2000,2,5da09f733c3367001a72dec6,001,2021-08-17_17h21.18,natb3,2021.2.3,MacIntel,58.82352941,5da09f733c3367001a72dec6,6107d0959f7c4c3641818b95,611be1df3abd857eda8e482f,0.453,
,,,,space,,0,335,335,331,1,Y, , , , ,space,2500,2.5,5da09f733c3367001a72dec6,001,2021-08-17_17h21.18,natb3,2021.2.3,MacIntel,58.82352941,5da09f733c3367001a72dec6,6107d0959f7c4c3641818b95,611be1df3abd857eda8e482f,0.378,
