key_resp_2.keys,key_resp_2.rt,key_resp_3.keys,key_resp_3.rt,key_resp.keys,key_resp_4.keys,trials.thisRepN,trials.thisTrialN,trials.thisN,trials.thisIndex,trials.ran,stimulus,distractor1,distractor2,distractor3,distractor4,CorrAns,isi_duration,isi_dur_in_seconds,participant,session,date,expName,psychopyVersion,OS,frameRate,PROLIFIC_PID,STUDY_ID,SESSION_ID,key_resp.rt,key_resp_4.rt
return,8.1332,space,9.5559,,,0,0,0,113,1,W, , , , ,space,2500,2.5,5e0d531982a9554d3862a670,001,2021-08-19_16h47.31.112,natb3,2021.2.3,Win32,60.05645307,5e0d531982a9554d3862a670,611e07ecdcc96256ae8d5b80,611e7ce696e750505914a204,,
,,,,space,,0,1,1,319,1,V, , , , ,space,2000,2,5e0d531982a9554d3862a670,001,2021-08-19_16h47.31.112,natb3,2021.2.3,Win32,60.05645307,5e0d531982a9554d3862a670,611e07ecdcc96256ae8d5b80,611e7ce696e750505914a204,0.4399,
,,,,space,,0,2,2,284,1,V, , , , ,space,2500,2.5,5e0d531982a9554d3862a670,001,2021-08-19_16h47.31.112,natb3,2021.2.3,Win32,60.05645307,5e0d531982a9554d3862a670,611e07ecdcc96256ae8d5b80,611e7ce696e750505914a204,0.5028,
,,,,space,,0,3,3,5,1,T, , , , ,space,2000,2,5e0d531982a9554d3862a670,001,2021-08-19_16h47.31.112,natb3,2021.2.3,Win32,60.05645307,5e0d531982a9554d3862a670,611e07ecdcc96256ae8d5b80,611e7ce696e750505914a204,0.5761,
,,,,,,0,4,4,191,1,X,1, ,3,4,,2500,2.5,5e0d531982a9554d3862a670,001,2021-08-19_16h47.31.112,natb3,2021.2.3,Win32,60.05645307,5e0d531982a9554d3862a670,611e07ecdcc96256ae8d5b80,611e7ce696e750505914a204,,
,,,,space,,0,5,5,249,1,C, , , , ,space,2000,2,5e0d531982a9554d3862a670,001,2021-08-19_16h47.31.112,natb3,2021.2.3,Win32,60.05645307,5e0d531982a9554d3862a670,611e07ecdcc96256ae8d5b80,611e7ce696e750505914a204,0.395,
,,,,space,,0,6,6,63,1,B, , , , ,space,2000,2,5e0d531982a9554d3862a670,001,2021-08-19_16h47.31.112,natb3,2021.2.3,Win32,60.05645307,5e0d531982a9554d3862a670,611e07ecdcc96256ae8d5b80,611e7ce696e750505914a204,0.3613,
,,,,space,,0,7,7,195,1,X, , , , ,,1500,1.5,5e0d531982a9554d3862a670,001,2021-08-19_16h47.31.112,natb3,2021.2.3,Win32,60.05645307,5e0d531982a9554d3862a670,611e07ecdcc96256ae8d5b80,611e7ce696e750505914a204,0.5983,
,,,,,,0,8,8,188,1,I, , , , ,space,2500,2.5,5e0d531982a9554d3862a670,001,2021-08-19_16h47.31.112,natb3,2021.2.3,Win32,60.05645307,5e0d531982a9554d3862a670,611e07ecdcc96256ae8d5b80,611e7ce696e750505914a204,,
,,,,space,,0,9,9,194,1,D, , , , ,space,2000,2,5e0d531982a9554d3862a670,001,2021-08-19_16h47.31.112,natb3,2021.2.3,Win32,60.05645307,5e0d531982a9554d3862a670,611e07ecdcc96256ae8d5b80,611e7ce696e750505914a204,0.5795,
,,,,space,,0,10,10,260,1,R, , , , ,space,2000,2,5e0d531982a9554d3862a670,001,2021-08-19_16h47.31.112,natb3,2021.2.3,Win32,60.05645307,5e0d531982a9554d3862a670,611e07ecdcc96256ae8d5b80,611e7ce696e750505914a204,0.4145,
,,,,space,,0,11,11,333,1,I, , , , ,space,1500,1.5,5e0d531982a9554d3862a670,001,2021-08-19_16h47.31.112,natb3,2021.2.3,Win32,60.05645307,5e0d531982a9554d3862a670,611e07ecdcc96256ae8d5b80,611e7ce696e750505914a204,0.462,
,,,,,,0,12,12,313,1,X, , , , ,,2500,2.5,5e0d531982a9554d3862a670,001,2021-08-19_16h47.31.112,natb3,2021.2.3,Win32,60.05645307,5e0d531982a9554d3862a670,611e07ecdcc96256ae8d5b80,611e7ce696e750505914a204,,
,,,,space,,0,13,13,30,1,N, , , , ,space,2500,2.5,5e0d531982a9554d3862a670,001,2021-08-19_16h47.31.112,natb3,2021.2.3,Win32,60.05645307,5e0d531982a9554d3862a670,611e07ecdcc96256ae8d5b80,611e7ce696e750505914a204,0.3288,
,,,,space,,0,14,14,131,1,G, , , , ,space,1500,1.5,5e0d531982a9554d3862a670,001,2021-08-19_16h47.31.112,natb3,2021.2.3,Win32,60.05645307,5e0d531982a9554d3862a670,611e07ecdcc96256ae8d5b80,611e7ce696e750505914a204,0.3764,
,,,,space,,0,15,15,288,1,M, , , , ,space,1500,1.5,5e0d531982a9554d3862a670,001,2021-08-19_16h47.31.112,natb3,2021.2.3,Win32,60.05645307,5e0d531982a9554d3862a670,611e07ecdcc96256ae8d5b80,611e7ce696e750505914a204,0.7405,
,,,,space,,0,16,16,25,1,Z, , , , ,space,2500,2.5,5e0d531982a9554d3862a670,001,2021-08-19_16h47.31.112,natb3,2021.2.3,Win32,60.05645307,5e0d531982a9554d3862a670,611e07ecdcc96256ae8d5b80,611e7ce696e750505914a204,0.5683,
,,,,,,0,17,17,117,1,T, , , , ,space,2500,2.5,5e0d531982a9554d3862a670,001,2021-08-19_16h47.31.112,natb3,2021.2.3,Win32,60.05645307,5e0d531982a9554d3862a670,611e07ecdcc96256ae8d5b80,611e7ce696e750505914a204,,
,,,,space,,0,18,18,290,1,W, , , , ,space,1500,1.5,5e0d531982a9554d3862a670,001,2021-08-19_16h47.31.112,natb3,2021.2.3,Win32,60.05645307,5e0d531982a9554d3862a670,611e07ecdcc96256ae8d5b80,611e7ce696e750505914a204,0.3878,
,,,,space,,0,19,19,127,1,S, , , , ,space,2500,2.5,5e0d531982a9554d3862a670,001,2021-08-19_16h47.31.112,natb3,2021.2.3,Win32,60.05645307,5e0d531982a9554d3862a670,611e07ecdcc96256ae8d5b80,611e7ce696e750505914a204,0.5336,
,,,,space,,0,20,20,285,1,B, , , , ,space,1500,1.5,5e0d531982a9554d3862a670,001,2021-08-19_16h47.31.112,natb3,2021.2.3,Win32,60.05645307,5e0d531982a9554d3862a670,611e07ecdcc96256ae8d5b80,611e7ce696e750505914a204,0.5966,
,,,,space,,0,21,21,169,1,L, , , , ,space,2500,2.5,5e0d531982a9554d3862a670,001,2021-08-19_16h47.31.112,natb3,2021.2.3,Win32,60.05645307,5e0d531982a9554d3862a670,611e07ecdcc96256ae8d5b80,611e7ce696e750505914a204,0.4454,
,,,,space,,0,22,22,204,1,Z, , , , ,space,2000,2,5e0d531982a9554d3862a670,001,2021-08-19_16h47.31.112,natb3,2021.2.3,Win32,60.05645307,5e0d531982a9554d3862a670,611e07ecdcc96256ae8d5b80,611e7ce696e750505914a204,0.7141,
,,,,space,,0,23,23,105,1,R, , , , ,space,2500,2.5,5e0d531982a9554d3862a670,001,2021-08-19_16h47.31.112,natb3,2021.2.3,Win32,60.05645307,5e0d531982a9554d3862a670,611e07ecdcc96256ae8d5b80,611e7ce696e750505914a204,0.8799,
,,,,,,0,24,24,252,1,X,3, ,6,9,,2000,2,5e0d531982a9554d3862a670,001,2021-08-19_16h47.31.112,natb3,2021.2.3,Win32,60.05645307,5e0d531982a9554d3862a670,611e07ecdcc96256ae8d5b80,611e7ce696e750505914a204,,
,,,,space,,0,25,25,217,1,T, , , , ,space,2500,2.5,5e0d531982a9554d3862a670,001,2021-08-19_16h47.31.112,natb3,2021.2.3,Win32,60.05645307,5e0d531982a9554d3862a670,611e07ecdcc96256ae8d5b80,611e7ce696e750505914a204,0.4958,
,,,,space,,0,26,26,181,1,E, , , , ,space,1500,1.5,5e0d531982a9554d3862a670,001,2021-08-19_16h47.31.112,natb3,2021.2.3,Win32,60.05645307,5e0d531982a9554d3862a670,611e07ecdcc96256ae8d5b80,611e7ce696e750505914a204,0.4986,
,,,,space,,0,27,27,231,1,I, , , , ,space,2500,2.5,5e0d531982a9554d3862a670,001,2021-08-19_16h47.31.112,natb3,2021.2.3,Win32,60.05645307,5e0d531982a9554d3862a670,611e07ecdcc96256ae8d5b80,611e7ce696e750505914a204,0.3459,
,,,,space,,0,28,28,215,1,E, , , , ,space,2500,2.5,5e0d531982a9554d3862a670,001,2021-08-19_16h47.31.112,natb3,2021.2.3,Win32,60.05645307,5e0d531982a9554d3862a670,611e07ecdcc96256ae8d5b80,611e7ce696e750505914a204,0.3974,
,,,,space,,0,29,29,265,1,I, , , , ,space,2000,2,5e0d531982a9554d3862a670,001,2021-08-19_16h47.31.112,natb3,2021.2.3,Win32,60.05645307,5e0d531982a9554d3862a670,611e07ecdcc96256ae8d5b80,611e7ce696e750505914a204,0.388,
,,,,space,,0,30,30,283,1,C, , , , ,space,1500,1.5,5e0d531982a9554d3862a670,001,2021-08-19_16h47.31.112,natb3,2021.2.3,Win32,60.05645307,5e0d531982a9554d3862a670,611e07ecdcc96256ae8d5b80,611e7ce696e750505914a204,0.389,
,,,,,,0,31,31,27,1,X,5, ,1,3,,1500,1.5,5e0d531982a9554d3862a670,001,2021-08-19_16h47.31.112,natb3,2021.2.3,Win32,60.05645307,5e0d531982a9554d3862a670,611e07ecdcc96256ae8d5b80,611e7ce696e750505914a204,,
,,,,,,0,32,32,322,1,X, , ,1,6,,2000,2,5e0d531982a9554d3862a670,001,2021-08-19_16h47.31.112,natb3,2021.2.3,Win32,60.05645307,5e0d531982a9554d3862a670,611e07ecdcc96256ae8d5b80,611e7ce696e750505914a204,,
,,,,space,,0,33,33,88,1,J, , , , ,space,2500,2.5,5e0d531982a9554d3862a670,001,2021-08-19_16h47.31.112,natb3,2021.2.3,Win32,60.05645307,5e0d531982a9554d3862a670,611e07ecdcc96256ae8d5b80,611e7ce696e750505914a204,0.497,
,,,,space,,0,34,34,19,1,G, , , , ,space,1500,1.5,5e0d531982a9554d3862a670,001,2021-08-19_16h47.31.112,natb3,2021.2.3,Win32,60.05645307,5e0d531982a9554d3862a670,611e07ecdcc96256ae8d5b80,611e7ce696e750505914a204,0.776,
,,,,,,0,35,35,171,1,X, , , , ,,1500,1.5,5e0d531982a9554d3862a670,001,2021-08-19_16h47.31.112,natb3,2021.2.3,Win32,60.05645307,5e0d531982a9554d3862a670,611e07ecdcc96256ae8d5b80,611e7ce696e750505914a204,,
,,,,,,0,36,36,98,1,X, , , , ,,2500,2.5,5e0d531982a9554d3862a670,001,2021-08-19_16h47.31.112,natb3,2021.2.3,Win32,60.05645307,5e0d531982a9554d3862a670,611e07ecdcc96256ae8d5b80,611e7ce696e750505914a204,,
,,,,space,,0,37,37,36,1,W, , , , ,space,2000,2,5e0d531982a9554d3862a670,001,2021-08-19_16h47.31.112,natb3,2021.2.3,Win32,60.05645307,5e0d531982a9554d3862a670,611e07ecdcc96256ae8d5b80,611e7ce696e750505914a204,0.4174,
,,,,space,,0,38,38,298,1,I, , , , ,space,2000,2,5e0d531982a9554d3862a670,001,2021-08-19_16h47.31.112,natb3,2021.2.3,Win32,60.05645307,5e0d531982a9554d3862a670,611e07ecdcc96256ae8d5b80,611e7ce696e750505914a204,0.5613,
,,,,,,0,39,39,233,1,X, ,2, ,5,,1500,1.5,5e0d531982a9554d3862a670,001,2021-08-19_16h47.31.112,natb3,2021.2.3,Win32,60.05645307,5e0d531982a9554d3862a670,611e07ecdcc96256ae8d5b80,611e7ce696e750505914a204,,
,,,,space,,0,40,40,52,1,F, , , , ,space,1500,1.5,5e0d531982a9554d3862a670,001,2021-08-19_16h47.31.112,natb3,2021.2.3,Win32,60.05645307,5e0d531982a9554d3862a670,611e07ecdcc96256ae8d5b80,611e7ce696e750505914a204,0.519,
,,,,space,,0,41,41,264,1,U, , , , ,space,2000,2,5e0d531982a9554d3862a670,001,2021-08-19_16h47.31.112,natb3,2021.2.3,Win32,60.05645307,5e0d531982a9554d3862a670,611e07ecdcc96256ae8d5b80,611e7ce696e750505914a204,0.4443,
,,,,space,,0,42,42,176,1,N, , , , ,space,1500,1.5,5e0d531982a9554d3862a670,001,2021-08-19_16h47.31.112,natb3,2021.2.3,Win32,60.05645307,5e0d531982a9554d3862a670,611e07ecdcc96256ae8d5b80,611e7ce696e750505914a204,0.5142,
,,,,space,,0,43,43,297,1,U, , , , ,space,2000,2,5e0d531982a9554d3862a670,001,2021-08-19_16h47.31.112,natb3,2021.2.3,Win32,60.05645307,5e0d531982a9554d3862a670,611e07ecdcc96256ae8d5b80,611e7ce696e750505914a204,0.4276,
,,,,space,,0,44,44,274,1,F, , , , ,space,2000,2,5e0d531982a9554d3862a670,001,2021-08-19_16h47.31.112,natb3,2021.2.3,Win32,60.05645307,5e0d531982a9554d3862a670,611e07ecdcc96256ae8d5b80,611e7ce696e750505914a204,0.596,
,,,,space,,0,45,45,226,1,R, , , , ,space,2000,2,5e0d531982a9554d3862a670,001,2021-08-19_16h47.31.112,natb3,2021.2.3,Win32,60.05645307,5e0d531982a9554d3862a670,611e07ecdcc96256ae8d5b80,611e7ce696e750505914a204,0.8346,
,,,,space,,0,46,46,147,1,E, , , , ,space,2000,2,5e0d531982a9554d3862a670,001,2021-08-19_16h47.31.112,natb3,2021.2.3,Win32,60.05645307,5e0d531982a9554d3862a670,611e07ecdcc96256ae8d5b80,611e7ce696e750505914a204,0.3644,
,,,,,,0,47,47,96,1,X, , , , ,,1500,1.5,5e0d531982a9554d3862a670,001,2021-08-19_16h47.31.112,natb3,2021.2.3,Win32,60.05645307,5e0d531982a9554d3862a670,611e07ecdcc96256ae8d5b80,611e7ce696e750505914a204,,
,,,,space,,0,48,48,205,1,C, , , , ,space,2000,2,5e0d531982a9554d3862a670,001,2021-08-19_16h47.31.112,natb3,2021.2.3,Win32,60.05645307,5e0d531982a9554d3862a670,611e07ecdcc96256ae8d5b80,611e7ce696e750505914a204,0.435,
,,,,space,,0,49,49,139,1,V, , , , ,space,2000,2,5e0d531982a9554d3862a670,001,2021-08-19_16h47.31.112,natb3,2021.2.3,Win32,60.05645307,5e0d531982a9554d3862a670,611e07ecdcc96256ae8d5b80,611e7ce696e750505914a204,0.5085,
,,,,space,,0,50,50,59,1,Z, , , , ,space,2000,2,5e0d531982a9554d3862a670,001,2021-08-19_16h47.31.112,natb3,2021.2.3,Win32,60.05645307,5e0d531982a9554d3862a670,611e07ecdcc96256ae8d5b80,611e7ce696e750505914a204,0.3989,
,,,,space,,0,51,51,100,1,M, , , , ,space,2000,2,5e0d531982a9554d3862a670,001,2021-08-19_16h47.31.112,natb3,2021.2.3,Win32,60.05645307,5e0d531982a9554d3862a670,611e07ecdcc96256ae8d5b80,611e7ce696e750505914a204,0.5814,
,,,,space,,0,52,52,193,1,S, , , , ,space,2500,2.5,5e0d531982a9554d3862a670,001,2021-08-19_16h47.31.112,natb3,2021.2.3,Win32,60.05645307,5e0d531982a9554d3862a670,611e07ecdcc96256ae8d5b80,611e7ce696e750505914a204,0.5975,
,,,,space,,0,53,53,137,1,C, , , , ,space,2500,2.5,5e0d531982a9554d3862a670,001,2021-08-19_16h47.31.112,natb3,2021.2.3,Win32,60.05645307,5e0d531982a9554d3862a670,611e07ecdcc96256ae8d5b80,611e7ce696e750505914a204,0.5796,
,,,,space,,0,54,54,185,1,Y, , , , ,space,2500,2.5,5e0d531982a9554d3862a670,001,2021-08-19_16h47.31.112,natb3,2021.2.3,Win32,60.05645307,5e0d531982a9554d3862a670,611e07ecdcc96256ae8d5b80,611e7ce696e750505914a204,0.3244,
,,,,,,0,55,55,136,1,Z, , , , ,space,2500,2.5,5e0d531982a9554d3862a670,001,2021-08-19_16h47.31.112,natb3,2021.2.3,Win32,60.05645307,5e0d531982a9554d3862a670,611e07ecdcc96256ae8d5b80,611e7ce696e750505914a204,,
,,,,space,,0,56,56,221,1,I, , , , ,space,2500,2.5,5e0d531982a9554d3862a670,001,2021-08-19_16h47.31.112,natb3,2021.2.3,Win32,60.05645307,5e0d531982a9554d3862a670,611e07ecdcc96256ae8d5b80,611e7ce696e750505914a204,0.6544,
,,,,space,,0,57,57,332,1,U, , , , ,space,2000,2,5e0d531982a9554d3862a670,001,2021-08-19_16h47.31.112,natb3,2021.2.3,Win32,60.05645307,5e0d531982a9554d3862a670,611e07ecdcc96256ae8d5b80,611e7ce696e750505914a204,0.5978,
,,,,space,,0,58,58,144,1,Q, , , , ,space,2500,2.5,5e0d531982a9554d3862a670,001,2021-08-19_16h47.31.112,natb3,2021.2.3,Win32,60.05645307,5e0d531982a9554d3862a670,611e07ecdcc96256ae8d5b80,611e7ce696e750505914a204,0.619,
,,,,space,,0,59,59,323,1,M, , , , ,space,2500,2.5,5e0d531982a9554d3862a670,001,2021-08-19_16h47.31.112,natb3,2021.2.3,Win32,60.05645307,5e0d531982a9554d3862a670,611e07ecdcc96256ae8d5b80,611e7ce696e750505914a204,0.6298,
,,,,space,,0,60,60,135,1,K, , , , ,space,1500,1.5,5e0d531982a9554d3862a670,001,2021-08-19_16h47.31.112,natb3,2021.2.3,Win32,60.05645307,5e0d531982a9554d3862a670,611e07ecdcc96256ae8d5b80,611e7ce696e750505914a204,0.7144,
,,,,,,0,61,61,146,1,W, , , , ,space,1500,1.5,5e0d531982a9554d3862a670,001,2021-08-19_16h47.31.112,natb3,2021.2.3,Win32,60.05645307,5e0d531982a9554d3862a670,611e07ecdcc96256ae8d5b80,611e7ce696e750505914a204,,
,,,,space,,0,62,62,306,1,D, , , , ,space,2000,2,5e0d531982a9554d3862a670,001,2021-08-19_16h47.31.112,natb3,2021.2.3,Win32,60.05645307,5e0d531982a9554d3862a670,611e07ecdcc96256ae8d5b80,611e7ce696e750505914a204,0.6836,
,,,,,,0,63,63,138,1,X,8,5, ,3,,2000,2,5e0d531982a9554d3862a670,001,2021-08-19_16h47.31.112,natb3,2021.2.3,Win32,60.05645307,5e0d531982a9554d3862a670,611e07ecdcc96256ae8d5b80,611e7ce696e750505914a204,,
,,,,,,0,64,64,227,1,T, , , , ,space,1500,1.5,5e0d531982a9554d3862a670,001,2021-08-19_16h47.31.112,natb3,2021.2.3,Win32,60.05645307,5e0d531982a9554d3862a670,611e07ecdcc96256ae8d5b80,611e7ce696e750505914a204,,
,,,,space,,0,65,65,114,1,E, , , , ,space,2000,2,5e0d531982a9554d3862a670,001,2021-08-19_16h47.31.112,natb3,2021.2.3,Win32,60.05645307,5e0d531982a9554d3862a670,611e07ecdcc96256ae8d5b80,611e7ce696e750505914a204,0.4518,
,,,,,,0,66,66,153,1,X,4,7, ,6,,2000,2,5e0d531982a9554d3862a670,001,2021-08-19_16h47.31.112,natb3,2021.2.3,Win32,60.05645307,5e0d531982a9554d3862a670,611e07ecdcc96256ae8d5b80,611e7ce696e750505914a204,,
,,,,space,,0,67,67,197,1,G, , , , ,space,2500,2.5,5e0d531982a9554d3862a670,001,2021-08-19_16h47.31.112,natb3,2021.2.3,Win32,60.05645307,5e0d531982a9554d3862a670,611e07ecdcc96256ae8d5b80,611e7ce696e750505914a204,0.4426,
,,,,space,,0,68,68,87,1,H, , , , ,space,1500,1.5,5e0d531982a9554d3862a670,001,2021-08-19_16h47.31.112,natb3,2021.2.3,Win32,60.05645307,5e0d531982a9554d3862a670,611e07ecdcc96256ae8d5b80,611e7ce696e750505914a204,0.3435,
,,,,space,,0,69,69,49,1,S, , , , ,space,1500,1.5,5e0d531982a9554d3862a670,001,2021-08-19_16h47.31.112,natb3,2021.2.3,Win32,60.05645307,5e0d531982a9554d3862a670,611e07ecdcc96256ae8d5b80,611e7ce696e750505914a204,0.3766,
,,,,space,,0,70,70,230,1,U, , , , ,space,1500,1.5,5e0d531982a9554d3862a670,001,2021-08-19_16h47.31.112,natb3,2021.2.3,Win32,60.05645307,5e0d531982a9554d3862a670,611e07ecdcc96256ae8d5b80,611e7ce696e750505914a204,0.4177,
,,,,space,,0,71,71,214,1,W, , , , ,space,2000,2,5e0d531982a9554d3862a670,001,2021-08-19_16h47.31.112,natb3,2021.2.3,Win32,60.05645307,5e0d531982a9554d3862a670,611e07ecdcc96256ae8d5b80,611e7ce696e750505914a204,0.7521,
,,,,space,,0,72,72,300,1,O, , , , ,space,2500,2.5,5e0d531982a9554d3862a670,001,2021-08-19_16h47.31.112,natb3,2021.2.3,Win32,60.05645307,5e0d531982a9554d3862a670,611e07ecdcc96256ae8d5b80,611e7ce696e750505914a204,0.414,
,,,,space,,0,73,73,41,1,Y, , , , ,space,2500,2.5,5e0d531982a9554d3862a670,001,2021-08-19_16h47.31.112,natb3,2021.2.3,Win32,60.05645307,5e0d531982a9554d3862a670,611e07ecdcc96256ae8d5b80,611e7ce696e750505914a204,0.3177,
,,,,,,0,74,74,141,1,X,1, ,4,6,,1500,1.5,5e0d531982a9554d3862a670,001,2021-08-19_16h47.31.112,natb3,2021.2.3,Win32,60.05645307,5e0d531982a9554d3862a670,611e07ecdcc96256ae8d5b80,611e7ce696e750505914a204,,
,,,,space,,0,75,75,50,1,D, , , , ,space,1500,1.5,5e0d531982a9554d3862a670,001,2021-08-19_16h47.31.112,natb3,2021.2.3,Win32,60.05645307,5e0d531982a9554d3862a670,611e07ecdcc96256ae8d5b80,611e7ce696e750505914a204,0.4783,
,,,,space,,0,76,76,328,1,R, , , , ,space,1500,1.5,5e0d531982a9554d3862a670,001,2021-08-19_16h47.31.112,natb3,2021.2.3,Win32,60.05645307,5e0d531982a9554d3862a670,611e07ecdcc96256ae8d5b80,611e7ce696e750505914a204,0.3685,
,,,,,,0,77,77,187,1,X, ,3,7,4,,1500,1.5,5e0d531982a9554d3862a670,001,2021-08-19_16h47.31.112,natb3,2021.2.3,Win32,60.05645307,5e0d531982a9554d3862a670,611e07ecdcc96256ae8d5b80,611e7ce696e750505914a204,,
,,,,space,,0,78,78,128,1,D, , , , ,space,2500,2.5,5e0d531982a9554d3862a670,001,2021-08-19_16h47.31.112,natb3,2021.2.3,Win32,60.05645307,5e0d531982a9554d3862a670,611e07ecdcc96256ae8d5b80,611e7ce696e750505914a204,0.5318,
,,,,space,,0,79,79,273,1,X, , , , ,,2000,2,5e0d531982a9554d3862a670,001,2021-08-19_16h47.31.112,natb3,2021.2.3,Win32,60.05645307,5e0d531982a9554d3862a670,611e07ecdcc96256ae8d5b80,611e7ce696e750505914a204,0.3856,
,,,,space,,0,80,80,174,1,B, , , , ,space,2500,2.5,5e0d531982a9554d3862a670,001,2021-08-19_16h47.31.112,natb3,2021.2.3,Win32,60.05645307,5e0d531982a9554d3862a670,611e07ecdcc96256ae8d5b80,611e7ce696e750505914a204,0.5679,
,,,,space,,0,81,81,324,1,Q, , , , ,space,2000,2,5e0d531982a9554d3862a670,001,2021-08-19_16h47.31.112,natb3,2021.2.3,Win32,60.05645307,5e0d531982a9554d3862a670,611e07ecdcc96256ae8d5b80,611e7ce696e750505914a204,0.4956,
,,,,space,,0,82,82,67,1,Q, , , , ,space,2000,2,5e0d531982a9554d3862a670,001,2021-08-19_16h47.31.112,natb3,2021.2.3,Win32,60.05645307,5e0d531982a9554d3862a670,611e07ecdcc96256ae8d5b80,611e7ce696e750505914a204,0.9344,
,,,,space,,0,83,83,29,1,B, , , , ,space,1500,1.5,5e0d531982a9554d3862a670,001,2021-08-19_16h47.31.112,natb3,2021.2.3,Win32,60.05645307,5e0d531982a9554d3862a670,611e07ecdcc96256ae8d5b80,611e7ce696e750505914a204,0.5689,
,,,,space,,0,84,84,94,1,C, , , , ,space,2000,2,5e0d531982a9554d3862a670,001,2021-08-19_16h47.31.112,natb3,2021.2.3,Win32,60.05645307,5e0d531982a9554d3862a670,611e07ecdcc96256ae8d5b80,611e7ce696e750505914a204,0.8568,
,,,,space,,0,85,85,189,1,O, , , , ,space,1500,1.5,5e0d531982a9554d3862a670,001,2021-08-19_16h47.31.112,natb3,2021.2.3,Win32,60.05645307,5e0d531982a9554d3862a670,611e07ecdcc96256ae8d5b80,611e7ce696e750505914a204,0.6988,
,,,,space,,0,86,86,250,1,V, , , , ,space,2000,2,5e0d531982a9554d3862a670,001,2021-08-19_16h47.31.112,natb3,2021.2.3,Win32,60.05645307,5e0d531982a9554d3862a670,611e07ecdcc96256ae8d5b80,611e7ce696e750505914a204,0.7164,
,,,,space,,0,87,87,72,1,T, , , , ,space,1500,1.5,5e0d531982a9554d3862a670,001,2021-08-19_16h47.31.112,natb3,2021.2.3,Win32,60.05645307,5e0d531982a9554d3862a670,611e07ecdcc96256ae8d5b80,611e7ce696e750505914a204,0.5489,
,,,,space,,0,88,88,17,1,F, , , , ,space,2500,2.5,5e0d531982a9554d3862a670,001,2021-08-19_16h47.31.112,natb3,2021.2.3,Win32,60.05645307,5e0d531982a9554d3862a670,611e07ecdcc96256ae8d5b80,611e7ce696e750505914a204,0.5002,
,,,,space,,0,89,89,190,1,P, , , , ,space,2000,2,5e0d531982a9554d3862a670,001,2021-08-19_16h47.31.112,natb3,2021.2.3,Win32,60.05645307,5e0d531982a9554d3862a670,611e07ecdcc96256ae8d5b80,611e7ce696e750505914a204,0.6138,
,,,,space,,0,90,90,269,1,A, , , , ,space,2500,2.5,5e0d531982a9554d3862a670,001,2021-08-19_16h47.31.112,natb3,2021.2.3,Win32,60.05645307,5e0d531982a9554d3862a670,611e07ecdcc96256ae8d5b80,611e7ce696e750505914a204,0.5312,
,,,,space,,0,91,91,303,1,A, , , , ,space,2000,2,5e0d531982a9554d3862a670,001,2021-08-19_16h47.31.112,natb3,2021.2.3,Win32,60.05645307,5e0d531982a9554d3862a670,611e07ecdcc96256ae8d5b80,611e7ce696e750505914a204,0.4427,
,,,,space,,0,92,92,278,1,J, , , , ,space,2000,2,5e0d531982a9554d3862a670,001,2021-08-19_16h47.31.112,natb3,2021.2.3,Win32,60.05645307,5e0d531982a9554d3862a670,611e07ecdcc96256ae8d5b80,611e7ce696e750505914a204,0.5868,
,,,,space,,0,93,93,206,1,V, , , , ,space,2000,2,5e0d531982a9554d3862a670,001,2021-08-19_16h47.31.112,natb3,2021.2.3,Win32,60.05645307,5e0d531982a9554d3862a670,611e07ecdcc96256ae8d5b80,611e7ce696e750505914a204,0.522,
,,,,,,0,94,94,23,1,X,1, ,5, ,,2000,2,5e0d531982a9554d3862a670,001,2021-08-19_16h47.31.112,natb3,2021.2.3,Win32,60.05645307,5e0d531982a9554d3862a670,611e07ecdcc96256ae8d5b80,611e7ce696e750505914a204,,
,,,,,,0,95,95,133,1,X, ,4, ,6,,2500,2.5,5e0d531982a9554d3862a670,001,2021-08-19_16h47.31.112,natb3,2021.2.3,Win32,60.05645307,5e0d531982a9554d3862a670,611e07ecdcc96256ae8d5b80,611e7ce696e750505914a204,,
,,,,space,,0,96,96,308,1,G, , , , ,space,1500,1.5,5e0d531982a9554d3862a670,001,2021-08-19_16h47.31.112,natb3,2021.2.3,Win32,60.05645307,5e0d531982a9554d3862a670,611e07ecdcc96256ae8d5b80,611e7ce696e750505914a204,0.6026,
,,,,,,0,97,97,236,1,X,3, ,4,7,,2500,2.5,5e0d531982a9554d3862a670,001,2021-08-19_16h47.31.112,natb3,2021.2.3,Win32,60.05645307,5e0d531982a9554d3862a670,611e07ecdcc96256ae8d5b80,611e7ce696e750505914a204,,
,,,,space,,0,98,98,154,1,I, , , , ,space,2500,2.5,5e0d531982a9554d3862a670,001,2021-08-19_16h47.31.112,natb3,2021.2.3,Win32,60.05645307,5e0d531982a9554d3862a670,611e07ecdcc96256ae8d5b80,611e7ce696e750505914a204,0.4277,
,,,,,,0,99,99,165,1,J, , , , ,space,2500,2.5,5e0d531982a9554d3862a670,001,2021-08-19_16h47.31.112,natb3,2021.2.3,Win32,60.05645307,5e0d531982a9554d3862a670,611e07ecdcc96256ae8d5b80,611e7ce696e750505914a204,,
,,,,,,0,100,100,277,1,X,8,5, ,2,,2000,2,5e0d531982a9554d3862a670,001,2021-08-19_16h47.31.112,natb3,2021.2.3,Win32,60.05645307,5e0d531982a9554d3862a670,611e07ecdcc96256ae8d5b80,611e7ce696e750505914a204,,
,,,,space,,0,101,101,6,1,Y, , , , ,space,2500,2.5,5e0d531982a9554d3862a670,001,2021-08-19_16h47.31.112,natb3,2021.2.3,Win32,60.05645307,5e0d531982a9554d3862a670,611e07ecdcc96256ae8d5b80,611e7ce696e750505914a204,0.4695,
,,,,space,,0,102,102,109,1,U, , , , ,space,1500,1.5,5e0d531982a9554d3862a670,001,2021-08-19_16h47.31.112,natb3,2021.2.3,Win32,60.05645307,5e0d531982a9554d3862a670,611e07ecdcc96256ae8d5b80,611e7ce696e750505914a204,0.7037,
,,,,space,,0,103,103,57,1,K, , , , ,space,2500,2.5,5e0d531982a9554d3862a670,001,2021-08-19_16h47.31.112,natb3,2021.2.3,Win32,60.05645307,5e0d531982a9554d3862a670,611e07ecdcc96256ae8d5b80,611e7ce696e750505914a204,0.3662,
,,,,space,,0,104,104,123,1,O, , , , ,space,1500,1.5,5e0d531982a9554d3862a670,001,2021-08-19_16h47.31.112,natb3,2021.2.3,Win32,60.05645307,5e0d531982a9554d3862a670,611e07ecdcc96256ae8d5b80,611e7ce696e750505914a204,0.42,
,,,,space,,0,105,105,62,1,V, , , , ,space,1500,1.5,5e0d531982a9554d3862a670,001,2021-08-19_16h47.31.112,natb3,2021.2.3,Win32,60.05645307,5e0d531982a9554d3862a670,611e07ecdcc96256ae8d5b80,611e7ce696e750505914a204,0.4935,
,,,,space,,0,106,106,314,1,L, , , , ,space,1500,1.5,5e0d531982a9554d3862a670,001,2021-08-19_16h47.31.112,natb3,2021.2.3,Win32,60.05645307,5e0d531982a9554d3862a670,611e07ecdcc96256ae8d5b80,611e7ce696e750505914a204,0.3744,
,,,,space,,0,107,107,118,1,X, , , , ,,2000,2,5e0d531982a9554d3862a670,001,2021-08-19_16h47.31.112,natb3,2021.2.3,Win32,60.05645307,5e0d531982a9554d3862a670,611e07ecdcc96256ae8d5b80,611e7ce696e750505914a204,0.2989,
,,,,space,,0,108,108,220,1,U, , , , ,space,2500,2.5,5e0d531982a9554d3862a670,001,2021-08-19_16h47.31.112,natb3,2021.2.3,Win32,60.05645307,5e0d531982a9554d3862a670,611e07ecdcc96256ae8d5b80,611e7ce696e750505914a204,0.628,
,,,,,,0,109,109,305,1,X, , , , ,,1500,1.5,5e0d531982a9554d3862a670,001,2021-08-19_16h47.31.112,natb3,2021.2.3,Win32,60.05645307,5e0d531982a9554d3862a670,611e07ecdcc96256ae8d5b80,611e7ce696e750505914a204,,
,,,,space,,0,110,110,244,1,J, , , , ,space,1500,1.5,5e0d531982a9554d3862a670,001,2021-08-19_16h47.31.112,natb3,2021.2.3,Win32,60.05645307,5e0d531982a9554d3862a670,611e07ecdcc96256ae8d5b80,611e7ce696e750505914a204,0.8249,
,,,,,,0,111,111,54,1,X, , , , ,,2000,2,5e0d531982a9554d3862a670,001,2021-08-19_16h47.31.112,natb3,2021.2.3,Win32,60.05645307,5e0d531982a9554d3862a670,611e07ecdcc96256ae8d5b80,611e7ce696e750505914a204,,
,,,,space,,0,112,112,79,1,P, , , , ,space,2000,2,5e0d531982a9554d3862a670,001,2021-08-19_16h47.31.112,natb3,2021.2.3,Win32,60.05645307,5e0d531982a9554d3862a670,611e07ecdcc96256ae8d5b80,611e7ce696e750505914a204,0.4905,
,,,,,,0,113,113,18,1,X, ,2,5,8,,2500,2.5,5e0d531982a9554d3862a670,001,2021-08-19_16h47.31.112,natb3,2021.2.3,Win32,60.05645307,5e0d531982a9554d3862a670,611e07ecdcc96256ae8d5b80,611e7ce696e750505914a204,,
,,,,space,,0,114,114,216,1,R, , , , ,space,1500,1.5,5e0d531982a9554d3862a670,001,2021-08-19_16h47.31.112,natb3,2021.2.3,Win32,60.05645307,5e0d531982a9554d3862a670,611e07ecdcc96256ae8d5b80,611e7ce696e750505914a204,0.7361,
,,,,space,,0,115,115,56,1,J, , , , ,space,1500,1.5,5e0d531982a9554d3862a670,001,2021-08-19_16h47.31.112,natb3,2021.2.3,Win32,60.05645307,5e0d531982a9554d3862a670,611e07ecdcc96256ae8d5b80,611e7ce696e750505914a204,0.4352,
,,,,space,,0,116,116,2,1,E, , , , ,space,2500,2.5,5e0d531982a9554d3862a670,001,2021-08-19_16h47.31.112,natb3,2021.2.3,Win32,60.05645307,5e0d531982a9554d3862a670,611e07ecdcc96256ae8d5b80,611e7ce696e750505914a204,0.4198,
,,,,space,,0,117,117,103,1,W, , , , ,space,2000,2,5e0d531982a9554d3862a670,001,2021-08-19_16h47.31.112,natb3,2021.2.3,Win32,60.05645307,5e0d531982a9554d3862a670,611e07ecdcc96256ae8d5b80,611e7ce696e750505914a204,0.5654,
,,,,space,,0,118,118,37,1,E, , , , ,space,2500,2.5,5e0d531982a9554d3862a670,001,2021-08-19_16h47.31.112,natb3,2021.2.3,Win32,60.05645307,5e0d531982a9554d3862a670,611e07ecdcc96256ae8d5b80,611e7ce696e750505914a204,0.6657,
,,,,space,,0,119,119,293,1,R, , , , ,space,2500,2.5,5e0d531982a9554d3862a670,001,2021-08-19_16h47.31.112,natb3,2021.2.3,Win32,60.05645307,5e0d531982a9554d3862a670,611e07ecdcc96256ae8d5b80,611e7ce696e750505914a204,0.7677,
,,,,space,,0,120,120,240,1,F, , , , ,space,2500,2.5,5e0d531982a9554d3862a670,001,2021-08-19_16h47.31.112,natb3,2021.2.3,Win32,60.05645307,5e0d531982a9554d3862a670,611e07ecdcc96256ae8d5b80,611e7ce696e750505914a204,0.5182,
,,,,,,0,121,121,200,1,X,7, ,5,3,,1500,1.5,5e0d531982a9554d3862a670,001,2021-08-19_16h47.31.112,natb3,2021.2.3,Win32,60.05645307,5e0d531982a9554d3862a670,611e07ecdcc96256ae8d5b80,611e7ce696e750505914a204,,
,,,,,,0,122,122,60,1,X,7,3,5, ,,1500,1.5,5e0d531982a9554d3862a670,001,2021-08-19_16h47.31.112,natb3,2021.2.3,Win32,60.05645307,5e0d531982a9554d3862a670,611e07ecdcc96256ae8d5b80,611e7ce696e750505914a204,,
,,,,,,0,123,123,182,1,X, , , , ,,1500,1.5,5e0d531982a9554d3862a670,001,2021-08-19_16h47.31.112,natb3,2021.2.3,Win32,60.05645307,5e0d531982a9554d3862a670,611e07ecdcc96256ae8d5b80,611e7ce696e750505914a204,,
,,,,space,,0,124,124,70,1,E, , , , ,space,2500,2.5,5e0d531982a9554d3862a670,001,2021-08-19_16h47.31.112,natb3,2021.2.3,Win32,60.05645307,5e0d531982a9554d3862a670,611e07ecdcc96256ae8d5b80,611e7ce696e750505914a204,0.4015,
,,,,space,,0,125,125,222,1,O, , , , ,space,2000,2,5e0d531982a9554d3862a670,001,2021-08-19_16h47.31.112,natb3,2021.2.3,Win32,60.05645307,5e0d531982a9554d3862a670,611e07ecdcc96256ae8d5b80,611e7ce696e750505914a204,0.4921,
,,,,,,0,126,126,35,1,X, , , , ,,2500,2.5,5e0d531982a9554d3862a670,001,2021-08-19_16h47.31.112,natb3,2021.2.3,Win32,60.05645307,5e0d531982a9554d3862a670,611e07ecdcc96256ae8d5b80,611e7ce696e750505914a204,,
,,,,space,,0,127,127,132,1,H, , , , ,space,2500,2.5,5e0d531982a9554d3862a670,001,2021-08-19_16h47.31.112,natb3,2021.2.3,Win32,60.05645307,5e0d531982a9554d3862a670,611e07ecdcc96256ae8d5b80,611e7ce696e750505914a204,0.5101,
,,,,,,0,128,128,168,1,X, , , , ,,2500,2.5,5e0d531982a9554d3862a670,001,2021-08-19_16h47.31.112,natb3,2021.2.3,Win32,60.05645307,5e0d531982a9554d3862a670,611e07ecdcc96256ae8d5b80,611e7ce696e750505914a204,,
,,,,space,,0,129,129,241,1,G, , , , ,space,2500,2.5,5e0d531982a9554d3862a670,001,2021-08-19_16h47.31.112,natb3,2021.2.3,Win32,60.05645307,5e0d531982a9554d3862a670,611e07ecdcc96256ae8d5b80,611e7ce696e750505914a204,0.6286,
,,,,space,,0,130,130,119,1,Y, , , , ,space,2500,2.5,5e0d531982a9554d3862a670,001,2021-08-19_16h47.31.112,natb3,2021.2.3,Win32,60.05645307,5e0d531982a9554d3862a670,611e07ecdcc96256ae8d5b80,611e7ce696e750505914a204,0.378,
,,,,space,,0,131,131,130,1,F, , , , ,space,2000,2,5e0d531982a9554d3862a670,001,2021-08-19_16h47.31.112,natb3,2021.2.3,Win32,60.05645307,5e0d531982a9554d3862a670,611e07ecdcc96256ae8d5b80,611e7ce696e750505914a204,0.3138,
,,,,space,,0,132,132,34,1,Q, , , , ,space,2500,2.5,5e0d531982a9554d3862a670,001,2021-08-19_16h47.31.112,natb3,2021.2.3,Win32,60.05645307,5e0d531982a9554d3862a670,611e07ecdcc96256ae8d5b80,611e7ce696e750505914a204,0.3654,
,,,,space,,0,133,133,16,1,D, , , , ,space,1500,1.5,5e0d531982a9554d3862a670,001,2021-08-19_16h47.31.112,natb3,2021.2.3,Win32,60.05645307,5e0d531982a9554d3862a670,611e07ecdcc96256ae8d5b80,611e7ce696e750505914a204,0.4849,
,,,,space,,0,134,134,45,1,O, , , , ,space,2000,2,5e0d531982a9554d3862a670,001,2021-08-19_16h47.31.112,natb3,2021.2.3,Win32,60.05645307,5e0d531982a9554d3862a670,611e07ecdcc96256ae8d5b80,611e7ce696e750505914a204,0.6148,
,,,,,,0,135,135,46,1,X, , , , ,,2000,2,5e0d531982a9554d3862a670,001,2021-08-19_16h47.31.112,natb3,2021.2.3,Win32,60.05645307,5e0d531982a9554d3862a670,611e07ecdcc96256ae8d5b80,611e7ce696e750505914a204,,
,,,,,,0,136,136,229,1,X,8, ,2,6,,2500,2.5,5e0d531982a9554d3862a670,001,2021-08-19_16h47.31.112,natb3,2021.2.3,Win32,60.05645307,5e0d531982a9554d3862a670,611e07ecdcc96256ae8d5b80,611e7ce696e750505914a204,,
,,,,space,,0,137,137,48,1,A, , , , ,space,2500,2.5,5e0d531982a9554d3862a670,001,2021-08-19_16h47.31.112,natb3,2021.2.3,Win32,60.05645307,5e0d531982a9554d3862a670,611e07ecdcc96256ae8d5b80,611e7ce696e750505914a204,0.4468,
,,,,space,,0,138,138,38,1,R, , , , ,space,2500,2.5,5e0d531982a9554d3862a670,001,2021-08-19_16h47.31.112,natb3,2021.2.3,Win32,60.05645307,5e0d531982a9554d3862a670,611e07ecdcc96256ae8d5b80,611e7ce696e750505914a204,0.3986,
,,,,space,,0,139,139,289,1,Q, , , , ,space,2000,2,5e0d531982a9554d3862a670,001,2021-08-19_16h47.31.112,natb3,2021.2.3,Win32,60.05645307,5e0d531982a9554d3862a670,611e07ecdcc96256ae8d5b80,611e7ce696e750505914a204,0.3462,
,,,,space,,0,140,140,0,1,Q, , , , ,space,1500,1.5,5e0d531982a9554d3862a670,001,2021-08-19_16h47.31.112,natb3,2021.2.3,Win32,60.05645307,5e0d531982a9554d3862a670,611e07ecdcc96256ae8d5b80,611e7ce696e750505914a204,0.5699,
,,,,,,0,141,141,125,1,X, , , , ,,2000,2,5e0d531982a9554d3862a670,001,2021-08-19_16h47.31.112,natb3,2021.2.3,Win32,60.05645307,5e0d531982a9554d3862a670,611e07ecdcc96256ae8d5b80,611e7ce696e750505914a204,,
,,,,space,,0,142,142,238,1,D, , , , ,space,1500,1.5,5e0d531982a9554d3862a670,001,2021-08-19_16h47.31.112,natb3,2021.2.3,Win32,60.05645307,5e0d531982a9554d3862a670,611e07ecdcc96256ae8d5b80,611e7ce696e750505914a204,0.4681,
,,,,,,0,143,143,263,1,X,4, ,6, ,,1500,1.5,5e0d531982a9554d3862a670,001,2021-08-19_16h47.31.112,natb3,2021.2.3,Win32,60.05645307,5e0d531982a9554d3862a670,611e07ecdcc96256ae8d5b80,611e7ce696e750505914a204,,
,,,,space,,0,144,144,39,1,X,6,2, , ,,1500,1.5,5e0d531982a9554d3862a670,001,2021-08-19_16h47.31.112,natb3,2021.2.3,Win32,60.05645307,5e0d531982a9554d3862a670,611e07ecdcc96256ae8d5b80,611e7ce696e750505914a204,0.3084,
,,,,space,,0,145,145,245,1,K, , , , ,space,2000,2,5e0d531982a9554d3862a670,001,2021-08-19_16h47.31.112,natb3,2021.2.3,Win32,60.05645307,5e0d531982a9554d3862a670,611e07ecdcc96256ae8d5b80,611e7ce696e750505914a204,0.5715,
,,,,space,,0,146,146,161,1,F, , , , ,space,1500,1.5,5e0d531982a9554d3862a670,001,2021-08-19_16h47.31.112,natb3,2021.2.3,Win32,60.05645307,5e0d531982a9554d3862a670,611e07ecdcc96256ae8d5b80,611e7ce696e750505914a204,0.4856,
,,,,space,,0,147,147,167,1,K, , , , ,space,1500,1.5,5e0d531982a9554d3862a670,001,2021-08-19_16h47.31.112,natb3,2021.2.3,Win32,60.05645307,5e0d531982a9554d3862a670,611e07ecdcc96256ae8d5b80,611e7ce696e750505914a204,0.5311,
,,,,space,,0,148,148,258,1,E, , , , ,space,1500,1.5,5e0d531982a9554d3862a670,001,2021-08-19_16h47.31.112,natb3,2021.2.3,Win32,60.05645307,5e0d531982a9554d3862a670,611e07ecdcc96256ae8d5b80,611e7ce696e750505914a204,0.5699,
,,,,,,0,149,149,4,1,X, , , , ,,2000,2,5e0d531982a9554d3862a670,001,2021-08-19_16h47.31.112,natb3,2021.2.3,Win32,60.05645307,5e0d531982a9554d3862a670,611e07ecdcc96256ae8d5b80,611e7ce696e750505914a204,,
,,,,,,0,150,150,325,1,X, , , , ,,2500,2.5,5e0d531982a9554d3862a670,001,2021-08-19_16h47.31.112,natb3,2021.2.3,Win32,60.05645307,5e0d531982a9554d3862a670,611e07ecdcc96256ae8d5b80,611e7ce696e750505914a204,,
,,,,space,,0,151,151,97,1,B, , , , ,space,2500,2.5,5e0d531982a9554d3862a670,001,2021-08-19_16h47.31.112,natb3,2021.2.3,Win32,60.05645307,5e0d531982a9554d3862a670,611e07ecdcc96256ae8d5b80,611e7ce696e750505914a204,0.3732,
,,,,space,,0,152,152,151,1,Y, , , , ,space,2500,2.5,5e0d531982a9554d3862a670,001,2021-08-19_16h47.31.112,natb3,2021.2.3,Win32,60.05645307,5e0d531982a9554d3862a670,611e07ecdcc96256ae8d5b80,611e7ce696e750505914a204,0.5178,
,,,,space,,0,153,153,281,1,Z, , , , ,space,1500,1.5,5e0d531982a9554d3862a670,001,2021-08-19_16h47.31.112,natb3,2021.2.3,Win32,60.05645307,5e0d531982a9554d3862a670,611e07ecdcc96256ae8d5b80,611e7ce696e750505914a204,0.5393,
,,,,,,0,154,154,64,1,N, , , , ,space,2000,2,5e0d531982a9554d3862a670,001,2021-08-19_16h47.31.112,natb3,2021.2.3,Win32,60.05645307,5e0d531982a9554d3862a670,611e07ecdcc96256ae8d5b80,611e7ce696e750505914a204,,
,,,,,,0,155,155,66,1,X, ,4,7, ,,2000,2,5e0d531982a9554d3862a670,001,2021-08-19_16h47.31.112,natb3,2021.2.3,Win32,60.05645307,5e0d531982a9554d3862a670,611e07ecdcc96256ae8d5b80,611e7ce696e750505914a204,,
,,,,,,0,156,156,304,1,S, , , , ,space,2000,2,5e0d531982a9554d3862a670,001,2021-08-19_16h47.31.112,natb3,2021.2.3,Win32,60.05645307,5e0d531982a9554d3862a670,611e07ecdcc96256ae8d5b80,611e7ce696e750505914a204,,
,,,,,,0,157,157,282,1,X, , , , ,,2500,2.5,5e0d531982a9554d3862a670,001,2021-08-19_16h47.31.112,natb3,2021.2.3,Win32,60.05645307,5e0d531982a9554d3862a670,611e07ecdcc96256ae8d5b80,611e7ce696e750505914a204,,
,,,,space,,0,158,158,42,1,U, , , , ,space,1500,1.5,5e0d531982a9554d3862a670,001,2021-08-19_16h47.31.112,natb3,2021.2.3,Win32,60.05645307,5e0d531982a9554d3862a670,611e07ecdcc96256ae8d5b80,611e7ce696e750505914a204,0.4638,
,,,,,,0,159,159,335,1,P,,,,,space,1500,1.5,5e0d531982a9554d3862a670,001,2021-08-19_16h47.31.112,natb3,2021.2.3,Win32,60.05645307,5e0d531982a9554d3862a670,611e07ecdcc96256ae8d5b80,611e7ce696e750505914a204,,
,,,,,,0,160,160,302,1,X, , , , ,,2000,2,5e0d531982a9554d3862a670,001,2021-08-19_16h47.31.112,natb3,2021.2.3,Win32,60.05645307,5e0d531982a9554d3862a670,611e07ecdcc96256ae8d5b80,611e7ce696e750505914a204,,
,,,,,,0,161,161,84,1,X, , , , ,,2000,2,5e0d531982a9554d3862a670,001,2021-08-19_16h47.31.112,natb3,2021.2.3,Win32,60.05645307,5e0d531982a9554d3862a670,611e07ecdcc96256ae8d5b80,611e7ce696e750505914a204,,
,,,,space,,0,162,162,208,1,B, , , , ,space,1500,1.5,5e0d531982a9554d3862a670,001,2021-08-19_16h47.31.112,natb3,2021.2.3,Win32,60.05645307,5e0d531982a9554d3862a670,611e07ecdcc96256ae8d5b80,611e7ce696e750505914a204,0.4402,
,,,,,,0,163,163,211,1,X, , , , ,,2500,2.5,5e0d531982a9554d3862a670,001,2021-08-19_16h47.31.112,natb3,2021.2.3,Win32,60.05645307,5e0d531982a9554d3862a670,611e07ecdcc96256ae8d5b80,611e7ce696e750505914a204,,
,,,,,,0,164,164,31,1,X, , , , ,,1500,1.5,5e0d531982a9554d3862a670,001,2021-08-19_16h47.31.112,natb3,2021.2.3,Win32,60.05645307,5e0d531982a9554d3862a670,611e07ecdcc96256ae8d5b80,611e7ce696e750505914a204,,
,,,,space,,0,165,165,73,1,Y, , , , ,space,2000,2,5e0d531982a9554d3862a670,001,2021-08-19_16h47.31.112,natb3,2021.2.3,Win32,60.05645307,5e0d531982a9554d3862a670,611e07ecdcc96256ae8d5b80,611e7ce696e750505914a204,0.5968,
,,,,space,,0,166,166,3,1,R, , , , ,space,2000,2,5e0d531982a9554d3862a670,001,2021-08-19_16h47.31.112,natb3,2021.2.3,Win32,60.05645307,5e0d531982a9554d3862a670,611e07ecdcc96256ae8d5b80,611e7ce696e750505914a204,0.5815,
,,,,,space,0,167,167,91,1,L, , , , ,space,2000,2,5e0d531982a9554d3862a670,001,2021-08-19_16h47.31.112,natb3,2021.2.3,Win32,60.05645307,5e0d531982a9554d3862a670,611e07ecdcc96256ae8d5b80,611e7ce696e750505914a204,,21.4232
,,,,space,,0,168,168,156,1,P, , , , ,space,1500,1.5,5e0d531982a9554d3862a670,001,2021-08-19_16h47.31.112,natb3,2021.2.3,Win32,60.05645307,5e0d531982a9554d3862a670,611e07ecdcc96256ae8d5b80,611e7ce696e750505914a204,0.7624,
,,,,space,,0,169,169,24,1,L, , , , ,space,2500,2.5,5e0d531982a9554d3862a670,001,2021-08-19_16h47.31.112,natb3,2021.2.3,Win32,60.05645307,5e0d531982a9554d3862a670,611e07ecdcc96256ae8d5b80,611e7ce696e750505914a204,0.6648,
,,,,space,,0,170,170,173,1,V, , , , ,space,1500,1.5,5e0d531982a9554d3862a670,001,2021-08-19_16h47.31.112,natb3,2021.2.3,Win32,60.05645307,5e0d531982a9554d3862a670,611e07ecdcc96256ae8d5b80,611e7ce696e750505914a204,0.533,
,,,,,,0,171,171,122,1,X,1, , ,8,,1500,1.5,5e0d531982a9554d3862a670,001,2021-08-19_16h47.31.112,natb3,2021.2.3,Win32,60.05645307,5e0d531982a9554d3862a670,611e07ecdcc96256ae8d5b80,611e7ce696e750505914a204,,
,,,,space,,0,172,172,47,1,P, , , , ,space,2000,2,5e0d531982a9554d3862a670,001,2021-08-19_16h47.31.112,natb3,2021.2.3,Win32,60.05645307,5e0d531982a9554d3862a670,611e07ecdcc96256ae8d5b80,611e7ce696e750505914a204,0.4087,
,,,,,,0,173,173,179,1,X, ,9, ,2,,1500,1.5,5e0d531982a9554d3862a670,001,2021-08-19_16h47.31.112,natb3,2021.2.3,Win32,60.05645307,5e0d531982a9554d3862a670,611e07ecdcc96256ae8d5b80,611e7ce696e750505914a204,,
,,,,space,,0,174,174,80,1,A, , , , ,space,2000,2,5e0d531982a9554d3862a670,001,2021-08-19_16h47.31.112,natb3,2021.2.3,Win32,60.05645307,5e0d531982a9554d3862a670,611e07ecdcc96256ae8d5b80,611e7ce696e750505914a204,0.8692,
,,,,space,,0,175,175,111,1,O, , , , ,space,2000,2,5e0d531982a9554d3862a670,001,2021-08-19_16h47.31.112,natb3,2021.2.3,Win32,60.05645307,5e0d531982a9554d3862a670,611e07ecdcc96256ae8d5b80,611e7ce696e750505914a204,0.4964,
,,,,space,,0,176,176,184,1,T, , , , ,space,2000,2,5e0d531982a9554d3862a670,001,2021-08-19_16h47.31.112,natb3,2021.2.3,Win32,60.05645307,5e0d531982a9554d3862a670,611e07ecdcc96256ae8d5b80,611e7ce696e750505914a204,0.3658,
,,,,space,,0,177,177,301,1,P, , , , ,space,1500,1.5,5e0d531982a9554d3862a670,001,2021-08-19_16h47.31.112,natb3,2021.2.3,Win32,60.05645307,5e0d531982a9554d3862a670,611e07ecdcc96256ae8d5b80,611e7ce696e750505914a204,0.447,
,,,,space,,0,178,178,108,1,Y, , , , ,space,2500,2.5,5e0d531982a9554d3862a670,001,2021-08-19_16h47.31.112,natb3,2021.2.3,Win32,60.05645307,5e0d531982a9554d3862a670,611e07ecdcc96256ae8d5b80,611e7ce696e750505914a204,0.4127,
,,,,,,0,179,179,74,1,X, ,4,3,2,,1500,1.5,5e0d531982a9554d3862a670,001,2021-08-19_16h47.31.112,natb3,2021.2.3,Win32,60.05645307,5e0d531982a9554d3862a670,611e07ecdcc96256ae8d5b80,611e7ce696e750505914a204,,
,,,,space,,0,180,180,326,1,W, , , , ,space,2000,2,5e0d531982a9554d3862a670,001,2021-08-19_16h47.31.112,natb3,2021.2.3,Win32,60.05645307,5e0d531982a9554d3862a670,611e07ecdcc96256ae8d5b80,611e7ce696e750505914a204,0.4914,
,,,,,,0,181,181,203,1,X, , , , ,,2500,2.5,5e0d531982a9554d3862a670,001,2021-08-19_16h47.31.112,natb3,2021.2.3,Win32,60.05645307,5e0d531982a9554d3862a670,611e07ecdcc96256ae8d5b80,611e7ce696e750505914a204,,
,,,,,,0,182,182,175,1,X,7, ,4,2,,1500,1.5,5e0d531982a9554d3862a670,001,2021-08-19_16h47.31.112,natb3,2021.2.3,Win32,60.05645307,5e0d531982a9554d3862a670,611e07ecdcc96256ae8d5b80,611e7ce696e750505914a204,,
,,,,,,0,183,183,239,1,X, , , , ,,2000,2,5e0d531982a9554d3862a670,001,2021-08-19_16h47.31.112,natb3,2021.2.3,Win32,60.05645307,5e0d531982a9554d3862a670,611e07ecdcc96256ae8d5b80,611e7ce696e750505914a204,,
,,,,,,0,184,184,148,1,X, , , , ,,2000,2,5e0d531982a9554d3862a670,001,2021-08-19_16h47.31.112,natb3,2021.2.3,Win32,60.05645307,5e0d531982a9554d3862a670,611e07ecdcc96256ae8d5b80,611e7ce696e750505914a204,,
,,,,space,,0,185,185,270,1,S, , , , ,space,1500,1.5,5e0d531982a9554d3862a670,001,2021-08-19_16h47.31.112,natb3,2021.2.3,Win32,60.05645307,5e0d531982a9554d3862a670,611e07ecdcc96256ae8d5b80,611e7ce696e750505914a204,0.9038,
,,,,space,,0,186,186,261,1,T, , , , ,space,2000,2,5e0d531982a9554d3862a670,001,2021-08-19_16h47.31.112,natb3,2021.2.3,Win32,60.05645307,5e0d531982a9554d3862a670,611e07ecdcc96256ae8d5b80,611e7ce696e750505914a204,0.5984,
,,,,space,,0,187,187,22,1,K, , , , ,space,2000,2,5e0d531982a9554d3862a670,001,2021-08-19_16h47.31.112,natb3,2021.2.3,Win32,60.05645307,5e0d531982a9554d3862a670,611e07ecdcc96256ae8d5b80,611e7ce696e750505914a204,0.4371,
,,,,,,0,188,188,318,1,X, , , , ,,1500,1.5,5e0d531982a9554d3862a670,001,2021-08-19_16h47.31.112,natb3,2021.2.3,Win32,60.05645307,5e0d531982a9554d3862a670,611e07ecdcc96256ae8d5b80,611e7ce696e750505914a204,,
,,,,,,0,189,189,69,1,X, , , , ,,1500,1.5,5e0d531982a9554d3862a670,001,2021-08-19_16h47.31.112,natb3,2021.2.3,Win32,60.05645307,5e0d531982a9554d3862a670,611e07ecdcc96256ae8d5b80,611e7ce696e750505914a204,,
,,,,space,,0,190,190,164,1,H, , , , ,space,2500,2.5,5e0d531982a9554d3862a670,001,2021-08-19_16h47.31.112,natb3,2021.2.3,Win32,60.05645307,5e0d531982a9554d3862a670,611e07ecdcc96256ae8d5b80,611e7ce696e750505914a204,0.4302,
,,,,space,,0,191,191,53,1,G, , , , ,space,2500,2.5,5e0d531982a9554d3862a670,001,2021-08-19_16h47.31.112,natb3,2021.2.3,Win32,60.05645307,5e0d531982a9554d3862a670,611e07ecdcc96256ae8d5b80,611e7ce696e750505914a204,0.439,
,,,,space,,0,192,192,183,1,R, , , , ,space,1500,1.5,5e0d531982a9554d3862a670,001,2021-08-19_16h47.31.112,natb3,2021.2.3,Win32,60.05645307,5e0d531982a9554d3862a670,611e07ecdcc96256ae8d5b80,611e7ce696e750505914a204,0.5388,
,,,,,,0,193,193,7,1,X, , , , ,,1500,1.5,5e0d531982a9554d3862a670,001,2021-08-19_16h47.31.112,natb3,2021.2.3,Win32,60.05645307,5e0d531982a9554d3862a670,611e07ecdcc96256ae8d5b80,611e7ce696e750505914a204,,
,,,,space,,0,194,194,292,1,E, , , , ,space,2000,2,5e0d531982a9554d3862a670,001,2021-08-19_16h47.31.112,natb3,2021.2.3,Win32,60.05645307,5e0d531982a9554d3862a670,611e07ecdcc96256ae8d5b80,611e7ce696e750505914a204,0.4622,
,,,,space,,0,195,195,71,1,R, , , , ,space,2500,2.5,5e0d531982a9554d3862a670,001,2021-08-19_16h47.31.112,natb3,2021.2.3,Win32,60.05645307,5e0d531982a9554d3862a670,611e07ecdcc96256ae8d5b80,611e7ce696e750505914a204,0.4878,
,,,,space,,0,196,196,275,1,G, , , , ,space,1500,1.5,5e0d531982a9554d3862a670,001,2021-08-19_16h47.31.112,natb3,2021.2.3,Win32,60.05645307,5e0d531982a9554d3862a670,611e07ecdcc96256ae8d5b80,611e7ce696e750505914a204,0.7793,
,,,,space,,0,197,197,14,1,S, , , , ,space,2500,2.5,5e0d531982a9554d3862a670,001,2021-08-19_16h47.31.112,natb3,2021.2.3,Win32,60.05645307,5e0d531982a9554d3862a670,611e07ecdcc96256ae8d5b80,611e7ce696e750505914a204,0.5487,
,,,,space,,0,198,198,192,1,A, , , , ,space,2000,2,5e0d531982a9554d3862a670,001,2021-08-19_16h47.31.112,natb3,2021.2.3,Win32,60.05645307,5e0d531982a9554d3862a670,611e07ecdcc96256ae8d5b80,611e7ce696e750505914a204,0.487,
,,,,space,,0,199,199,320,1,B, , , , ,space,1500,1.5,5e0d531982a9554d3862a670,001,2021-08-19_16h47.31.112,natb3,2021.2.3,Win32,60.05645307,5e0d531982a9554d3862a670,611e07ecdcc96256ae8d5b80,611e7ce696e750505914a204,0.5313,
,,,,space,,0,200,200,213,1,X, , , , ,,2500,2.5,5e0d531982a9554d3862a670,001,2021-08-19_16h47.31.112,natb3,2021.2.3,Win32,60.05645307,5e0d531982a9554d3862a670,611e07ecdcc96256ae8d5b80,611e7ce696e750505914a204,0.3476,
,,,,space,,0,201,201,92,1,Z, , , , ,space,1500,1.5,5e0d531982a9554d3862a670,001,2021-08-19_16h47.31.112,natb3,2021.2.3,Win32,60.05645307,5e0d531982a9554d3862a670,611e07ecdcc96256ae8d5b80,611e7ce696e750505914a204,0.6662,
,,,,space,,0,202,202,28,1,V, , , , ,space,1500,1.5,5e0d531982a9554d3862a670,001,2021-08-19_16h47.31.112,natb3,2021.2.3,Win32,60.05645307,5e0d531982a9554d3862a670,611e07ecdcc96256ae8d5b80,611e7ce696e750505914a204,0.3796,
,,,,space,,0,203,203,90,1,K, , , , ,space,2000,2,5e0d531982a9554d3862a670,001,2021-08-19_16h47.31.112,natb3,2021.2.3,Win32,60.05645307,5e0d531982a9554d3862a670,611e07ecdcc96256ae8d5b80,611e7ce696e750505914a204,0.6953,
,,,,space,,0,204,204,219,1,Y, , , , ,space,2000,2,5e0d531982a9554d3862a670,001,2021-08-19_16h47.31.112,natb3,2021.2.3,Win32,60.05645307,5e0d531982a9554d3862a670,611e07ecdcc96256ae8d5b80,611e7ce696e750505914a204,0.5121,
,,,,space,,0,205,205,225,1,E, , , , ,space,2000,2,5e0d531982a9554d3862a670,001,2021-08-19_16h47.31.112,natb3,2021.2.3,Win32,60.05645307,5e0d531982a9554d3862a670,611e07ecdcc96256ae8d5b80,611e7ce696e750505914a204,0.5149,
,,,,space,,0,206,206,228,1,Y, , , , ,space,2000,2,5e0d531982a9554d3862a670,001,2021-08-19_16h47.31.112,natb3,2021.2.3,Win32,60.05645307,5e0d531982a9554d3862a670,611e07ecdcc96256ae8d5b80,611e7ce696e750505914a204,0.4733,
,,,,space,,0,207,207,312,1,K, , , , ,space,2000,2,5e0d531982a9554d3862a670,001,2021-08-19_16h47.31.112,natb3,2021.2.3,Win32,60.05645307,5e0d531982a9554d3862a670,611e07ecdcc96256ae8d5b80,611e7ce696e750505914a204,0.4807,
,,,,space,,0,208,208,186,1,U, , , , ,space,2500,2.5,5e0d531982a9554d3862a670,001,2021-08-19_16h47.31.112,natb3,2021.2.3,Win32,60.05645307,5e0d531982a9554d3862a670,611e07ecdcc96256ae8d5b80,611e7ce696e750505914a204,0.4151,
,,,,,,0,209,209,268,1,X,6, ,3, ,,2500,2.5,5e0d531982a9554d3862a670,001,2021-08-19_16h47.31.112,natb3,2021.2.3,Win32,60.05645307,5e0d531982a9554d3862a670,611e07ecdcc96256ae8d5b80,611e7ce696e750505914a204,,
,,,,space,,0,210,210,104,1,E, , , , ,space,2000,2,5e0d531982a9554d3862a670,001,2021-08-19_16h47.31.112,natb3,2021.2.3,Win32,60.05645307,5e0d531982a9554d3862a670,611e07ecdcc96256ae8d5b80,611e7ce696e750505914a204,0.4761,
,,,,space,,0,211,211,163,1,G, , , , ,space,2500,2.5,5e0d531982a9554d3862a670,001,2021-08-19_16h47.31.112,natb3,2021.2.3,Win32,60.05645307,5e0d531982a9554d3862a670,611e07ecdcc96256ae8d5b80,611e7ce696e750505914a204,0.5164,
,,,,space,,0,212,212,21,1,J, , , , ,space,1500,1.5,5e0d531982a9554d3862a670,001,2021-08-19_16h47.31.112,natb3,2021.2.3,Win32,60.05645307,5e0d531982a9554d3862a670,611e07ecdcc96256ae8d5b80,611e7ce696e750505914a204,0.704,
,,,,space,,0,213,213,134,1,J, , , , ,space,2000,2,5e0d531982a9554d3862a670,001,2021-08-19_16h47.31.112,natb3,2021.2.3,Win32,60.05645307,5e0d531982a9554d3862a670,611e07ecdcc96256ae8d5b80,611e7ce696e750505914a204,0.7724,
,,,,space,,0,214,214,327,1,E, , , , ,space,1500,1.5,5e0d531982a9554d3862a670,001,2021-08-19_16h47.31.112,natb3,2021.2.3,Win32,60.05645307,5e0d531982a9554d3862a670,611e07ecdcc96256ae8d5b80,611e7ce696e750505914a204,0.683,
,,,,,,0,215,215,12,1,X, , , , ,,1500,1.5,5e0d531982a9554d3862a670,001,2021-08-19_16h47.31.112,natb3,2021.2.3,Win32,60.05645307,5e0d531982a9554d3862a670,611e07ecdcc96256ae8d5b80,611e7ce696e750505914a204,,
,,,,space,,0,216,216,170,1,Z, , , , ,space,2000,2,5e0d531982a9554d3862a670,001,2021-08-19_16h47.31.112,natb3,2021.2.3,Win32,60.05645307,5e0d531982a9554d3862a670,611e07ecdcc96256ae8d5b80,611e7ce696e750505914a204,0.5638,
,,,,,,0,217,217,1,1,W, , , , ,space,2000,2,5e0d531982a9554d3862a670,001,2021-08-19_16h47.31.112,natb3,2021.2.3,Win32,60.05645307,5e0d531982a9554d3862a670,611e07ecdcc96256ae8d5b80,611e7ce696e750505914a204,,
,,,,,,0,218,218,207,1,X,9, ,2, ,,2500,2.5,5e0d531982a9554d3862a670,001,2021-08-19_16h47.31.112,natb3,2021.2.3,Win32,60.05645307,5e0d531982a9554d3862a670,611e07ecdcc96256ae8d5b80,611e7ce696e750505914a204,,
,,,,,,0,219,219,116,1,X, , , , ,,2000,2,5e0d531982a9554d3862a670,001,2021-08-19_16h47.31.112,natb3,2021.2.3,Win32,60.05645307,5e0d531982a9554d3862a670,611e07ecdcc96256ae8d5b80,611e7ce696e750505914a204,,
,,,,,,0,220,220,218,1,X,1,3, ,8,,1500,1.5,5e0d531982a9554d3862a670,001,2021-08-19_16h47.31.112,natb3,2021.2.3,Win32,60.05645307,5e0d531982a9554d3862a670,611e07ecdcc96256ae8d5b80,611e7ce696e750505914a204,,
,,,,space,,0,221,221,321,1,N, , , , ,space,2000,2,5e0d531982a9554d3862a670,001,2021-08-19_16h47.31.112,natb3,2021.2.3,Win32,60.05645307,5e0d531982a9554d3862a670,611e07ecdcc96256ae8d5b80,611e7ce696e750505914a204,0.3979,
,,,,space,,0,222,222,267,1,P, , , , ,space,2000,2,5e0d531982a9554d3862a670,001,2021-08-19_16h47.31.112,natb3,2021.2.3,Win32,60.05645307,5e0d531982a9554d3862a670,611e07ecdcc96256ae8d5b80,611e7ce696e750505914a204,0.5971,
,,,,space,,0,223,223,309,1,H, , , , ,space,2500,2.5,5e0d531982a9554d3862a670,001,2021-08-19_16h47.31.112,natb3,2021.2.3,Win32,60.05645307,5e0d531982a9554d3862a670,611e07ecdcc96256ae8d5b80,611e7ce696e750505914a204,0.3993,
,,,,space,,0,224,224,334,1,O, , , , ,space,1500,1.5,5e0d531982a9554d3862a670,001,2021-08-19_16h47.31.112,natb3,2021.2.3,Win32,60.05645307,5e0d531982a9554d3862a670,611e07ecdcc96256ae8d5b80,611e7ce696e750505914a204,0.6891,
,,,,space,,0,225,225,212,1,Q, , , , ,space,2500,2.5,5e0d531982a9554d3862a670,001,2021-08-19_16h47.31.112,natb3,2021.2.3,Win32,60.05645307,5e0d531982a9554d3862a670,611e07ecdcc96256ae8d5b80,611e7ce696e750505914a204,0.4473,
,,,,space,,0,226,226,149,1,R, , , , ,space,2000,2,5e0d531982a9554d3862a670,001,2021-08-19_16h47.31.112,natb3,2021.2.3,Win32,60.05645307,5e0d531982a9554d3862a670,611e07ecdcc96256ae8d5b80,611e7ce696e750505914a204,0.4987,
,,,,space,,0,227,227,286,1,N, , , , ,space,1500,1.5,5e0d531982a9554d3862a670,001,2021-08-19_16h47.31.112,natb3,2021.2.3,Win32,60.05645307,5e0d531982a9554d3862a670,611e07ecdcc96256ae8d5b80,611e7ce696e750505914a204,0.5287,
,,,,space,,0,228,228,110,1,I, , , , ,space,1500,1.5,5e0d531982a9554d3862a670,001,2021-08-19_16h47.31.112,natb3,2021.2.3,Win32,60.05645307,5e0d531982a9554d3862a670,611e07ecdcc96256ae8d5b80,611e7ce696e750505914a204,0.4635,
,,,,space,,0,229,229,10,1,O, , , , ,space,2000,2,5e0d531982a9554d3862a670,001,2021-08-19_16h47.31.112,natb3,2021.2.3,Win32,60.05645307,5e0d531982a9554d3862a670,611e07ecdcc96256ae8d5b80,611e7ce696e750505914a204,0.5039,
,,,,space,,0,230,230,126,1,A, , , , ,space,2500,2.5,5e0d531982a9554d3862a670,001,2021-08-19_16h47.31.112,natb3,2021.2.3,Win32,60.05645307,5e0d531982a9554d3862a670,611e07ecdcc96256ae8d5b80,611e7ce696e750505914a204,0.3701,
,,,,space,,0,231,231,310,1,J, , , , ,space,2500,2.5,5e0d531982a9554d3862a670,001,2021-08-19_16h47.31.112,natb3,2021.2.3,Win32,60.05645307,5e0d531982a9554d3862a670,611e07ecdcc96256ae8d5b80,611e7ce696e750505914a204,0.4317,
,,,,,,0,232,232,287,1,X, ,2, ,9,,2000,2,5e0d531982a9554d3862a670,001,2021-08-19_16h47.31.112,natb3,2021.2.3,Win32,60.05645307,5e0d531982a9554d3862a670,611e07ecdcc96256ae8d5b80,611e7ce696e750505914a204,,
,,,,space,,0,233,233,330,1,T, , , , ,space,2500,2.5,5e0d531982a9554d3862a670,001,2021-08-19_16h47.31.112,natb3,2021.2.3,Win32,60.05645307,5e0d531982a9554d3862a670,611e07ecdcc96256ae8d5b80,611e7ce696e750505914a204,0.3771,
,,,,,,0,234,234,78,1,X, , , , ,,2000,2,5e0d531982a9554d3862a670,001,2021-08-19_16h47.31.112,natb3,2021.2.3,Win32,60.05645307,5e0d531982a9554d3862a670,611e07ecdcc96256ae8d5b80,611e7ce696e750505914a204,,
,,,,space,,0,235,235,61,1,C, , , , ,space,2000,2,5e0d531982a9554d3862a670,001,2021-08-19_16h47.31.112,natb3,2021.2.3,Win32,60.05645307,5e0d531982a9554d3862a670,611e07ecdcc96256ae8d5b80,611e7ce696e750505914a204,0.5336,
,,,,,,0,236,236,307,1,F, , , , ,space,2500,2.5,5e0d531982a9554d3862a670,001,2021-08-19_16h47.31.112,natb3,2021.2.3,Win32,60.05645307,5e0d531982a9554d3862a670,611e07ecdcc96256ae8d5b80,611e7ce696e750505914a204,,
,,,,space,,0,237,237,209,1,N, , , , ,space,2000,2,5e0d531982a9554d3862a670,001,2021-08-19_16h47.31.112,natb3,2021.2.3,Win32,60.05645307,5e0d531982a9554d3862a670,611e07ecdcc96256ae8d5b80,611e7ce696e750505914a204,0.4887,
,,,,space,,0,238,238,13,1,A, , , , ,space,2000,2,5e0d531982a9554d3862a670,001,2021-08-19_16h47.31.112,natb3,2021.2.3,Win32,60.05645307,5e0d531982a9554d3862a670,611e07ecdcc96256ae8d5b80,611e7ce696e750505914a204,0.58,
,,,,,,0,239,239,121,1,I, , , , ,space,2000,2,5e0d531982a9554d3862a670,001,2021-08-19_16h47.31.112,natb3,2021.2.3,Win32,60.05645307,5e0d531982a9554d3862a670,611e07ecdcc96256ae8d5b80,611e7ce696e750505914a204,,
,,,,,,0,240,240,129,1,X,2,3,5, ,,1500,1.5,5e0d531982a9554d3862a670,001,2021-08-19_16h47.31.112,natb3,2021.2.3,Win32,60.05645307,5e0d531982a9554d3862a670,611e07ecdcc96256ae8d5b80,611e7ce696e750505914a204,,
,,,,space,,0,241,241,234,1,P, , , , ,space,2000,2,5e0d531982a9554d3862a670,001,2021-08-19_16h47.31.112,natb3,2021.2.3,Win32,60.05645307,5e0d531982a9554d3862a670,611e07ecdcc96256ae8d5b80,611e7ce696e750505914a204,0.4795,
,,,,space,,0,242,242,152,1,U, , , , ,space,2000,2,5e0d531982a9554d3862a670,001,2021-08-19_16h47.31.112,natb3,2021.2.3,Win32,60.05645307,5e0d531982a9554d3862a670,611e07ecdcc96256ae8d5b80,611e7ce696e750505914a204,0.7095,
,,,,space,,0,243,243,196,1,F, , , , ,space,1500,1.5,5e0d531982a9554d3862a670,001,2021-08-19_16h47.31.112,natb3,2021.2.3,Win32,60.05645307,5e0d531982a9554d3862a670,611e07ecdcc96256ae8d5b80,611e7ce696e750505914a204,0.4057,
,,,,space,,0,244,244,76,1,I, , , , ,space,2000,2,5e0d531982a9554d3862a670,001,2021-08-19_16h47.31.112,natb3,2021.2.3,Win32,60.05645307,5e0d531982a9554d3862a670,611e07ecdcc96256ae8d5b80,611e7ce696e750505914a204,0.4692,
,,,,space,,0,245,245,157,1,A, , , , ,space,2500,2.5,5e0d531982a9554d3862a670,001,2021-08-19_16h47.31.112,natb3,2021.2.3,Win32,60.05645307,5e0d531982a9554d3862a670,611e07ecdcc96256ae8d5b80,611e7ce696e750505914a204,0.4785,
,,,,space,,0,246,246,262,1,Y, , , , ,space,2500,2.5,5e0d531982a9554d3862a670,001,2021-08-19_16h47.31.112,natb3,2021.2.3,Win32,60.05645307,5e0d531982a9554d3862a670,611e07ecdcc96256ae8d5b80,611e7ce696e750505914a204,0.5976,
,,,,,,0,247,247,33,1,X, , , , ,,1500,1.5,5e0d531982a9554d3862a670,001,2021-08-19_16h47.31.112,natb3,2021.2.3,Win32,60.05645307,5e0d531982a9554d3862a670,611e07ecdcc96256ae8d5b80,611e7ce696e750505914a204,,
,,,,space,,0,248,248,160,1,D, , , , ,space,1500,1.5,5e0d531982a9554d3862a670,001,2021-08-19_16h47.31.112,natb3,2021.2.3,Win32,60.05645307,5e0d531982a9554d3862a670,611e07ecdcc96256ae8d5b80,611e7ce696e750505914a204,0.3634,
,,,,space,,0,249,249,172,1,C, , , , ,space,1500,1.5,5e0d531982a9554d3862a670,001,2021-08-19_16h47.31.112,natb3,2021.2.3,Win32,60.05645307,5e0d531982a9554d3862a670,611e07ecdcc96256ae8d5b80,611e7ce696e750505914a204,0.4303,
,,,,space,,0,250,250,86,1,G, , , , ,space,2000,2,5e0d531982a9554d3862a670,001,2021-08-19_16h47.31.112,natb3,2021.2.3,Win32,60.05645307,5e0d531982a9554d3862a670,611e07ecdcc96256ae8d5b80,611e7ce696e750505914a204,0.3472,
,,,,,,0,251,251,15,1,X, , , , ,,1500,1.5,5e0d531982a9554d3862a670,001,2021-08-19_16h47.31.112,natb3,2021.2.3,Win32,60.05645307,5e0d531982a9554d3862a670,611e07ecdcc96256ae8d5b80,611e7ce696e750505914a204,,
,,,,space,,0,252,252,26,1,C, , , , ,space,2000,2,5e0d531982a9554d3862a670,001,2021-08-19_16h47.31.112,natb3,2021.2.3,Win32,60.05645307,5e0d531982a9554d3862a670,611e07ecdcc96256ae8d5b80,611e7ce696e750505914a204,0.465,
,,,,space,,0,253,253,150,1,T, , , , ,space,2500,2.5,5e0d531982a9554d3862a670,001,2021-08-19_16h47.31.112,natb3,2021.2.3,Win32,60.05645307,5e0d531982a9554d3862a670,611e07ecdcc96256ae8d5b80,611e7ce696e750505914a204,0.4667,
,,,,space,,0,254,254,232,1,O, , , , ,space,2500,2.5,5e0d531982a9554d3862a670,001,2021-08-19_16h47.31.112,natb3,2021.2.3,Win32,60.05645307,5e0d531982a9554d3862a670,611e07ecdcc96256ae8d5b80,611e7ce696e750505914a204,0.5023,
,,,,space,,0,255,255,198,1,H, , , , ,space,2500,2.5,5e0d531982a9554d3862a670,001,2021-08-19_16h47.31.112,natb3,2021.2.3,Win32,60.05645307,5e0d531982a9554d3862a670,611e07ecdcc96256ae8d5b80,611e7ce696e750505914a204,0.4809,
,,,,space,,0,256,256,9,1,I, , , , ,space,1500,1.5,5e0d531982a9554d3862a670,001,2021-08-19_16h47.31.112,natb3,2021.2.3,Win32,60.05645307,5e0d531982a9554d3862a670,611e07ecdcc96256ae8d5b80,611e7ce696e750505914a204,0.5257,
,,,,,,0,257,257,295,1,X,8,7,5, ,,2500,2.5,5e0d531982a9554d3862a670,001,2021-08-19_16h47.31.112,natb3,2021.2.3,Win32,60.05645307,5e0d531982a9554d3862a670,611e07ecdcc96256ae8d5b80,611e7ce696e750505914a204,,
,,,,space,,0,258,258,140,1,B, , , , ,space,2500,2.5,5e0d531982a9554d3862a670,001,2021-08-19_16h47.31.112,natb3,2021.2.3,Win32,60.05645307,5e0d531982a9554d3862a670,611e07ecdcc96256ae8d5b80,611e7ce696e750505914a204,0.4737,
,,,,space,,0,259,259,159,1,S, , , , ,space,2500,2.5,5e0d531982a9554d3862a670,001,2021-08-19_16h47.31.112,natb3,2021.2.3,Win32,60.05645307,5e0d531982a9554d3862a670,611e07ecdcc96256ae8d5b80,611e7ce696e750505914a204,0.5486,
,,,,,,0,260,260,166,1,X, , , , ,,2000,2,5e0d531982a9554d3862a670,001,2021-08-19_16h47.31.112,natb3,2021.2.3,Win32,60.05645307,5e0d531982a9554d3862a670,611e07ecdcc96256ae8d5b80,611e7ce696e750505914a204,,
,,,,,,0,261,261,8,1,U, , , , ,space,1500,1.5,5e0d531982a9554d3862a670,001,2021-08-19_16h47.31.112,natb3,2021.2.3,Win32,60.05645307,5e0d531982a9554d3862a670,611e07ecdcc96256ae8d5b80,611e7ce696e750505914a204,,
,,,,space,,0,262,262,331,1,Y, , , , ,space,2500,2.5,5e0d531982a9554d3862a670,001,2021-08-19_16h47.31.112,natb3,2021.2.3,Win32,60.05645307,5e0d531982a9554d3862a670,611e07ecdcc96256ae8d5b80,611e7ce696e750505914a204,0.6473,
,,,,space,,0,263,263,81,1,S, , , , ,space,2000,2,5e0d531982a9554d3862a670,001,2021-08-19_16h47.31.112,natb3,2021.2.3,Win32,60.05645307,5e0d531982a9554d3862a670,611e07ecdcc96256ae8d5b80,611e7ce696e750505914a204,0.432,
,,,,,,0,264,264,271,1,X, , , , ,,2500,2.5,5e0d531982a9554d3862a670,001,2021-08-19_16h47.31.112,natb3,2021.2.3,Win32,60.05645307,5e0d531982a9554d3862a670,611e07ecdcc96256ae8d5b80,611e7ce696e750505914a204,,
,,,,,,0,265,265,51,1,X,7,5,8, ,,1500,1.5,5e0d531982a9554d3862a670,001,2021-08-19_16h47.31.112,natb3,2021.2.3,Win32,60.05645307,5e0d531982a9554d3862a670,611e07ecdcc96256ae8d5b80,611e7ce696e750505914a204,,
,,,,space,,0,266,266,120,1,U, , , , ,space,1500,1.5,5e0d531982a9554d3862a670,001,2021-08-19_16h47.31.112,natb3,2021.2.3,Win32,60.05645307,5e0d531982a9554d3862a670,611e07ecdcc96256ae8d5b80,611e7ce696e750505914a204,0.494,
,,,,space,,0,267,267,257,1,W, , , , ,space,2000,2,5e0d531982a9554d3862a670,001,2021-08-19_16h47.31.112,natb3,2021.2.3,Win32,60.05645307,5e0d531982a9554d3862a670,611e07ecdcc96256ae8d5b80,611e7ce696e750505914a204,0.6675,
,,,,space,,0,268,268,40,1,T, , , , ,space,1500,1.5,5e0d531982a9554d3862a670,001,2021-08-19_16h47.31.112,natb3,2021.2.3,Win32,60.05645307,5e0d531982a9554d3862a670,611e07ecdcc96256ae8d5b80,611e7ce696e750505914a204,0.5179,
,,,,space,,0,269,269,251,1,B, , , , ,space,1500,1.5,5e0d531982a9554d3862a670,001,2021-08-19_16h47.31.112,natb3,2021.2.3,Win32,60.05645307,5e0d531982a9554d3862a670,611e07ecdcc96256ae8d5b80,611e7ce696e750505914a204,0.4757,
,,,,space,,0,270,270,294,1,T, , , , ,space,2000,2,5e0d531982a9554d3862a670,001,2021-08-19_16h47.31.112,natb3,2021.2.3,Win32,60.05645307,5e0d531982a9554d3862a670,611e07ecdcc96256ae8d5b80,611e7ce696e750505914a204,0.4855,
,,,,,,0,271,271,89,1,X,3, , , ,,2000,2,5e0d531982a9554d3862a670,001,2021-08-19_16h47.31.112,natb3,2021.2.3,Win32,60.05645307,5e0d531982a9554d3862a670,611e07ecdcc96256ae8d5b80,611e7ce696e750505914a204,,
,,,,space,,0,272,272,155,1,O, , , , ,space,1500,1.5,5e0d531982a9554d3862a670,001,2021-08-19_16h47.31.112,natb3,2021.2.3,Win32,60.05645307,5e0d531982a9554d3862a670,611e07ecdcc96256ae8d5b80,611e7ce696e750505914a204,0.5139,
,,,,,,0,273,273,107,1,X,9,3, ,2,,2000,2,5e0d531982a9554d3862a670,001,2021-08-19_16h47.31.112,natb3,2021.2.3,Win32,60.05645307,5e0d531982a9554d3862a670,611e07ecdcc96256ae8d5b80,611e7ce696e750505914a204,,
,,,,space,,0,274,274,106,1,T, , , , ,space,1500,1.5,5e0d531982a9554d3862a670,001,2021-08-19_16h47.31.112,natb3,2021.2.3,Win32,60.05645307,5e0d531982a9554d3862a670,611e07ecdcc96256ae8d5b80,611e7ce696e750505914a204,0.5415,
,,,,space,,0,275,275,142,1,N, , , , ,space,2500,2.5,5e0d531982a9554d3862a670,001,2021-08-19_16h47.31.112,natb3,2021.2.3,Win32,60.05645307,5e0d531982a9554d3862a670,611e07ecdcc96256ae8d5b80,611e7ce696e750505914a204,0.7079,
,,,,space,,0,276,276,11,1,P, , , , ,space,2500,2.5,5e0d531982a9554d3862a670,001,2021-08-19_16h47.31.112,natb3,2021.2.3,Win32,60.05645307,5e0d531982a9554d3862a670,611e07ecdcc96256ae8d5b80,611e7ce696e750505914a204,0.5389,
,,,,space,,0,277,277,75,1,U, , , , ,space,1500,1.5,5e0d531982a9554d3862a670,001,2021-08-19_16h47.31.112,natb3,2021.2.3,Win32,60.05645307,5e0d531982a9554d3862a670,611e07ecdcc96256ae8d5b80,611e7ce696e750505914a204,0.4634,
,,,,,,0,278,278,259,1,X,8, , ,3,,2500,2.5,5e0d531982a9554d3862a670,001,2021-08-19_16h47.31.112,natb3,2021.2.3,Win32,60.05645307,5e0d531982a9554d3862a670,611e07ecdcc96256ae8d5b80,611e7ce696e750505914a204,,
,,,,space,,0,279,279,55,1,H, , , , ,space,2500,2.5,5e0d531982a9554d3862a670,001,2021-08-19_16h47.31.112,natb3,2021.2.3,Win32,60.05645307,5e0d531982a9554d3862a670,611e07ecdcc96256ae8d5b80,611e7ce696e750505914a204,0.4029,
,,,,space,,0,280,280,101,1,Q, , , , ,space,2500,2.5,5e0d531982a9554d3862a670,001,2021-08-19_16h47.31.112,natb3,2021.2.3,Win32,60.05645307,5e0d531982a9554d3862a670,611e07ecdcc96256ae8d5b80,611e7ce696e750505914a204,0.4646,
,,,,,,0,281,281,102,1,X, ,6, , ,,1500,1.5,5e0d531982a9554d3862a670,001,2021-08-19_16h47.31.112,natb3,2021.2.3,Win32,60.05645307,5e0d531982a9554d3862a670,611e07ecdcc96256ae8d5b80,611e7ce696e750505914a204,,
,,,,space,,0,282,282,143,1,M, , , , ,space,2500,2.5,5e0d531982a9554d3862a670,001,2021-08-19_16h47.31.112,natb3,2021.2.3,Win32,60.05645307,5e0d531982a9554d3862a670,611e07ecdcc96256ae8d5b80,611e7ce696e750505914a204,0.3896,
,,,,space,,0,283,283,177,1,M, , , , ,space,2500,2.5,5e0d531982a9554d3862a670,001,2021-08-19_16h47.31.112,natb3,2021.2.3,Win32,60.05645307,5e0d531982a9554d3862a670,611e07ecdcc96256ae8d5b80,611e7ce696e750505914a204,0.6024,
,,,,,,0,284,284,237,1,S, , , , ,space,1500,1.5,5e0d531982a9554d3862a670,001,2021-08-19_16h47.31.112,natb3,2021.2.3,Win32,60.05645307,5e0d531982a9554d3862a670,611e07ecdcc96256ae8d5b80,611e7ce696e750505914a204,,
,,,,space,,0,285,285,124,1,P, , , , ,space,2000,2,5e0d531982a9554d3862a670,001,2021-08-19_16h47.31.112,natb3,2021.2.3,Win32,60.05645307,5e0d531982a9554d3862a670,611e07ecdcc96256ae8d5b80,611e7ce696e750505914a204,0.5679,
,,,,,,0,286,286,145,1,X, , , , ,,2000,2,5e0d531982a9554d3862a670,001,2021-08-19_16h47.31.112,natb3,2021.2.3,Win32,60.05645307,5e0d531982a9554d3862a670,611e07ecdcc96256ae8d5b80,611e7ce696e750505914a204,,
,,,,space,,0,287,287,242,1,H, , , , ,space,2500,2.5,5e0d531982a9554d3862a670,001,2021-08-19_16h47.31.112,natb3,2021.2.3,Win32,60.05645307,5e0d531982a9554d3862a670,611e07ecdcc96256ae8d5b80,611e7ce696e750505914a204,0.6292,
,,,,space,,0,288,288,276,1,H, , , , ,space,2000,2,5e0d531982a9554d3862a670,001,2021-08-19_16h47.31.112,natb3,2021.2.3,Win32,60.05645307,5e0d531982a9554d3862a670,611e07ecdcc96256ae8d5b80,611e7ce696e750505914a204,0.4496,
,,,,space,,0,289,289,210,1,M, , , , ,space,1500,1.5,5e0d531982a9554d3862a670,001,2021-08-19_16h47.31.112,natb3,2021.2.3,Win32,60.05645307,5e0d531982a9554d3862a670,611e07ecdcc96256ae8d5b80,611e7ce696e750505914a204,0.4987,
,,,,,,0,290,290,311,1,X,1,2,7,3,,2500,2.5,5e0d531982a9554d3862a670,001,2021-08-19_16h47.31.112,natb3,2021.2.3,Win32,60.05645307,5e0d531982a9554d3862a670,611e07ecdcc96256ae8d5b80,611e7ce696e750505914a204,,
,,,,space,,0,291,291,178,1,Q, , , , ,space,1500,1.5,5e0d531982a9554d3862a670,001,2021-08-19_16h47.31.112,natb3,2021.2.3,Win32,60.05645307,5e0d531982a9554d3862a670,611e07ecdcc96256ae8d5b80,611e7ce696e750505914a204,0.8723,
,,,,space,,0,292,292,20,1,H, , , , ,space,1500,1.5,5e0d531982a9554d3862a670,001,2021-08-19_16h47.31.112,natb3,2021.2.3,Win32,60.05645307,5e0d531982a9554d3862a670,611e07ecdcc96256ae8d5b80,611e7ce696e750505914a204,0.5329,
,,,,space,,0,293,293,266,1,O, , , , ,space,1500,1.5,5e0d531982a9554d3862a670,001,2021-08-19_16h47.31.112,natb3,2021.2.3,Win32,60.05645307,5e0d531982a9554d3862a670,611e07ecdcc96256ae8d5b80,611e7ce696e750505914a204,0.7431,
,,,,,,0,294,294,43,1,X, ,6, ,2,,2500,2.5,5e0d531982a9554d3862a670,001,2021-08-19_16h47.31.112,natb3,2021.2.3,Win32,60.05645307,5e0d531982a9554d3862a670,611e07ecdcc96256ae8d5b80,611e7ce696e750505914a204,,
,,,,,,0,295,295,329,1,X,3,4, ,2,,2500,2.5,5e0d531982a9554d3862a670,001,2021-08-19_16h47.31.112,natb3,2021.2.3,Win32,60.05645307,5e0d531982a9554d3862a670,611e07ecdcc96256ae8d5b80,611e7ce696e750505914a204,,
,,,,space,,0,296,296,316,1,Z, , , , ,space,1500,1.5,5e0d531982a9554d3862a670,001,2021-08-19_16h47.31.112,natb3,2021.2.3,Win32,60.05645307,5e0d531982a9554d3862a670,611e07ecdcc96256ae8d5b80,611e7ce696e750505914a204,0.495,
,,,,space,,0,297,297,317,1,C, , , , ,space,2000,2,5e0d531982a9554d3862a670,001,2021-08-19_16h47.31.112,natb3,2021.2.3,Win32,60.05645307,5e0d531982a9554d3862a670,611e07ecdcc96256ae8d5b80,611e7ce696e750505914a204,0.4454,
,,,,space,,0,298,298,58,1,L, , , , ,space,2000,2,5e0d531982a9554d3862a670,001,2021-08-19_16h47.31.112,natb3,2021.2.3,Win32,60.05645307,5e0d531982a9554d3862a670,611e07ecdcc96256ae8d5b80,611e7ce696e750505914a204,0.4313,
,,,,,,0,299,299,315,1,X, , , , ,,2500,2.5,5e0d531982a9554d3862a670,001,2021-08-19_16h47.31.112,natb3,2021.2.3,Win32,60.05645307,5e0d531982a9554d3862a670,611e07ecdcc96256ae8d5b80,611e7ce696e750505914a204,,
,,,,,,0,300,300,158,1,X, , , , ,,1500,1.5,5e0d531982a9554d3862a670,001,2021-08-19_16h47.31.112,natb3,2021.2.3,Win32,60.05645307,5e0d531982a9554d3862a670,611e07ecdcc96256ae8d5b80,611e7ce696e750505914a204,,
,,,,space,,0,301,301,280,1,L, , , , ,space,1500,1.5,5e0d531982a9554d3862a670,001,2021-08-19_16h47.31.112,natb3,2021.2.3,Win32,60.05645307,5e0d531982a9554d3862a670,611e07ecdcc96256ae8d5b80,611e7ce696e750505914a204,0.7155,
,,,,,,0,302,302,291,1,X, , , , ,,2000,2,5e0d531982a9554d3862a670,001,2021-08-19_16h47.31.112,natb3,2021.2.3,Win32,60.05645307,5e0d531982a9554d3862a670,611e07ecdcc96256ae8d5b80,611e7ce696e750505914a204,,
,,,,,,0,303,303,65,1,M, , , , ,space,1500,1.5,5e0d531982a9554d3862a670,001,2021-08-19_16h47.31.112,natb3,2021.2.3,Win32,60.05645307,5e0d531982a9554d3862a670,611e07ecdcc96256ae8d5b80,611e7ce696e750505914a204,,
,,,,,,0,304,304,93,1,X,5, ,7, ,,2500,2.5,5e0d531982a9554d3862a670,001,2021-08-19_16h47.31.112,natb3,2021.2.3,Win32,60.05645307,5e0d531982a9554d3862a670,611e07ecdcc96256ae8d5b80,611e7ce696e750505914a204,,
,,,,,,0,305,305,248,1,X, ,1,5, ,,1500,1.5,5e0d531982a9554d3862a670,001,2021-08-19_16h47.31.112,natb3,2021.2.3,Win32,60.05645307,5e0d531982a9554d3862a670,611e07ecdcc96256ae8d5b80,611e7ce696e750505914a204,,
,,,,space,,0,306,306,201,1,K, , , , ,space,1500,1.5,5e0d531982a9554d3862a670,001,2021-08-19_16h47.31.112,natb3,2021.2.3,Win32,60.05645307,5e0d531982a9554d3862a670,611e07ecdcc96256ae8d5b80,611e7ce696e750505914a204,0.6465,
,,,,space,,0,307,307,77,1,O, , , , ,space,2000,2,5e0d531982a9554d3862a670,001,2021-08-19_16h47.31.112,natb3,2021.2.3,Win32,60.05645307,5e0d531982a9554d3862a670,611e07ecdcc96256ae8d5b80,611e7ce696e750505914a204,0.8285,
,,,,space,,0,308,308,99,1,N, , , , ,space,2500,2.5,5e0d531982a9554d3862a670,001,2021-08-19_16h47.31.112,natb3,2021.2.3,Win32,60.05645307,5e0d531982a9554d3862a670,611e07ecdcc96256ae8d5b80,611e7ce696e750505914a204,0.7302,
,,,,,,0,309,309,162,1,X,1,6, ,2,,1500,1.5,5e0d531982a9554d3862a670,001,2021-08-19_16h47.31.112,natb3,2021.2.3,Win32,60.05645307,5e0d531982a9554d3862a670,611e07ecdcc96256ae8d5b80,611e7ce696e750505914a204,,
,,,,space,,0,310,310,254,1,M, , , , ,space,1500,1.5,5e0d531982a9554d3862a670,001,2021-08-19_16h47.31.112,natb3,2021.2.3,Win32,60.05645307,5e0d531982a9554d3862a670,611e07ecdcc96256ae8d5b80,611e7ce696e750505914a204,0.7417,
,,,,space,,0,311,311,112,1,Q, , , , ,space,2500,2.5,5e0d531982a9554d3862a670,001,2021-08-19_16h47.31.112,natb3,2021.2.3,Win32,60.05645307,5e0d531982a9554d3862a670,611e07ecdcc96256ae8d5b80,611e7ce696e750505914a204,0.44,
,,,,space,,0,312,312,223,1,Q, , , , ,space,2000,2,5e0d531982a9554d3862a670,001,2021-08-19_16h47.31.112,natb3,2021.2.3,Win32,60.05645307,5e0d531982a9554d3862a670,611e07ecdcc96256ae8d5b80,611e7ce696e750505914a204,0.5121,
,,,,,,0,313,313,243,1,X, , , , ,,2500,2.5,5e0d531982a9554d3862a670,001,2021-08-19_16h47.31.112,natb3,2021.2.3,Win32,60.05645307,5e0d531982a9554d3862a670,611e07ecdcc96256ae8d5b80,611e7ce696e750505914a204,,
,,,,space,,0,314,314,296,1,Y, , , , ,space,2500,2.5,5e0d531982a9554d3862a670,001,2021-08-19_16h47.31.112,natb3,2021.2.3,Win32,60.05645307,5e0d531982a9554d3862a670,611e07ecdcc96256ae8d5b80,611e7ce696e750505914a204,0.7467,
,,,,space,,0,315,315,247,1,Z, , , , ,space,1500,1.5,5e0d531982a9554d3862a670,001,2021-08-19_16h47.31.112,natb3,2021.2.3,Win32,60.05645307,5e0d531982a9554d3862a670,611e07ecdcc96256ae8d5b80,611e7ce696e750505914a204,0.5635,
,,,,space,,0,316,316,279,1,K, , , , ,space,2500,2.5,5e0d531982a9554d3862a670,001,2021-08-19_16h47.31.112,natb3,2021.2.3,Win32,60.05645307,5e0d531982a9554d3862a670,611e07ecdcc96256ae8d5b80,611e7ce696e750505914a204,0.8129,
,,,,,,0,317,317,299,1,X, , , , ,,2500,2.5,5e0d531982a9554d3862a670,001,2021-08-19_16h47.31.112,natb3,2021.2.3,Win32,60.05645307,5e0d531982a9554d3862a670,611e07ecdcc96256ae8d5b80,611e7ce696e750505914a204,,
,,,,space,,0,318,318,83,1,D, , , , ,space,2000,2,5e0d531982a9554d3862a670,001,2021-08-19_16h47.31.112,natb3,2021.2.3,Win32,60.05645307,5e0d531982a9554d3862a670,611e07ecdcc96256ae8d5b80,611e7ce696e750505914a204,0.4827,
,,,,space,,0,319,319,85,1,F, , , , ,space,2500,2.5,5e0d531982a9554d3862a670,001,2021-08-19_16h47.31.112,natb3,2021.2.3,Win32,60.05645307,5e0d531982a9554d3862a670,611e07ecdcc96256ae8d5b80,611e7ce696e750505914a204,0.6481,
,,,,space,,0,320,320,235,1,A, , , , ,space,1500,1.5,5e0d531982a9554d3862a670,001,2021-08-19_16h47.31.112,natb3,2021.2.3,Win32,60.05645307,5e0d531982a9554d3862a670,611e07ecdcc96256ae8d5b80,611e7ce696e750505914a204,0.6515,
,,,,space,,0,321,321,199,1,J, , , , ,space,2500,2.5,5e0d531982a9554d3862a670,001,2021-08-19_16h47.31.112,natb3,2021.2.3,Win32,60.05645307,5e0d531982a9554d3862a670,611e07ecdcc96256ae8d5b80,611e7ce696e750505914a204,0.4637,
,,,,space,,0,322,322,272,1,D, , , , ,space,2000,2,5e0d531982a9554d3862a670,001,2021-08-19_16h47.31.112,natb3,2021.2.3,Win32,60.05645307,5e0d531982a9554d3862a670,611e07ecdcc96256ae8d5b80,611e7ce696e750505914a204,0.5333,
,,,,space,,0,323,323,256,1,Q, , , , ,space,2000,2,5e0d531982a9554d3862a670,001,2021-08-19_16h47.31.112,natb3,2021.2.3,Win32,60.05645307,5e0d531982a9554d3862a670,611e07ecdcc96256ae8d5b80,611e7ce696e750505914a204,0.6449,
,,,,,,0,324,324,255,1,X, , , , ,,1500,1.5,5e0d531982a9554d3862a670,001,2021-08-19_16h47.31.112,natb3,2021.2.3,Win32,60.05645307,5e0d531982a9554d3862a670,611e07ecdcc96256ae8d5b80,611e7ce696e750505914a204,,
,,,,space,,0,325,325,115,1,R, , , , ,space,1500,1.5,5e0d531982a9554d3862a670,001,2021-08-19_16h47.31.112,natb3,2021.2.3,Win32,60.05645307,5e0d531982a9554d3862a670,611e07ecdcc96256ae8d5b80,611e7ce696e750505914a204,0.8482,
,,,,,,0,326,326,82,1,X,4,6,1,7,,2000,2,5e0d531982a9554d3862a670,001,2021-08-19_16h47.31.112,natb3,2021.2.3,Win32,60.05645307,5e0d531982a9554d3862a670,611e07ecdcc96256ae8d5b80,611e7ce696e750505914a204,,
,,,,,,0,327,327,95,1,V, , , , ,space,1500,1.5,5e0d531982a9554d3862a670,001,2021-08-19_16h47.31.112,natb3,2021.2.3,Win32,60.05645307,5e0d531982a9554d3862a670,611e07ecdcc96256ae8d5b80,611e7ce696e750505914a204,,
,,,,,,0,328,328,224,1,W, , , , ,space,1500,1.5,5e0d531982a9554d3862a670,001,2021-08-19_16h47.31.112,natb3,2021.2.3,Win32,60.05645307,5e0d531982a9554d3862a670,611e07ecdcc96256ae8d5b80,611e7ce696e750505914a204,,
,,,,space,,0,329,329,253,1,N, , , , ,space,2500,2.5,5e0d531982a9554d3862a670,001,2021-08-19_16h47.31.112,natb3,2021.2.3,Win32,60.05645307,5e0d531982a9554d3862a670,611e07ecdcc96256ae8d5b80,611e7ce696e750505914a204,0.6844,
,,,,space,,0,330,330,32,1,M, , , , ,space,1500,1.5,5e0d531982a9554d3862a670,001,2021-08-19_16h47.31.112,natb3,2021.2.3,Win32,60.05645307,5e0d531982a9554d3862a670,611e07ecdcc96256ae8d5b80,611e7ce696e750505914a204,0.7471,
,,,,space,,0,331,331,68,1,W, , , , ,space,2500,2.5,5e0d531982a9554d3862a670,001,2021-08-19_16h47.31.112,natb3,2021.2.3,Win32,60.05645307,5e0d531982a9554d3862a670,611e07ecdcc96256ae8d5b80,611e7ce696e750505914a204,0.4944,
,,,,,,0,332,332,180,1,W, , , , ,space,2000,2,5e0d531982a9554d3862a670,001,2021-08-19_16h47.31.112,natb3,2021.2.3,Win32,60.05645307,5e0d531982a9554d3862a670,611e07ecdcc96256ae8d5b80,611e7ce696e750505914a204,,
,,,,space,,0,333,333,202,1,L, , , , ,space,2500,2.5,5e0d531982a9554d3862a670,001,2021-08-19_16h47.31.112,natb3,2021.2.3,Win32,60.05645307,5e0d531982a9554d3862a670,611e07ecdcc96256ae8d5b80,611e7ce696e750505914a204,0.5132,
,,,,space,,0,334,334,44,1,I, , , , ,space,2500,2.5,5e0d531982a9554d3862a670,001,2021-08-19_16h47.31.112,natb3,2021.2.3,Win32,60.05645307,5e0d531982a9554d3862a670,611e07ecdcc96256ae8d5b80,611e7ce696e750505914a204,0.4333,
,,,,space,,0,335,335,246,1,L, , , , ,space,2500,2.5,5e0d531982a9554d3862a670,001,2021-08-19_16h47.31.112,natb3,2021.2.3,Win32,60.05645307,5e0d531982a9554d3862a670,611e07ecdcc96256ae8d5b80,611e7ce696e750505914a204,0.5965,
