key_resp_2.keys,key_resp_2.rt,key_resp_3.keys,key_resp_3.rt,key_resp.keys,key_resp_4.keys,trials.thisRepN,trials.thisTrialN,trials.thisN,trials.thisIndex,trials.ran,stimulus,distractor1,distractor2,distractor3,distractor4,CorrAns,isi_duration,isi_dur_in_seconds,participant,session,date,expName,psychopyVersion,OS,frameRate,PROLIFIC_PID,STUDY_ID,SESSION_ID,key_resp.rt,key_resp_4.rt
return,12.7202,space,14.8648,,,0,0,0,26,1,C, , , , ,space,2000,2,5e272cbaddb07c04bd862121,001,2021-08-19_16h38.24.832,natb3,2021.2.3,Win32,60.03121623,5e272cbaddb07c04bd862121,611e07ecdcc96256ae8d5b80,611e7ac123618baab04d6ada,,
,,,,space,,0,1,1,224,1,W, , , , ,space,1500,1.5,5e272cbaddb07c04bd862121,001,2021-08-19_16h38.24.832,natb3,2021.2.3,Win32,60.03121623,5e272cbaddb07c04bd862121,611e07ecdcc96256ae8d5b80,611e7ac123618baab04d6ada,0.4601,
,,,,space,,0,2,2,194,1,D, , , , ,space,2000,2,5e272cbaddb07c04bd862121,001,2021-08-19_16h38.24.832,natb3,2021.2.3,Win32,60.03121623,5e272cbaddb07c04bd862121,611e07ecdcc96256ae8d5b80,611e7ac123618baab04d6ada,0.4344,
,,,,space,,0,3,3,245,1,K, , , , ,space,2000,2,5e272cbaddb07c04bd862121,001,2021-08-19_16h38.24.832,natb3,2021.2.3,Win32,60.03121623,5e272cbaddb07c04bd862121,611e07ecdcc96256ae8d5b80,611e7ac123618baab04d6ada,0.5364,
,,,,space,,0,4,4,55,1,H, , , , ,space,2500,2.5,5e272cbaddb07c04bd862121,001,2021-08-19_16h38.24.832,natb3,2021.2.3,Win32,60.03121623,5e272cbaddb07c04bd862121,611e07ecdcc96256ae8d5b80,611e7ac123618baab04d6ada,0.3749,
,,,,space,,0,5,5,324,1,Q, , , , ,space,2000,2,5e272cbaddb07c04bd862121,001,2021-08-19_16h38.24.832,natb3,2021.2.3,Win32,60.03121623,5e272cbaddb07c04bd862121,611e07ecdcc96256ae8d5b80,611e7ac123618baab04d6ada,0.4233,
,,,,,,0,6,6,315,1,X, , , , ,,2500,2.5,5e272cbaddb07c04bd862121,001,2021-08-19_16h38.24.832,natb3,2021.2.3,Win32,60.03121623,5e272cbaddb07c04bd862121,611e07ecdcc96256ae8d5b80,611e7ac123618baab04d6ada,,
,,,,space,,0,7,7,139,1,V, , , , ,space,2000,2,5e272cbaddb07c04bd862121,001,2021-08-19_16h38.24.832,natb3,2021.2.3,Win32,60.03121623,5e272cbaddb07c04bd862121,611e07ecdcc96256ae8d5b80,611e7ac123618baab04d6ada,0.3948,
,,,,space,,0,8,8,332,1,U, , , , ,space,2000,2,5e272cbaddb07c04bd862121,001,2021-08-19_16h38.24.832,natb3,2021.2.3,Win32,60.03121623,5e272cbaddb07c04bd862121,611e07ecdcc96256ae8d5b80,611e7ac123618baab04d6ada,0.4259,
,,,,space,,0,9,9,210,1,M, , , , ,space,1500,1.5,5e272cbaddb07c04bd862121,001,2021-08-19_16h38.24.832,natb3,2021.2.3,Win32,60.03121623,5e272cbaddb07c04bd862121,611e07ecdcc96256ae8d5b80,611e7ac123618baab04d6ada,0.4451,
,,,,space,,0,10,10,32,1,M, , , , ,space,1500,1.5,5e272cbaddb07c04bd862121,001,2021-08-19_16h38.24.832,natb3,2021.2.3,Win32,60.03121623,5e272cbaddb07c04bd862121,611e07ecdcc96256ae8d5b80,611e7ac123618baab04d6ada,0.4474,
,,,,space,,0,11,11,140,1,B, , , , ,space,2500,2.5,5e272cbaddb07c04bd862121,001,2021-08-19_16h38.24.832,natb3,2021.2.3,Win32,60.03121623,5e272cbaddb07c04bd862121,611e07ecdcc96256ae8d5b80,611e7ac123618baab04d6ada,0.4404,
,,,,,,0,12,12,218,1,X,1,3, ,8,,1500,1.5,5e272cbaddb07c04bd862121,001,2021-08-19_16h38.24.832,natb3,2021.2.3,Win32,60.03121623,5e272cbaddb07c04bd862121,611e07ecdcc96256ae8d5b80,611e7ac123618baab04d6ada,,
,,,,space,,0,13,13,90,1,K, , , , ,space,2000,2,5e272cbaddb07c04bd862121,001,2021-08-19_16h38.24.832,natb3,2021.2.3,Win32,60.03121623,5e272cbaddb07c04bd862121,611e07ecdcc96256ae8d5b80,611e7ac123618baab04d6ada,0.5618,
,,,,space,,0,14,14,68,1,W, , , , ,space,2500,2.5,5e272cbaddb07c04bd862121,001,2021-08-19_16h38.24.832,natb3,2021.2.3,Win32,60.03121623,5e272cbaddb07c04bd862121,611e07ecdcc96256ae8d5b80,611e7ac123618baab04d6ada,0.4955,
,,,,space,,0,15,15,221,1,I, , , , ,space,2500,2.5,5e272cbaddb07c04bd862121,001,2021-08-19_16h38.24.832,natb3,2021.2.3,Win32,60.03121623,5e272cbaddb07c04bd862121,611e07ecdcc96256ae8d5b80,611e7ac123618baab04d6ada,0.536,
,,,,,,0,16,16,141,1,X,1, ,4,6,,1500,1.5,5e272cbaddb07c04bd862121,001,2021-08-19_16h38.24.832,natb3,2021.2.3,Win32,60.03121623,5e272cbaddb07c04bd862121,611e07ecdcc96256ae8d5b80,611e7ac123618baab04d6ada,,
,,,,space,,0,17,17,254,1,M, , , , ,space,1500,1.5,5e272cbaddb07c04bd862121,001,2021-08-19_16h38.24.832,natb3,2021.2.3,Win32,60.03121623,5e272cbaddb07c04bd862121,611e07ecdcc96256ae8d5b80,611e7ac123618baab04d6ada,0.633,
,,,,space,,0,18,18,278,1,J, , , , ,space,2000,2,5e272cbaddb07c04bd862121,001,2021-08-19_16h38.24.832,natb3,2021.2.3,Win32,60.03121623,5e272cbaddb07c04bd862121,611e07ecdcc96256ae8d5b80,611e7ac123618baab04d6ada,0.8555,
,,,,space,,0,19,19,134,1,J, , , , ,space,2000,2,5e272cbaddb07c04bd862121,001,2021-08-19_16h38.24.832,natb3,2021.2.3,Win32,60.03121623,5e272cbaddb07c04bd862121,611e07ecdcc96256ae8d5b80,611e7ac123618baab04d6ada,0.5014,
,,,,space,,0,20,20,250,1,V, , , , ,space,2000,2,5e272cbaddb07c04bd862121,001,2021-08-19_16h38.24.832,natb3,2021.2.3,Win32,60.03121623,5e272cbaddb07c04bd862121,611e07ecdcc96256ae8d5b80,611e7ac123618baab04d6ada,0.5041,
,,,,,,0,21,21,239,1,X, , , , ,,2000,2,5e272cbaddb07c04bd862121,001,2021-08-19_16h38.24.832,natb3,2021.2.3,Win32,60.03121623,5e272cbaddb07c04bd862121,611e07ecdcc96256ae8d5b80,611e7ac123618baab04d6ada,,
,,,,space,,0,22,22,48,1,A, , , , ,space,2500,2.5,5e272cbaddb07c04bd862121,001,2021-08-19_16h38.24.832,natb3,2021.2.3,Win32,60.03121623,5e272cbaddb07c04bd862121,611e07ecdcc96256ae8d5b80,611e7ac123618baab04d6ada,0.5521,
,,,,space,,0,23,23,197,1,G, , , , ,space,2500,2.5,5e272cbaddb07c04bd862121,001,2021-08-19_16h38.24.832,natb3,2021.2.3,Win32,60.03121623,5e272cbaddb07c04bd862121,611e07ecdcc96256ae8d5b80,611e7ac123618baab04d6ada,0.4443,
,,,,space,,0,24,24,86,1,G, , , , ,space,2000,2,5e272cbaddb07c04bd862121,001,2021-08-19_16h38.24.832,natb3,2021.2.3,Win32,60.03121623,5e272cbaddb07c04bd862121,611e07ecdcc96256ae8d5b80,611e7ac123618baab04d6ada,0.4441,
,,,,,,0,25,25,31,1,X, , , , ,,1500,1.5,5e272cbaddb07c04bd862121,001,2021-08-19_16h38.24.832,natb3,2021.2.3,Win32,60.03121623,5e272cbaddb07c04bd862121,611e07ecdcc96256ae8d5b80,611e7ac123618baab04d6ada,,
,,,,,,0,26,26,236,1,X,3, ,4,7,,2500,2.5,5e272cbaddb07c04bd862121,001,2021-08-19_16h38.24.832,natb3,2021.2.3,Win32,60.03121623,5e272cbaddb07c04bd862121,611e07ecdcc96256ae8d5b80,611e7ac123618baab04d6ada,,
,,,,,,0,27,27,4,1,X, , , , ,,2000,2,5e272cbaddb07c04bd862121,001,2021-08-19_16h38.24.832,natb3,2021.2.3,Win32,60.03121623,5e272cbaddb07c04bd862121,611e07ecdcc96256ae8d5b80,611e7ac123618baab04d6ada,,
,,,,space,,0,28,28,50,1,D, , , , ,space,1500,1.5,5e272cbaddb07c04bd862121,001,2021-08-19_16h38.24.832,natb3,2021.2.3,Win32,60.03121623,5e272cbaddb07c04bd862121,611e07ecdcc96256ae8d5b80,611e7ac123618baab04d6ada,0.4295,
,,,,space,,0,29,29,310,1,J, , , , ,space,2500,2.5,5e272cbaddb07c04bd862121,001,2021-08-19_16h38.24.832,natb3,2021.2.3,Win32,60.03121623,5e272cbaddb07c04bd862121,611e07ecdcc96256ae8d5b80,611e7ac123618baab04d6ada,0.5107,
,,,,space,,0,30,30,237,1,S, , , , ,space,1500,1.5,5e272cbaddb07c04bd862121,001,2021-08-19_16h38.24.832,natb3,2021.2.3,Win32,60.03121623,5e272cbaddb07c04bd862121,611e07ecdcc96256ae8d5b80,611e7ac123618baab04d6ada,0.6139,
,,,,,,0,31,31,78,1,X, , , , ,,2000,2,5e272cbaddb07c04bd862121,001,2021-08-19_16h38.24.832,natb3,2021.2.3,Win32,60.03121623,5e272cbaddb07c04bd862121,611e07ecdcc96256ae8d5b80,611e7ac123618baab04d6ada,,
,,,,,,0,32,32,166,1,X, , , , ,,2000,2,5e272cbaddb07c04bd862121,001,2021-08-19_16h38.24.832,natb3,2021.2.3,Win32,60.03121623,5e272cbaddb07c04bd862121,611e07ecdcc96256ae8d5b80,611e7ac123618baab04d6ada,,
,,,,space,,0,33,33,312,1,K, , , , ,space,2000,2,5e272cbaddb07c04bd862121,001,2021-08-19_16h38.24.832,natb3,2021.2.3,Win32,60.03121623,5e272cbaddb07c04bd862121,611e07ecdcc96256ae8d5b80,611e7ac123618baab04d6ada,0.5591,
,,,,,,0,34,34,107,1,X,9,3, ,2,,2000,2,5e272cbaddb07c04bd862121,001,2021-08-19_16h38.24.832,natb3,2021.2.3,Win32,60.03121623,5e272cbaddb07c04bd862121,611e07ecdcc96256ae8d5b80,611e7ac123618baab04d6ada,,
,,,,space,,0,35,35,220,1,U, , , , ,space,2500,2.5,5e272cbaddb07c04bd862121,001,2021-08-19_16h38.24.832,natb3,2021.2.3,Win32,60.03121623,5e272cbaddb07c04bd862121,611e07ecdcc96256ae8d5b80,611e7ac123618baab04d6ada,0.6262,
,,,,space,,0,36,36,230,1,U, , , , ,space,1500,1.5,5e272cbaddb07c04bd862121,001,2021-08-19_16h38.24.832,natb3,2021.2.3,Win32,60.03121623,5e272cbaddb07c04bd862121,611e07ecdcc96256ae8d5b80,611e7ac123618baab04d6ada,0.6142,
,,,,space,,0,37,37,58,1,L, , , , ,space,2000,2,5e272cbaddb07c04bd862121,001,2021-08-19_16h38.24.832,natb3,2021.2.3,Win32,60.03121623,5e272cbaddb07c04bd862121,611e07ecdcc96256ae8d5b80,611e7ac123618baab04d6ada,0.5243,
,,,,space,,0,38,38,135,1,K, , , , ,space,1500,1.5,5e272cbaddb07c04bd862121,001,2021-08-19_16h38.24.832,natb3,2021.2.3,Win32,60.03121623,5e272cbaddb07c04bd862121,611e07ecdcc96256ae8d5b80,611e7ac123618baab04d6ada,0.5878,
,,,,space,,0,39,39,267,1,P, , , , ,space,2000,2,5e272cbaddb07c04bd862121,001,2021-08-19_16h38.24.832,natb3,2021.2.3,Win32,60.03121623,5e272cbaddb07c04bd862121,611e07ecdcc96256ae8d5b80,611e7ac123618baab04d6ada,0.6358,
,,,,space,,0,40,40,67,1,Q, , , , ,space,2000,2,5e272cbaddb07c04bd862121,001,2021-08-19_16h38.24.832,natb3,2021.2.3,Win32,60.03121623,5e272cbaddb07c04bd862121,611e07ecdcc96256ae8d5b80,611e7ac123618baab04d6ada,0.4017,
,,,,space,,0,41,41,120,1,U, , , , ,space,1500,1.5,5e272cbaddb07c04bd862121,001,2021-08-19_16h38.24.832,natb3,2021.2.3,Win32,60.03121623,5e272cbaddb07c04bd862121,611e07ecdcc96256ae8d5b80,611e7ac123618baab04d6ada,0.6526,
,,,,space,,0,42,42,244,1,J, , , , ,space,1500,1.5,5e272cbaddb07c04bd862121,001,2021-08-19_16h38.24.832,natb3,2021.2.3,Win32,60.03121623,5e272cbaddb07c04bd862121,611e07ecdcc96256ae8d5b80,611e7ac123618baab04d6ada,0.5106,
,,,,space,,0,43,43,2,1,E, , , , ,space,2500,2.5,5e272cbaddb07c04bd862121,001,2021-08-19_16h38.24.832,natb3,2021.2.3,Win32,60.03121623,5e272cbaddb07c04bd862121,611e07ecdcc96256ae8d5b80,611e7ac123618baab04d6ada,0.5009,
,,,,space,,0,44,44,8,1,U, , , , ,space,1500,1.5,5e272cbaddb07c04bd862121,001,2021-08-19_16h38.24.832,natb3,2021.2.3,Win32,60.03121623,5e272cbaddb07c04bd862121,611e07ecdcc96256ae8d5b80,611e7ac123618baab04d6ada,0.4446,
,,,,space,,0,45,45,309,1,H, , , , ,space,2500,2.5,5e272cbaddb07c04bd862121,001,2021-08-19_16h38.24.832,natb3,2021.2.3,Win32,60.03121623,5e272cbaddb07c04bd862121,611e07ecdcc96256ae8d5b80,611e7ac123618baab04d6ada,0.5268,
,,,,space,,0,46,46,104,1,E, , , , ,space,2000,2,5e272cbaddb07c04bd862121,001,2021-08-19_16h38.24.832,natb3,2021.2.3,Win32,60.03121623,5e272cbaddb07c04bd862121,611e07ecdcc96256ae8d5b80,611e7ac123618baab04d6ada,0.5294,
,,,,,,0,47,47,291,1,X, , , , ,,2000,2,5e272cbaddb07c04bd862121,001,2021-08-19_16h38.24.832,natb3,2021.2.3,Win32,60.03121623,5e272cbaddb07c04bd862121,611e07ecdcc96256ae8d5b80,611e7ac123618baab04d6ada,,
,,,,space,,0,48,48,63,1,B, , , , ,space,2000,2,5e272cbaddb07c04bd862121,001,2021-08-19_16h38.24.832,natb3,2021.2.3,Win32,60.03121623,5e272cbaddb07c04bd862121,611e07ecdcc96256ae8d5b80,611e7ac123618baab04d6ada,0.4358,
,,,,space,,0,49,49,148,1,X, , , , ,,2000,2,5e272cbaddb07c04bd862121,001,2021-08-19_16h38.24.832,natb3,2021.2.3,Win32,60.03121623,5e272cbaddb07c04bd862121,611e07ecdcc96256ae8d5b80,611e7ac123618baab04d6ada,0.474,
,,,,,,0,50,50,46,1,X, , , , ,,2000,2,5e272cbaddb07c04bd862121,001,2021-08-19_16h38.24.832,natb3,2021.2.3,Win32,60.03121623,5e272cbaddb07c04bd862121,611e07ecdcc96256ae8d5b80,611e7ac123618baab04d6ada,,
,,,,space,,0,51,51,42,1,U, , , , ,space,1500,1.5,5e272cbaddb07c04bd862121,001,2021-08-19_16h38.24.832,natb3,2021.2.3,Win32,60.03121623,5e272cbaddb07c04bd862121,611e07ecdcc96256ae8d5b80,611e7ac123618baab04d6ada,0.5309,
,,,,space,,0,52,52,199,1,J, , , , ,space,2500,2.5,5e272cbaddb07c04bd862121,001,2021-08-19_16h38.24.832,natb3,2021.2.3,Win32,60.03121623,5e272cbaddb07c04bd862121,611e07ecdcc96256ae8d5b80,611e7ac123618baab04d6ada,0.4809,
,,,,space,,0,53,53,185,1,Y, , , , ,space,2500,2.5,5e272cbaddb07c04bd862121,001,2021-08-19_16h38.24.832,natb3,2021.2.3,Win32,60.03121623,5e272cbaddb07c04bd862121,611e07ecdcc96256ae8d5b80,611e7ac123618baab04d6ada,0.5291,
,,,,,,0,54,54,102,1,X, ,6, , ,,1500,1.5,5e272cbaddb07c04bd862121,001,2021-08-19_16h38.24.832,natb3,2021.2.3,Win32,60.03121623,5e272cbaddb07c04bd862121,611e07ecdcc96256ae8d5b80,611e7ac123618baab04d6ada,,
,,,,space,,0,55,55,30,1,N, , , , ,space,2500,2.5,5e272cbaddb07c04bd862121,001,2021-08-19_16h38.24.832,natb3,2021.2.3,Win32,60.03121623,5e272cbaddb07c04bd862121,611e07ecdcc96256ae8d5b80,611e7ac123618baab04d6ada,0.5075,
,,,,space,,0,56,56,47,1,P, , , , ,space,2000,2,5e272cbaddb07c04bd862121,001,2021-08-19_16h38.24.832,natb3,2021.2.3,Win32,60.03121623,5e272cbaddb07c04bd862121,611e07ecdcc96256ae8d5b80,611e7ac123618baab04d6ada,0.4716,
,,,,space,,0,57,57,328,1,R, , , , ,space,1500,1.5,5e272cbaddb07c04bd862121,001,2021-08-19_16h38.24.832,natb3,2021.2.3,Win32,60.03121623,5e272cbaddb07c04bd862121,611e07ecdcc96256ae8d5b80,611e7ac123618baab04d6ada,0.5198,
,,,,space,,0,58,58,205,1,C, , , , ,space,2000,2,5e272cbaddb07c04bd862121,001,2021-08-19_16h38.24.832,natb3,2021.2.3,Win32,60.03121623,5e272cbaddb07c04bd862121,611e07ecdcc96256ae8d5b80,611e7ac123618baab04d6ada,0.4821,
,,,,space,,0,59,59,180,1,W, , , , ,space,2000,2,5e272cbaddb07c04bd862121,001,2021-08-19_16h38.24.832,natb3,2021.2.3,Win32,60.03121623,5e272cbaddb07c04bd862121,611e07ecdcc96256ae8d5b80,611e7ac123618baab04d6ada,0.5179,
,,,,space,,0,60,60,189,1,O, , , , ,space,1500,1.5,5e272cbaddb07c04bd862121,001,2021-08-19_16h38.24.832,natb3,2021.2.3,Win32,60.03121623,5e272cbaddb07c04bd862121,611e07ecdcc96256ae8d5b80,611e7ac123618baab04d6ada,0.6211,
,,,,,,0,61,61,200,1,X,7, ,5,3,,1500,1.5,5e272cbaddb07c04bd862121,001,2021-08-19_16h38.24.832,natb3,2021.2.3,Win32,60.03121623,5e272cbaddb07c04bd862121,611e07ecdcc96256ae8d5b80,611e7ac123618baab04d6ada,,
,,,,,,0,62,62,229,1,X,8, ,2,6,,2500,2.5,5e272cbaddb07c04bd862121,001,2021-08-19_16h38.24.832,natb3,2021.2.3,Win32,60.03121623,5e272cbaddb07c04bd862121,611e07ecdcc96256ae8d5b80,611e7ac123618baab04d6ada,,
,,,,space,,0,63,63,22,1,K, , , , ,space,2000,2,5e272cbaddb07c04bd862121,001,2021-08-19_16h38.24.832,natb3,2021.2.3,Win32,60.03121623,5e272cbaddb07c04bd862121,611e07ecdcc96256ae8d5b80,611e7ac123618baab04d6ada,0.5454,
,,,,space,,0,64,64,14,1,S, , , , ,space,2500,2.5,5e272cbaddb07c04bd862121,001,2021-08-19_16h38.24.832,natb3,2021.2.3,Win32,60.03121623,5e272cbaddb07c04bd862121,611e07ecdcc96256ae8d5b80,611e7ac123618baab04d6ada,0.4897,
,,,,,,0,65,65,195,1,X, , , , ,,1500,1.5,5e272cbaddb07c04bd862121,001,2021-08-19_16h38.24.832,natb3,2021.2.3,Win32,60.03121623,5e272cbaddb07c04bd862121,611e07ecdcc96256ae8d5b80,611e7ac123618baab04d6ada,,
,,,,space,,0,66,66,184,1,T, , , , ,space,2000,2,5e272cbaddb07c04bd862121,001,2021-08-19_16h38.24.832,natb3,2021.2.3,Win32,60.03121623,5e272cbaddb07c04bd862121,611e07ecdcc96256ae8d5b80,611e7ac123618baab04d6ada,0.4816,
,,,,space,,0,67,67,99,1,N, , , , ,space,2500,2.5,5e272cbaddb07c04bd862121,001,2021-08-19_16h38.24.832,natb3,2021.2.3,Win32,60.03121623,5e272cbaddb07c04bd862121,611e07ecdcc96256ae8d5b80,611e7ac123618baab04d6ada,0.5054,
,,,,space,,0,68,68,219,1,Y, , , , ,space,2000,2,5e272cbaddb07c04bd862121,001,2021-08-19_16h38.24.832,natb3,2021.2.3,Win32,60.03121623,5e272cbaddb07c04bd862121,611e07ecdcc96256ae8d5b80,611e7ac123618baab04d6ada,0.4931,
,,,,,,0,69,69,15,1,X, , , , ,,1500,1.5,5e272cbaddb07c04bd862121,001,2021-08-19_16h38.24.832,natb3,2021.2.3,Win32,60.03121623,5e272cbaddb07c04bd862121,611e07ecdcc96256ae8d5b80,611e7ac123618baab04d6ada,,
,,,,space,,0,70,70,131,1,G, , , , ,space,1500,1.5,5e272cbaddb07c04bd862121,001,2021-08-19_16h38.24.832,natb3,2021.2.3,Win32,60.03121623,5e272cbaddb07c04bd862121,611e07ecdcc96256ae8d5b80,611e7ac123618baab04d6ada,0.5849,
,,,,space,,0,71,71,264,1,U, , , , ,space,2000,2,5e272cbaddb07c04bd862121,001,2021-08-19_16h38.24.832,natb3,2021.2.3,Win32,60.03121623,5e272cbaddb07c04bd862121,611e07ecdcc96256ae8d5b80,611e7ac123618baab04d6ada,0.7047,
,,,,space,,0,72,72,314,1,L, , , , ,space,1500,1.5,5e272cbaddb07c04bd862121,001,2021-08-19_16h38.24.832,natb3,2021.2.3,Win32,60.03121623,5e272cbaddb07c04bd862121,611e07ecdcc96256ae8d5b80,611e7ac123618baab04d6ada,0.5443,
,,,,space,,0,73,73,226,1,R, , , , ,space,2000,2,5e272cbaddb07c04bd862121,001,2021-08-19_16h38.24.832,natb3,2021.2.3,Win32,60.03121623,5e272cbaddb07c04bd862121,611e07ecdcc96256ae8d5b80,611e7ac123618baab04d6ada,0.5863,
,,,,space,,0,74,74,164,1,H, , , , ,space,2500,2.5,5e272cbaddb07c04bd862121,001,2021-08-19_16h38.24.832,natb3,2021.2.3,Win32,60.03121623,5e272cbaddb07c04bd862121,611e07ecdcc96256ae8d5b80,611e7ac123618baab04d6ada,0.5581,
,,,,space,,0,75,75,169,1,L, , , , ,space,2500,2.5,5e272cbaddb07c04bd862121,001,2021-08-19_16h38.24.832,natb3,2021.2.3,Win32,60.03121623,5e272cbaddb07c04bd862121,611e07ecdcc96256ae8d5b80,611e7ac123618baab04d6ada,0.5633,
,,,,space,,0,76,76,232,1,O, , , , ,space,2500,2.5,5e272cbaddb07c04bd862121,001,2021-08-19_16h38.24.832,natb3,2021.2.3,Win32,60.03121623,5e272cbaddb07c04bd862121,611e07ecdcc96256ae8d5b80,611e7ac123618baab04d6ada,0.4324,
,,,,space,,0,77,77,152,1,U, , , , ,space,2000,2,5e272cbaddb07c04bd862121,001,2021-08-19_16h38.24.832,natb3,2021.2.3,Win32,60.03121623,5e272cbaddb07c04bd862121,611e07ecdcc96256ae8d5b80,611e7ac123618baab04d6ada,0.5509,
,,,,space,,0,78,78,71,1,R, , , , ,space,2500,2.5,5e272cbaddb07c04bd862121,001,2021-08-19_16h38.24.832,natb3,2021.2.3,Win32,60.03121623,5e272cbaddb07c04bd862121,611e07ecdcc96256ae8d5b80,611e7ac123618baab04d6ada,0.412,
,,,,space,,0,79,79,196,1,F, , , , ,space,1500,1.5,5e272cbaddb07c04bd862121,001,2021-08-19_16h38.24.832,natb3,2021.2.3,Win32,60.03121623,5e272cbaddb07c04bd862121,611e07ecdcc96256ae8d5b80,611e7ac123618baab04d6ada,0.479,
,,,,space,,0,80,80,293,1,R, , , , ,space,2500,2.5,5e272cbaddb07c04bd862121,001,2021-08-19_16h38.24.832,natb3,2021.2.3,Win32,60.03121623,5e272cbaddb07c04bd862121,611e07ecdcc96256ae8d5b80,611e7ac123618baab04d6ada,0.5042,
,,,,,,0,81,81,299,1,X, , , , ,,2500,2.5,5e272cbaddb07c04bd862121,001,2021-08-19_16h38.24.832,natb3,2021.2.3,Win32,60.03121623,5e272cbaddb07c04bd862121,611e07ecdcc96256ae8d5b80,611e7ac123618baab04d6ada,,
,,,,,,0,82,82,27,1,X,5, ,1,3,,1500,1.5,5e272cbaddb07c04bd862121,001,2021-08-19_16h38.24.832,natb3,2021.2.3,Win32,60.03121623,5e272cbaddb07c04bd862121,611e07ecdcc96256ae8d5b80,611e7ac123618baab04d6ada,,
,,,,space,,0,83,83,333,1,I, , , , ,space,1500,1.5,5e272cbaddb07c04bd862121,001,2021-08-19_16h38.24.832,natb3,2021.2.3,Win32,60.03121623,5e272cbaddb07c04bd862121,611e07ecdcc96256ae8d5b80,611e7ac123618baab04d6ada,0.4443,
,,,,space,,0,84,84,119,1,Y, , , , ,space,2500,2.5,5e272cbaddb07c04bd862121,001,2021-08-19_16h38.24.832,natb3,2021.2.3,Win32,60.03121623,5e272cbaddb07c04bd862121,611e07ecdcc96256ae8d5b80,611e7ac123618baab04d6ada,0.4961,
,,,,space,,0,85,85,260,1,R, , , , ,space,2000,2,5e272cbaddb07c04bd862121,001,2021-08-19_16h38.24.832,natb3,2021.2.3,Win32,60.03121623,5e272cbaddb07c04bd862121,611e07ecdcc96256ae8d5b80,611e7ac123618baab04d6ada,0.4368,
,,,,space,,0,86,86,288,1,M, , , , ,space,1500,1.5,5e272cbaddb07c04bd862121,001,2021-08-19_16h38.24.832,natb3,2021.2.3,Win32,60.03121623,5e272cbaddb07c04bd862121,611e07ecdcc96256ae8d5b80,611e7ac123618baab04d6ada,0.5109,
,,,,space,,0,87,87,190,1,P, , , , ,space,2000,2,5e272cbaddb07c04bd862121,001,2021-08-19_16h38.24.832,natb3,2021.2.3,Win32,60.03121623,5e272cbaddb07c04bd862121,611e07ecdcc96256ae8d5b80,611e7ac123618baab04d6ada,0.4023,
,,,,,,0,88,88,133,1,X, ,4, ,6,,2500,2.5,5e272cbaddb07c04bd862121,001,2021-08-19_16h38.24.832,natb3,2021.2.3,Win32,60.03121623,5e272cbaddb07c04bd862121,611e07ecdcc96256ae8d5b80,611e7ac123618baab04d6ada,,
,,,,space,,0,89,89,300,1,O, , , , ,space,2500,2.5,5e272cbaddb07c04bd862121,001,2021-08-19_16h38.24.832,natb3,2021.2.3,Win32,60.03121623,5e272cbaddb07c04bd862121,611e07ecdcc96256ae8d5b80,611e7ac123618baab04d6ada,0.487,
,,,,,,0,90,90,125,1,X, , , , ,,2000,2,5e272cbaddb07c04bd862121,001,2021-08-19_16h38.24.832,natb3,2021.2.3,Win32,60.03121623,5e272cbaddb07c04bd862121,611e07ecdcc96256ae8d5b80,611e7ac123618baab04d6ada,,
,,,,,,0,91,91,318,1,X, , , , ,,1500,1.5,5e272cbaddb07c04bd862121,001,2021-08-19_16h38.24.832,natb3,2021.2.3,Win32,60.03121623,5e272cbaddb07c04bd862121,611e07ecdcc96256ae8d5b80,611e7ac123618baab04d6ada,,
,,,,space,,0,92,92,317,1,C, , , , ,space,2000,2,5e272cbaddb07c04bd862121,001,2021-08-19_16h38.24.832,natb3,2021.2.3,Win32,60.03121623,5e272cbaddb07c04bd862121,611e07ecdcc96256ae8d5b80,611e7ac123618baab04d6ada,0.5048,
,,,,,,0,93,93,96,1,X, , , , ,,1500,1.5,5e272cbaddb07c04bd862121,001,2021-08-19_16h38.24.832,natb3,2021.2.3,Win32,60.03121623,5e272cbaddb07c04bd862121,611e07ecdcc96256ae8d5b80,611e7ac123618baab04d6ada,,
,,,,space,,0,94,94,57,1,K, , , , ,space,2500,2.5,5e272cbaddb07c04bd862121,001,2021-08-19_16h38.24.832,natb3,2021.2.3,Win32,60.03121623,5e272cbaddb07c04bd862121,611e07ecdcc96256ae8d5b80,611e7ac123618baab04d6ada,0.4844,
,,,,space,,0,95,95,274,1,F, , , , ,space,2000,2,5e272cbaddb07c04bd862121,001,2021-08-19_16h38.24.832,natb3,2021.2.3,Win32,60.03121623,5e272cbaddb07c04bd862121,611e07ecdcc96256ae8d5b80,611e7ac123618baab04d6ada,0.4801,
,,,,space,,0,96,96,5,1,T, , , , ,space,2000,2,5e272cbaddb07c04bd862121,001,2021-08-19_16h38.24.832,natb3,2021.2.3,Win32,60.03121623,5e272cbaddb07c04bd862121,611e07ecdcc96256ae8d5b80,611e7ac123618baab04d6ada,0.5662,
,,,,space,,0,97,97,285,1,B, , , , ,space,1500,1.5,5e272cbaddb07c04bd862121,001,2021-08-19_16h38.24.832,natb3,2021.2.3,Win32,60.03121623,5e272cbaddb07c04bd862121,611e07ecdcc96256ae8d5b80,611e7ac123618baab04d6ada,0.5454,
,,,,,,0,98,98,33,1,X, , , , ,,1500,1.5,5e272cbaddb07c04bd862121,001,2021-08-19_16h38.24.832,natb3,2021.2.3,Win32,60.03121623,5e272cbaddb07c04bd862121,611e07ecdcc96256ae8d5b80,611e7ac123618baab04d6ada,,
,,,,space,,0,99,99,323,1,M, , , , ,space,2500,2.5,5e272cbaddb07c04bd862121,001,2021-08-19_16h38.24.832,natb3,2021.2.3,Win32,60.03121623,5e272cbaddb07c04bd862121,611e07ecdcc96256ae8d5b80,611e7ac123618baab04d6ada,0.4996,
,,,,space,,0,100,100,320,1,B, , , , ,space,1500,1.5,5e272cbaddb07c04bd862121,001,2021-08-19_16h38.24.832,natb3,2021.2.3,Win32,60.03121623,5e272cbaddb07c04bd862121,611e07ecdcc96256ae8d5b80,611e7ac123618baab04d6ada,0.4901,
,,,,space,,0,101,101,121,1,I, , , , ,space,2000,2,5e272cbaddb07c04bd862121,001,2021-08-19_16h38.24.832,natb3,2021.2.3,Win32,60.03121623,5e272cbaddb07c04bd862121,611e07ecdcc96256ae8d5b80,611e7ac123618baab04d6ada,0.4625,
,,,,space,,0,102,102,61,1,C, , , , ,space,2000,2,5e272cbaddb07c04bd862121,001,2021-08-19_16h38.24.832,natb3,2021.2.3,Win32,60.03121623,5e272cbaddb07c04bd862121,611e07ecdcc96256ae8d5b80,611e7ac123618baab04d6ada,0.5082,
,,,,space,,0,103,103,331,1,Y, , , , ,space,2500,2.5,5e272cbaddb07c04bd862121,001,2021-08-19_16h38.24.832,natb3,2021.2.3,Win32,60.03121623,5e272cbaddb07c04bd862121,611e07ecdcc96256ae8d5b80,611e7ac123618baab04d6ada,0.4917,
,,,,space,,0,104,104,117,1,T, , , , ,space,2500,2.5,5e272cbaddb07c04bd862121,001,2021-08-19_16h38.24.832,natb3,2021.2.3,Win32,60.03121623,5e272cbaddb07c04bd862121,611e07ecdcc96256ae8d5b80,611e7ac123618baab04d6ada,0.507,
,,,,,,0,105,105,207,1,X,9, ,2, ,,2500,2.5,5e272cbaddb07c04bd862121,001,2021-08-19_16h38.24.832,natb3,2021.2.3,Win32,60.03121623,5e272cbaddb07c04bd862121,611e07ecdcc96256ae8d5b80,611e7ac123618baab04d6ada,,
,,,,space,,0,106,106,201,1,K, , , , ,space,1500,1.5,5e272cbaddb07c04bd862121,001,2021-08-19_16h38.24.832,natb3,2021.2.3,Win32,60.03121623,5e272cbaddb07c04bd862121,611e07ecdcc96256ae8d5b80,611e7ac123618baab04d6ada,0.5571,
,,,,space,,0,107,107,10,1,O, , , , ,space,2000,2,5e272cbaddb07c04bd862121,001,2021-08-19_16h38.24.832,natb3,2021.2.3,Win32,60.03121623,5e272cbaddb07c04bd862121,611e07ecdcc96256ae8d5b80,611e7ac123618baab04d6ada,0.4719,
,,,,space,,0,108,108,211,1,X, , , , ,,2500,2.5,5e272cbaddb07c04bd862121,001,2021-08-19_16h38.24.832,natb3,2021.2.3,Win32,60.03121623,5e272cbaddb07c04bd862121,611e07ecdcc96256ae8d5b80,611e7ac123618baab04d6ada,0.4083,
,,,,space,,0,109,109,286,1,N, , , , ,space,1500,1.5,5e272cbaddb07c04bd862121,001,2021-08-19_16h38.24.832,natb3,2021.2.3,Win32,60.03121623,5e272cbaddb07c04bd862121,611e07ecdcc96256ae8d5b80,611e7ac123618baab04d6ada,0.5553,
,,,,space,,0,110,110,105,1,R, , , , ,space,2500,2.5,5e272cbaddb07c04bd862121,001,2021-08-19_16h38.24.832,natb3,2021.2.3,Win32,60.03121623,5e272cbaddb07c04bd862121,611e07ecdcc96256ae8d5b80,611e7ac123618baab04d6ada,0.4971,
,,,,,,0,111,111,122,1,X,1, , ,8,,1500,1.5,5e272cbaddb07c04bd862121,001,2021-08-19_16h38.24.832,natb3,2021.2.3,Win32,60.03121623,5e272cbaddb07c04bd862121,611e07ecdcc96256ae8d5b80,611e7ac123618baab04d6ada,,
,,,,space,,0,112,112,92,1,Z, , , , ,space,1500,1.5,5e272cbaddb07c04bd862121,001,2021-08-19_16h38.24.832,natb3,2021.2.3,Win32,60.03121623,5e272cbaddb07c04bd862121,611e07ecdcc96256ae8d5b80,611e7ac123618baab04d6ada,0.5624,
,,,,,,0,113,113,302,1,X, , , , ,,2000,2,5e272cbaddb07c04bd862121,001,2021-08-19_16h38.24.832,natb3,2021.2.3,Win32,60.03121623,5e272cbaddb07c04bd862121,611e07ecdcc96256ae8d5b80,611e7ac123618baab04d6ada,,
,,,,space,,0,114,114,281,1,Z, , , , ,space,1500,1.5,5e272cbaddb07c04bd862121,001,2021-08-19_16h38.24.832,natb3,2021.2.3,Win32,60.03121623,5e272cbaddb07c04bd862121,611e07ecdcc96256ae8d5b80,611e7ac123618baab04d6ada,0.6825,
,,,,space,,0,115,115,109,1,U, , , , ,space,1500,1.5,5e272cbaddb07c04bd862121,001,2021-08-19_16h38.24.832,natb3,2021.2.3,Win32,60.03121623,5e272cbaddb07c04bd862121,611e07ecdcc96256ae8d5b80,611e7ac123618baab04d6ada,0.5218,
,,,,space,,0,116,116,215,1,E, , , , ,space,2500,2.5,5e272cbaddb07c04bd862121,001,2021-08-19_16h38.24.832,natb3,2021.2.3,Win32,60.03121623,5e272cbaddb07c04bd862121,611e07ecdcc96256ae8d5b80,611e7ac123618baab04d6ada,0.5287,
,,,,space,,0,117,117,128,1,D, , , , ,space,2500,2.5,5e272cbaddb07c04bd862121,001,2021-08-19_16h38.24.832,natb3,2021.2.3,Win32,60.03121623,5e272cbaddb07c04bd862121,611e07ecdcc96256ae8d5b80,611e7ac123618baab04d6ada,0.5035,
,,,,space,,0,118,118,258,1,E, , , , ,space,1500,1.5,5e272cbaddb07c04bd862121,001,2021-08-19_16h38.24.832,natb3,2021.2.3,Win32,60.03121623,5e272cbaddb07c04bd862121,611e07ecdcc96256ae8d5b80,611e7ac123618baab04d6ada,0.4865,
,,,,space,,0,119,119,114,1,E, , , , ,space,2000,2,5e272cbaddb07c04bd862121,001,2021-08-19_16h38.24.832,natb3,2021.2.3,Win32,60.03121623,5e272cbaddb07c04bd862121,611e07ecdcc96256ae8d5b80,611e7ac123618baab04d6ada,0.4848,
,,,,space,,0,120,120,124,1,P, , , , ,space,2000,2,5e272cbaddb07c04bd862121,001,2021-08-19_16h38.24.832,natb3,2021.2.3,Win32,60.03121623,5e272cbaddb07c04bd862121,611e07ecdcc96256ae8d5b80,611e7ac123618baab04d6ada,0.4791,
,,,,space,,0,121,121,298,1,I, , , , ,space,2000,2,5e272cbaddb07c04bd862121,001,2021-08-19_16h38.24.832,natb3,2021.2.3,Win32,60.03121623,5e272cbaddb07c04bd862121,611e07ecdcc96256ae8d5b80,611e7ac123618baab04d6ada,0.5234,
,,,,space,,0,122,122,326,1,W, , , , ,space,2000,2,5e272cbaddb07c04bd862121,001,2021-08-19_16h38.24.832,natb3,2021.2.3,Win32,60.03121623,5e272cbaddb07c04bd862121,611e07ecdcc96256ae8d5b80,611e7ac123618baab04d6ada,0.5091,
,,,,space,,0,123,123,234,1,P, , , , ,space,2000,2,5e272cbaddb07c04bd862121,001,2021-08-19_16h38.24.832,natb3,2021.2.3,Win32,60.03121623,5e272cbaddb07c04bd862121,611e07ecdcc96256ae8d5b80,611e7ac123618baab04d6ada,0.5205,
,,,,,,0,124,124,171,1,X, , , , ,,1500,1.5,5e272cbaddb07c04bd862121,001,2021-08-19_16h38.24.832,natb3,2021.2.3,Win32,60.03121623,5e272cbaddb07c04bd862121,611e07ecdcc96256ae8d5b80,611e7ac123618baab04d6ada,,
,,,,space,,0,125,125,261,1,T, , , , ,space,2000,2,5e272cbaddb07c04bd862121,001,2021-08-19_16h38.24.832,natb3,2021.2.3,Win32,60.03121623,5e272cbaddb07c04bd862121,611e07ecdcc96256ae8d5b80,611e7ac123618baab04d6ada,0.4716,
,,,,,,0,126,126,60,1,X,7,3,5, ,,1500,1.5,5e272cbaddb07c04bd862121,001,2021-08-19_16h38.24.832,natb3,2021.2.3,Win32,60.03121623,5e272cbaddb07c04bd862121,611e07ecdcc96256ae8d5b80,611e7ac123618baab04d6ada,,
,,,,space,,0,127,127,17,1,F, , , , ,space,2500,2.5,5e272cbaddb07c04bd862121,001,2021-08-19_16h38.24.832,natb3,2021.2.3,Win32,60.03121623,5e272cbaddb07c04bd862121,611e07ecdcc96256ae8d5b80,611e7ac123618baab04d6ada,0.5867,
,,,,,,0,128,128,305,1,X, , , , ,,1500,1.5,5e272cbaddb07c04bd862121,001,2021-08-19_16h38.24.832,natb3,2021.2.3,Win32,60.03121623,5e272cbaddb07c04bd862121,611e07ecdcc96256ae8d5b80,611e7ac123618baab04d6ada,,
,,,,space,,0,129,129,247,1,Z, , , , ,space,1500,1.5,5e272cbaddb07c04bd862121,001,2021-08-19_16h38.24.832,natb3,2021.2.3,Win32,60.03121623,5e272cbaddb07c04bd862121,611e07ecdcc96256ae8d5b80,611e7ac123618baab04d6ada,0.4603,
,,,,,,0,130,130,98,1,X, , , , ,,2500,2.5,5e272cbaddb07c04bd862121,001,2021-08-19_16h38.24.832,natb3,2021.2.3,Win32,60.03121623,5e272cbaddb07c04bd862121,611e07ecdcc96256ae8d5b80,611e7ac123618baab04d6ada,,
,,,,space,,0,131,131,34,1,Q, , , , ,space,2500,2.5,5e272cbaddb07c04bd862121,001,2021-08-19_16h38.24.832,natb3,2021.2.3,Win32,60.03121623,5e272cbaddb07c04bd862121,611e07ecdcc96256ae8d5b80,611e7ac123618baab04d6ada,0.5777,
,,,,,,0,132,132,235,1,A, , , , ,space,1500,1.5,5e272cbaddb07c04bd862121,001,2021-08-19_16h38.24.832,natb3,2021.2.3,Win32,60.03121623,5e272cbaddb07c04bd862121,611e07ecdcc96256ae8d5b80,611e7ac123618baab04d6ada,,
,,,,space,,0,133,133,144,1,Q, , , , ,space,2500,2.5,5e272cbaddb07c04bd862121,001,2021-08-19_16h38.24.832,natb3,2021.2.3,Win32,60.03121623,5e272cbaddb07c04bd862121,611e07ecdcc96256ae8d5b80,611e7ac123618baab04d6ada,0.5696,
,,,,space,,0,134,134,334,1,O, , , , ,space,1500,1.5,5e272cbaddb07c04bd862121,001,2021-08-19_16h38.24.832,natb3,2021.2.3,Win32,60.03121623,5e272cbaddb07c04bd862121,611e07ecdcc96256ae8d5b80,611e7ac123618baab04d6ada,0.5015,
,,,,space,,0,135,135,202,1,L, , , , ,space,2500,2.5,5e272cbaddb07c04bd862121,001,2021-08-19_16h38.24.832,natb3,2021.2.3,Win32,60.03121623,5e272cbaddb07c04bd862121,611e07ecdcc96256ae8d5b80,611e7ac123618baab04d6ada,0.4941,
,,,,space,,0,136,136,251,1,B, , , , ,space,1500,1.5,5e272cbaddb07c04bd862121,001,2021-08-19_16h38.24.832,natb3,2021.2.3,Win32,60.03121623,5e272cbaddb07c04bd862121,611e07ecdcc96256ae8d5b80,611e7ac123618baab04d6ada,0.5175,
,,,,space,,0,137,137,316,1,Z, , , , ,space,1500,1.5,5e272cbaddb07c04bd862121,001,2021-08-19_16h38.24.832,natb3,2021.2.3,Win32,60.03121623,5e272cbaddb07c04bd862121,611e07ecdcc96256ae8d5b80,611e7ac123618baab04d6ada,0.6286,
,,,,space,,0,138,138,181,1,E, , , , ,space,1500,1.5,5e272cbaddb07c04bd862121,001,2021-08-19_16h38.24.832,natb3,2021.2.3,Win32,60.03121623,5e272cbaddb07c04bd862121,611e07ecdcc96256ae8d5b80,611e7ac123618baab04d6ada,0.4783,
,,,,space,,0,139,139,123,1,O, , , , ,space,1500,1.5,5e272cbaddb07c04bd862121,001,2021-08-19_16h38.24.832,natb3,2021.2.3,Win32,60.03121623,5e272cbaddb07c04bd862121,611e07ecdcc96256ae8d5b80,611e7ac123618baab04d6ada,0.4472,
,,,,space,,0,140,140,296,1,Y, , , , ,space,2500,2.5,5e272cbaddb07c04bd862121,001,2021-08-19_16h38.24.832,natb3,2021.2.3,Win32,60.03121623,5e272cbaddb07c04bd862121,611e07ecdcc96256ae8d5b80,611e7ac123618baab04d6ada,0.4737,
,,,,space,,0,141,141,127,1,S, , , , ,space,2500,2.5,5e272cbaddb07c04bd862121,001,2021-08-19_16h38.24.832,natb3,2021.2.3,Win32,60.03121623,5e272cbaddb07c04bd862121,611e07ecdcc96256ae8d5b80,611e7ac123618baab04d6ada,0.4423,
,,,,space,,0,142,142,126,1,A, , , , ,space,2500,2.5,5e272cbaddb07c04bd862121,001,2021-08-19_16h38.24.832,natb3,2021.2.3,Win32,60.03121623,5e272cbaddb07c04bd862121,611e07ecdcc96256ae8d5b80,611e7ac123618baab04d6ada,0.4359,
,,,,,,0,143,143,179,1,X, ,9, ,2,,1500,1.5,5e272cbaddb07c04bd862121,001,2021-08-19_16h38.24.832,natb3,2021.2.3,Win32,60.03121623,5e272cbaddb07c04bd862121,611e07ecdcc96256ae8d5b80,611e7ac123618baab04d6ada,,
,,,,space,,0,144,144,56,1,J, , , , ,space,1500,1.5,5e272cbaddb07c04bd862121,001,2021-08-19_16h38.24.832,natb3,2021.2.3,Win32,60.03121623,5e272cbaddb07c04bd862121,611e07ecdcc96256ae8d5b80,611e7ac123618baab04d6ada,0.5526,
,,,,,,0,145,145,191,1,X,1, ,3,4,,2500,2.5,5e272cbaddb07c04bd862121,001,2021-08-19_16h38.24.832,natb3,2021.2.3,Win32,60.03121623,5e272cbaddb07c04bd862121,611e07ecdcc96256ae8d5b80,611e7ac123618baab04d6ada,,
,,,,space,,0,146,146,172,1,C, , , , ,space,1500,1.5,5e272cbaddb07c04bd862121,001,2021-08-19_16h38.24.832,natb3,2021.2.3,Win32,60.03121623,5e272cbaddb07c04bd862121,611e07ecdcc96256ae8d5b80,611e7ac123618baab04d6ada,0.4894,
,,,,space,,0,147,147,269,1,A, , , , ,space,2500,2.5,5e272cbaddb07c04bd862121,001,2021-08-19_16h38.24.832,natb3,2021.2.3,Win32,60.03121623,5e272cbaddb07c04bd862121,611e07ecdcc96256ae8d5b80,611e7ac123618baab04d6ada,0.4593,
,,,,space,,0,148,148,290,1,W, , , , ,space,1500,1.5,5e272cbaddb07c04bd862121,001,2021-08-19_16h38.24.832,natb3,2021.2.3,Win32,60.03121623,5e272cbaddb07c04bd862121,611e07ecdcc96256ae8d5b80,611e7ac123618baab04d6ada,0.5649,
,,,,space,,0,149,149,62,1,V, , , , ,space,1500,1.5,5e272cbaddb07c04bd862121,001,2021-08-19_16h38.24.832,natb3,2021.2.3,Win32,60.03121623,5e272cbaddb07c04bd862121,611e07ecdcc96256ae8d5b80,611e7ac123618baab04d6ada,0.4658,
,,,,space,,0,150,150,173,1,V, , , , ,space,1500,1.5,5e272cbaddb07c04bd862121,001,2021-08-19_16h38.24.832,natb3,2021.2.3,Win32,60.03121623,5e272cbaddb07c04bd862121,611e07ecdcc96256ae8d5b80,611e7ac123618baab04d6ada,0.4351,
,,,,space,,0,151,151,256,1,Q, , , , ,space,2000,2,5e272cbaddb07c04bd862121,001,2021-08-19_16h38.24.832,natb3,2021.2.3,Win32,60.03121623,5e272cbaddb07c04bd862121,611e07ecdcc96256ae8d5b80,611e7ac123618baab04d6ada,0.4564,
,,,,space,,0,152,152,292,1,E, , , , ,space,2000,2,5e272cbaddb07c04bd862121,001,2021-08-19_16h38.24.832,natb3,2021.2.3,Win32,60.03121623,5e272cbaddb07c04bd862121,611e07ecdcc96256ae8d5b80,611e7ac123618baab04d6ada,0.4458,
,,,,space,,0,153,153,95,1,V, , , , ,space,1500,1.5,5e272cbaddb07c04bd862121,001,2021-08-19_16h38.24.832,natb3,2021.2.3,Win32,60.03121623,5e272cbaddb07c04bd862121,611e07ecdcc96256ae8d5b80,611e7ac123618baab04d6ada,0.4642,
,,,,space,,0,154,154,9,1,I, , , , ,space,1500,1.5,5e272cbaddb07c04bd862121,001,2021-08-19_16h38.24.832,natb3,2021.2.3,Win32,60.03121623,5e272cbaddb07c04bd862121,611e07ecdcc96256ae8d5b80,611e7ac123618baab04d6ada,0.4878,
,,,,,,0,155,155,69,1,X, , , , ,,1500,1.5,5e272cbaddb07c04bd862121,001,2021-08-19_16h38.24.832,natb3,2021.2.3,Win32,60.03121623,5e272cbaddb07c04bd862121,611e07ecdcc96256ae8d5b80,611e7ac123618baab04d6ada,,
,,,,space,,0,156,156,149,1,R, , , , ,space,2000,2,5e272cbaddb07c04bd862121,001,2021-08-19_16h38.24.832,natb3,2021.2.3,Win32,60.03121623,5e272cbaddb07c04bd862121,611e07ecdcc96256ae8d5b80,611e7ac123618baab04d6ada,0.5609,
,,,,space,,0,157,157,21,1,J, , , , ,space,1500,1.5,5e272cbaddb07c04bd862121,001,2021-08-19_16h38.24.832,natb3,2021.2.3,Win32,60.03121623,5e272cbaddb07c04bd862121,611e07ecdcc96256ae8d5b80,611e7ac123618baab04d6ada,0.8624,
,,,,space,,0,158,158,159,1,S, , , , ,space,2500,2.5,5e272cbaddb07c04bd862121,001,2021-08-19_16h38.24.832,natb3,2021.2.3,Win32,60.03121623,5e272cbaddb07c04bd862121,611e07ecdcc96256ae8d5b80,611e7ac123618baab04d6ada,0.4633,
,,,,space,,0,159,159,94,1,C, , , , ,space,2000,2,5e272cbaddb07c04bd862121,001,2021-08-19_16h38.24.832,natb3,2021.2.3,Win32,60.03121623,5e272cbaddb07c04bd862121,611e07ecdcc96256ae8d5b80,611e7ac123618baab04d6ada,0.5565,
,,,,space,,0,160,160,297,1,U, , , , ,space,2000,2,5e272cbaddb07c04bd862121,001,2021-08-19_16h38.24.832,natb3,2021.2.3,Win32,60.03121623,5e272cbaddb07c04bd862121,611e07ecdcc96256ae8d5b80,611e7ac123618baab04d6ada,0.478,
,,,,space,,0,161,161,330,1,T, , , , ,space,2500,2.5,5e272cbaddb07c04bd862121,001,2021-08-19_16h38.24.832,natb3,2021.2.3,Win32,60.03121623,5e272cbaddb07c04bd862121,611e07ecdcc96256ae8d5b80,611e7ac123618baab04d6ada,0.439,
,,,,,,0,162,162,138,1,X,8,5, ,3,,2000,2,5e272cbaddb07c04bd862121,001,2021-08-19_16h38.24.832,natb3,2021.2.3,Win32,60.03121623,5e272cbaddb07c04bd862121,611e07ecdcc96256ae8d5b80,611e7ac123618baab04d6ada,,
,,,,space,,0,163,163,206,1,V, , , , ,space,2000,2,5e272cbaddb07c04bd862121,001,2021-08-19_16h38.24.832,natb3,2021.2.3,Win32,60.03121623,5e272cbaddb07c04bd862121,611e07ecdcc96256ae8d5b80,611e7ac123618baab04d6ada,0.4989,
,,,,,,0,164,164,93,1,X,5, ,7, ,,2500,2.5,5e272cbaddb07c04bd862121,001,2021-08-19_16h38.24.832,natb3,2021.2.3,Win32,60.03121623,5e272cbaddb07c04bd862121,611e07ecdcc96256ae8d5b80,611e7ac123618baab04d6ada,,
,,,,space,,0,165,165,3,1,R, , , , ,space,2000,2,5e272cbaddb07c04bd862121,001,2021-08-19_16h38.24.832,natb3,2021.2.3,Win32,60.03121623,5e272cbaddb07c04bd862121,611e07ecdcc96256ae8d5b80,611e7ac123618baab04d6ada,0.4673,
,,,,space,,0,166,166,167,1,K, , , , ,space,1500,1.5,5e272cbaddb07c04bd862121,001,2021-08-19_16h38.24.832,natb3,2021.2.3,Win32,60.03121623,5e272cbaddb07c04bd862121,611e07ecdcc96256ae8d5b80,611e7ac123618baab04d6ada,0.5329,
,,,,,space,0,167,167,66,1,X, ,4,7, ,,2000,2,5e272cbaddb07c04bd862121,001,2021-08-19_16h38.24.832,natb3,2021.2.3,Win32,60.03121623,5e272cbaddb07c04bd862121,611e07ecdcc96256ae8d5b80,611e7ac123618baab04d6ada,,338.6776
,,,,space,,0,168,168,83,1,D, , , , ,space,2000,2,5e272cbaddb07c04bd862121,001,2021-08-19_16h38.24.832,natb3,2021.2.3,Win32,60.03121623,5e272cbaddb07c04bd862121,611e07ecdcc96256ae8d5b80,611e7ac123618baab04d6ada,0.5853,
,,,,space,,0,169,169,87,1,H, , , , ,space,1500,1.5,5e272cbaddb07c04bd862121,001,2021-08-19_16h38.24.832,natb3,2021.2.3,Win32,60.03121623,5e272cbaddb07c04bd862121,611e07ecdcc96256ae8d5b80,611e7ac123618baab04d6ada,0.4732,
,,,,,,0,170,170,322,1,X, , ,1,6,,2000,2,5e272cbaddb07c04bd862121,001,2021-08-19_16h38.24.832,natb3,2021.2.3,Win32,60.03121623,5e272cbaddb07c04bd862121,611e07ecdcc96256ae8d5b80,611e7ac123618baab04d6ada,,
,,,,,,0,171,171,273,1,X, , , , ,,2000,2,5e272cbaddb07c04bd862121,001,2021-08-19_16h38.24.832,natb3,2021.2.3,Win32,60.03121623,5e272cbaddb07c04bd862121,611e07ecdcc96256ae8d5b80,611e7ac123618baab04d6ada,,
,,,,space,,0,172,172,143,1,M, , , , ,space,2500,2.5,5e272cbaddb07c04bd862121,001,2021-08-19_16h38.24.832,natb3,2021.2.3,Win32,60.03121623,5e272cbaddb07c04bd862121,611e07ecdcc96256ae8d5b80,611e7ac123618baab04d6ada,0.5296,
,,,,space,,0,173,173,266,1,O, , , , ,space,1500,1.5,5e272cbaddb07c04bd862121,001,2021-08-19_16h38.24.832,natb3,2021.2.3,Win32,60.03121623,5e272cbaddb07c04bd862121,611e07ecdcc96256ae8d5b80,611e7ac123618baab04d6ada,0.5117,
,,,,space,,0,174,174,257,1,W, , , , ,space,2000,2,5e272cbaddb07c04bd862121,001,2021-08-19_16h38.24.832,natb3,2021.2.3,Win32,60.03121623,5e272cbaddb07c04bd862121,611e07ecdcc96256ae8d5b80,611e7ac123618baab04d6ada,0.4667,
,,,,,,0,175,175,203,1,X, , , , ,,2500,2.5,5e272cbaddb07c04bd862121,001,2021-08-19_16h38.24.832,natb3,2021.2.3,Win32,60.03121623,5e272cbaddb07c04bd862121,611e07ecdcc96256ae8d5b80,611e7ac123618baab04d6ada,,
,,,,,,0,176,176,74,1,X, ,4,3,2,,1500,1.5,5e272cbaddb07c04bd862121,001,2021-08-19_16h38.24.832,natb3,2021.2.3,Win32,60.03121623,5e272cbaddb07c04bd862121,611e07ecdcc96256ae8d5b80,611e7ac123618baab04d6ada,,
,,,,space,,0,177,177,222,1,O, , , , ,space,2000,2,5e272cbaddb07c04bd862121,001,2021-08-19_16h38.24.832,natb3,2021.2.3,Win32,60.03121623,5e272cbaddb07c04bd862121,611e07ecdcc96256ae8d5b80,611e7ac123618baab04d6ada,0.4709,
,,,,space,,0,178,178,70,1,E, , , , ,space,2500,2.5,5e272cbaddb07c04bd862121,001,2021-08-19_16h38.24.832,natb3,2021.2.3,Win32,60.03121623,5e272cbaddb07c04bd862121,611e07ecdcc96256ae8d5b80,611e7ac123618baab04d6ada,0.5683,
,,,,space,,0,179,179,270,1,S, , , , ,space,1500,1.5,5e272cbaddb07c04bd862121,001,2021-08-19_16h38.24.832,natb3,2021.2.3,Win32,60.03121623,5e272cbaddb07c04bd862121,611e07ecdcc96256ae8d5b80,611e7ac123618baab04d6ada,0.524,
,,,,,,0,180,180,233,1,X, ,2, ,5,,1500,1.5,5e272cbaddb07c04bd862121,001,2021-08-19_16h38.24.832,natb3,2021.2.3,Win32,60.03121623,5e272cbaddb07c04bd862121,611e07ecdcc96256ae8d5b80,611e7ac123618baab04d6ada,,
,,,,space,,0,181,181,19,1,G, , , , ,space,1500,1.5,5e272cbaddb07c04bd862121,001,2021-08-19_16h38.24.832,natb3,2021.2.3,Win32,60.03121623,5e272cbaddb07c04bd862121,611e07ecdcc96256ae8d5b80,611e7ac123618baab04d6ada,0.4304,
,,,,space,,0,182,182,161,1,F, , , , ,space,1500,1.5,5e272cbaddb07c04bd862121,001,2021-08-19_16h38.24.832,natb3,2021.2.3,Win32,60.03121623,5e272cbaddb07c04bd862121,611e07ecdcc96256ae8d5b80,611e7ac123618baab04d6ada,0.4992,
,,,,space,,0,183,183,40,1,T, , , , ,space,1500,1.5,5e272cbaddb07c04bd862121,001,2021-08-19_16h38.24.832,natb3,2021.2.3,Win32,60.03121623,5e272cbaddb07c04bd862121,611e07ecdcc96256ae8d5b80,611e7ac123618baab04d6ada,0.4824,
,,,,,,0,184,184,263,1,X,4, ,6, ,,1500,1.5,5e272cbaddb07c04bd862121,001,2021-08-19_16h38.24.832,natb3,2021.2.3,Win32,60.03121623,5e272cbaddb07c04bd862121,611e07ecdcc96256ae8d5b80,611e7ac123618baab04d6ada,,
,,,,space,,0,185,185,37,1,E, , , , ,space,2500,2.5,5e272cbaddb07c04bd862121,001,2021-08-19_16h38.24.832,natb3,2021.2.3,Win32,60.03121623,5e272cbaddb07c04bd862121,611e07ecdcc96256ae8d5b80,611e7ac123618baab04d6ada,0.525,
,,,,space,,0,186,186,154,1,I, , , , ,space,2500,2.5,5e272cbaddb07c04bd862121,001,2021-08-19_16h38.24.832,natb3,2021.2.3,Win32,60.03121623,5e272cbaddb07c04bd862121,611e07ecdcc96256ae8d5b80,611e7ac123618baab04d6ada,0.5394,
,,,,space,,0,187,187,193,1,S, , , , ,space,2500,2.5,5e272cbaddb07c04bd862121,001,2021-08-19_16h38.24.832,natb3,2021.2.3,Win32,60.03121623,5e272cbaddb07c04bd862121,611e07ecdcc96256ae8d5b80,611e7ac123618baab04d6ada,0.5621,
,,,,,,0,188,188,43,1,X, ,6, ,2,,2500,2.5,5e272cbaddb07c04bd862121,001,2021-08-19_16h38.24.832,natb3,2021.2.3,Win32,60.03121623,5e272cbaddb07c04bd862121,611e07ecdcc96256ae8d5b80,611e7ac123618baab04d6ada,,
,,,,space,,0,189,189,113,1,W, , , , ,space,2500,2.5,5e272cbaddb07c04bd862121,001,2021-08-19_16h38.24.832,natb3,2021.2.3,Win32,60.03121623,5e272cbaddb07c04bd862121,611e07ecdcc96256ae8d5b80,611e7ac123618baab04d6ada,0.5943,
,,,,,,0,190,190,23,1,X,1, ,5, ,,2000,2,5e272cbaddb07c04bd862121,001,2021-08-19_16h38.24.832,natb3,2021.2.3,Win32,60.03121623,5e272cbaddb07c04bd862121,611e07ecdcc96256ae8d5b80,611e7ac123618baab04d6ada,,
,,,,,,0,191,191,282,1,X, , , , ,,2500,2.5,5e272cbaddb07c04bd862121,001,2021-08-19_16h38.24.832,natb3,2021.2.3,Win32,60.03121623,5e272cbaddb07c04bd862121,611e07ecdcc96256ae8d5b80,611e7ac123618baab04d6ada,,
,,,,space,,0,192,192,52,1,F, , , , ,space,1500,1.5,5e272cbaddb07c04bd862121,001,2021-08-19_16h38.24.832,natb3,2021.2.3,Win32,60.03121623,5e272cbaddb07c04bd862121,611e07ecdcc96256ae8d5b80,611e7ac123618baab04d6ada,0.5071,
,,,,space,,0,193,193,303,1,A, , , , ,space,2000,2,5e272cbaddb07c04bd862121,001,2021-08-19_16h38.24.832,natb3,2021.2.3,Win32,60.03121623,5e272cbaddb07c04bd862121,611e07ecdcc96256ae8d5b80,611e7ac123618baab04d6ada,0.4776,
,,,,,,0,194,194,158,1,X, , , , ,,1500,1.5,5e272cbaddb07c04bd862121,001,2021-08-19_16h38.24.832,natb3,2021.2.3,Win32,60.03121623,5e272cbaddb07c04bd862121,611e07ecdcc96256ae8d5b80,611e7ac123618baab04d6ada,,
,,,,,,0,195,195,255,1,X, , , , ,,1500,1.5,5e272cbaddb07c04bd862121,001,2021-08-19_16h38.24.832,natb3,2021.2.3,Win32,60.03121623,5e272cbaddb07c04bd862121,611e07ecdcc96256ae8d5b80,611e7ac123618baab04d6ada,,
,,,,,,0,196,196,182,1,X, , , , ,,1500,1.5,5e272cbaddb07c04bd862121,001,2021-08-19_16h38.24.832,natb3,2021.2.3,Win32,60.03121623,5e272cbaddb07c04bd862121,611e07ecdcc96256ae8d5b80,611e7ac123618baab04d6ada,,
,,,,,,0,197,197,162,1,X,1,6, ,2,,1500,1.5,5e272cbaddb07c04bd862121,001,2021-08-19_16h38.24.832,natb3,2021.2.3,Win32,60.03121623,5e272cbaddb07c04bd862121,611e07ecdcc96256ae8d5b80,611e7ac123618baab04d6ada,,
,,,,space,,0,198,198,327,1,E, , , , ,space,1500,1.5,5e272cbaddb07c04bd862121,001,2021-08-19_16h38.24.832,natb3,2021.2.3,Win32,60.03121623,5e272cbaddb07c04bd862121,611e07ecdcc96256ae8d5b80,611e7ac123618baab04d6ada,0.7892,
,,,,space,,0,199,199,147,1,E, , , , ,space,2000,2,5e272cbaddb07c04bd862121,001,2021-08-19_16h38.24.832,natb3,2021.2.3,Win32,60.03121623,5e272cbaddb07c04bd862121,611e07ecdcc96256ae8d5b80,611e7ac123618baab04d6ada,0.5672,
,,,,,,0,200,200,7,1,X, , , , ,,1500,1.5,5e272cbaddb07c04bd862121,001,2021-08-19_16h38.24.832,natb3,2021.2.3,Win32,60.03121623,5e272cbaddb07c04bd862121,611e07ecdcc96256ae8d5b80,611e7ac123618baab04d6ada,,
,,,,,,0,201,201,51,1,X,7,5,8, ,,1500,1.5,5e272cbaddb07c04bd862121,001,2021-08-19_16h38.24.832,natb3,2021.2.3,Win32,60.03121623,5e272cbaddb07c04bd862121,611e07ecdcc96256ae8d5b80,611e7ac123618baab04d6ada,,
,,,,,,0,202,202,271,1,X, , , , ,,2500,2.5,5e272cbaddb07c04bd862121,001,2021-08-19_16h38.24.832,natb3,2021.2.3,Win32,60.03121623,5e272cbaddb07c04bd862121,611e07ecdcc96256ae8d5b80,611e7ac123618baab04d6ada,,
,,,,space,,0,203,203,225,1,E, , , , ,space,2000,2,5e272cbaddb07c04bd862121,001,2021-08-19_16h38.24.832,natb3,2021.2.3,Win32,60.03121623,5e272cbaddb07c04bd862121,611e07ecdcc96256ae8d5b80,611e7ac123618baab04d6ada,0.6356,
,,,,space,,0,204,204,321,1,N, , , , ,space,2000,2,5e272cbaddb07c04bd862121,001,2021-08-19_16h38.24.832,natb3,2021.2.3,Win32,60.03121623,5e272cbaddb07c04bd862121,611e07ecdcc96256ae8d5b80,611e7ac123618baab04d6ada,0.5851,
,,,,,,0,205,205,18,1,X, ,2,5,8,,2500,2.5,5e272cbaddb07c04bd862121,001,2021-08-19_16h38.24.832,natb3,2021.2.3,Win32,60.03121623,5e272cbaddb07c04bd862121,611e07ecdcc96256ae8d5b80,611e7ac123618baab04d6ada,,
,,,,space,,0,206,206,79,1,P, , , , ,space,2000,2,5e272cbaddb07c04bd862121,001,2021-08-19_16h38.24.832,natb3,2021.2.3,Win32,60.03121623,5e272cbaddb07c04bd862121,611e07ecdcc96256ae8d5b80,611e7ac123618baab04d6ada,0.5243,
,,,,space,,0,207,207,150,1,T, , , , ,space,2500,2.5,5e272cbaddb07c04bd862121,001,2021-08-19_16h38.24.832,natb3,2021.2.3,Win32,60.03121623,5e272cbaddb07c04bd862121,611e07ecdcc96256ae8d5b80,611e7ac123618baab04d6ada,0.5719,
,,,,space,,0,208,208,223,1,Q, , , , ,space,2000,2,5e272cbaddb07c04bd862121,001,2021-08-19_16h38.24.832,natb3,2021.2.3,Win32,60.03121623,5e272cbaddb07c04bd862121,611e07ecdcc96256ae8d5b80,611e7ac123618baab04d6ada,0.5395,
,,,,,,0,209,209,39,1,X,6,2, , ,,1500,1.5,5e272cbaddb07c04bd862121,001,2021-08-19_16h38.24.832,natb3,2021.2.3,Win32,60.03121623,5e272cbaddb07c04bd862121,611e07ecdcc96256ae8d5b80,611e7ac123618baab04d6ada,,
,,,,space,,0,210,210,279,1,K, , , , ,space,2500,2.5,5e272cbaddb07c04bd862121,001,2021-08-19_16h38.24.832,natb3,2021.2.3,Win32,60.03121623,5e272cbaddb07c04bd862121,611e07ecdcc96256ae8d5b80,611e7ac123618baab04d6ada,0.6043,
,,,,space,,0,211,211,192,1,A, , , , ,space,2000,2,5e272cbaddb07c04bd862121,001,2021-08-19_16h38.24.832,natb3,2021.2.3,Win32,60.03121623,5e272cbaddb07c04bd862121,611e07ecdcc96256ae8d5b80,611e7ac123618baab04d6ada,0.5659,
,,,,space,,0,212,212,249,1,C, , , , ,space,2000,2,5e272cbaddb07c04bd862121,001,2021-08-19_16h38.24.832,natb3,2021.2.3,Win32,60.03121623,5e272cbaddb07c04bd862121,611e07ecdcc96256ae8d5b80,611e7ac123618baab04d6ada,0.5174,
,,,,space,,0,213,213,217,1,T, , , , ,space,2500,2.5,5e272cbaddb07c04bd862121,001,2021-08-19_16h38.24.832,natb3,2021.2.3,Win32,60.03121623,5e272cbaddb07c04bd862121,611e07ecdcc96256ae8d5b80,611e7ac123618baab04d6ada,0.5165,
,,,,space,,0,214,214,25,1,Z, , , , ,space,2500,2.5,5e272cbaddb07c04bd862121,001,2021-08-19_16h38.24.832,natb3,2021.2.3,Win32,60.03121623,5e272cbaddb07c04bd862121,611e07ecdcc96256ae8d5b80,611e7ac123618baab04d6ada,0.9625,
,,,,space,,0,215,215,177,1,M, , , , ,space,2500,2.5,5e272cbaddb07c04bd862121,001,2021-08-19_16h38.24.832,natb3,2021.2.3,Win32,60.03121623,5e272cbaddb07c04bd862121,611e07ecdcc96256ae8d5b80,611e7ac123618baab04d6ada,0.6164,
,,,,space,,0,216,216,29,1,B, , , , ,space,1500,1.5,5e272cbaddb07c04bd862121,001,2021-08-19_16h38.24.832,natb3,2021.2.3,Win32,60.03121623,5e272cbaddb07c04bd862121,611e07ecdcc96256ae8d5b80,611e7ac123618baab04d6ada,0.5794,
,,,,,,0,217,217,153,1,X,4,7, ,6,,2000,2,5e272cbaddb07c04bd862121,001,2021-08-19_16h38.24.832,natb3,2021.2.3,Win32,60.03121623,5e272cbaddb07c04bd862121,611e07ecdcc96256ae8d5b80,611e7ac123618baab04d6ada,,
,,,,,,0,218,218,248,1,X, ,1,5, ,,1500,1.5,5e272cbaddb07c04bd862121,001,2021-08-19_16h38.24.832,natb3,2021.2.3,Win32,60.03121623,5e272cbaddb07c04bd862121,611e07ecdcc96256ae8d5b80,611e7ac123618baab04d6ada,,
,,,,space,,0,219,219,64,1,N, , , , ,space,2000,2,5e272cbaddb07c04bd862121,001,2021-08-19_16h38.24.832,natb3,2021.2.3,Win32,60.03121623,5e272cbaddb07c04bd862121,611e07ecdcc96256ae8d5b80,611e7ac123618baab04d6ada,0.6069,
,,,,space,,0,220,220,136,1,Z, , , , ,space,2500,2.5,5e272cbaddb07c04bd862121,001,2021-08-19_16h38.24.832,natb3,2021.2.3,Win32,60.03121623,5e272cbaddb07c04bd862121,611e07ecdcc96256ae8d5b80,611e7ac123618baab04d6ada,0.803,
,,,,space,,0,221,221,85,1,F, , , , ,space,2500,2.5,5e272cbaddb07c04bd862121,001,2021-08-19_16h38.24.832,natb3,2021.2.3,Win32,60.03121623,5e272cbaddb07c04bd862121,611e07ecdcc96256ae8d5b80,611e7ac123618baab04d6ada,0.5418,
,,,,space,,0,222,222,6,1,Y, , , , ,space,2500,2.5,5e272cbaddb07c04bd862121,001,2021-08-19_16h38.24.832,natb3,2021.2.3,Win32,60.03121623,5e272cbaddb07c04bd862121,611e07ecdcc96256ae8d5b80,611e7ac123618baab04d6ada,0.5882,
,,,,,,0,223,223,84,1,X, , , , ,,2000,2,5e272cbaddb07c04bd862121,001,2021-08-19_16h38.24.832,natb3,2021.2.3,Win32,60.03121623,5e272cbaddb07c04bd862121,611e07ecdcc96256ae8d5b80,611e7ac123618baab04d6ada,,
,,,,,,0,224,224,268,1,X,6, ,3, ,,2500,2.5,5e272cbaddb07c04bd862121,001,2021-08-19_16h38.24.832,natb3,2021.2.3,Win32,60.03121623,5e272cbaddb07c04bd862121,611e07ecdcc96256ae8d5b80,611e7ac123618baab04d6ada,,
,,,,,,0,225,225,325,1,X, , , , ,,2500,2.5,5e272cbaddb07c04bd862121,001,2021-08-19_16h38.24.832,natb3,2021.2.3,Win32,60.03121623,5e272cbaddb07c04bd862121,611e07ecdcc96256ae8d5b80,611e7ac123618baab04d6ada,,
,,,,,,0,226,226,12,1,X, , , , ,,1500,1.5,5e272cbaddb07c04bd862121,001,2021-08-19_16h38.24.832,natb3,2021.2.3,Win32,60.03121623,5e272cbaddb07c04bd862121,611e07ecdcc96256ae8d5b80,611e7ac123618baab04d6ada,,
,,,,space,,0,227,227,214,1,W, , , , ,space,2000,2,5e272cbaddb07c04bd862121,001,2021-08-19_16h38.24.832,natb3,2021.2.3,Win32,60.03121623,5e272cbaddb07c04bd862121,611e07ecdcc96256ae8d5b80,611e7ac123618baab04d6ada,0.6322,
,,,,space,,0,228,228,65,1,M, , , , ,space,1500,1.5,5e272cbaddb07c04bd862121,001,2021-08-19_16h38.24.832,natb3,2021.2.3,Win32,60.03121623,5e272cbaddb07c04bd862121,611e07ecdcc96256ae8d5b80,611e7ac123618baab04d6ada,0.5778,
,,,,,,0,229,229,89,1,X,3, , , ,,2000,2,5e272cbaddb07c04bd862121,001,2021-08-19_16h38.24.832,natb3,2021.2.3,Win32,60.03121623,5e272cbaddb07c04bd862121,611e07ecdcc96256ae8d5b80,611e7ac123618baab04d6ada,,
,,,,space,,0,230,230,59,1,Z, , , , ,space,2000,2,5e272cbaddb07c04bd862121,001,2021-08-19_16h38.24.832,natb3,2021.2.3,Win32,60.03121623,5e272cbaddb07c04bd862121,611e07ecdcc96256ae8d5b80,611e7ac123618baab04d6ada,0.5296,
,,,,space,,0,231,231,275,1,G, , , , ,space,1500,1.5,5e272cbaddb07c04bd862121,001,2021-08-19_16h38.24.832,natb3,2021.2.3,Win32,60.03121623,5e272cbaddb07c04bd862121,611e07ecdcc96256ae8d5b80,611e7ac123618baab04d6ada,0.505,
,,,,space,,0,232,232,246,1,L, , , , ,space,2500,2.5,5e272cbaddb07c04bd862121,001,2021-08-19_16h38.24.832,natb3,2021.2.3,Win32,60.03121623,5e272cbaddb07c04bd862121,611e07ecdcc96256ae8d5b80,611e7ac123618baab04d6ada,0.489,
,,,,space,,0,233,233,112,1,Q, , , , ,space,2500,2.5,5e272cbaddb07c04bd862121,001,2021-08-19_16h38.24.832,natb3,2021.2.3,Win32,60.03121623,5e272cbaddb07c04bd862121,611e07ecdcc96256ae8d5b80,611e7ac123618baab04d6ada,0.4563,
,,,,space,,0,234,234,44,1,I, , , , ,space,2500,2.5,5e272cbaddb07c04bd862121,001,2021-08-19_16h38.24.832,natb3,2021.2.3,Win32,60.03121623,5e272cbaddb07c04bd862121,611e07ecdcc96256ae8d5b80,611e7ac123618baab04d6ada,0.4728,
,,,,space,,0,235,235,240,1,F, , , , ,space,2500,2.5,5e272cbaddb07c04bd862121,001,2021-08-19_16h38.24.832,natb3,2021.2.3,Win32,60.03121623,5e272cbaddb07c04bd862121,611e07ecdcc96256ae8d5b80,611e7ac123618baab04d6ada,0.4994,
,,,,space,,0,236,236,304,1,S, , , , ,space,2000,2,5e272cbaddb07c04bd862121,001,2021-08-19_16h38.24.832,natb3,2021.2.3,Win32,60.03121623,5e272cbaddb07c04bd862121,611e07ecdcc96256ae8d5b80,611e7ac123618baab04d6ada,0.5412,
,,,,space,,0,237,237,36,1,W, , , , ,space,2000,2,5e272cbaddb07c04bd862121,001,2021-08-19_16h38.24.832,natb3,2021.2.3,Win32,60.03121623,5e272cbaddb07c04bd862121,611e07ecdcc96256ae8d5b80,611e7ac123618baab04d6ada,0.4235,
,,,,space,,0,238,238,307,1,F, , , , ,space,2500,2.5,5e272cbaddb07c04bd862121,001,2021-08-19_16h38.24.832,natb3,2021.2.3,Win32,60.03121623,5e272cbaddb07c04bd862121,611e07ecdcc96256ae8d5b80,611e7ac123618baab04d6ada,0.5222,
,,,,space,,0,239,239,20,1,H, , , , ,space,1500,1.5,5e272cbaddb07c04bd862121,001,2021-08-19_16h38.24.832,natb3,2021.2.3,Win32,60.03121623,5e272cbaddb07c04bd862121,611e07ecdcc96256ae8d5b80,611e7ac123618baab04d6ada,0.4887,
,,,,space,,0,240,240,142,1,N, , , , ,space,2500,2.5,5e272cbaddb07c04bd862121,001,2021-08-19_16h38.24.832,natb3,2021.2.3,Win32,60.03121623,5e272cbaddb07c04bd862121,611e07ecdcc96256ae8d5b80,611e7ac123618baab04d6ada,0.5365,
,,,,space,,0,241,241,111,1,O, , , , ,space,2000,2,5e272cbaddb07c04bd862121,001,2021-08-19_16h38.24.832,natb3,2021.2.3,Win32,60.03121623,5e272cbaddb07c04bd862121,611e07ecdcc96256ae8d5b80,611e7ac123618baab04d6ada,0.4426,
,,,,,,0,242,242,54,1,X, , , , ,,2000,2,5e272cbaddb07c04bd862121,001,2021-08-19_16h38.24.832,natb3,2021.2.3,Win32,60.03121623,5e272cbaddb07c04bd862121,611e07ecdcc96256ae8d5b80,611e7ac123618baab04d6ada,,
,,,,space,,0,243,243,216,1,R, , , , ,space,1500,1.5,5e272cbaddb07c04bd862121,001,2021-08-19_16h38.24.832,natb3,2021.2.3,Win32,60.03121623,5e272cbaddb07c04bd862121,611e07ecdcc96256ae8d5b80,611e7ac123618baab04d6ada,0.4445,
,,,,space,,0,244,244,272,1,D, , , , ,space,2000,2,5e272cbaddb07c04bd862121,001,2021-08-19_16h38.24.832,natb3,2021.2.3,Win32,60.03121623,5e272cbaddb07c04bd862121,611e07ecdcc96256ae8d5b80,611e7ac123618baab04d6ada,0.4661,
,,,,,,0,245,245,277,1,X,8,5, ,2,,2000,2,5e272cbaddb07c04bd862121,001,2021-08-19_16h38.24.832,natb3,2021.2.3,Win32,60.03121623,5e272cbaddb07c04bd862121,611e07ecdcc96256ae8d5b80,611e7ac123618baab04d6ada,,
,,,,space,,0,246,246,265,1,I, , , , ,space,2000,2,5e272cbaddb07c04bd862121,001,2021-08-19_16h38.24.832,natb3,2021.2.3,Win32,60.03121623,5e272cbaddb07c04bd862121,611e07ecdcc96256ae8d5b80,611e7ac123618baab04d6ada,0.5252,
,,,,space,,0,247,247,231,1,I, , , , ,space,2500,2.5,5e272cbaddb07c04bd862121,001,2021-08-19_16h38.24.832,natb3,2021.2.3,Win32,60.03121623,5e272cbaddb07c04bd862121,611e07ecdcc96256ae8d5b80,611e7ac123618baab04d6ada,0.5182,
,,,,space,,0,248,248,186,1,U, , , , ,space,2500,2.5,5e272cbaddb07c04bd862121,001,2021-08-19_16h38.24.832,natb3,2021.2.3,Win32,60.03121623,5e272cbaddb07c04bd862121,611e07ecdcc96256ae8d5b80,611e7ac123618baab04d6ada,0.6757,
,,,,space,,0,249,249,308,1,G, , , , ,space,1500,1.5,5e272cbaddb07c04bd862121,001,2021-08-19_16h38.24.832,natb3,2021.2.3,Win32,60.03121623,5e272cbaddb07c04bd862121,611e07ecdcc96256ae8d5b80,611e7ac123618baab04d6ada,0.5888,
,,,,space,,0,250,250,306,1,D, , , , ,space,2000,2,5e272cbaddb07c04bd862121,001,2021-08-19_16h38.24.832,natb3,2021.2.3,Win32,60.03121623,5e272cbaddb07c04bd862121,611e07ecdcc96256ae8d5b80,611e7ac123618baab04d6ada,0.4528,
,,,,space,,0,251,251,49,1,S, , , , ,space,1500,1.5,5e272cbaddb07c04bd862121,001,2021-08-19_16h38.24.832,natb3,2021.2.3,Win32,60.03121623,5e272cbaddb07c04bd862121,611e07ecdcc96256ae8d5b80,611e7ac123618baab04d6ada,0.4223,
,,,,,,0,252,252,335,1,P,,,,,space,1500,1.5,5e272cbaddb07c04bd862121,001,2021-08-19_16h38.24.832,natb3,2021.2.3,Win32,60.03121623,5e272cbaddb07c04bd862121,611e07ecdcc96256ae8d5b80,611e7ac123618baab04d6ada,,
,,,,space,,0,253,253,283,1,C, , , , ,space,1500,1.5,5e272cbaddb07c04bd862121,001,2021-08-19_16h38.24.832,natb3,2021.2.3,Win32,60.03121623,5e272cbaddb07c04bd862121,611e07ecdcc96256ae8d5b80,611e7ac123618baab04d6ada,0.0662,
,,,,,,0,254,254,183,1,R, , , , ,space,1500,1.5,5e272cbaddb07c04bd862121,001,2021-08-19_16h38.24.832,natb3,2021.2.3,Win32,60.03121623,5e272cbaddb07c04bd862121,611e07ecdcc96256ae8d5b80,611e7ac123618baab04d6ada,,
,,,,space,,0,255,255,110,1,I, , , , ,space,1500,1.5,5e272cbaddb07c04bd862121,001,2021-08-19_16h38.24.832,natb3,2021.2.3,Win32,60.03121623,5e272cbaddb07c04bd862121,611e07ecdcc96256ae8d5b80,611e7ac123618baab04d6ada,0.497,
,,,,space,,0,256,256,289,1,Q, , , , ,space,2000,2,5e272cbaddb07c04bd862121,001,2021-08-19_16h38.24.832,natb3,2021.2.3,Win32,60.03121623,5e272cbaddb07c04bd862121,611e07ecdcc96256ae8d5b80,611e7ac123618baab04d6ada,0.517,
,,,,space,,0,257,257,155,1,O, , , , ,space,1500,1.5,5e272cbaddb07c04bd862121,001,2021-08-19_16h38.24.832,natb3,2021.2.3,Win32,60.03121623,5e272cbaddb07c04bd862121,611e07ecdcc96256ae8d5b80,611e7ac123618baab04d6ada,0.4826,
,,,,space,,0,258,258,80,1,A, , , , ,space,2000,2,5e272cbaddb07c04bd862121,001,2021-08-19_16h38.24.832,natb3,2021.2.3,Win32,60.03121623,5e272cbaddb07c04bd862121,611e07ecdcc96256ae8d5b80,611e7ac123618baab04d6ada,0.5518,
,,,,space,,0,259,259,13,1,A, , , , ,space,2000,2,5e272cbaddb07c04bd862121,001,2021-08-19_16h38.24.832,natb3,2021.2.3,Win32,60.03121623,5e272cbaddb07c04bd862121,611e07ecdcc96256ae8d5b80,611e7ac123618baab04d6ada,0.4743,
,,,,,,0,260,260,252,1,X,3, ,6,9,,2000,2,5e272cbaddb07c04bd862121,001,2021-08-19_16h38.24.832,natb3,2021.2.3,Win32,60.03121623,5e272cbaddb07c04bd862121,611e07ecdcc96256ae8d5b80,611e7ac123618baab04d6ada,,
,,,,space,,0,261,261,77,1,O, , , , ,space,2000,2,5e272cbaddb07c04bd862121,001,2021-08-19_16h38.24.832,natb3,2021.2.3,Win32,60.03121623,5e272cbaddb07c04bd862121,611e07ecdcc96256ae8d5b80,611e7ac123618baab04d6ada,0.4992,
,,,,space,,0,262,262,38,1,R, , , , ,space,2500,2.5,5e272cbaddb07c04bd862121,001,2021-08-19_16h38.24.832,natb3,2021.2.3,Win32,60.03121623,5e272cbaddb07c04bd862121,611e07ecdcc96256ae8d5b80,611e7ac123618baab04d6ada,0.4772,
,,,,space,,0,263,263,53,1,G, , , , ,space,2500,2.5,5e272cbaddb07c04bd862121,001,2021-08-19_16h38.24.832,natb3,2021.2.3,Win32,60.03121623,5e272cbaddb07c04bd862121,611e07ecdcc96256ae8d5b80,611e7ac123618baab04d6ada,0.4858,
,,,,space,,0,264,264,242,1,H, , , , ,space,2500,2.5,5e272cbaddb07c04bd862121,001,2021-08-19_16h38.24.832,natb3,2021.2.3,Win32,60.03121623,5e272cbaddb07c04bd862121,611e07ecdcc96256ae8d5b80,611e7ac123618baab04d6ada,0.4936,
,,,,space,,0,265,265,301,1,P, , , , ,space,1500,1.5,5e272cbaddb07c04bd862121,001,2021-08-19_16h38.24.832,natb3,2021.2.3,Win32,60.03121623,5e272cbaddb07c04bd862121,611e07ecdcc96256ae8d5b80,611e7ac123618baab04d6ada,0.429,
,,,,,,0,266,266,35,1,X, , , , ,,2500,2.5,5e272cbaddb07c04bd862121,001,2021-08-19_16h38.24.832,natb3,2021.2.3,Win32,60.03121623,5e272cbaddb07c04bd862121,611e07ecdcc96256ae8d5b80,611e7ac123618baab04d6ada,,
,,,,space,,0,267,267,228,1,Y, , , , ,space,2000,2,5e272cbaddb07c04bd862121,001,2021-08-19_16h38.24.832,natb3,2021.2.3,Win32,60.03121623,5e272cbaddb07c04bd862121,611e07ecdcc96256ae8d5b80,611e7ac123618baab04d6ada,0.4724,
,,,,space,,0,268,268,45,1,O, , , , ,space,2000,2,5e272cbaddb07c04bd862121,001,2021-08-19_16h38.24.832,natb3,2021.2.3,Win32,60.03121623,5e272cbaddb07c04bd862121,611e07ecdcc96256ae8d5b80,611e7ac123618baab04d6ada,0.4445,
,,,,space,,0,269,269,11,1,P, , , , ,space,2500,2.5,5e272cbaddb07c04bd862121,001,2021-08-19_16h38.24.832,natb3,2021.2.3,Win32,60.03121623,5e272cbaddb07c04bd862121,611e07ecdcc96256ae8d5b80,611e7ac123618baab04d6ada,0.3749,
,,,,space,,0,270,270,241,1,G, , , , ,space,2500,2.5,5e272cbaddb07c04bd862121,001,2021-08-19_16h38.24.832,natb3,2021.2.3,Win32,60.03121623,5e272cbaddb07c04bd862121,611e07ecdcc96256ae8d5b80,611e7ac123618baab04d6ada,0.403,
,,,,space,,0,271,271,163,1,G, , , , ,space,2500,2.5,5e272cbaddb07c04bd862121,001,2021-08-19_16h38.24.832,natb3,2021.2.3,Win32,60.03121623,5e272cbaddb07c04bd862121,611e07ecdcc96256ae8d5b80,611e7ac123618baab04d6ada,0.36,
,,,,space,,0,272,272,116,1,X, , , , ,,2000,2,5e272cbaddb07c04bd862121,001,2021-08-19_16h38.24.832,natb3,2021.2.3,Win32,60.03121623,5e272cbaddb07c04bd862121,611e07ecdcc96256ae8d5b80,611e7ac123618baab04d6ada,0.3999,
,,,,space,,0,273,273,115,1,R, , , , ,space,1500,1.5,5e272cbaddb07c04bd862121,001,2021-08-19_16h38.24.832,natb3,2021.2.3,Win32,60.03121623,5e272cbaddb07c04bd862121,611e07ecdcc96256ae8d5b80,611e7ac123618baab04d6ada,0.46,
,,,,,,0,274,274,145,1,X, , , , ,,2000,2,5e272cbaddb07c04bd862121,001,2021-08-19_16h38.24.832,natb3,2021.2.3,Win32,60.03121623,5e272cbaddb07c04bd862121,611e07ecdcc96256ae8d5b80,611e7ac123618baab04d6ada,,
,,,,space,,0,275,275,75,1,U, , , , ,space,1500,1.5,5e272cbaddb07c04bd862121,001,2021-08-19_16h38.24.832,natb3,2021.2.3,Win32,60.03121623,5e272cbaddb07c04bd862121,611e07ecdcc96256ae8d5b80,611e7ac123618baab04d6ada,0.4597,
,,,,space,,0,276,276,76,1,I, , , , ,space,2000,2,5e272cbaddb07c04bd862121,001,2021-08-19_16h38.24.832,natb3,2021.2.3,Win32,60.03121623,5e272cbaddb07c04bd862121,611e07ecdcc96256ae8d5b80,611e7ac123618baab04d6ada,0.425,
,,,,,,0,277,277,175,1,X,7, ,4,2,,1500,1.5,5e272cbaddb07c04bd862121,001,2021-08-19_16h38.24.832,natb3,2021.2.3,Win32,60.03121623,5e272cbaddb07c04bd862121,611e07ecdcc96256ae8d5b80,611e7ac123618baab04d6ada,,
,,,,,,0,278,278,287,1,X, ,2, ,9,,2000,2,5e272cbaddb07c04bd862121,001,2021-08-19_16h38.24.832,natb3,2021.2.3,Win32,60.03121623,5e272cbaddb07c04bd862121,611e07ecdcc96256ae8d5b80,611e7ac123618baab04d6ada,,
,,,,,,0,279,279,243,1,X, , , , ,,2500,2.5,5e272cbaddb07c04bd862121,001,2021-08-19_16h38.24.832,natb3,2021.2.3,Win32,60.03121623,5e272cbaddb07c04bd862121,611e07ecdcc96256ae8d5b80,611e7ac123618baab04d6ada,,
,,,,space,,0,280,280,157,1,A, , , , ,space,2500,2.5,5e272cbaddb07c04bd862121,001,2021-08-19_16h38.24.832,natb3,2021.2.3,Win32,60.03121623,5e272cbaddb07c04bd862121,611e07ecdcc96256ae8d5b80,611e7ac123618baab04d6ada,0.5558,
,,,,space,,0,281,281,170,1,Z, , , , ,space,2000,2,5e272cbaddb07c04bd862121,001,2021-08-19_16h38.24.832,natb3,2021.2.3,Win32,60.03121623,5e272cbaddb07c04bd862121,611e07ecdcc96256ae8d5b80,611e7ac123618baab04d6ada,0.6532,
,,,,space,,0,282,282,238,1,D, , , , ,space,1500,1.5,5e272cbaddb07c04bd862121,001,2021-08-19_16h38.24.832,natb3,2021.2.3,Win32,60.03121623,5e272cbaddb07c04bd862121,611e07ecdcc96256ae8d5b80,611e7ac123618baab04d6ada,0.4624,
,,,,space,,0,283,283,16,1,D, , , , ,space,1500,1.5,5e272cbaddb07c04bd862121,001,2021-08-19_16h38.24.832,natb3,2021.2.3,Win32,60.03121623,5e272cbaddb07c04bd862121,611e07ecdcc96256ae8d5b80,611e7ac123618baab04d6ada,0.5603,
,,,,,,0,284,284,168,1,X, , , , ,,2500,2.5,5e272cbaddb07c04bd862121,001,2021-08-19_16h38.24.832,natb3,2021.2.3,Win32,60.03121623,5e272cbaddb07c04bd862121,611e07ecdcc96256ae8d5b80,611e7ac123618baab04d6ada,,
,,,,space,,0,285,285,41,1,Y, , , , ,space,2500,2.5,5e272cbaddb07c04bd862121,001,2021-08-19_16h38.24.832,natb3,2021.2.3,Win32,60.03121623,5e272cbaddb07c04bd862121,611e07ecdcc96256ae8d5b80,611e7ac123618baab04d6ada,0.5137,
,,,,space,,0,286,286,1,1,W, , , , ,space,2000,2,5e272cbaddb07c04bd862121,001,2021-08-19_16h38.24.832,natb3,2021.2.3,Win32,60.03121623,5e272cbaddb07c04bd862121,611e07ecdcc96256ae8d5b80,611e7ac123618baab04d6ada,0.4996,
,,,,space,,0,287,287,0,1,Q, , , , ,space,1500,1.5,5e272cbaddb07c04bd862121,001,2021-08-19_16h38.24.832,natb3,2021.2.3,Win32,60.03121623,5e272cbaddb07c04bd862121,611e07ecdcc96256ae8d5b80,611e7ac123618baab04d6ada,0.5074,
,,,,space,,0,288,288,319,1,V, , , , ,space,2000,2,5e272cbaddb07c04bd862121,001,2021-08-19_16h38.24.832,natb3,2021.2.3,Win32,60.03121623,5e272cbaddb07c04bd862121,611e07ecdcc96256ae8d5b80,611e7ac123618baab04d6ada,0.5351,
,,,,space,,0,289,289,101,1,Q, , , , ,space,2500,2.5,5e272cbaddb07c04bd862121,001,2021-08-19_16h38.24.832,natb3,2021.2.3,Win32,60.03121623,5e272cbaddb07c04bd862121,611e07ecdcc96256ae8d5b80,611e7ac123618baab04d6ada,0.461,
,,,,space,,0,290,290,227,1,T, , , , ,space,1500,1.5,5e272cbaddb07c04bd862121,001,2021-08-19_16h38.24.832,natb3,2021.2.3,Win32,60.03121623,5e272cbaddb07c04bd862121,611e07ecdcc96256ae8d5b80,611e7ac123618baab04d6ada,0.5259,
,,,,space,,0,291,291,276,1,H, , , , ,space,2000,2,5e272cbaddb07c04bd862121,001,2021-08-19_16h38.24.832,natb3,2021.2.3,Win32,60.03121623,5e272cbaddb07c04bd862121,611e07ecdcc96256ae8d5b80,611e7ac123618baab04d6ada,0.5209,
,,,,,,0,292,292,129,1,X,2,3,5, ,,1500,1.5,5e272cbaddb07c04bd862121,001,2021-08-19_16h38.24.832,natb3,2021.2.3,Win32,60.03121623,5e272cbaddb07c04bd862121,611e07ecdcc96256ae8d5b80,611e7ac123618baab04d6ada,,
,,,,,,0,293,293,311,1,X,1,2,7,3,,2500,2.5,5e272cbaddb07c04bd862121,001,2021-08-19_16h38.24.832,natb3,2021.2.3,Win32,60.03121623,5e272cbaddb07c04bd862121,611e07ecdcc96256ae8d5b80,611e7ac123618baab04d6ada,,
,,,,space,,0,294,294,294,1,T, , , , ,space,2000,2,5e272cbaddb07c04bd862121,001,2021-08-19_16h38.24.832,natb3,2021.2.3,Win32,60.03121623,5e272cbaddb07c04bd862121,611e07ecdcc96256ae8d5b80,611e7ac123618baab04d6ada,0.4643,
,,,,space,,0,295,295,103,1,W, , , , ,space,2000,2,5e272cbaddb07c04bd862121,001,2021-08-19_16h38.24.832,natb3,2021.2.3,Win32,60.03121623,5e272cbaddb07c04bd862121,611e07ecdcc96256ae8d5b80,611e7ac123618baab04d6ada,0.6958,
,,,,space,,0,296,296,160,1,D, , , , ,space,1500,1.5,5e272cbaddb07c04bd862121,001,2021-08-19_16h38.24.832,natb3,2021.2.3,Win32,60.03121623,5e272cbaddb07c04bd862121,611e07ecdcc96256ae8d5b80,611e7ac123618baab04d6ada,0.5598,
,,,,space,,0,297,297,24,1,L, , , , ,space,2500,2.5,5e272cbaddb07c04bd862121,001,2021-08-19_16h38.24.832,natb3,2021.2.3,Win32,60.03121623,5e272cbaddb07c04bd862121,611e07ecdcc96256ae8d5b80,611e7ac123618baab04d6ada,0.5166,
,,,,,,0,298,298,259,1,X,8, , ,3,,2500,2.5,5e272cbaddb07c04bd862121,001,2021-08-19_16h38.24.832,natb3,2021.2.3,Win32,60.03121623,5e272cbaddb07c04bd862121,611e07ecdcc96256ae8d5b80,611e7ac123618baab04d6ada,,
,,,,space,,0,299,299,188,1,I, , , , ,space,2500,2.5,5e272cbaddb07c04bd862121,001,2021-08-19_16h38.24.832,natb3,2021.2.3,Win32,60.03121623,5e272cbaddb07c04bd862121,611e07ecdcc96256ae8d5b80,611e7ac123618baab04d6ada,0.4871,
,,,,space,,0,300,300,198,1,H, , , , ,space,2500,2.5,5e272cbaddb07c04bd862121,001,2021-08-19_16h38.24.832,natb3,2021.2.3,Win32,60.03121623,5e272cbaddb07c04bd862121,611e07ecdcc96256ae8d5b80,611e7ac123618baab04d6ada,0.4873,
,,,,space,,0,301,301,132,1,H, , , , ,space,2500,2.5,5e272cbaddb07c04bd862121,001,2021-08-19_16h38.24.832,natb3,2021.2.3,Win32,60.03121623,5e272cbaddb07c04bd862121,611e07ecdcc96256ae8d5b80,611e7ac123618baab04d6ada,0.4808,
,,,,space,,0,302,302,108,1,Y, , , , ,space,2500,2.5,5e272cbaddb07c04bd862121,001,2021-08-19_16h38.24.832,natb3,2021.2.3,Win32,60.03121623,5e272cbaddb07c04bd862121,611e07ecdcc96256ae8d5b80,611e7ac123618baab04d6ada,0.5204,
,,,,,,0,303,303,187,1,X, ,3,7,4,,1500,1.5,5e272cbaddb07c04bd862121,001,2021-08-19_16h38.24.832,natb3,2021.2.3,Win32,60.03121623,5e272cbaddb07c04bd862121,611e07ecdcc96256ae8d5b80,611e7ac123618baab04d6ada,,
,,,,space,,0,304,304,165,1,J, , , , ,space,2500,2.5,5e272cbaddb07c04bd862121,001,2021-08-19_16h38.24.832,natb3,2021.2.3,Win32,60.03121623,5e272cbaddb07c04bd862121,611e07ecdcc96256ae8d5b80,611e7ac123618baab04d6ada,0.4494,
,,,,space,,0,305,305,81,1,S, , , , ,space,2000,2,5e272cbaddb07c04bd862121,001,2021-08-19_16h38.24.832,natb3,2021.2.3,Win32,60.03121623,5e272cbaddb07c04bd862121,611e07ecdcc96256ae8d5b80,611e7ac123618baab04d6ada,0.6321,
,,,,space,,0,306,306,151,1,Y, , , , ,space,2500,2.5,5e272cbaddb07c04bd862121,001,2021-08-19_16h38.24.832,natb3,2021.2.3,Win32,60.03121623,5e272cbaddb07c04bd862121,611e07ecdcc96256ae8d5b80,611e7ac123618baab04d6ada,0.4264,
,,,,,,0,307,307,329,1,X,3,4, ,2,,2500,2.5,5e272cbaddb07c04bd862121,001,2021-08-19_16h38.24.832,natb3,2021.2.3,Win32,60.03121623,5e272cbaddb07c04bd862121,611e07ecdcc96256ae8d5b80,611e7ac123618baab04d6ada,,
,,,,space,,0,308,308,72,1,T, , , , ,space,1500,1.5,5e272cbaddb07c04bd862121,001,2021-08-19_16h38.24.832,natb3,2021.2.3,Win32,60.03121623,5e272cbaddb07c04bd862121,611e07ecdcc96256ae8d5b80,611e7ac123618baab04d6ada,0.502,
,,,,space,,0,309,309,174,1,B, , , , ,space,2500,2.5,5e272cbaddb07c04bd862121,001,2021-08-19_16h38.24.832,natb3,2021.2.3,Win32,60.03121623,5e272cbaddb07c04bd862121,611e07ecdcc96256ae8d5b80,611e7ac123618baab04d6ada,0.4229,
,,,,space,,0,310,310,178,1,Q, , , , ,space,1500,1.5,5e272cbaddb07c04bd862121,001,2021-08-19_16h38.24.832,natb3,2021.2.3,Win32,60.03121623,5e272cbaddb07c04bd862121,611e07ecdcc96256ae8d5b80,611e7ac123618baab04d6ada,0.5941,
,,,,space,,0,311,311,280,1,L, , , , ,space,1500,1.5,5e272cbaddb07c04bd862121,001,2021-08-19_16h38.24.832,natb3,2021.2.3,Win32,60.03121623,5e272cbaddb07c04bd862121,611e07ecdcc96256ae8d5b80,611e7ac123618baab04d6ada,0.4385,
,,,,space,,0,312,312,28,1,V, , , , ,space,1500,1.5,5e272cbaddb07c04bd862121,001,2021-08-19_16h38.24.832,natb3,2021.2.3,Win32,60.03121623,5e272cbaddb07c04bd862121,611e07ecdcc96256ae8d5b80,611e7ac123618baab04d6ada,0.4244,
,,,,space,,0,313,313,88,1,J, , , , ,space,2500,2.5,5e272cbaddb07c04bd862121,001,2021-08-19_16h38.24.832,natb3,2021.2.3,Win32,60.03121623,5e272cbaddb07c04bd862121,611e07ecdcc96256ae8d5b80,611e7ac123618baab04d6ada,0.4437,
,,,,space,,0,314,314,284,1,V, , , , ,space,2500,2.5,5e272cbaddb07c04bd862121,001,2021-08-19_16h38.24.832,natb3,2021.2.3,Win32,60.03121623,5e272cbaddb07c04bd862121,611e07ecdcc96256ae8d5b80,611e7ac123618baab04d6ada,0.3824,
,,,,space,,0,315,315,156,1,P, , , , ,space,1500,1.5,5e272cbaddb07c04bd862121,001,2021-08-19_16h38.24.832,natb3,2021.2.3,Win32,60.03121623,5e272cbaddb07c04bd862121,611e07ecdcc96256ae8d5b80,611e7ac123618baab04d6ada,0.5371,
,,,,,,0,316,316,82,1,X,4,6,1,7,,2000,2,5e272cbaddb07c04bd862121,001,2021-08-19_16h38.24.832,natb3,2021.2.3,Win32,60.03121623,5e272cbaddb07c04bd862121,611e07ecdcc96256ae8d5b80,611e7ac123618baab04d6ada,,
,,,,space,,0,317,317,100,1,M, , , , ,space,2000,2,5e272cbaddb07c04bd862121,001,2021-08-19_16h38.24.832,natb3,2021.2.3,Win32,60.03121623,5e272cbaddb07c04bd862121,611e07ecdcc96256ae8d5b80,611e7ac123618baab04d6ada,0.4245,
,,,,space,,0,318,318,208,1,B, , , , ,space,1500,1.5,5e272cbaddb07c04bd862121,001,2021-08-19_16h38.24.832,natb3,2021.2.3,Win32,60.03121623,5e272cbaddb07c04bd862121,611e07ecdcc96256ae8d5b80,611e7ac123618baab04d6ada,0.4531,
,,,,,,0,319,319,313,1,X, , , , ,,2500,2.5,5e272cbaddb07c04bd862121,001,2021-08-19_16h38.24.832,natb3,2021.2.3,Win32,60.03121623,5e272cbaddb07c04bd862121,611e07ecdcc96256ae8d5b80,611e7ac123618baab04d6ada,,
,,,,space,,0,320,320,209,1,N, , , , ,space,2000,2,5e272cbaddb07c04bd862121,001,2021-08-19_16h38.24.832,natb3,2021.2.3,Win32,60.03121623,5e272cbaddb07c04bd862121,611e07ecdcc96256ae8d5b80,611e7ac123618baab04d6ada,0.4147,
,,,,,,0,321,321,213,1,X, , , , ,,2500,2.5,5e272cbaddb07c04bd862121,001,2021-08-19_16h38.24.832,natb3,2021.2.3,Win32,60.03121623,5e272cbaddb07c04bd862121,611e07ecdcc96256ae8d5b80,611e7ac123618baab04d6ada,,
,,,,space,,0,322,322,97,1,B, , , , ,space,2500,2.5,5e272cbaddb07c04bd862121,001,2021-08-19_16h38.24.832,natb3,2021.2.3,Win32,60.03121623,5e272cbaddb07c04bd862121,611e07ecdcc96256ae8d5b80,611e7ac123618baab04d6ada,0.4462,
,,,,space,,0,323,323,204,1,Z, , , , ,space,2000,2,5e272cbaddb07c04bd862121,001,2021-08-19_16h38.24.832,natb3,2021.2.3,Win32,60.03121623,5e272cbaddb07c04bd862121,611e07ecdcc96256ae8d5b80,611e7ac123618baab04d6ada,0.5957,
,,,,space,,0,324,324,130,1,F, , , , ,space,2000,2,5e272cbaddb07c04bd862121,001,2021-08-19_16h38.24.832,natb3,2021.2.3,Win32,60.03121623,5e272cbaddb07c04bd862121,611e07ecdcc96256ae8d5b80,611e7ac123618baab04d6ada,0.4924,
,,,,space,,0,325,325,212,1,Q, , , , ,space,2500,2.5,5e272cbaddb07c04bd862121,001,2021-08-19_16h38.24.832,natb3,2021.2.3,Win32,60.03121623,5e272cbaddb07c04bd862121,611e07ecdcc96256ae8d5b80,611e7ac123618baab04d6ada,0.7554,
,,,,,,0,326,326,295,1,X,8,7,5, ,,2500,2.5,5e272cbaddb07c04bd862121,001,2021-08-19_16h38.24.832,natb3,2021.2.3,Win32,60.03121623,5e272cbaddb07c04bd862121,611e07ecdcc96256ae8d5b80,611e7ac123618baab04d6ada,,
,,,,space,,0,327,327,137,1,C, , , , ,space,2500,2.5,5e272cbaddb07c04bd862121,001,2021-08-19_16h38.24.832,natb3,2021.2.3,Win32,60.03121623,5e272cbaddb07c04bd862121,611e07ecdcc96256ae8d5b80,611e7ac123618baab04d6ada,0.5071,
,,,,,,0,328,328,118,1,X, , , , ,,2000,2,5e272cbaddb07c04bd862121,001,2021-08-19_16h38.24.832,natb3,2021.2.3,Win32,60.03121623,5e272cbaddb07c04bd862121,611e07ecdcc96256ae8d5b80,611e7ac123618baab04d6ada,,
,,,,space,,0,329,329,253,1,N, , , , ,space,2500,2.5,5e272cbaddb07c04bd862121,001,2021-08-19_16h38.24.832,natb3,2021.2.3,Win32,60.03121623,5e272cbaddb07c04bd862121,611e07ecdcc96256ae8d5b80,611e7ac123618baab04d6ada,0.4919,
,,,,space,,0,330,330,73,1,Y, , , , ,space,2000,2,5e272cbaddb07c04bd862121,001,2021-08-19_16h38.24.832,natb3,2021.2.3,Win32,60.03121623,5e272cbaddb07c04bd862121,611e07ecdcc96256ae8d5b80,611e7ac123618baab04d6ada,0.5284,
,,,,space,,0,331,331,262,1,Y, , , , ,space,2500,2.5,5e272cbaddb07c04bd862121,001,2021-08-19_16h38.24.832,natb3,2021.2.3,Win32,60.03121623,5e272cbaddb07c04bd862121,611e07ecdcc96256ae8d5b80,611e7ac123618baab04d6ada,0.5669,
,,,,space,,0,332,332,91,1,L, , , , ,space,2000,2,5e272cbaddb07c04bd862121,001,2021-08-19_16h38.24.832,natb3,2021.2.3,Win32,60.03121623,5e272cbaddb07c04bd862121,611e07ecdcc96256ae8d5b80,611e7ac123618baab04d6ada,0.4315,
,,,,space,,0,333,333,106,1,T, , , , ,space,1500,1.5,5e272cbaddb07c04bd862121,001,2021-08-19_16h38.24.832,natb3,2021.2.3,Win32,60.03121623,5e272cbaddb07c04bd862121,611e07ecdcc96256ae8d5b80,611e7ac123618baab04d6ada,0.4973,
,,,,space,,0,334,334,176,1,N, , , , ,space,1500,1.5,5e272cbaddb07c04bd862121,001,2021-08-19_16h38.24.832,natb3,2021.2.3,Win32,60.03121623,5e272cbaddb07c04bd862121,611e07ecdcc96256ae8d5b80,611e7ac123618baab04d6ada,0.4179,
,,,,space,,0,335,335,146,1,W, , , , ,space,1500,1.5,5e272cbaddb07c04bd862121,001,2021-08-19_16h38.24.832,natb3,2021.2.3,Win32,60.03121623,5e272cbaddb07c04bd862121,611e07ecdcc96256ae8d5b80,611e7ac123618baab04d6ada,0.4041,
