key_resp_2.keys,key_resp_2.rt,key_resp_3.keys,key_resp_3.rt,key_resp.keys,key_resp.rt,key_resp_4.keys,trials.thisRepN,trials.thisTrialN,trials.thisN,trials.thisIndex,trials.ran,stimulus,distractor1,distractor2,distractor3,distractor4,CorrAns,isi_duration,isi_dur_in_seconds,participant,session,date,expName,psychopyVersion,OS,frameRate,PROLIFIC_PID,STUDY_ID,SESSION_ID,key_resp_4.rt
return,8.881,space,11.421,space,0.695,,0,0,0,65,1,M, , , , ,space,1500,1.5,5e39895de3c76419f242ad16,001,2021-08-19_16h01.58,natb3,2021.2.3,MacIntel,58.82352941,5e39895de3c76419f242ad16,611e07ecdcc96256ae8d5b80,611e723b85a45b9a948751e9,
,,,,space,0.712,,0,1,1,196,1,F, , , , ,space,1500,1.5,5e39895de3c76419f242ad16,001,2021-08-19_16h01.58,natb3,2021.2.3,MacIntel,58.82352941,5e39895de3c76419f242ad16,611e07ecdcc96256ae8d5b80,611e723b85a45b9a948751e9,
,,,,space,0.352,,0,2,2,136,1,Z, , , , ,space,2500,2.5,5e39895de3c76419f242ad16,001,2021-08-19_16h01.58,natb3,2021.2.3,MacIntel,58.82352941,5e39895de3c76419f242ad16,611e07ecdcc96256ae8d5b80,611e723b85a45b9a948751e9,
,,,,space,0.32,,0,3,3,22,1,K, , , , ,space,2000,2,5e39895de3c76419f242ad16,001,2021-08-19_16h01.58,natb3,2021.2.3,MacIntel,58.82352941,5e39895de3c76419f242ad16,611e07ecdcc96256ae8d5b80,611e723b85a45b9a948751e9,
,,,,space,0.312,,0,4,4,69,1,X, , , , ,,1500,1.5,5e39895de3c76419f242ad16,001,2021-08-19_16h01.58,natb3,2021.2.3,MacIntel,58.82352941,5e39895de3c76419f242ad16,611e07ecdcc96256ae8d5b80,611e723b85a45b9a948751e9,
,,,,space,0.263,,0,5,5,135,1,K, , , , ,space,1500,1.5,5e39895de3c76419f242ad16,001,2021-08-19_16h01.58,natb3,2021.2.3,MacIntel,58.82352941,5e39895de3c76419f242ad16,611e07ecdcc96256ae8d5b80,611e723b85a45b9a948751e9,
,,,,space,0.289,,0,6,6,159,1,S, , , , ,space,2500,2.5,5e39895de3c76419f242ad16,001,2021-08-19_16h01.58,natb3,2021.2.3,MacIntel,58.82352941,5e39895de3c76419f242ad16,611e07ecdcc96256ae8d5b80,611e723b85a45b9a948751e9,
,,,,space,0.439,,0,7,7,33,1,X, , , , ,,1500,1.5,5e39895de3c76419f242ad16,001,2021-08-19_16h01.58,natb3,2021.2.3,MacIntel,58.82352941,5e39895de3c76419f242ad16,611e07ecdcc96256ae8d5b80,611e723b85a45b9a948751e9,
,,,,space,0.324,,0,8,8,164,1,H, , , , ,space,2500,2.5,5e39895de3c76419f242ad16,001,2021-08-19_16h01.58,natb3,2021.2.3,MacIntel,58.82352941,5e39895de3c76419f242ad16,611e07ecdcc96256ae8d5b80,611e723b85a45b9a948751e9,
,,,,space,0.394,,0,9,9,249,1,C, , , , ,space,2000,2,5e39895de3c76419f242ad16,001,2021-08-19_16h01.58,natb3,2021.2.3,MacIntel,58.82352941,5e39895de3c76419f242ad16,611e07ecdcc96256ae8d5b80,611e723b85a45b9a948751e9,
,,,,space,0.421,,0,10,10,320,1,B, , , , ,space,1500,1.5,5e39895de3c76419f242ad16,001,2021-08-19_16h01.58,natb3,2021.2.3,MacIntel,58.82352941,5e39895de3c76419f242ad16,611e07ecdcc96256ae8d5b80,611e723b85a45b9a948751e9,
,,,,space,0.512,,0,11,11,101,1,Q, , , , ,space,2500,2.5,5e39895de3c76419f242ad16,001,2021-08-19_16h01.58,natb3,2021.2.3,MacIntel,58.82352941,5e39895de3c76419f242ad16,611e07ecdcc96256ae8d5b80,611e723b85a45b9a948751e9,
,,,,space,0.416,,0,12,12,293,1,R, , , , ,space,2500,2.5,5e39895de3c76419f242ad16,001,2021-08-19_16h01.58,natb3,2021.2.3,MacIntel,58.82352941,5e39895de3c76419f242ad16,611e07ecdcc96256ae8d5b80,611e723b85a45b9a948751e9,
,,,,space,0.454,,0,13,13,106,1,T, , , , ,space,1500,1.5,5e39895de3c76419f242ad16,001,2021-08-19_16h01.58,natb3,2021.2.3,MacIntel,58.82352941,5e39895de3c76419f242ad16,611e07ecdcc96256ae8d5b80,611e723b85a45b9a948751e9,
,,,,,,,0,14,14,118,1,X, , , , ,,2000,2,5e39895de3c76419f242ad16,001,2021-08-19_16h01.58,natb3,2021.2.3,MacIntel,58.82352941,5e39895de3c76419f242ad16,611e07ecdcc96256ae8d5b80,611e723b85a45b9a948751e9,
,,,,space,0.396,,0,15,15,16,1,D, , , , ,space,1500,1.5,5e39895de3c76419f242ad16,001,2021-08-19_16h01.58,natb3,2021.2.3,MacIntel,58.82352941,5e39895de3c76419f242ad16,611e07ecdcc96256ae8d5b80,611e723b85a45b9a948751e9,
,,,,,,,0,16,16,89,1,X,3, , , ,,2000,2,5e39895de3c76419f242ad16,001,2021-08-19_16h01.58,natb3,2021.2.3,MacIntel,58.82352941,5e39895de3c76419f242ad16,611e07ecdcc96256ae8d5b80,611e723b85a45b9a948751e9,
,,,,,,,0,17,17,129,1,X,2,3,5, ,,1500,1.5,5e39895de3c76419f242ad16,001,2021-08-19_16h01.58,natb3,2021.2.3,MacIntel,58.82352941,5e39895de3c76419f242ad16,611e07ecdcc96256ae8d5b80,611e723b85a45b9a948751e9,
,,,,space,0.628,,0,18,18,232,1,O, , , , ,space,2500,2.5,5e39895de3c76419f242ad16,001,2021-08-19_16h01.58,natb3,2021.2.3,MacIntel,58.82352941,5e39895de3c76419f242ad16,611e07ecdcc96256ae8d5b80,611e723b85a45b9a948751e9,
,,,,,,,0,19,19,221,1,I, , , , ,space,2500,2.5,5e39895de3c76419f242ad16,001,2021-08-19_16h01.58,natb3,2021.2.3,MacIntel,58.82352941,5e39895de3c76419f242ad16,611e07ecdcc96256ae8d5b80,611e723b85a45b9a948751e9,
,,,,space,0.57,,0,20,20,30,1,N, , , , ,space,2500,2.5,5e39895de3c76419f242ad16,001,2021-08-19_16h01.58,natb3,2021.2.3,MacIntel,58.82352941,5e39895de3c76419f242ad16,611e07ecdcc96256ae8d5b80,611e723b85a45b9a948751e9,
,,,,space,0.47,,0,21,21,5,1,T, , , , ,space,2000,2,5e39895de3c76419f242ad16,001,2021-08-19_16h01.58,natb3,2021.2.3,MacIntel,58.82352941,5e39895de3c76419f242ad16,611e07ecdcc96256ae8d5b80,611e723b85a45b9a948751e9,
,,,,,,,0,22,22,195,1,X, , , , ,,1500,1.5,5e39895de3c76419f242ad16,001,2021-08-19_16h01.58,natb3,2021.2.3,MacIntel,58.82352941,5e39895de3c76419f242ad16,611e07ecdcc96256ae8d5b80,611e723b85a45b9a948751e9,
,,,,,,,0,23,23,233,1,X, ,2, ,5,,1500,1.5,5e39895de3c76419f242ad16,001,2021-08-19_16h01.58,natb3,2021.2.3,MacIntel,58.82352941,5e39895de3c76419f242ad16,611e07ecdcc96256ae8d5b80,611e723b85a45b9a948751e9,
,,,,space,0.714,,0,24,24,75,1,U, , , , ,space,1500,1.5,5e39895de3c76419f242ad16,001,2021-08-19_16h01.58,natb3,2021.2.3,MacIntel,58.82352941,5e39895de3c76419f242ad16,611e07ecdcc96256ae8d5b80,611e723b85a45b9a948751e9,
,,,,,,,0,25,25,173,1,V, , , , ,space,1500,1.5,5e39895de3c76419f242ad16,001,2021-08-19_16h01.58,natb3,2021.2.3,MacIntel,58.82352941,5e39895de3c76419f242ad16,611e07ecdcc96256ae8d5b80,611e723b85a45b9a948751e9,
,,,,space,0.705,,0,26,26,121,1,I, , , , ,space,2000,2,5e39895de3c76419f242ad16,001,2021-08-19_16h01.58,natb3,2021.2.3,MacIntel,58.82352941,5e39895de3c76419f242ad16,611e07ecdcc96256ae8d5b80,611e723b85a45b9a948751e9,
,,,,space,0.629,,0,27,27,310,1,J, , , , ,space,2500,2.5,5e39895de3c76419f242ad16,001,2021-08-19_16h01.58,natb3,2021.2.3,MacIntel,58.82352941,5e39895de3c76419f242ad16,611e07ecdcc96256ae8d5b80,611e723b85a45b9a948751e9,
,,,,space,0.503,,0,28,28,149,1,R, , , , ,space,2000,2,5e39895de3c76419f242ad16,001,2021-08-19_16h01.58,natb3,2021.2.3,MacIntel,58.82352941,5e39895de3c76419f242ad16,611e07ecdcc96256ae8d5b80,611e723b85a45b9a948751e9,
,,,,space,0.77,,0,29,29,170,1,Z, , , , ,space,2000,2,5e39895de3c76419f242ad16,001,2021-08-19_16h01.58,natb3,2021.2.3,MacIntel,58.82352941,5e39895de3c76419f242ad16,611e07ecdcc96256ae8d5b80,611e723b85a45b9a948751e9,
,,,,space,0.331,,0,30,30,134,1,J, , , , ,space,2000,2,5e39895de3c76419f242ad16,001,2021-08-19_16h01.58,natb3,2021.2.3,MacIntel,58.82352941,5e39895de3c76419f242ad16,611e07ecdcc96256ae8d5b80,611e723b85a45b9a948751e9,
,,,,space,0.555,,0,31,31,32,1,M, , , , ,space,1500,1.5,5e39895de3c76419f242ad16,001,2021-08-19_16h01.58,natb3,2021.2.3,MacIntel,58.82352941,5e39895de3c76419f242ad16,611e07ecdcc96256ae8d5b80,611e723b85a45b9a948751e9,
,,,,,,,0,32,32,43,1,X, ,6, ,2,,2500,2.5,5e39895de3c76419f242ad16,001,2021-08-19_16h01.58,natb3,2021.2.3,MacIntel,58.82352941,5e39895de3c76419f242ad16,611e07ecdcc96256ae8d5b80,611e723b85a45b9a948751e9,
,,,,space,0.441,,0,33,33,57,1,K, , , , ,space,2500,2.5,5e39895de3c76419f242ad16,001,2021-08-19_16h01.58,natb3,2021.2.3,MacIntel,58.82352941,5e39895de3c76419f242ad16,611e07ecdcc96256ae8d5b80,611e723b85a45b9a948751e9,
,,,,space,0.383,,0,34,34,283,1,C, , , , ,space,1500,1.5,5e39895de3c76419f242ad16,001,2021-08-19_16h01.58,natb3,2021.2.3,MacIntel,58.82352941,5e39895de3c76419f242ad16,611e07ecdcc96256ae8d5b80,611e723b85a45b9a948751e9,
,,,,space,0.53,,0,35,35,303,1,A, , , , ,space,2000,2,5e39895de3c76419f242ad16,001,2021-08-19_16h01.58,natb3,2021.2.3,MacIntel,58.82352941,5e39895de3c76419f242ad16,611e07ecdcc96256ae8d5b80,611e723b85a45b9a948751e9,
,,,,,,,0,36,36,120,1,U, , , , ,space,1500,1.5,5e39895de3c76419f242ad16,001,2021-08-19_16h01.58,natb3,2021.2.3,MacIntel,58.82352941,5e39895de3c76419f242ad16,611e07ecdcc96256ae8d5b80,611e723b85a45b9a948751e9,
,,,,space,0.48,,0,37,37,142,1,N, , , , ,space,2500,2.5,5e39895de3c76419f242ad16,001,2021-08-19_16h01.58,natb3,2021.2.3,MacIntel,58.82352941,5e39895de3c76419f242ad16,611e07ecdcc96256ae8d5b80,611e723b85a45b9a948751e9,
,,,,space,0.362,,0,38,38,267,1,P, , , , ,space,2000,2,5e39895de3c76419f242ad16,001,2021-08-19_16h01.58,natb3,2021.2.3,MacIntel,58.82352941,5e39895de3c76419f242ad16,611e07ecdcc96256ae8d5b80,611e723b85a45b9a948751e9,
,,,,space,0.404,,0,39,39,87,1,H, , , , ,space,1500,1.5,5e39895de3c76419f242ad16,001,2021-08-19_16h01.58,natb3,2021.2.3,MacIntel,58.82352941,5e39895de3c76419f242ad16,611e07ecdcc96256ae8d5b80,611e723b85a45b9a948751e9,
,,,,space,0.353,,0,40,40,334,1,O, , , , ,space,1500,1.5,5e39895de3c76419f242ad16,001,2021-08-19_16h01.58,natb3,2021.2.3,MacIntel,58.82352941,5e39895de3c76419f242ad16,611e07ecdcc96256ae8d5b80,611e723b85a45b9a948751e9,
,,,,space,0.346,,0,41,41,128,1,D, , , , ,space,2500,2.5,5e39895de3c76419f242ad16,001,2021-08-19_16h01.58,natb3,2021.2.3,MacIntel,58.82352941,5e39895de3c76419f242ad16,611e07ecdcc96256ae8d5b80,611e723b85a45b9a948751e9,
,,,,space,0.406,,0,42,42,160,1,D, , , , ,space,1500,1.5,5e39895de3c76419f242ad16,001,2021-08-19_16h01.58,natb3,2021.2.3,MacIntel,58.82352941,5e39895de3c76419f242ad16,611e07ecdcc96256ae8d5b80,611e723b85a45b9a948751e9,
,,,,space,0.314,,0,43,43,198,1,H, , , , ,space,2500,2.5,5e39895de3c76419f242ad16,001,2021-08-19_16h01.58,natb3,2021.2.3,MacIntel,58.82352941,5e39895de3c76419f242ad16,611e07ecdcc96256ae8d5b80,611e723b85a45b9a948751e9,
,,,,space,0.512,,0,44,44,241,1,G, , , , ,space,2500,2.5,5e39895de3c76419f242ad16,001,2021-08-19_16h01.58,natb3,2021.2.3,MacIntel,58.82352941,5e39895de3c76419f242ad16,611e07ecdcc96256ae8d5b80,611e723b85a45b9a948751e9,
,,,,space,0.33,,0,45,45,110,1,I, , , , ,space,1500,1.5,5e39895de3c76419f242ad16,001,2021-08-19_16h01.58,natb3,2021.2.3,MacIntel,58.82352941,5e39895de3c76419f242ad16,611e07ecdcc96256ae8d5b80,611e723b85a45b9a948751e9,
,,,,,,,0,46,46,329,1,X,3,4, ,2,,2500,2.5,5e39895de3c76419f242ad16,001,2021-08-19_16h01.58,natb3,2021.2.3,MacIntel,58.82352941,5e39895de3c76419f242ad16,611e07ecdcc96256ae8d5b80,611e723b85a45b9a948751e9,
,,,,space,0.613,,0,47,47,199,1,J, , , , ,space,2500,2.5,5e39895de3c76419f242ad16,001,2021-08-19_16h01.58,natb3,2021.2.3,MacIntel,58.82352941,5e39895de3c76419f242ad16,611e07ecdcc96256ae8d5b80,611e723b85a45b9a948751e9,
,,,,space,0.397,,0,48,48,220,1,U, , , , ,space,2500,2.5,5e39895de3c76419f242ad16,001,2021-08-19_16h01.58,natb3,2021.2.3,MacIntel,58.82352941,5e39895de3c76419f242ad16,611e07ecdcc96256ae8d5b80,611e723b85a45b9a948751e9,
,,,,space,0.415,,0,49,49,64,1,N, , , , ,space,2000,2,5e39895de3c76419f242ad16,001,2021-08-19_16h01.58,natb3,2021.2.3,MacIntel,58.82352941,5e39895de3c76419f242ad16,611e07ecdcc96256ae8d5b80,611e723b85a45b9a948751e9,
,,,,space,0.389,,0,50,50,68,1,W, , , , ,space,2500,2.5,5e39895de3c76419f242ad16,001,2021-08-19_16h01.58,natb3,2021.2.3,MacIntel,58.82352941,5e39895de3c76419f242ad16,611e07ecdcc96256ae8d5b80,611e723b85a45b9a948751e9,
,,,,,,,0,51,51,277,1,X,8,5, ,2,,2000,2,5e39895de3c76419f242ad16,001,2021-08-19_16h01.58,natb3,2021.2.3,MacIntel,58.82352941,5e39895de3c76419f242ad16,611e07ecdcc96256ae8d5b80,611e723b85a45b9a948751e9,
,,,,space,0.606,,0,52,52,104,1,E, , , , ,space,2000,2,5e39895de3c76419f242ad16,001,2021-08-19_16h01.58,natb3,2021.2.3,MacIntel,58.82352941,5e39895de3c76419f242ad16,611e07ecdcc96256ae8d5b80,611e723b85a45b9a948751e9,
,,,,space,0.481,,0,53,53,169,1,L, , , , ,space,2500,2.5,5e39895de3c76419f242ad16,001,2021-08-19_16h01.58,natb3,2021.2.3,MacIntel,58.82352941,5e39895de3c76419f242ad16,611e07ecdcc96256ae8d5b80,611e723b85a45b9a948751e9,
,,,,space,0.364,,0,54,54,328,1,R, , , , ,space,1500,1.5,5e39895de3c76419f242ad16,001,2021-08-19_16h01.58,natb3,2021.2.3,MacIntel,58.82352941,5e39895de3c76419f242ad16,611e07ecdcc96256ae8d5b80,611e723b85a45b9a948751e9,
,,,,space,0.346,,0,55,55,92,1,Z, , , , ,space,1500,1.5,5e39895de3c76419f242ad16,001,2021-08-19_16h01.58,natb3,2021.2.3,MacIntel,58.82352941,5e39895de3c76419f242ad16,611e07ecdcc96256ae8d5b80,611e723b85a45b9a948751e9,
,,,,space,0.347,,0,56,56,257,1,W, , , , ,space,2000,2,5e39895de3c76419f242ad16,001,2021-08-19_16h01.58,natb3,2021.2.3,MacIntel,58.82352941,5e39895de3c76419f242ad16,611e07ecdcc96256ae8d5b80,611e723b85a45b9a948751e9,
,,,,space,0.321,,0,57,57,100,1,M, , , , ,space,2000,2,5e39895de3c76419f242ad16,001,2021-08-19_16h01.58,natb3,2021.2.3,MacIntel,58.82352941,5e39895de3c76419f242ad16,611e07ecdcc96256ae8d5b80,611e723b85a45b9a948751e9,
,,,,space,0.329,,0,58,58,224,1,W, , , , ,space,1500,1.5,5e39895de3c76419f242ad16,001,2021-08-19_16h01.58,natb3,2021.2.3,MacIntel,58.82352941,5e39895de3c76419f242ad16,611e07ecdcc96256ae8d5b80,611e723b85a45b9a948751e9,
,,,,space,0.447,,0,59,59,262,1,Y, , , , ,space,2500,2.5,5e39895de3c76419f242ad16,001,2021-08-19_16h01.58,natb3,2021.2.3,MacIntel,58.82352941,5e39895de3c76419f242ad16,611e07ecdcc96256ae8d5b80,611e723b85a45b9a948751e9,
,,,,space,0.38,,0,60,60,13,1,A, , , , ,space,2000,2,5e39895de3c76419f242ad16,001,2021-08-19_16h01.58,natb3,2021.2.3,MacIntel,58.82352941,5e39895de3c76419f242ad16,611e07ecdcc96256ae8d5b80,611e723b85a45b9a948751e9,
,,,,space,0.331,,0,61,61,166,1,X, , , , ,,2000,2,5e39895de3c76419f242ad16,001,2021-08-19_16h01.58,natb3,2021.2.3,MacIntel,58.82352941,5e39895de3c76419f242ad16,611e07ecdcc96256ae8d5b80,611e723b85a45b9a948751e9,
,,,,,,,0,62,62,318,1,X, , , , ,,1500,1.5,5e39895de3c76419f242ad16,001,2021-08-19_16h01.58,natb3,2021.2.3,MacIntel,58.82352941,5e39895de3c76419f242ad16,611e07ecdcc96256ae8d5b80,611e723b85a45b9a948751e9,
,,,,space,0.712,,0,63,63,210,1,M, , , , ,space,1500,1.5,5e39895de3c76419f242ad16,001,2021-08-19_16h01.58,natb3,2021.2.3,MacIntel,58.82352941,5e39895de3c76419f242ad16,611e07ecdcc96256ae8d5b80,611e723b85a45b9a948751e9,
,,,,space,0.429,,0,64,64,217,1,T, , , , ,space,2500,2.5,5e39895de3c76419f242ad16,001,2021-08-19_16h01.58,natb3,2021.2.3,MacIntel,58.82352941,5e39895de3c76419f242ad16,611e07ecdcc96256ae8d5b80,611e723b85a45b9a948751e9,
,,,,space,0.453,,0,65,65,150,1,T, , , , ,space,2500,2.5,5e39895de3c76419f242ad16,001,2021-08-19_16h01.58,natb3,2021.2.3,MacIntel,58.82352941,5e39895de3c76419f242ad16,611e07ecdcc96256ae8d5b80,611e723b85a45b9a948751e9,
,,,,space,0.422,,0,66,66,95,1,V, , , , ,space,1500,1.5,5e39895de3c76419f242ad16,001,2021-08-19_16h01.58,natb3,2021.2.3,MacIntel,58.82352941,5e39895de3c76419f242ad16,611e07ecdcc96256ae8d5b80,611e723b85a45b9a948751e9,
,,,,space,0.406,,0,67,67,308,1,G, , , , ,space,1500,1.5,5e39895de3c76419f242ad16,001,2021-08-19_16h01.58,natb3,2021.2.3,MacIntel,58.82352941,5e39895de3c76419f242ad16,611e07ecdcc96256ae8d5b80,611e723b85a45b9a948751e9,
,,,,space,0.504,,0,68,68,130,1,F, , , , ,space,2000,2,5e39895de3c76419f242ad16,001,2021-08-19_16h01.58,natb3,2021.2.3,MacIntel,58.82352941,5e39895de3c76419f242ad16,611e07ecdcc96256ae8d5b80,611e723b85a45b9a948751e9,
,,,,space,0.619,,0,69,69,238,1,D, , , , ,space,1500,1.5,5e39895de3c76419f242ad16,001,2021-08-19_16h01.58,natb3,2021.2.3,MacIntel,58.82352941,5e39895de3c76419f242ad16,611e07ecdcc96256ae8d5b80,611e723b85a45b9a948751e9,
,,,,space,0.364,,0,70,70,77,1,O, , , , ,space,2000,2,5e39895de3c76419f242ad16,001,2021-08-19_16h01.58,natb3,2021.2.3,MacIntel,58.82352941,5e39895de3c76419f242ad16,611e07ecdcc96256ae8d5b80,611e723b85a45b9a948751e9,
,,,,,,,0,71,71,66,1,X, ,4,7, ,,2000,2,5e39895de3c76419f242ad16,001,2021-08-19_16h01.58,natb3,2021.2.3,MacIntel,58.82352941,5e39895de3c76419f242ad16,611e07ecdcc96256ae8d5b80,611e723b85a45b9a948751e9,
,,,,space,0.558,,0,72,72,183,1,R, , , , ,space,1500,1.5,5e39895de3c76419f242ad16,001,2021-08-19_16h01.58,natb3,2021.2.3,MacIntel,58.82352941,5e39895de3c76419f242ad16,611e07ecdcc96256ae8d5b80,611e723b85a45b9a948751e9,
,,,,space,0.687,,0,73,73,81,1,S, , , , ,space,2000,2,5e39895de3c76419f242ad16,001,2021-08-19_16h01.58,natb3,2021.2.3,MacIntel,58.82352941,5e39895de3c76419f242ad16,611e07ecdcc96256ae8d5b80,611e723b85a45b9a948751e9,
,,,,space,0.421,,0,74,74,208,1,B, , , , ,space,1500,1.5,5e39895de3c76419f242ad16,001,2021-08-19_16h01.58,natb3,2021.2.3,MacIntel,58.82352941,5e39895de3c76419f242ad16,611e07ecdcc96256ae8d5b80,611e723b85a45b9a948751e9,
,,,,space,0.429,,0,75,75,324,1,Q, , , , ,space,2000,2,5e39895de3c76419f242ad16,001,2021-08-19_16h01.58,natb3,2021.2.3,MacIntel,58.82352941,5e39895de3c76419f242ad16,611e07ecdcc96256ae8d5b80,611e723b85a45b9a948751e9,
,,,,space,0.397,,0,76,76,227,1,T, , , , ,space,1500,1.5,5e39895de3c76419f242ad16,001,2021-08-19_16h01.58,natb3,2021.2.3,MacIntel,58.82352941,5e39895de3c76419f242ad16,611e07ecdcc96256ae8d5b80,611e723b85a45b9a948751e9,
,,,,space,0.437,,0,77,77,180,1,W, , , , ,space,2000,2,5e39895de3c76419f242ad16,001,2021-08-19_16h01.58,natb3,2021.2.3,MacIntel,58.82352941,5e39895de3c76419f242ad16,611e07ecdcc96256ae8d5b80,611e723b85a45b9a948751e9,
,,,,space,0.421,,0,78,78,105,1,R, , , , ,space,2500,2.5,5e39895de3c76419f242ad16,001,2021-08-19_16h01.58,natb3,2021.2.3,MacIntel,58.82352941,5e39895de3c76419f242ad16,611e07ecdcc96256ae8d5b80,611e723b85a45b9a948751e9,
,,,,space,0.515,,0,79,79,188,1,I, , , , ,space,2500,2.5,5e39895de3c76419f242ad16,001,2021-08-19_16h01.58,natb3,2021.2.3,MacIntel,58.82352941,5e39895de3c76419f242ad16,611e07ecdcc96256ae8d5b80,611e723b85a45b9a948751e9,
,,,,,,,0,80,80,182,1,X, , , , ,,1500,1.5,5e39895de3c76419f242ad16,001,2021-08-19_16h01.58,natb3,2021.2.3,MacIntel,58.82352941,5e39895de3c76419f242ad16,611e07ecdcc96256ae8d5b80,611e723b85a45b9a948751e9,
,,,,space,0.42,,0,81,81,316,1,Z, , , , ,space,1500,1.5,5e39895de3c76419f242ad16,001,2021-08-19_16h01.58,natb3,2021.2.3,MacIntel,58.82352941,5e39895de3c76419f242ad16,611e07ecdcc96256ae8d5b80,611e723b85a45b9a948751e9,
,,,,space,0.349,,0,82,82,127,1,S, , , , ,space,2500,2.5,5e39895de3c76419f242ad16,001,2021-08-19_16h01.58,natb3,2021.2.3,MacIntel,58.82352941,5e39895de3c76419f242ad16,611e07ecdcc96256ae8d5b80,611e723b85a45b9a948751e9,
,,,,space,0.446,,0,83,83,321,1,N, , , , ,space,2000,2,5e39895de3c76419f242ad16,001,2021-08-19_16h01.58,natb3,2021.2.3,MacIntel,58.82352941,5e39895de3c76419f242ad16,611e07ecdcc96256ae8d5b80,611e723b85a45b9a948751e9,
,,,,,,,0,84,84,98,1,X, , , , ,,2500,2.5,5e39895de3c76419f242ad16,001,2021-08-19_16h01.58,natb3,2021.2.3,MacIntel,58.82352941,5e39895de3c76419f242ad16,611e07ecdcc96256ae8d5b80,611e723b85a45b9a948751e9,
,,,,space,0.439,,0,85,85,88,1,J, , , , ,space,2500,2.5,5e39895de3c76419f242ad16,001,2021-08-19_16h01.58,natb3,2021.2.3,MacIntel,58.82352941,5e39895de3c76419f242ad16,611e07ecdcc96256ae8d5b80,611e723b85a45b9a948751e9,
,,,,space,0.52,,0,86,86,269,1,A, , , , ,space,2500,2.5,5e39895de3c76419f242ad16,001,2021-08-19_16h01.58,natb3,2021.2.3,MacIntel,58.82352941,5e39895de3c76419f242ad16,611e07ecdcc96256ae8d5b80,611e723b85a45b9a948751e9,
,,,,space,0.612,,0,87,87,86,1,G, , , , ,space,2000,2,5e39895de3c76419f242ad16,001,2021-08-19_16h01.58,natb3,2021.2.3,MacIntel,58.82352941,5e39895de3c76419f242ad16,611e07ecdcc96256ae8d5b80,611e723b85a45b9a948751e9,
,,,,,,,0,88,88,175,1,X,7, ,4,2,,1500,1.5,5e39895de3c76419f242ad16,001,2021-08-19_16h01.58,natb3,2021.2.3,MacIntel,58.82352941,5e39895de3c76419f242ad16,611e07ecdcc96256ae8d5b80,611e723b85a45b9a948751e9,
,,,,space,0.79,,0,89,89,156,1,P, , , , ,space,1500,1.5,5e39895de3c76419f242ad16,001,2021-08-19_16h01.58,natb3,2021.2.3,MacIntel,58.82352941,5e39895de3c76419f242ad16,611e07ecdcc96256ae8d5b80,611e723b85a45b9a948751e9,
,,,,space,0.737,,0,90,90,184,1,T, , , , ,space,2000,2,5e39895de3c76419f242ad16,001,2021-08-19_16h01.58,natb3,2021.2.3,MacIntel,58.82352941,5e39895de3c76419f242ad16,611e07ecdcc96256ae8d5b80,611e723b85a45b9a948751e9,
,,,,space,0.614,,0,91,91,38,1,R, , , , ,space,2500,2.5,5e39895de3c76419f242ad16,001,2021-08-19_16h01.58,natb3,2021.2.3,MacIntel,58.82352941,5e39895de3c76419f242ad16,611e07ecdcc96256ae8d5b80,611e723b85a45b9a948751e9,
,,,,space,0.691,,0,92,92,115,1,R, , , , ,space,1500,1.5,5e39895de3c76419f242ad16,001,2021-08-19_16h01.58,natb3,2021.2.3,MacIntel,58.82352941,5e39895de3c76419f242ad16,611e07ecdcc96256ae8d5b80,611e723b85a45b9a948751e9,
,,,,space,0.43,,0,93,93,201,1,K, , , , ,space,1500,1.5,5e39895de3c76419f242ad16,001,2021-08-19_16h01.58,natb3,2021.2.3,MacIntel,58.82352941,5e39895de3c76419f242ad16,611e07ecdcc96256ae8d5b80,611e723b85a45b9a948751e9,
,,,,,,,0,94,94,138,1,X,8,5, ,3,,2000,2,5e39895de3c76419f242ad16,001,2021-08-19_16h01.58,natb3,2021.2.3,MacIntel,58.82352941,5e39895de3c76419f242ad16,611e07ecdcc96256ae8d5b80,611e723b85a45b9a948751e9,
,,,,space,0.537,,0,95,95,330,1,T, , , , ,space,2500,2.5,5e39895de3c76419f242ad16,001,2021-08-19_16h01.58,natb3,2021.2.3,MacIntel,58.82352941,5e39895de3c76419f242ad16,611e07ecdcc96256ae8d5b80,611e723b85a45b9a948751e9,
,,,,space,0.353,,0,96,96,206,1,V, , , , ,space,2000,2,5e39895de3c76419f242ad16,001,2021-08-19_16h01.58,natb3,2021.2.3,MacIntel,58.82352941,5e39895de3c76419f242ad16,611e07ecdcc96256ae8d5b80,611e723b85a45b9a948751e9,
,,,,space,0.314,,0,97,97,174,1,B, , , , ,space,2500,2.5,5e39895de3c76419f242ad16,001,2021-08-19_16h01.58,natb3,2021.2.3,MacIntel,58.82352941,5e39895de3c76419f242ad16,611e07ecdcc96256ae8d5b80,611e723b85a45b9a948751e9,
,,,,space,0.298,,0,98,98,212,1,Q, , , , ,space,2500,2.5,5e39895de3c76419f242ad16,001,2021-08-19_16h01.58,natb3,2021.2.3,MacIntel,58.82352941,5e39895de3c76419f242ad16,611e07ecdcc96256ae8d5b80,611e723b85a45b9a948751e9,
,,,,space,0.297,,0,99,99,317,1,C, , , , ,space,2000,2,5e39895de3c76419f242ad16,001,2021-08-19_16h01.58,natb3,2021.2.3,MacIntel,58.82352941,5e39895de3c76419f242ad16,611e07ecdcc96256ae8d5b80,611e723b85a45b9a948751e9,
,,,,space,0.395,,0,100,100,265,1,I, , , , ,space,2000,2,5e39895de3c76419f242ad16,001,2021-08-19_16h01.58,natb3,2021.2.3,MacIntel,58.82352941,5e39895de3c76419f242ad16,611e07ecdcc96256ae8d5b80,611e723b85a45b9a948751e9,
,,,,space,0.412,,0,101,101,72,1,T, , , , ,space,1500,1.5,5e39895de3c76419f242ad16,001,2021-08-19_16h01.58,natb3,2021.2.3,MacIntel,58.82352941,5e39895de3c76419f242ad16,611e07ecdcc96256ae8d5b80,611e723b85a45b9a948751e9,
,,,,space,0.319,,0,102,102,6,1,Y, , , , ,space,2500,2.5,5e39895de3c76419f242ad16,001,2021-08-19_16h01.58,natb3,2021.2.3,MacIntel,58.82352941,5e39895de3c76419f242ad16,611e07ecdcc96256ae8d5b80,611e723b85a45b9a948751e9,
,,,,,,,0,103,103,145,1,X, , , , ,,2000,2,5e39895de3c76419f242ad16,001,2021-08-19_16h01.58,natb3,2021.2.3,MacIntel,58.82352941,5e39895de3c76419f242ad16,611e07ecdcc96256ae8d5b80,611e723b85a45b9a948751e9,
,,,,,,,0,104,104,31,1,X, , , , ,,1500,1.5,5e39895de3c76419f242ad16,001,2021-08-19_16h01.58,natb3,2021.2.3,MacIntel,58.82352941,5e39895de3c76419f242ad16,611e07ecdcc96256ae8d5b80,611e723b85a45b9a948751e9,
,,,,,,,0,105,105,191,1,X,1, ,3,4,,2500,2.5,5e39895de3c76419f242ad16,001,2021-08-19_16h01.58,natb3,2021.2.3,MacIntel,58.82352941,5e39895de3c76419f242ad16,611e07ecdcc96256ae8d5b80,611e723b85a45b9a948751e9,
,,,,space,0.376,,0,106,106,139,1,V, , , , ,space,2000,2,5e39895de3c76419f242ad16,001,2021-08-19_16h01.58,natb3,2021.2.3,MacIntel,58.82352941,5e39895de3c76419f242ad16,611e07ecdcc96256ae8d5b80,611e723b85a45b9a948751e9,
,,,,space,0.581,,0,107,107,161,1,F, , , , ,space,1500,1.5,5e39895de3c76419f242ad16,001,2021-08-19_16h01.58,natb3,2021.2.3,MacIntel,58.82352941,5e39895de3c76419f242ad16,611e07ecdcc96256ae8d5b80,611e723b85a45b9a948751e9,
,,,,space,0.534,,0,108,108,242,1,H, , , , ,space,2500,2.5,5e39895de3c76419f242ad16,001,2021-08-19_16h01.58,natb3,2021.2.3,MacIntel,58.82352941,5e39895de3c76419f242ad16,611e07ecdcc96256ae8d5b80,611e723b85a45b9a948751e9,
,,,,,,,0,109,109,15,1,X, , , , ,,1500,1.5,5e39895de3c76419f242ad16,001,2021-08-19_16h01.58,natb3,2021.2.3,MacIntel,58.82352941,5e39895de3c76419f242ad16,611e07ecdcc96256ae8d5b80,611e723b85a45b9a948751e9,
,,,,space,0.403,,0,110,110,281,1,Z, , , , ,space,1500,1.5,5e39895de3c76419f242ad16,001,2021-08-19_16h01.58,natb3,2021.2.3,MacIntel,58.82352941,5e39895de3c76419f242ad16,611e07ecdcc96256ae8d5b80,611e723b85a45b9a948751e9,
,,,,space,0.43,,0,111,111,314,1,L, , , , ,space,1500,1.5,5e39895de3c76419f242ad16,001,2021-08-19_16h01.58,natb3,2021.2.3,MacIntel,58.82352941,5e39895de3c76419f242ad16,611e07ecdcc96256ae8d5b80,611e723b85a45b9a948751e9,
,,,,space,0.369,,0,112,112,225,1,E, , , , ,space,2000,2,5e39895de3c76419f242ad16,001,2021-08-19_16h01.58,natb3,2021.2.3,MacIntel,58.82352941,5e39895de3c76419f242ad16,611e07ecdcc96256ae8d5b80,611e723b85a45b9a948751e9,
,,,,,,,0,113,113,54,1,X, , , , ,,2000,2,5e39895de3c76419f242ad16,001,2021-08-19_16h01.58,natb3,2021.2.3,MacIntel,58.82352941,5e39895de3c76419f242ad16,611e07ecdcc96256ae8d5b80,611e723b85a45b9a948751e9,
,,,,space,0.547,,0,114,114,50,1,D, , , , ,space,1500,1.5,5e39895de3c76419f242ad16,001,2021-08-19_16h01.58,natb3,2021.2.3,MacIntel,58.82352941,5e39895de3c76419f242ad16,611e07ecdcc96256ae8d5b80,611e723b85a45b9a948751e9,
,,,,space,0.483,,0,115,115,194,1,D, , , , ,space,2000,2,5e39895de3c76419f242ad16,001,2021-08-19_16h01.58,natb3,2021.2.3,MacIntel,58.82352941,5e39895de3c76419f242ad16,611e07ecdcc96256ae8d5b80,611e723b85a45b9a948751e9,
,,,,,,,0,116,116,162,1,X,1,6, ,2,,1500,1.5,5e39895de3c76419f242ad16,001,2021-08-19_16h01.58,natb3,2021.2.3,MacIntel,58.82352941,5e39895de3c76419f242ad16,611e07ecdcc96256ae8d5b80,611e723b85a45b9a948751e9,
,,,,space,0.376,,0,117,117,152,1,U, , , , ,space,2000,2,5e39895de3c76419f242ad16,001,2021-08-19_16h01.58,natb3,2021.2.3,MacIntel,58.82352941,5e39895de3c76419f242ad16,611e07ecdcc96256ae8d5b80,611e723b85a45b9a948751e9,
,,,,space,0.422,,0,118,118,117,1,T, , , , ,space,2500,2.5,5e39895de3c76419f242ad16,001,2021-08-19_16h01.58,natb3,2021.2.3,MacIntel,58.82352941,5e39895de3c76419f242ad16,611e07ecdcc96256ae8d5b80,611e723b85a45b9a948751e9,
,,,,space,0.632,,0,119,119,29,1,B, , , , ,space,1500,1.5,5e39895de3c76419f242ad16,001,2021-08-19_16h01.58,natb3,2021.2.3,MacIntel,58.82352941,5e39895de3c76419f242ad16,611e07ecdcc96256ae8d5b80,611e723b85a45b9a948751e9,
,,,,space,0.354,,0,120,120,272,1,D, , , , ,space,2000,2,5e39895de3c76419f242ad16,001,2021-08-19_16h01.58,natb3,2021.2.3,MacIntel,58.82352941,5e39895de3c76419f242ad16,611e07ecdcc96256ae8d5b80,611e723b85a45b9a948751e9,
,,,,space,0.398,,0,121,121,177,1,M, , , , ,space,2500,2.5,5e39895de3c76419f242ad16,001,2021-08-19_16h01.58,natb3,2021.2.3,MacIntel,58.82352941,5e39895de3c76419f242ad16,611e07ecdcc96256ae8d5b80,611e723b85a45b9a948751e9,
,,,,space,0.38,,0,122,122,76,1,I, , , , ,space,2000,2,5e39895de3c76419f242ad16,001,2021-08-19_16h01.58,natb3,2021.2.3,MacIntel,58.82352941,5e39895de3c76419f242ad16,611e07ecdcc96256ae8d5b80,611e723b85a45b9a948751e9,
,,,,space,0.453,,0,123,123,253,1,N, , , , ,space,2500,2.5,5e39895de3c76419f242ad16,001,2021-08-19_16h01.58,natb3,2021.2.3,MacIntel,58.82352941,5e39895de3c76419f242ad16,611e07ecdcc96256ae8d5b80,611e723b85a45b9a948751e9,
,,,,space,0.449,,0,124,124,11,1,P, , , , ,space,2500,2.5,5e39895de3c76419f242ad16,001,2021-08-19_16h01.58,natb3,2021.2.3,MacIntel,58.82352941,5e39895de3c76419f242ad16,611e07ecdcc96256ae8d5b80,611e723b85a45b9a948751e9,
,,,,,,,0,125,125,252,1,X,3, ,6,9,,2000,2,5e39895de3c76419f242ad16,001,2021-08-19_16h01.58,natb3,2021.2.3,MacIntel,58.82352941,5e39895de3c76419f242ad16,611e07ecdcc96256ae8d5b80,611e723b85a45b9a948751e9,
,,,,space,0.436,,0,126,126,53,1,G, , , , ,space,2500,2.5,5e39895de3c76419f242ad16,001,2021-08-19_16h01.58,natb3,2021.2.3,MacIntel,58.82352941,5e39895de3c76419f242ad16,611e07ecdcc96256ae8d5b80,611e723b85a45b9a948751e9,
,,,,space,0.722,,0,127,127,144,1,Q, , , , ,space,2500,2.5,5e39895de3c76419f242ad16,001,2021-08-19_16h01.58,natb3,2021.2.3,MacIntel,58.82352941,5e39895de3c76419f242ad16,611e07ecdcc96256ae8d5b80,611e723b85a45b9a948751e9,
,,,,space,0.647,,0,128,128,190,1,P, , , , ,space,2000,2,5e39895de3c76419f242ad16,001,2021-08-19_16h01.58,natb3,2021.2.3,MacIntel,58.82352941,5e39895de3c76419f242ad16,611e07ecdcc96256ae8d5b80,611e723b85a45b9a948751e9,
,,,,space,0.464,,0,129,129,258,1,E, , , , ,space,1500,1.5,5e39895de3c76419f242ad16,001,2021-08-19_16h01.58,natb3,2021.2.3,MacIntel,58.82352941,5e39895de3c76419f242ad16,611e07ecdcc96256ae8d5b80,611e723b85a45b9a948751e9,
,,,,,,,0,130,130,187,1,X, ,3,7,4,,1500,1.5,5e39895de3c76419f242ad16,001,2021-08-19_16h01.58,natb3,2021.2.3,MacIntel,58.82352941,5e39895de3c76419f242ad16,611e07ecdcc96256ae8d5b80,611e723b85a45b9a948751e9,
,,,,,,,0,131,131,287,1,X, ,2, ,9,,2000,2,5e39895de3c76419f242ad16,001,2021-08-19_16h01.58,natb3,2021.2.3,MacIntel,58.82352941,5e39895de3c76419f242ad16,611e07ecdcc96256ae8d5b80,611e723b85a45b9a948751e9,
,,,,space,0.424,,0,132,132,97,1,B, , , , ,space,2500,2.5,5e39895de3c76419f242ad16,001,2021-08-19_16h01.58,natb3,2021.2.3,MacIntel,58.82352941,5e39895de3c76419f242ad16,611e07ecdcc96256ae8d5b80,611e723b85a45b9a948751e9,
,,,,space,0.329,,0,133,133,298,1,I, , , , ,space,2000,2,5e39895de3c76419f242ad16,001,2021-08-19_16h01.58,natb3,2021.2.3,MacIntel,58.82352941,5e39895de3c76419f242ad16,611e07ecdcc96256ae8d5b80,611e723b85a45b9a948751e9,
,,,,space,0.388,,0,134,134,45,1,O, , , , ,space,2000,2,5e39895de3c76419f242ad16,001,2021-08-19_16h01.58,natb3,2021.2.3,MacIntel,58.82352941,5e39895de3c76419f242ad16,611e07ecdcc96256ae8d5b80,611e723b85a45b9a948751e9,
,,,,space,0.389,,0,135,135,147,1,E, , , , ,space,2000,2,5e39895de3c76419f242ad16,001,2021-08-19_16h01.58,natb3,2021.2.3,MacIntel,58.82352941,5e39895de3c76419f242ad16,611e07ecdcc96256ae8d5b80,611e723b85a45b9a948751e9,
,,,,space,0.413,,0,136,136,167,1,K, , , , ,space,1500,1.5,5e39895de3c76419f242ad16,001,2021-08-19_16h01.58,natb3,2021.2.3,MacIntel,58.82352941,5e39895de3c76419f242ad16,611e07ecdcc96256ae8d5b80,611e723b85a45b9a948751e9,
,,,,space,0.423,,0,137,137,246,1,L, , , , ,space,2500,2.5,5e39895de3c76419f242ad16,001,2021-08-19_16h01.58,natb3,2021.2.3,MacIntel,58.82352941,5e39895de3c76419f242ad16,611e07ecdcc96256ae8d5b80,611e723b85a45b9a948751e9,
,,,,space,0.353,,0,138,138,264,1,U, , , , ,space,2000,2,5e39895de3c76419f242ad16,001,2021-08-19_16h01.58,natb3,2021.2.3,MacIntel,58.82352941,5e39895de3c76419f242ad16,611e07ecdcc96256ae8d5b80,611e723b85a45b9a948751e9,
,,,,space,0.417,,0,139,139,332,1,U, , , , ,space,2000,2,5e39895de3c76419f242ad16,001,2021-08-19_16h01.58,natb3,2021.2.3,MacIntel,58.82352941,5e39895de3c76419f242ad16,611e07ecdcc96256ae8d5b80,611e723b85a45b9a948751e9,
,,,,space,0.396,,0,140,140,78,1,X, , , , ,,2000,2,5e39895de3c76419f242ad16,001,2021-08-19_16h01.58,natb3,2021.2.3,MacIntel,58.82352941,5e39895de3c76419f242ad16,611e07ecdcc96256ae8d5b80,611e723b85a45b9a948751e9,
,,,,space,0.513,,0,141,141,192,1,A, , , , ,space,2000,2,5e39895de3c76419f242ad16,001,2021-08-19_16h01.58,natb3,2021.2.3,MacIntel,58.82352941,5e39895de3c76419f242ad16,611e07ecdcc96256ae8d5b80,611e723b85a45b9a948751e9,
,,,,space,0.673,,0,142,142,209,1,N, , , , ,space,2000,2,5e39895de3c76419f242ad16,001,2021-08-19_16h01.58,natb3,2021.2.3,MacIntel,58.82352941,5e39895de3c76419f242ad16,611e07ecdcc96256ae8d5b80,611e723b85a45b9a948751e9,
,,,,,,,0,143,143,291,1,X, , , , ,,2000,2,5e39895de3c76419f242ad16,001,2021-08-19_16h01.58,natb3,2021.2.3,MacIntel,58.82352941,5e39895de3c76419f242ad16,611e07ecdcc96256ae8d5b80,611e723b85a45b9a948751e9,
,,,,space,0.454,,0,144,144,21,1,J, , , , ,space,1500,1.5,5e39895de3c76419f242ad16,001,2021-08-19_16h01.58,natb3,2021.2.3,MacIntel,58.82352941,5e39895de3c76419f242ad16,611e07ecdcc96256ae8d5b80,611e723b85a45b9a948751e9,
,,,,space,0.816,,0,145,145,266,1,O, , , , ,space,1500,1.5,5e39895de3c76419f242ad16,001,2021-08-19_16h01.58,natb3,2021.2.3,MacIntel,58.82352941,5e39895de3c76419f242ad16,611e07ecdcc96256ae8d5b80,611e723b85a45b9a948751e9,
,,,,,,,0,146,146,133,1,X, ,4, ,6,,2500,2.5,5e39895de3c76419f242ad16,001,2021-08-19_16h01.58,natb3,2021.2.3,MacIntel,58.82352941,5e39895de3c76419f242ad16,611e07ecdcc96256ae8d5b80,611e723b85a45b9a948751e9,
,,,,space,0.476,,0,147,147,165,1,J, , , , ,space,2500,2.5,5e39895de3c76419f242ad16,001,2021-08-19_16h01.58,natb3,2021.2.3,MacIntel,58.82352941,5e39895de3c76419f242ad16,611e07ecdcc96256ae8d5b80,611e723b85a45b9a948751e9,
,,,,space,0.355,,0,148,148,34,1,Q, , , , ,space,2500,2.5,5e39895de3c76419f242ad16,001,2021-08-19_16h01.58,natb3,2021.2.3,MacIntel,58.82352941,5e39895de3c76419f242ad16,611e07ecdcc96256ae8d5b80,611e723b85a45b9a948751e9,
,,,,space,0.636,,0,149,149,237,1,S, , , , ,space,1500,1.5,5e39895de3c76419f242ad16,001,2021-08-19_16h01.58,natb3,2021.2.3,MacIntel,58.82352941,5e39895de3c76419f242ad16,611e07ecdcc96256ae8d5b80,611e723b85a45b9a948751e9,
,,,,space,0.317,,0,150,150,203,1,X, , , , ,,2500,2.5,5e39895de3c76419f242ad16,001,2021-08-19_16h01.58,natb3,2021.2.3,MacIntel,58.82352941,5e39895de3c76419f242ad16,611e07ecdcc96256ae8d5b80,611e723b85a45b9a948751e9,
,,,,,,,0,151,151,122,1,X,1, , ,8,,1500,1.5,5e39895de3c76419f242ad16,001,2021-08-19_16h01.58,natb3,2021.2.3,MacIntel,58.82352941,5e39895de3c76419f242ad16,611e07ecdcc96256ae8d5b80,611e723b85a45b9a948751e9,
,,,,,,,0,152,152,12,1,X, , , , ,,1500,1.5,5e39895de3c76419f242ad16,001,2021-08-19_16h01.58,natb3,2021.2.3,MacIntel,58.82352941,5e39895de3c76419f242ad16,611e07ecdcc96256ae8d5b80,611e723b85a45b9a948751e9,
,,,,space,0.53,,0,153,153,146,1,W, , , , ,space,1500,1.5,5e39895de3c76419f242ad16,001,2021-08-19_16h01.58,natb3,2021.2.3,MacIntel,58.82352941,5e39895de3c76419f242ad16,611e07ecdcc96256ae8d5b80,611e723b85a45b9a948751e9,
,,,,space,0.432,,0,154,154,239,1,X, , , , ,,2000,2,5e39895de3c76419f242ad16,001,2021-08-19_16h01.58,natb3,2021.2.3,MacIntel,58.82352941,5e39895de3c76419f242ad16,611e07ecdcc96256ae8d5b80,611e723b85a45b9a948751e9,
,,,,space,0.486,,0,155,155,140,1,B, , , , ,space,2500,2.5,5e39895de3c76419f242ad16,001,2021-08-19_16h01.58,natb3,2021.2.3,MacIntel,58.82352941,5e39895de3c76419f242ad16,611e07ecdcc96256ae8d5b80,611e723b85a45b9a948751e9,
,,,,space,0.539,,0,156,156,91,1,L, , , , ,space,2000,2,5e39895de3c76419f242ad16,001,2021-08-19_16h01.58,natb3,2021.2.3,MacIntel,58.82352941,5e39895de3c76419f242ad16,611e07ecdcc96256ae8d5b80,611e723b85a45b9a948751e9,
,,,,space,0.63,,0,157,157,132,1,H, , , , ,space,2500,2.5,5e39895de3c76419f242ad16,001,2021-08-19_16h01.58,natb3,2021.2.3,MacIntel,58.82352941,5e39895de3c76419f242ad16,611e07ecdcc96256ae8d5b80,611e723b85a45b9a948751e9,
,,,,space,0.565,,0,158,158,270,1,S, , , , ,space,1500,1.5,5e39895de3c76419f242ad16,001,2021-08-19_16h01.58,natb3,2021.2.3,MacIntel,58.82352941,5e39895de3c76419f242ad16,611e07ecdcc96256ae8d5b80,611e723b85a45b9a948751e9,
,,,,,,,0,159,159,207,1,X,9, ,2, ,,2500,2.5,5e39895de3c76419f242ad16,001,2021-08-19_16h01.58,natb3,2021.2.3,MacIntel,58.82352941,5e39895de3c76419f242ad16,611e07ecdcc96256ae8d5b80,611e723b85a45b9a948751e9,
,,,,space,0.59,,0,160,160,154,1,I, , , , ,space,2500,2.5,5e39895de3c76419f242ad16,001,2021-08-19_16h01.58,natb3,2021.2.3,MacIntel,58.82352941,5e39895de3c76419f242ad16,611e07ecdcc96256ae8d5b80,611e723b85a45b9a948751e9,
,,,,space,0.531,,0,161,161,96,1,X, , , , ,,1500,1.5,5e39895de3c76419f242ad16,001,2021-08-19_16h01.58,natb3,2021.2.3,MacIntel,58.82352941,5e39895de3c76419f242ad16,611e07ecdcc96256ae8d5b80,611e723b85a45b9a948751e9,
,,,,,,,0,162,162,282,1,X, , , , ,,2500,2.5,5e39895de3c76419f242ad16,001,2021-08-19_16h01.58,natb3,2021.2.3,MacIntel,58.82352941,5e39895de3c76419f242ad16,611e07ecdcc96256ae8d5b80,611e723b85a45b9a948751e9,
,,,,space,0.581,,0,163,163,62,1,V, , , , ,space,1500,1.5,5e39895de3c76419f242ad16,001,2021-08-19_16h01.58,natb3,2021.2.3,MacIntel,58.82352941,5e39895de3c76419f242ad16,611e07ecdcc96256ae8d5b80,611e723b85a45b9a948751e9,
,,,,space,0.596,,0,164,164,193,1,S, , , , ,space,2500,2.5,5e39895de3c76419f242ad16,001,2021-08-19_16h01.58,natb3,2021.2.3,MacIntel,58.82352941,5e39895de3c76419f242ad16,611e07ecdcc96256ae8d5b80,611e723b85a45b9a948751e9,
,,,,space,0.496,,0,165,165,256,1,Q, , , , ,space,2000,2,5e39895de3c76419f242ad16,001,2021-08-19_16h01.58,natb3,2021.2.3,MacIntel,58.82352941,5e39895de3c76419f242ad16,611e07ecdcc96256ae8d5b80,611e723b85a45b9a948751e9,
,,,,space,0.521,,0,166,166,52,1,F, , , , ,space,1500,1.5,5e39895de3c76419f242ad16,001,2021-08-19_16h01.58,natb3,2021.2.3,MacIntel,58.82352941,5e39895de3c76419f242ad16,611e07ecdcc96256ae8d5b80,611e723b85a45b9a948751e9,
,,,,space,0.399,space,0,167,167,124,1,P, , , , ,space,2000,2,5e39895de3c76419f242ad16,001,2021-08-19_16h01.58,natb3,2021.2.3,MacIntel,58.82352941,5e39895de3c76419f242ad16,611e07ecdcc96256ae8d5b80,611e723b85a45b9a948751e9,15.815
,,,,,,,0,168,168,255,1,X, , , , ,,1500,1.5,5e39895de3c76419f242ad16,001,2021-08-19_16h01.58,natb3,2021.2.3,MacIntel,58.82352941,5e39895de3c76419f242ad16,611e07ecdcc96256ae8d5b80,611e723b85a45b9a948751e9,
,,,,,,,0,169,169,305,1,X, , , , ,,1500,1.5,5e39895de3c76419f242ad16,001,2021-08-19_16h01.58,natb3,2021.2.3,MacIntel,58.82352941,5e39895de3c76419f242ad16,611e07ecdcc96256ae8d5b80,611e723b85a45b9a948751e9,
,,,,space,0.43,,0,170,170,290,1,W, , , , ,space,1500,1.5,5e39895de3c76419f242ad16,001,2021-08-19_16h01.58,natb3,2021.2.3,MacIntel,58.82352941,5e39895de3c76419f242ad16,611e07ecdcc96256ae8d5b80,611e723b85a45b9a948751e9,
,,,,space,0.399,,0,171,171,26,1,C, , , , ,space,2000,2,5e39895de3c76419f242ad16,001,2021-08-19_16h01.58,natb3,2021.2.3,MacIntel,58.82352941,5e39895de3c76419f242ad16,611e07ecdcc96256ae8d5b80,611e723b85a45b9a948751e9,
,,,,space,0.453,,0,172,172,114,1,E, , , , ,space,2000,2,5e39895de3c76419f242ad16,001,2021-08-19_16h01.58,natb3,2021.2.3,MacIntel,58.82352941,5e39895de3c76419f242ad16,611e07ecdcc96256ae8d5b80,611e723b85a45b9a948751e9,
,,,,space,0.42,,0,173,173,231,1,I, , , , ,space,2500,2.5,5e39895de3c76419f242ad16,001,2021-08-19_16h01.58,natb3,2021.2.3,MacIntel,58.82352941,5e39895de3c76419f242ad16,611e07ecdcc96256ae8d5b80,611e723b85a45b9a948751e9,
,,,,space,0.39,,0,174,174,14,1,S, , , , ,space,2500,2.5,5e39895de3c76419f242ad16,001,2021-08-19_16h01.58,natb3,2021.2.3,MacIntel,58.82352941,5e39895de3c76419f242ad16,611e07ecdcc96256ae8d5b80,611e723b85a45b9a948751e9,
,,,,space,0.405,,0,175,175,157,1,A, , , , ,space,2500,2.5,5e39895de3c76419f242ad16,001,2021-08-19_16h01.58,natb3,2021.2.3,MacIntel,58.82352941,5e39895de3c76419f242ad16,611e07ecdcc96256ae8d5b80,611e723b85a45b9a948751e9,
,,,,,,,0,176,176,268,1,X,6, ,3, ,,2500,2.5,5e39895de3c76419f242ad16,001,2021-08-19_16h01.58,natb3,2021.2.3,MacIntel,58.82352941,5e39895de3c76419f242ad16,611e07ecdcc96256ae8d5b80,611e723b85a45b9a948751e9,
,,,,space,0.892,,0,177,177,288,1,M, , , , ,space,1500,1.5,5e39895de3c76419f242ad16,001,2021-08-19_16h01.58,natb3,2021.2.3,MacIntel,58.82352941,5e39895de3c76419f242ad16,611e07ecdcc96256ae8d5b80,611e723b85a45b9a948751e9,
,,,,space,0.432,,0,178,178,55,1,H, , , , ,space,2500,2.5,5e39895de3c76419f242ad16,001,2021-08-19_16h01.58,natb3,2021.2.3,MacIntel,58.82352941,5e39895de3c76419f242ad16,611e07ecdcc96256ae8d5b80,611e723b85a45b9a948751e9,
,,,,space,0.533,,0,179,179,204,1,Z, , , , ,space,2000,2,5e39895de3c76419f242ad16,001,2021-08-19_16h01.58,natb3,2021.2.3,MacIntel,58.82352941,5e39895de3c76419f242ad16,611e07ecdcc96256ae8d5b80,611e723b85a45b9a948751e9,
,,,,,,,0,180,180,125,1,X, , , , ,,2000,2,5e39895de3c76419f242ad16,001,2021-08-19_16h01.58,natb3,2021.2.3,MacIntel,58.82352941,5e39895de3c76419f242ad16,611e07ecdcc96256ae8d5b80,611e723b85a45b9a948751e9,
,,,,space,0.438,,0,181,181,186,1,U, , , , ,space,2500,2.5,5e39895de3c76419f242ad16,001,2021-08-19_16h01.58,natb3,2021.2.3,MacIntel,58.82352941,5e39895de3c76419f242ad16,611e07ecdcc96256ae8d5b80,611e723b85a45b9a948751e9,
,,,,space,0.747,,0,182,182,250,1,V, , , , ,space,2000,2,5e39895de3c76419f242ad16,001,2021-08-19_16h01.58,natb3,2021.2.3,MacIntel,58.82352941,5e39895de3c76419f242ad16,611e07ecdcc96256ae8d5b80,611e723b85a45b9a948751e9,
,,,,space,0.422,,0,183,183,24,1,L, , , , ,space,2500,2.5,5e39895de3c76419f242ad16,001,2021-08-19_16h01.58,natb3,2021.2.3,MacIntel,58.82352941,5e39895de3c76419f242ad16,611e07ecdcc96256ae8d5b80,611e723b85a45b9a948751e9,
,,,,,,,0,184,184,23,1,X,1, ,5, ,,2000,2,5e39895de3c76419f242ad16,001,2021-08-19_16h01.58,natb3,2021.2.3,MacIntel,58.82352941,5e39895de3c76419f242ad16,611e07ecdcc96256ae8d5b80,611e723b85a45b9a948751e9,
,,,,space,0.664,,0,185,185,10,1,O, , , , ,space,2000,2,5e39895de3c76419f242ad16,001,2021-08-19_16h01.58,natb3,2021.2.3,MacIntel,58.82352941,5e39895de3c76419f242ad16,611e07ecdcc96256ae8d5b80,611e723b85a45b9a948751e9,
,,,,space,0.428,,0,186,186,116,1,X, , , , ,,2000,2,5e39895de3c76419f242ad16,001,2021-08-19_16h01.58,natb3,2021.2.3,MacIntel,58.82352941,5e39895de3c76419f242ad16,611e07ecdcc96256ae8d5b80,611e723b85a45b9a948751e9,
,,,,,,,0,187,187,148,1,X, , , , ,,2000,2,5e39895de3c76419f242ad16,001,2021-08-19_16h01.58,natb3,2021.2.3,MacIntel,58.82352941,5e39895de3c76419f242ad16,611e07ecdcc96256ae8d5b80,611e723b85a45b9a948751e9,
,,,,,,,0,188,188,302,1,X, , , , ,,2000,2,5e39895de3c76419f242ad16,001,2021-08-19_16h01.58,natb3,2021.2.3,MacIntel,58.82352941,5e39895de3c76419f242ad16,611e07ecdcc96256ae8d5b80,611e723b85a45b9a948751e9,
,,,,space,0.49,,0,189,189,0,1,Q, , , , ,space,1500,1.5,5e39895de3c76419f242ad16,001,2021-08-19_16h01.58,natb3,2021.2.3,MacIntel,58.82352941,5e39895de3c76419f242ad16,611e07ecdcc96256ae8d5b80,611e723b85a45b9a948751e9,
,,,,space,0.464,,0,190,190,300,1,O, , , , ,space,2500,2.5,5e39895de3c76419f242ad16,001,2021-08-19_16h01.58,natb3,2021.2.3,MacIntel,58.82352941,5e39895de3c76419f242ad16,611e07ecdcc96256ae8d5b80,611e723b85a45b9a948751e9,
,,,,space,0.442,,0,191,191,278,1,J, , , , ,space,2000,2,5e39895de3c76419f242ad16,001,2021-08-19_16h01.58,natb3,2021.2.3,MacIntel,58.82352941,5e39895de3c76419f242ad16,611e07ecdcc96256ae8d5b80,611e723b85a45b9a948751e9,
,,,,space,0.604,,0,192,192,49,1,S, , , , ,space,1500,1.5,5e39895de3c76419f242ad16,001,2021-08-19_16h01.58,natb3,2021.2.3,MacIntel,58.82352941,5e39895de3c76419f242ad16,611e07ecdcc96256ae8d5b80,611e723b85a45b9a948751e9,
,,,,space,0.504,,0,193,193,223,1,Q, , , , ,space,2000,2,5e39895de3c76419f242ad16,001,2021-08-19_16h01.58,natb3,2021.2.3,MacIntel,58.82352941,5e39895de3c76419f242ad16,611e07ecdcc96256ae8d5b80,611e723b85a45b9a948751e9,
,,,,space,0.475,,0,194,194,297,1,U, , , , ,space,2000,2,5e39895de3c76419f242ad16,001,2021-08-19_16h01.58,natb3,2021.2.3,MacIntel,58.82352941,5e39895de3c76419f242ad16,611e07ecdcc96256ae8d5b80,611e723b85a45b9a948751e9,
,,,,space,0.548,,0,195,195,219,1,Y, , , , ,space,2000,2,5e39895de3c76419f242ad16,001,2021-08-19_16h01.58,natb3,2021.2.3,MacIntel,58.82352941,5e39895de3c76419f242ad16,611e07ecdcc96256ae8d5b80,611e723b85a45b9a948751e9,
,,,,,,,0,196,196,171,1,X, , , , ,,1500,1.5,5e39895de3c76419f242ad16,001,2021-08-19_16h01.58,natb3,2021.2.3,MacIntel,58.82352941,5e39895de3c76419f242ad16,611e07ecdcc96256ae8d5b80,611e723b85a45b9a948751e9,
,,,,space,0.455,,0,197,197,216,1,R, , , , ,space,1500,1.5,5e39895de3c76419f242ad16,001,2021-08-19_16h01.58,natb3,2021.2.3,MacIntel,58.82352941,5e39895de3c76419f242ad16,611e07ecdcc96256ae8d5b80,611e723b85a45b9a948751e9,
,,,,,,,0,198,198,200,1,X,7, ,5,3,,1500,1.5,5e39895de3c76419f242ad16,001,2021-08-19_16h01.58,natb3,2021.2.3,MacIntel,58.82352941,5e39895de3c76419f242ad16,611e07ecdcc96256ae8d5b80,611e723b85a45b9a948751e9,
,,,,space,0.374,,0,199,199,79,1,P, , , , ,space,2000,2,5e39895de3c76419f242ad16,001,2021-08-19_16h01.58,natb3,2021.2.3,MacIntel,58.82352941,5e39895de3c76419f242ad16,611e07ecdcc96256ae8d5b80,611e723b85a45b9a948751e9,
,,,,space,0.675,,0,200,200,36,1,W, , , , ,space,2000,2,5e39895de3c76419f242ad16,001,2021-08-19_16h01.58,natb3,2021.2.3,MacIntel,58.82352941,5e39895de3c76419f242ad16,611e07ecdcc96256ae8d5b80,611e723b85a45b9a948751e9,
,,,,,,,0,201,201,7,1,X, , , , ,,1500,1.5,5e39895de3c76419f242ad16,001,2021-08-19_16h01.58,natb3,2021.2.3,MacIntel,58.82352941,5e39895de3c76419f242ad16,611e07ecdcc96256ae8d5b80,611e723b85a45b9a948751e9,
,,,,space,0.45,,0,202,202,151,1,Y, , , , ,space,2500,2.5,5e39895de3c76419f242ad16,001,2021-08-19_16h01.58,natb3,2021.2.3,MacIntel,58.82352941,5e39895de3c76419f242ad16,611e07ecdcc96256ae8d5b80,611e723b85a45b9a948751e9,
,,,,space,0.397,,0,203,203,240,1,F, , , , ,space,2500,2.5,5e39895de3c76419f242ad16,001,2021-08-19_16h01.58,natb3,2021.2.3,MacIntel,58.82352941,5e39895de3c76419f242ad16,611e07ecdcc96256ae8d5b80,611e723b85a45b9a948751e9,
,,,,space,0.453,,0,204,204,42,1,U, , , , ,space,1500,1.5,5e39895de3c76419f242ad16,001,2021-08-19_16h01.58,natb3,2021.2.3,MacIntel,58.82352941,5e39895de3c76419f242ad16,611e07ecdcc96256ae8d5b80,611e723b85a45b9a948751e9,
,,,,space,0.404,,0,205,205,163,1,G, , , , ,space,2500,2.5,5e39895de3c76419f242ad16,001,2021-08-19_16h01.58,natb3,2021.2.3,MacIntel,58.82352941,5e39895de3c76419f242ad16,611e07ecdcc96256ae8d5b80,611e723b85a45b9a948751e9,
,,,,space,0.431,,0,206,206,47,1,P, , , , ,space,2000,2,5e39895de3c76419f242ad16,001,2021-08-19_16h01.58,natb3,2021.2.3,MacIntel,58.82352941,5e39895de3c76419f242ad16,611e07ecdcc96256ae8d5b80,611e723b85a45b9a948751e9,
,,,,,,,0,207,207,211,1,X, , , , ,,2500,2.5,5e39895de3c76419f242ad16,001,2021-08-19_16h01.58,natb3,2021.2.3,MacIntel,58.82352941,5e39895de3c76419f242ad16,611e07ecdcc96256ae8d5b80,611e723b85a45b9a948751e9,
,,,,,,,0,208,208,27,1,X,5, ,1,3,,1500,1.5,5e39895de3c76419f242ad16,001,2021-08-19_16h01.58,natb3,2021.2.3,MacIntel,58.82352941,5e39895de3c76419f242ad16,611e07ecdcc96256ae8d5b80,611e723b85a45b9a948751e9,
,,,,space,0.523,,0,209,209,59,1,Z, , , , ,space,2000,2,5e39895de3c76419f242ad16,001,2021-08-19_16h01.58,natb3,2021.2.3,MacIntel,58.82352941,5e39895de3c76419f242ad16,611e07ecdcc96256ae8d5b80,611e723b85a45b9a948751e9,
,,,,space,0.564,,0,210,210,2,1,E, , , , ,space,2500,2.5,5e39895de3c76419f242ad16,001,2021-08-19_16h01.58,natb3,2021.2.3,MacIntel,58.82352941,5e39895de3c76419f242ad16,611e07ecdcc96256ae8d5b80,611e723b85a45b9a948751e9,
,,,,,,,0,211,211,102,1,X, ,6, , ,,1500,1.5,5e39895de3c76419f242ad16,001,2021-08-19_16h01.58,natb3,2021.2.3,MacIntel,58.82352941,5e39895de3c76419f242ad16,611e07ecdcc96256ae8d5b80,611e723b85a45b9a948751e9,
,,,,space,0.561,,0,212,212,327,1,E, , , , ,space,1500,1.5,5e39895de3c76419f242ad16,001,2021-08-19_16h01.58,natb3,2021.2.3,MacIntel,58.82352941,5e39895de3c76419f242ad16,611e07ecdcc96256ae8d5b80,611e723b85a45b9a948751e9,
,,,,space,0.574,,0,213,213,58,1,L, , , , ,space,2000,2,5e39895de3c76419f242ad16,001,2021-08-19_16h01.58,natb3,2021.2.3,MacIntel,58.82352941,5e39895de3c76419f242ad16,611e07ecdcc96256ae8d5b80,611e723b85a45b9a948751e9,
,,,,space,0.49,,0,214,214,222,1,O, , , , ,space,2000,2,5e39895de3c76419f242ad16,001,2021-08-19_16h01.58,natb3,2021.2.3,MacIntel,58.82352941,5e39895de3c76419f242ad16,611e07ecdcc96256ae8d5b80,611e723b85a45b9a948751e9,
,,,,space,0.567,,0,215,215,137,1,C, , , , ,space,2500,2.5,5e39895de3c76419f242ad16,001,2021-08-19_16h01.58,natb3,2021.2.3,MacIntel,58.82352941,5e39895de3c76419f242ad16,611e07ecdcc96256ae8d5b80,611e723b85a45b9a948751e9,
,,,,space,0.632,,0,216,216,319,1,V, , , , ,space,2000,2,5e39895de3c76419f242ad16,001,2021-08-19_16h01.58,natb3,2021.2.3,MacIntel,58.82352941,5e39895de3c76419f242ad16,611e07ecdcc96256ae8d5b80,611e723b85a45b9a948751e9,
,,,,space,0.58,,0,217,217,123,1,O, , , , ,space,1500,1.5,5e39895de3c76419f242ad16,001,2021-08-19_16h01.58,natb3,2021.2.3,MacIntel,58.82352941,5e39895de3c76419f242ad16,611e07ecdcc96256ae8d5b80,611e723b85a45b9a948751e9,
,,,,space,0.431,,0,218,218,113,1,W, , , , ,space,2500,2.5,5e39895de3c76419f242ad16,001,2021-08-19_16h01.58,natb3,2021.2.3,MacIntel,58.82352941,5e39895de3c76419f242ad16,611e07ecdcc96256ae8d5b80,611e723b85a45b9a948751e9,
,,,,space,0.514,,0,219,219,83,1,D, , , , ,space,2000,2,5e39895de3c76419f242ad16,001,2021-08-19_16h01.58,natb3,2021.2.3,MacIntel,58.82352941,5e39895de3c76419f242ad16,611e07ecdcc96256ae8d5b80,611e723b85a45b9a948751e9,
,,,,space,0.548,,0,220,220,3,1,R, , , , ,space,2000,2,5e39895de3c76419f242ad16,001,2021-08-19_16h01.58,natb3,2021.2.3,MacIntel,58.82352941,5e39895de3c76419f242ad16,611e07ecdcc96256ae8d5b80,611e723b85a45b9a948751e9,
,,,,space,0.454,,0,221,221,111,1,O, , , , ,space,2000,2,5e39895de3c76419f242ad16,001,2021-08-19_16h01.58,natb3,2021.2.3,MacIntel,58.82352941,5e39895de3c76419f242ad16,611e07ecdcc96256ae8d5b80,611e723b85a45b9a948751e9,
,,,,space,0.431,,0,222,222,286,1,N, , , , ,space,1500,1.5,5e39895de3c76419f242ad16,001,2021-08-19_16h01.58,natb3,2021.2.3,MacIntel,58.82352941,5e39895de3c76419f242ad16,611e07ecdcc96256ae8d5b80,611e723b85a45b9a948751e9,
,,,,space,0.505,,0,223,223,94,1,C, , , , ,space,2000,2,5e39895de3c76419f242ad16,001,2021-08-19_16h01.58,natb3,2021.2.3,MacIntel,58.82352941,5e39895de3c76419f242ad16,611e07ecdcc96256ae8d5b80,611e723b85a45b9a948751e9,
,,,,space,0.548,,0,224,224,271,1,X, , , , ,,2500,2.5,5e39895de3c76419f242ad16,001,2021-08-19_16h01.58,natb3,2021.2.3,MacIntel,58.82352941,5e39895de3c76419f242ad16,611e07ecdcc96256ae8d5b80,611e723b85a45b9a948751e9,
,,,,,,,0,225,225,39,1,X,6,2, , ,,1500,1.5,5e39895de3c76419f242ad16,001,2021-08-19_16h01.58,natb3,2021.2.3,MacIntel,58.82352941,5e39895de3c76419f242ad16,611e07ecdcc96256ae8d5b80,611e723b85a45b9a948751e9,
,,,,,,,0,226,226,74,1,X, ,4,3,2,,1500,1.5,5e39895de3c76419f242ad16,001,2021-08-19_16h01.58,natb3,2021.2.3,MacIntel,58.82352941,5e39895de3c76419f242ad16,611e07ecdcc96256ae8d5b80,611e723b85a45b9a948751e9,
,,,,,,,0,227,227,179,1,X, ,9, ,2,,1500,1.5,5e39895de3c76419f242ad16,001,2021-08-19_16h01.58,natb3,2021.2.3,MacIntel,58.82352941,5e39895de3c76419f242ad16,611e07ecdcc96256ae8d5b80,611e723b85a45b9a948751e9,
,,,,,,,0,228,228,143,1,M, , , , ,space,2500,2.5,5e39895de3c76419f242ad16,001,2021-08-19_16h01.58,natb3,2021.2.3,MacIntel,58.82352941,5e39895de3c76419f242ad16,611e07ecdcc96256ae8d5b80,611e723b85a45b9a948751e9,
,,,,space,0.415,,0,229,229,109,1,U, , , , ,space,1500,1.5,5e39895de3c76419f242ad16,001,2021-08-19_16h01.58,natb3,2021.2.3,MacIntel,58.82352941,5e39895de3c76419f242ad16,611e07ecdcc96256ae8d5b80,611e723b85a45b9a948751e9,
,,,,space,0.647,,0,230,230,244,1,J, , , , ,space,1500,1.5,5e39895de3c76419f242ad16,001,2021-08-19_16h01.58,natb3,2021.2.3,MacIntel,58.82352941,5e39895de3c76419f242ad16,611e07ecdcc96256ae8d5b80,611e723b85a45b9a948751e9,
,,,,space,0.381,,0,231,231,325,1,X, , , , ,,2500,2.5,5e39895de3c76419f242ad16,001,2021-08-19_16h01.58,natb3,2021.2.3,MacIntel,58.82352941,5e39895de3c76419f242ad16,611e07ecdcc96256ae8d5b80,611e723b85a45b9a948751e9,
,,,,space,0.898,,0,232,232,181,1,E, , , , ,space,1500,1.5,5e39895de3c76419f242ad16,001,2021-08-19_16h01.58,natb3,2021.2.3,MacIntel,58.82352941,5e39895de3c76419f242ad16,611e07ecdcc96256ae8d5b80,611e723b85a45b9a948751e9,
,,,,space,0.405,,0,233,233,323,1,M, , , , ,space,2500,2.5,5e39895de3c76419f242ad16,001,2021-08-19_16h01.58,natb3,2021.2.3,MacIntel,58.82352941,5e39895de3c76419f242ad16,611e07ecdcc96256ae8d5b80,611e723b85a45b9a948751e9,
,,,,space,0.58,,0,234,234,9,1,I, , , , ,space,1500,1.5,5e39895de3c76419f242ad16,001,2021-08-19_16h01.58,natb3,2021.2.3,MacIntel,58.82352941,5e39895de3c76419f242ad16,611e07ecdcc96256ae8d5b80,611e723b85a45b9a948751e9,
,,,,space,0.398,,0,235,235,20,1,H, , , , ,space,1500,1.5,5e39895de3c76419f242ad16,001,2021-08-19_16h01.58,natb3,2021.2.3,MacIntel,58.82352941,5e39895de3c76419f242ad16,611e07ecdcc96256ae8d5b80,611e723b85a45b9a948751e9,
,,,,space,0.357,,0,236,236,126,1,A, , , , ,space,2500,2.5,5e39895de3c76419f242ad16,001,2021-08-19_16h01.58,natb3,2021.2.3,MacIntel,58.82352941,5e39895de3c76419f242ad16,611e07ecdcc96256ae8d5b80,611e723b85a45b9a948751e9,
,,,,space,0.515,,0,237,237,245,1,K, , , , ,space,2000,2,5e39895de3c76419f242ad16,001,2021-08-19_16h01.58,natb3,2021.2.3,MacIntel,58.82352941,5e39895de3c76419f242ad16,611e07ecdcc96256ae8d5b80,611e723b85a45b9a948751e9,
,,,,space,0.381,,0,238,238,289,1,Q, , , , ,space,2000,2,5e39895de3c76419f242ad16,001,2021-08-19_16h01.58,natb3,2021.2.3,MacIntel,58.82352941,5e39895de3c76419f242ad16,611e07ecdcc96256ae8d5b80,611e723b85a45b9a948751e9,
,,,,space,0.516,,0,239,239,189,1,O, , , , ,space,1500,1.5,5e39895de3c76419f242ad16,001,2021-08-19_16h01.58,natb3,2021.2.3,MacIntel,58.82352941,5e39895de3c76419f242ad16,611e07ecdcc96256ae8d5b80,611e723b85a45b9a948751e9,
,,,,space,0.397,,0,240,240,176,1,N, , , , ,space,1500,1.5,5e39895de3c76419f242ad16,001,2021-08-19_16h01.58,natb3,2021.2.3,MacIntel,58.82352941,5e39895de3c76419f242ad16,611e07ecdcc96256ae8d5b80,611e723b85a45b9a948751e9,
,,,,space,0.414,,0,241,241,108,1,Y, , , , ,space,2500,2.5,5e39895de3c76419f242ad16,001,2021-08-19_16h01.58,natb3,2021.2.3,MacIntel,58.82352941,5e39895de3c76419f242ad16,611e07ecdcc96256ae8d5b80,611e723b85a45b9a948751e9,
,,,,space,0.421,,0,242,242,312,1,K, , , , ,space,2000,2,5e39895de3c76419f242ad16,001,2021-08-19_16h01.58,natb3,2021.2.3,MacIntel,58.82352941,5e39895de3c76419f242ad16,611e07ecdcc96256ae8d5b80,611e723b85a45b9a948751e9,
,,,,space,0.337,,0,243,243,247,1,Z, , , , ,space,1500,1.5,5e39895de3c76419f242ad16,001,2021-08-19_16h01.58,natb3,2021.2.3,MacIntel,58.82352941,5e39895de3c76419f242ad16,611e07ecdcc96256ae8d5b80,611e723b85a45b9a948751e9,
,,,,space,0.33,,0,244,244,294,1,T, , , , ,space,2000,2,5e39895de3c76419f242ad16,001,2021-08-19_16h01.58,natb3,2021.2.3,MacIntel,58.82352941,5e39895de3c76419f242ad16,611e07ecdcc96256ae8d5b80,611e723b85a45b9a948751e9,
,,,,space,0.315,,0,245,245,63,1,B, , , , ,space,2000,2,5e39895de3c76419f242ad16,001,2021-08-19_16h01.58,natb3,2021.2.3,MacIntel,58.82352941,5e39895de3c76419f242ad16,611e07ecdcc96256ae8d5b80,611e723b85a45b9a948751e9,
,,,,,,,0,246,246,93,1,X,5, ,7, ,,2500,2.5,5e39895de3c76419f242ad16,001,2021-08-19_16h01.58,natb3,2021.2.3,MacIntel,58.82352941,5e39895de3c76419f242ad16,611e07ecdcc96256ae8d5b80,611e723b85a45b9a948751e9,
,,,,space,0.387,,0,247,247,273,1,X, , , , ,,2000,2,5e39895de3c76419f242ad16,001,2021-08-19_16h01.58,natb3,2021.2.3,MacIntel,58.82352941,5e39895de3c76419f242ad16,611e07ecdcc96256ae8d5b80,611e723b85a45b9a948751e9,
,,,,,,,0,248,248,4,1,X, , , , ,,2000,2,5e39895de3c76419f242ad16,001,2021-08-19_16h01.58,natb3,2021.2.3,MacIntel,58.82352941,5e39895de3c76419f242ad16,611e07ecdcc96256ae8d5b80,611e723b85a45b9a948751e9,
,,,,,,,0,249,249,218,1,X,1,3, ,8,,1500,1.5,5e39895de3c76419f242ad16,001,2021-08-19_16h01.58,natb3,2021.2.3,MacIntel,58.82352941,5e39895de3c76419f242ad16,611e07ecdcc96256ae8d5b80,611e723b85a45b9a948751e9,
,,,,space,0.494,,0,250,250,214,1,W, , , , ,space,2000,2,5e39895de3c76419f242ad16,001,2021-08-19_16h01.58,natb3,2021.2.3,MacIntel,58.82352941,5e39895de3c76419f242ad16,611e07ecdcc96256ae8d5b80,611e723b85a45b9a948751e9,
,,,,,,,0,251,251,236,1,X,3, ,4,7,,2500,2.5,5e39895de3c76419f242ad16,001,2021-08-19_16h01.58,natb3,2021.2.3,MacIntel,58.82352941,5e39895de3c76419f242ad16,611e07ecdcc96256ae8d5b80,611e723b85a45b9a948751e9,
,,,,space,0.62,,0,252,252,301,1,P, , , , ,space,1500,1.5,5e39895de3c76419f242ad16,001,2021-08-19_16h01.58,natb3,2021.2.3,MacIntel,58.82352941,5e39895de3c76419f242ad16,611e07ecdcc96256ae8d5b80,611e723b85a45b9a948751e9,
,,,,space,0.44,,0,253,253,71,1,R, , , , ,space,2500,2.5,5e39895de3c76419f242ad16,001,2021-08-19_16h01.58,natb3,2021.2.3,MacIntel,58.82352941,5e39895de3c76419f242ad16,611e07ecdcc96256ae8d5b80,611e723b85a45b9a948751e9,
,,,,space,0.404,,0,254,254,306,1,D, , , , ,space,2000,2,5e39895de3c76419f242ad16,001,2021-08-19_16h01.58,natb3,2021.2.3,MacIntel,58.82352941,5e39895de3c76419f242ad16,611e07ecdcc96256ae8d5b80,611e723b85a45b9a948751e9,
,,,,space,0.345,,0,255,255,215,1,E, , , , ,space,2500,2.5,5e39895de3c76419f242ad16,001,2021-08-19_16h01.58,natb3,2021.2.3,MacIntel,58.82352941,5e39895de3c76419f242ad16,611e07ecdcc96256ae8d5b80,611e723b85a45b9a948751e9,
,,,,,,,0,256,256,107,1,X,9,3, ,2,,2000,2,5e39895de3c76419f242ad16,001,2021-08-19_16h01.58,natb3,2021.2.3,MacIntel,58.82352941,5e39895de3c76419f242ad16,611e07ecdcc96256ae8d5b80,611e723b85a45b9a948751e9,
,,,,space,0.714,,0,257,257,155,1,O, , , , ,space,1500,1.5,5e39895de3c76419f242ad16,001,2021-08-19_16h01.58,natb3,2021.2.3,MacIntel,58.82352941,5e39895de3c76419f242ad16,611e07ecdcc96256ae8d5b80,611e723b85a45b9a948751e9,
,,,,,,,0,258,258,295,1,X,8,7,5, ,,2500,2.5,5e39895de3c76419f242ad16,001,2021-08-19_16h01.58,natb3,2021.2.3,MacIntel,58.82352941,5e39895de3c76419f242ad16,611e07ecdcc96256ae8d5b80,611e723b85a45b9a948751e9,
,,,,space,0.457,,0,259,259,25,1,Z, , , , ,space,2500,2.5,5e39895de3c76419f242ad16,001,2021-08-19_16h01.58,natb3,2021.2.3,MacIntel,58.82352941,5e39895de3c76419f242ad16,611e07ecdcc96256ae8d5b80,611e723b85a45b9a948751e9,
,,,,space,0.288,,0,260,260,70,1,E, , , , ,space,2500,2.5,5e39895de3c76419f242ad16,001,2021-08-19_16h01.58,natb3,2021.2.3,MacIntel,58.82352941,5e39895de3c76419f242ad16,611e07ecdcc96256ae8d5b80,611e723b85a45b9a948751e9,
,,,,space,0.323,,0,261,261,37,1,E, , , , ,space,2500,2.5,5e39895de3c76419f242ad16,001,2021-08-19_16h01.58,natb3,2021.2.3,MacIntel,58.82352941,5e39895de3c76419f242ad16,611e07ecdcc96256ae8d5b80,611e723b85a45b9a948751e9,
,,,,,,,0,262,262,311,1,X,1,2,7,3,,2500,2.5,5e39895de3c76419f242ad16,001,2021-08-19_16h01.58,natb3,2021.2.3,MacIntel,58.82352941,5e39895de3c76419f242ad16,611e07ecdcc96256ae8d5b80,611e723b85a45b9a948751e9,
,,,,space,0.412,,0,263,263,284,1,V, , , , ,space,2500,2.5,5e39895de3c76419f242ad16,001,2021-08-19_16h01.58,natb3,2021.2.3,MacIntel,58.82352941,5e39895de3c76419f242ad16,611e07ecdcc96256ae8d5b80,611e723b85a45b9a948751e9,
,,,,space,0.352,,0,264,264,205,1,C, , , , ,space,2000,2,5e39895de3c76419f242ad16,001,2021-08-19_16h01.58,natb3,2021.2.3,MacIntel,58.82352941,5e39895de3c76419f242ad16,611e07ecdcc96256ae8d5b80,611e723b85a45b9a948751e9,
,,,,space,0.34,,0,265,265,61,1,C, , , , ,space,2000,2,5e39895de3c76419f242ad16,001,2021-08-19_16h01.58,natb3,2021.2.3,MacIntel,58.82352941,5e39895de3c76419f242ad16,611e07ecdcc96256ae8d5b80,611e723b85a45b9a948751e9,
,,,,space,0.441,,0,266,266,46,1,X, , , , ,,2000,2,5e39895de3c76419f242ad16,001,2021-08-19_16h01.58,natb3,2021.2.3,MacIntel,58.82352941,5e39895de3c76419f242ad16,611e07ecdcc96256ae8d5b80,611e723b85a45b9a948751e9,
,,,,space,0.464,,0,267,267,230,1,U, , , , ,space,1500,1.5,5e39895de3c76419f242ad16,001,2021-08-19_16h01.58,natb3,2021.2.3,MacIntel,58.82352941,5e39895de3c76419f242ad16,611e07ecdcc96256ae8d5b80,611e723b85a45b9a948751e9,
,,,,space,0.453,,0,268,268,17,1,F, , , , ,space,2500,2.5,5e39895de3c76419f242ad16,001,2021-08-19_16h01.58,natb3,2021.2.3,MacIntel,58.82352941,5e39895de3c76419f242ad16,611e07ecdcc96256ae8d5b80,611e723b85a45b9a948751e9,
,,,,space,0.546,,0,269,269,1,1,W, , , , ,space,2000,2,5e39895de3c76419f242ad16,001,2021-08-19_16h01.58,natb3,2021.2.3,MacIntel,58.82352941,5e39895de3c76419f242ad16,611e07ecdcc96256ae8d5b80,611e723b85a45b9a948751e9,
,,,,space,0.472,,0,270,270,307,1,F, , , , ,space,2500,2.5,5e39895de3c76419f242ad16,001,2021-08-19_16h01.58,natb3,2021.2.3,MacIntel,58.82352941,5e39895de3c76419f242ad16,611e07ecdcc96256ae8d5b80,611e723b85a45b9a948751e9,
,,,,space,0.69,,0,271,271,304,1,S, , , , ,space,2000,2,5e39895de3c76419f242ad16,001,2021-08-19_16h01.58,natb3,2021.2.3,MacIntel,58.82352941,5e39895de3c76419f242ad16,611e07ecdcc96256ae8d5b80,611e723b85a45b9a948751e9,
,,,,space,0.437,,0,272,272,178,1,Q, , , , ,space,1500,1.5,5e39895de3c76419f242ad16,001,2021-08-19_16h01.58,natb3,2021.2.3,MacIntel,58.82352941,5e39895de3c76419f242ad16,611e07ecdcc96256ae8d5b80,611e723b85a45b9a948751e9,
,,,,space,0.404,,0,273,273,299,1,X, , , , ,,2500,2.5,5e39895de3c76419f242ad16,001,2021-08-19_16h01.58,natb3,2021.2.3,MacIntel,58.82352941,5e39895de3c76419f242ad16,611e07ecdcc96256ae8d5b80,611e723b85a45b9a948751e9,
,,,,space,0.43,,0,274,274,41,1,Y, , , , ,space,2500,2.5,5e39895de3c76419f242ad16,001,2021-08-19_16h01.58,natb3,2021.2.3,MacIntel,58.82352941,5e39895de3c76419f242ad16,611e07ecdcc96256ae8d5b80,611e723b85a45b9a948751e9,
,,,,space,0.615,,0,275,275,172,1,C, , , , ,space,1500,1.5,5e39895de3c76419f242ad16,001,2021-08-19_16h01.58,natb3,2021.2.3,MacIntel,58.82352941,5e39895de3c76419f242ad16,611e07ecdcc96256ae8d5b80,611e723b85a45b9a948751e9,
,,,,,,,0,276,276,259,1,X,8, , ,3,,2500,2.5,5e39895de3c76419f242ad16,001,2021-08-19_16h01.58,natb3,2021.2.3,MacIntel,58.82352941,5e39895de3c76419f242ad16,611e07ecdcc96256ae8d5b80,611e723b85a45b9a948751e9,
,,,,,,,0,277,277,60,1,X,7,3,5, ,,1500,1.5,5e39895de3c76419f242ad16,001,2021-08-19_16h01.58,natb3,2021.2.3,MacIntel,58.82352941,5e39895de3c76419f242ad16,611e07ecdcc96256ae8d5b80,611e723b85a45b9a948751e9,
,,,,space,0.714,,0,278,278,251,1,B, , , , ,space,1500,1.5,5e39895de3c76419f242ad16,001,2021-08-19_16h01.58,natb3,2021.2.3,MacIntel,58.82352941,5e39895de3c76419f242ad16,611e07ecdcc96256ae8d5b80,611e723b85a45b9a948751e9,
,,,,space,0.431,,0,279,279,99,1,N, , , , ,space,2500,2.5,5e39895de3c76419f242ad16,001,2021-08-19_16h01.58,natb3,2021.2.3,MacIntel,58.82352941,5e39895de3c76419f242ad16,611e07ecdcc96256ae8d5b80,611e723b85a45b9a948751e9,
,,,,,,,0,280,280,153,1,X,4,7, ,6,,2000,2,5e39895de3c76419f242ad16,001,2021-08-19_16h01.58,natb3,2021.2.3,MacIntel,58.82352941,5e39895de3c76419f242ad16,611e07ecdcc96256ae8d5b80,611e723b85a45b9a948751e9,
,,,,space,0.375,,0,281,281,213,1,X, , , , ,,2500,2.5,5e39895de3c76419f242ad16,001,2021-08-19_16h01.58,natb3,2021.2.3,MacIntel,58.82352941,5e39895de3c76419f242ad16,611e07ecdcc96256ae8d5b80,611e723b85a45b9a948751e9,
,,,,,,,0,282,282,18,1,X, ,2,5,8,,2500,2.5,5e39895de3c76419f242ad16,001,2021-08-19_16h01.58,natb3,2021.2.3,MacIntel,58.82352941,5e39895de3c76419f242ad16,611e07ecdcc96256ae8d5b80,611e723b85a45b9a948751e9,
,,,,space,0.415,,0,283,283,285,1,B, , , , ,space,1500,1.5,5e39895de3c76419f242ad16,001,2021-08-19_16h01.58,natb3,2021.2.3,MacIntel,58.82352941,5e39895de3c76419f242ad16,611e07ecdcc96256ae8d5b80,611e723b85a45b9a948751e9,
,,,,space,0.854,,0,284,284,292,1,E, , , , ,space,2000,2,5e39895de3c76419f242ad16,001,2021-08-19_16h01.58,natb3,2021.2.3,MacIntel,58.82352941,5e39895de3c76419f242ad16,611e07ecdcc96256ae8d5b80,611e723b85a45b9a948751e9,
,,,,space,0.537,,0,285,285,228,1,Y, , , , ,space,2000,2,5e39895de3c76419f242ad16,001,2021-08-19_16h01.58,natb3,2021.2.3,MacIntel,58.82352941,5e39895de3c76419f242ad16,611e07ecdcc96256ae8d5b80,611e723b85a45b9a948751e9,
,,,,,,,0,286,286,313,1,X, , , , ,,2500,2.5,5e39895de3c76419f242ad16,001,2021-08-19_16h01.58,natb3,2021.2.3,MacIntel,58.82352941,5e39895de3c76419f242ad16,611e07ecdcc96256ae8d5b80,611e723b85a45b9a948751e9,
,,,,space,0.597,,0,287,287,274,1,F, , , , ,space,2000,2,5e39895de3c76419f242ad16,001,2021-08-19_16h01.58,natb3,2021.2.3,MacIntel,58.82352941,5e39895de3c76419f242ad16,611e07ecdcc96256ae8d5b80,611e723b85a45b9a948751e9,
,,,,space,0.941,,0,288,288,280,1,L, , , , ,space,1500,1.5,5e39895de3c76419f242ad16,001,2021-08-19_16h01.58,natb3,2021.2.3,MacIntel,58.82352941,5e39895de3c76419f242ad16,611e07ecdcc96256ae8d5b80,611e723b85a45b9a948751e9,
,,,,,,,0,289,289,315,1,X, , , , ,,2500,2.5,5e39895de3c76419f242ad16,001,2021-08-19_16h01.58,natb3,2021.2.3,MacIntel,58.82352941,5e39895de3c76419f242ad16,611e07ecdcc96256ae8d5b80,611e723b85a45b9a948751e9,
,,,,space,0.496,,0,290,290,112,1,Q, , , , ,space,2500,2.5,5e39895de3c76419f242ad16,001,2021-08-19_16h01.58,natb3,2021.2.3,MacIntel,58.82352941,5e39895de3c76419f242ad16,611e07ecdcc96256ae8d5b80,611e723b85a45b9a948751e9,
,,,,space,0.566,,0,291,291,276,1,H, , , , ,space,2000,2,5e39895de3c76419f242ad16,001,2021-08-19_16h01.58,natb3,2021.2.3,MacIntel,58.82352941,5e39895de3c76419f242ad16,611e07ecdcc96256ae8d5b80,611e723b85a45b9a948751e9,
,,,,space,0.38,,0,292,292,90,1,K, , , , ,space,2000,2,5e39895de3c76419f242ad16,001,2021-08-19_16h01.58,natb3,2021.2.3,MacIntel,58.82352941,5e39895de3c76419f242ad16,611e07ecdcc96256ae8d5b80,611e723b85a45b9a948751e9,
,,,,,,,0,293,293,248,1,X, ,1,5, ,,1500,1.5,5e39895de3c76419f242ad16,001,2021-08-19_16h01.58,natb3,2021.2.3,MacIntel,58.82352941,5e39895de3c76419f242ad16,611e07ecdcc96256ae8d5b80,611e723b85a45b9a948751e9,
,,,,,,,0,294,294,51,1,X,7,5,8, ,,1500,1.5,5e39895de3c76419f242ad16,001,2021-08-19_16h01.58,natb3,2021.2.3,MacIntel,58.82352941,5e39895de3c76419f242ad16,611e07ecdcc96256ae8d5b80,611e723b85a45b9a948751e9,
,,,,space,0.884,,0,295,295,326,1,W, , , , ,space,2000,2,5e39895de3c76419f242ad16,001,2021-08-19_16h01.58,natb3,2021.2.3,MacIntel,58.82352941,5e39895de3c76419f242ad16,611e07ecdcc96256ae8d5b80,611e723b85a45b9a948751e9,
,,,,space,0.503,,0,296,296,296,1,Y, , , , ,space,2500,2.5,5e39895de3c76419f242ad16,001,2021-08-19_16h01.58,natb3,2021.2.3,MacIntel,58.82352941,5e39895de3c76419f242ad16,611e07ecdcc96256ae8d5b80,611e723b85a45b9a948751e9,
,,,,,,,0,297,297,168,1,X, , , , ,,2500,2.5,5e39895de3c76419f242ad16,001,2021-08-19_16h01.58,natb3,2021.2.3,MacIntel,58.82352941,5e39895de3c76419f242ad16,611e07ecdcc96256ae8d5b80,611e723b85a45b9a948751e9,
,,,,space,0.704,,0,298,298,279,1,K, , , , ,space,2500,2.5,5e39895de3c76419f242ad16,001,2021-08-19_16h01.58,natb3,2021.2.3,MacIntel,58.82352941,5e39895de3c76419f242ad16,611e07ecdcc96256ae8d5b80,611e723b85a45b9a948751e9,
,,,,space,0.453,,0,299,299,331,1,Y, , , , ,space,2500,2.5,5e39895de3c76419f242ad16,001,2021-08-19_16h01.58,natb3,2021.2.3,MacIntel,58.82352941,5e39895de3c76419f242ad16,611e07ecdcc96256ae8d5b80,611e723b85a45b9a948751e9,
,,,,space,0.463,,0,300,300,226,1,R, , , , ,space,2000,2,5e39895de3c76419f242ad16,001,2021-08-19_16h01.58,natb3,2021.2.3,MacIntel,58.82352941,5e39895de3c76419f242ad16,611e07ecdcc96256ae8d5b80,611e723b85a45b9a948751e9,
,,,,,,,0,301,301,56,1,J, , , , ,space,1500,1.5,5e39895de3c76419f242ad16,001,2021-08-19_16h01.58,natb3,2021.2.3,MacIntel,58.82352941,5e39895de3c76419f242ad16,611e07ecdcc96256ae8d5b80,611e723b85a45b9a948751e9,
,,,,,,,0,302,302,141,1,X,1, ,4,6,,1500,1.5,5e39895de3c76419f242ad16,001,2021-08-19_16h01.58,natb3,2021.2.3,MacIntel,58.82352941,5e39895de3c76419f242ad16,611e07ecdcc96256ae8d5b80,611e723b85a45b9a948751e9,
,,,,,,,0,303,303,229,1,X,8, ,2,6,,2500,2.5,5e39895de3c76419f242ad16,001,2021-08-19_16h01.58,natb3,2021.2.3,MacIntel,58.82352941,5e39895de3c76419f242ad16,611e07ecdcc96256ae8d5b80,611e723b85a45b9a948751e9,
,,,,space,0.559,,0,304,304,131,1,G, , , , ,space,1500,1.5,5e39895de3c76419f242ad16,001,2021-08-19_16h01.58,natb3,2021.2.3,MacIntel,58.82352941,5e39895de3c76419f242ad16,611e07ecdcc96256ae8d5b80,611e723b85a45b9a948751e9,
,,,,space,0.572,,0,305,305,85,1,F, , , , ,space,2500,2.5,5e39895de3c76419f242ad16,001,2021-08-19_16h01.58,natb3,2021.2.3,MacIntel,58.82352941,5e39895de3c76419f242ad16,611e07ecdcc96256ae8d5b80,611e723b85a45b9a948751e9,
,,,,space,0.364,,0,306,306,234,1,P, , , , ,space,2000,2,5e39895de3c76419f242ad16,001,2021-08-19_16h01.58,natb3,2021.2.3,MacIntel,58.82352941,5e39895de3c76419f242ad16,611e07ecdcc96256ae8d5b80,611e723b85a45b9a948751e9,
,,,,space,0.431,,0,307,307,19,1,G, , , , ,space,1500,1.5,5e39895de3c76419f242ad16,001,2021-08-19_16h01.58,natb3,2021.2.3,MacIntel,58.82352941,5e39895de3c76419f242ad16,611e07ecdcc96256ae8d5b80,611e723b85a45b9a948751e9,
,,,,space,0.37,,0,308,308,103,1,W, , , , ,space,2000,2,5e39895de3c76419f242ad16,001,2021-08-19_16h01.58,natb3,2021.2.3,MacIntel,58.82352941,5e39895de3c76419f242ad16,611e07ecdcc96256ae8d5b80,611e723b85a45b9a948751e9,
,,,,space,0.42,,0,309,309,40,1,T, , , , ,space,1500,1.5,5e39895de3c76419f242ad16,001,2021-08-19_16h01.58,natb3,2021.2.3,MacIntel,58.82352941,5e39895de3c76419f242ad16,611e07ecdcc96256ae8d5b80,611e723b85a45b9a948751e9,
,,,,space,0.398,,0,310,310,202,1,L, , , , ,space,2500,2.5,5e39895de3c76419f242ad16,001,2021-08-19_16h01.58,natb3,2021.2.3,MacIntel,58.82352941,5e39895de3c76419f242ad16,611e07ecdcc96256ae8d5b80,611e723b85a45b9a948751e9,
,,,,space,0.288,,0,311,311,73,1,Y, , , , ,space,2000,2,5e39895de3c76419f242ad16,001,2021-08-19_16h01.58,natb3,2021.2.3,MacIntel,58.82352941,5e39895de3c76419f242ad16,611e07ecdcc96256ae8d5b80,611e723b85a45b9a948751e9,
,,,,space,0.363,,0,312,312,309,1,H, , , , ,space,2500,2.5,5e39895de3c76419f242ad16,001,2021-08-19_16h01.58,natb3,2021.2.3,MacIntel,58.82352941,5e39895de3c76419f242ad16,611e07ecdcc96256ae8d5b80,611e723b85a45b9a948751e9,
,,,,space,0.38,,0,313,313,333,1,I, , , , ,space,1500,1.5,5e39895de3c76419f242ad16,001,2021-08-19_16h01.58,natb3,2021.2.3,MacIntel,58.82352941,5e39895de3c76419f242ad16,611e07ecdcc96256ae8d5b80,611e723b85a45b9a948751e9,
,,,,space,0.347,,0,314,314,35,1,X, , , , ,,2500,2.5,5e39895de3c76419f242ad16,001,2021-08-19_16h01.58,natb3,2021.2.3,MacIntel,58.82352941,5e39895de3c76419f242ad16,611e07ecdcc96256ae8d5b80,611e723b85a45b9a948751e9,
,,,,space,0.714,,0,315,315,48,1,A, , , , ,space,2500,2.5,5e39895de3c76419f242ad16,001,2021-08-19_16h01.58,natb3,2021.2.3,MacIntel,58.82352941,5e39895de3c76419f242ad16,611e07ecdcc96256ae8d5b80,611e723b85a45b9a948751e9,
,,,,space,0.423,,0,316,316,275,1,G, , , , ,space,1500,1.5,5e39895de3c76419f242ad16,001,2021-08-19_16h01.58,natb3,2021.2.3,MacIntel,58.82352941,5e39895de3c76419f242ad16,611e07ecdcc96256ae8d5b80,611e723b85a45b9a948751e9,
,,,,,,,0,317,317,322,1,X, , ,1,6,,2000,2,5e39895de3c76419f242ad16,001,2021-08-19_16h01.58,natb3,2021.2.3,MacIntel,58.82352941,5e39895de3c76419f242ad16,611e07ecdcc96256ae8d5b80,611e723b85a45b9a948751e9,
,,,,space,0.342,,0,318,318,243,1,X, , , , ,,2500,2.5,5e39895de3c76419f242ad16,001,2021-08-19_16h01.58,natb3,2021.2.3,MacIntel,58.82352941,5e39895de3c76419f242ad16,611e07ecdcc96256ae8d5b80,611e723b85a45b9a948751e9,
,,,,,,,0,319,319,263,1,X,4, ,6, ,,1500,1.5,5e39895de3c76419f242ad16,001,2021-08-19_16h01.58,natb3,2021.2.3,MacIntel,58.82352941,5e39895de3c76419f242ad16,611e07ecdcc96256ae8d5b80,611e723b85a45b9a948751e9,
,,,,space,0.485,,0,320,320,197,1,G, , , , ,space,2500,2.5,5e39895de3c76419f242ad16,001,2021-08-19_16h01.58,natb3,2021.2.3,MacIntel,58.82352941,5e39895de3c76419f242ad16,611e07ecdcc96256ae8d5b80,611e723b85a45b9a948751e9,
,,,,,,,0,321,321,335,1,P,,,,,space,1500,1.5,5e39895de3c76419f242ad16,001,2021-08-19_16h01.58,natb3,2021.2.3,MacIntel,58.82352941,5e39895de3c76419f242ad16,611e07ecdcc96256ae8d5b80,611e723b85a45b9a948751e9,
,,,,space,0.695,,0,322,322,261,1,T, , , , ,space,2000,2,5e39895de3c76419f242ad16,001,2021-08-19_16h01.58,natb3,2021.2.3,MacIntel,58.82352941,5e39895de3c76419f242ad16,611e07ecdcc96256ae8d5b80,611e723b85a45b9a948751e9,
,,,,space,0.441,,0,323,323,260,1,R, , , , ,space,2000,2,5e39895de3c76419f242ad16,001,2021-08-19_16h01.58,natb3,2021.2.3,MacIntel,58.82352941,5e39895de3c76419f242ad16,611e07ecdcc96256ae8d5b80,611e723b85a45b9a948751e9,
,,,,,,,0,324,324,82,1,X,4,6,1,7,,2000,2,5e39895de3c76419f242ad16,001,2021-08-19_16h01.58,natb3,2021.2.3,MacIntel,58.82352941,5e39895de3c76419f242ad16,611e07ecdcc96256ae8d5b80,611e723b85a45b9a948751e9,
,,,,space,0.961,,0,325,325,254,1,M, , , , ,space,1500,1.5,5e39895de3c76419f242ad16,001,2021-08-19_16h01.58,natb3,2021.2.3,MacIntel,58.82352941,5e39895de3c76419f242ad16,611e07ecdcc96256ae8d5b80,611e723b85a45b9a948751e9,
,,,,space,0.421,,0,326,326,235,1,A, , , , ,space,1500,1.5,5e39895de3c76419f242ad16,001,2021-08-19_16h01.58,natb3,2021.2.3,MacIntel,58.82352941,5e39895de3c76419f242ad16,611e07ecdcc96256ae8d5b80,611e723b85a45b9a948751e9,
,,,,space,0.43,,0,327,327,8,1,U, , , , ,space,1500,1.5,5e39895de3c76419f242ad16,001,2021-08-19_16h01.58,natb3,2021.2.3,MacIntel,58.82352941,5e39895de3c76419f242ad16,611e07ecdcc96256ae8d5b80,611e723b85a45b9a948751e9,
,,,,space,0.33,,0,328,328,84,1,X, , , , ,,2000,2,5e39895de3c76419f242ad16,001,2021-08-19_16h01.58,natb3,2021.2.3,MacIntel,58.82352941,5e39895de3c76419f242ad16,611e07ecdcc96256ae8d5b80,611e723b85a45b9a948751e9,
,,,,space,0.647,,0,329,329,185,1,Y, , , , ,space,2500,2.5,5e39895de3c76419f242ad16,001,2021-08-19_16h01.58,natb3,2021.2.3,MacIntel,58.82352941,5e39895de3c76419f242ad16,611e07ecdcc96256ae8d5b80,611e723b85a45b9a948751e9,
,,,,space,0.52,,0,330,330,44,1,I, , , , ,space,2500,2.5,5e39895de3c76419f242ad16,001,2021-08-19_16h01.58,natb3,2021.2.3,MacIntel,58.82352941,5e39895de3c76419f242ad16,611e07ecdcc96256ae8d5b80,611e723b85a45b9a948751e9,
,,,,,,,0,331,331,158,1,X, , , , ,,1500,1.5,5e39895de3c76419f242ad16,001,2021-08-19_16h01.58,natb3,2021.2.3,MacIntel,58.82352941,5e39895de3c76419f242ad16,611e07ecdcc96256ae8d5b80,611e723b85a45b9a948751e9,
,,,,space,0.488,,0,332,332,28,1,V, , , , ,space,1500,1.5,5e39895de3c76419f242ad16,001,2021-08-19_16h01.58,natb3,2021.2.3,MacIntel,58.82352941,5e39895de3c76419f242ad16,611e07ecdcc96256ae8d5b80,611e723b85a45b9a948751e9,
,,,,space,0.49,,0,333,333,80,1,A, , , , ,space,2000,2,5e39895de3c76419f242ad16,001,2021-08-19_16h01.58,natb3,2021.2.3,MacIntel,58.82352941,5e39895de3c76419f242ad16,611e07ecdcc96256ae8d5b80,611e723b85a45b9a948751e9,
,,,,space,0.472,,0,334,334,67,1,Q, , , , ,space,2000,2,5e39895de3c76419f242ad16,001,2021-08-19_16h01.58,natb3,2021.2.3,MacIntel,58.82352941,5e39895de3c76419f242ad16,611e07ecdcc96256ae8d5b80,611e723b85a45b9a948751e9,
,,,,space,0.505,,0,335,335,119,1,Y, , , , ,space,2500,2.5,5e39895de3c76419f242ad16,001,2021-08-19_16h01.58,natb3,2021.2.3,MacIntel,58.82352941,5e39895de3c76419f242ad16,611e07ecdcc96256ae8d5b80,611e723b85a45b9a948751e9,
