key_resp_2.keys,key_resp_2.rt,key_resp_3.keys,key_resp_3.rt,key_resp.keys,key_resp.rt,key_resp_4.keys,trials.thisRepN,trials.thisTrialN,trials.thisN,trials.thisIndex,trials.ran,stimulus,distractor1,distractor2,distractor3,distractor4,CorrAns,isi_duration,isi_dur_in_seconds,participant,session,date,expName,psychopyVersion,OS,frameRate,PROLIFIC_PID,STUDY_ID,SESSION_ID,key_resp_4.rt
return,15.0014,space,18.1353,space,0.3958,,0,0,0,104,1,E, , , , ,space,2000,2,5e45f2a9954b010de2947f3e,001,2021-08-19_15h07.02.736,natb3,2021.2.3,Linux x86_64,60.06006006,5e45f2a9954b010de2947f3e,611e07ecdcc96256ae8d5b80,611e656a95469e55d3811e35,
,,,,space,0.2952,,0,1,1,176,1,N, , , , ,space,1500,1.5,5e45f2a9954b010de2947f3e,001,2021-08-19_15h07.02.736,natb3,2021.2.3,Linux x86_64,60.06006006,5e45f2a9954b010de2947f3e,611e07ecdcc96256ae8d5b80,611e656a95469e55d3811e35,
,,,,space,0.4151,,0,2,2,230,1,U, , , , ,space,1500,1.5,5e45f2a9954b010de2947f3e,001,2021-08-19_15h07.02.736,natb3,2021.2.3,Linux x86_64,60.06006006,5e45f2a9954b010de2947f3e,611e07ecdcc96256ae8d5b80,611e656a95469e55d3811e35,
,,,,space,0.2895,,0,3,3,16,1,D, , , , ,space,1500,1.5,5e45f2a9954b010de2947f3e,001,2021-08-19_15h07.02.736,natb3,2021.2.3,Linux x86_64,60.06006006,5e45f2a9954b010de2947f3e,611e07ecdcc96256ae8d5b80,611e656a95469e55d3811e35,
,,,,space,0.3971,,0,4,4,198,1,H, , , , ,space,2500,2.5,5e45f2a9954b010de2947f3e,001,2021-08-19_15h07.02.736,natb3,2021.2.3,Linux x86_64,60.06006006,5e45f2a9954b010de2947f3e,611e07ecdcc96256ae8d5b80,611e656a95469e55d3811e35,
,,,,,,,0,5,5,129,1,X,2,3,5, ,,1500,1.5,5e45f2a9954b010de2947f3e,001,2021-08-19_15h07.02.736,natb3,2021.2.3,Linux x86_64,60.06006006,5e45f2a9954b010de2947f3e,611e07ecdcc96256ae8d5b80,611e656a95469e55d3811e35,
,,,,space,0.3576,,0,6,6,25,1,Z, , , , ,space,2500,2.5,5e45f2a9954b010de2947f3e,001,2021-08-19_15h07.02.736,natb3,2021.2.3,Linux x86_64,60.06006006,5e45f2a9954b010de2947f3e,611e07ecdcc96256ae8d5b80,611e656a95469e55d3811e35,
,,,,,,,0,7,7,141,1,X,1, ,4,6,,1500,1.5,5e45f2a9954b010de2947f3e,001,2021-08-19_15h07.02.736,natb3,2021.2.3,Linux x86_64,60.06006006,5e45f2a9954b010de2947f3e,611e07ecdcc96256ae8d5b80,611e656a95469e55d3811e35,
,,,,space,0.5254,,0,8,8,91,1,L, , , , ,space,2000,2,5e45f2a9954b010de2947f3e,001,2021-08-19_15h07.02.736,natb3,2021.2.3,Linux x86_64,60.06006006,5e45f2a9954b010de2947f3e,611e07ecdcc96256ae8d5b80,611e656a95469e55d3811e35,
,,,,space,0.423,,0,9,9,276,1,H, , , , ,space,2000,2,5e45f2a9954b010de2947f3e,001,2021-08-19_15h07.02.736,natb3,2021.2.3,Linux x86_64,60.06006006,5e45f2a9954b010de2947f3e,611e07ecdcc96256ae8d5b80,611e656a95469e55d3811e35,
,,,,,,,0,10,10,18,1,X, ,2,5,8,,2500,2.5,5e45f2a9954b010de2947f3e,001,2021-08-19_15h07.02.736,natb3,2021.2.3,Linux x86_64,60.06006006,5e45f2a9954b010de2947f3e,611e07ecdcc96256ae8d5b80,611e656a95469e55d3811e35,
,,,,space,0.3809,,0,11,11,301,1,P, , , , ,space,1500,1.5,5e45f2a9954b010de2947f3e,001,2021-08-19_15h07.02.736,natb3,2021.2.3,Linux x86_64,60.06006006,5e45f2a9954b010de2947f3e,611e07ecdcc96256ae8d5b80,611e656a95469e55d3811e35,
,,,,space,0.3632,,0,12,12,210,1,M, , , , ,space,1500,1.5,5e45f2a9954b010de2947f3e,001,2021-08-19_15h07.02.736,natb3,2021.2.3,Linux x86_64,60.06006006,5e45f2a9954b010de2947f3e,611e07ecdcc96256ae8d5b80,611e656a95469e55d3811e35,
,,,,space,0.4018,,0,13,13,222,1,O, , , , ,space,2000,2,5e45f2a9954b010de2947f3e,001,2021-08-19_15h07.02.736,natb3,2021.2.3,Linux x86_64,60.06006006,5e45f2a9954b010de2947f3e,611e07ecdcc96256ae8d5b80,611e656a95469e55d3811e35,
,,,,space,0.3553,,0,14,14,95,1,V, , , , ,space,1500,1.5,5e45f2a9954b010de2947f3e,001,2021-08-19_15h07.02.736,natb3,2021.2.3,Linux x86_64,60.06006006,5e45f2a9954b010de2947f3e,611e07ecdcc96256ae8d5b80,611e656a95469e55d3811e35,
,,,,space,0.3192,,0,15,15,220,1,U, , , , ,space,2500,2.5,5e45f2a9954b010de2947f3e,001,2021-08-19_15h07.02.736,natb3,2021.2.3,Linux x86_64,60.06006006,5e45f2a9954b010de2947f3e,611e07ecdcc96256ae8d5b80,611e656a95469e55d3811e35,
,,,,space,0.3701,,0,16,16,164,1,H, , , , ,space,2500,2.5,5e45f2a9954b010de2947f3e,001,2021-08-19_15h07.02.736,natb3,2021.2.3,Linux x86_64,60.06006006,5e45f2a9954b010de2947f3e,611e07ecdcc96256ae8d5b80,611e656a95469e55d3811e35,
,,,,space,0.6372,,0,17,17,335,1,P,,,,,space,1500,1.5,5e45f2a9954b010de2947f3e,001,2021-08-19_15h07.02.736,natb3,2021.2.3,Linux x86_64,60.06006006,5e45f2a9954b010de2947f3e,611e07ecdcc96256ae8d5b80,611e656a95469e55d3811e35,
,,,,space,0.454,,0,18,18,310,1,J, , , , ,space,2500,2.5,5e45f2a9954b010de2947f3e,001,2021-08-19_15h07.02.736,natb3,2021.2.3,Linux x86_64,60.06006006,5e45f2a9954b010de2947f3e,611e07ecdcc96256ae8d5b80,611e656a95469e55d3811e35,
,,,,space,0.4458,,0,19,19,83,1,D, , , , ,space,2000,2,5e45f2a9954b010de2947f3e,001,2021-08-19_15h07.02.736,natb3,2021.2.3,Linux x86_64,60.06006006,5e45f2a9954b010de2947f3e,611e07ecdcc96256ae8d5b80,611e656a95469e55d3811e35,
,,,,space,0.488,,0,20,20,290,1,W, , , , ,space,1500,1.5,5e45f2a9954b010de2947f3e,001,2021-08-19_15h07.02.736,natb3,2021.2.3,Linux x86_64,60.06006006,5e45f2a9954b010de2947f3e,611e07ecdcc96256ae8d5b80,611e656a95469e55d3811e35,
,,,,space,0.4056,,0,21,21,108,1,Y, , , , ,space,2500,2.5,5e45f2a9954b010de2947f3e,001,2021-08-19_15h07.02.736,natb3,2021.2.3,Linux x86_64,60.06006006,5e45f2a9954b010de2947f3e,611e07ecdcc96256ae8d5b80,611e656a95469e55d3811e35,
,,,,space,0.484,,0,22,22,190,1,P, , , , ,space,2000,2,5e45f2a9954b010de2947f3e,001,2021-08-19_15h07.02.736,natb3,2021.2.3,Linux x86_64,60.06006006,5e45f2a9954b010de2947f3e,611e07ecdcc96256ae8d5b80,611e656a95469e55d3811e35,
,,,,space,0.4077,,0,23,23,181,1,E, , , , ,space,1500,1.5,5e45f2a9954b010de2947f3e,001,2021-08-19_15h07.02.736,natb3,2021.2.3,Linux x86_64,60.06006006,5e45f2a9954b010de2947f3e,611e07ecdcc96256ae8d5b80,611e656a95469e55d3811e35,
,,,,space,0.4035,,0,24,24,283,1,C, , , , ,space,1500,1.5,5e45f2a9954b010de2947f3e,001,2021-08-19_15h07.02.736,natb3,2021.2.3,Linux x86_64,60.06006006,5e45f2a9954b010de2947f3e,611e07ecdcc96256ae8d5b80,611e656a95469e55d3811e35,
,,,,space,0.3405,,0,25,25,94,1,C, , , , ,space,2000,2,5e45f2a9954b010de2947f3e,001,2021-08-19_15h07.02.736,natb3,2021.2.3,Linux x86_64,60.06006006,5e45f2a9954b010de2947f3e,611e07ecdcc96256ae8d5b80,611e656a95469e55d3811e35,
,,,,,,,0,26,26,148,1,X, , , , ,,2000,2,5e45f2a9954b010de2947f3e,001,2021-08-19_15h07.02.736,natb3,2021.2.3,Linux x86_64,60.06006006,5e45f2a9954b010de2947f3e,611e07ecdcc96256ae8d5b80,611e656a95469e55d3811e35,
,,,,space,0.3849,,0,27,27,271,1,X, , , , ,,2500,2.5,5e45f2a9954b010de2947f3e,001,2021-08-19_15h07.02.736,natb3,2021.2.3,Linux x86_64,60.06006006,5e45f2a9954b010de2947f3e,611e07ecdcc96256ae8d5b80,611e656a95469e55d3811e35,
,,,,space,0.482,,0,28,28,294,1,T, , , , ,space,2000,2,5e45f2a9954b010de2947f3e,001,2021-08-19_15h07.02.736,natb3,2021.2.3,Linux x86_64,60.06006006,5e45f2a9954b010de2947f3e,611e07ecdcc96256ae8d5b80,611e656a95469e55d3811e35,
,,,,,,,0,29,29,218,1,X,1,3, ,8,,1500,1.5,5e45f2a9954b010de2947f3e,001,2021-08-19_15h07.02.736,natb3,2021.2.3,Linux x86_64,60.06006006,5e45f2a9954b010de2947f3e,611e07ecdcc96256ae8d5b80,611e656a95469e55d3811e35,
,,,,space,0.3821,,0,30,30,309,1,H, , , , ,space,2500,2.5,5e45f2a9954b010de2947f3e,001,2021-08-19_15h07.02.736,natb3,2021.2.3,Linux x86_64,60.06006006,5e45f2a9954b010de2947f3e,611e07ecdcc96256ae8d5b80,611e656a95469e55d3811e35,
,,,,space,0.4391,,0,31,31,188,1,I, , , , ,space,2500,2.5,5e45f2a9954b010de2947f3e,001,2021-08-19_15h07.02.736,natb3,2021.2.3,Linux x86_64,60.06006006,5e45f2a9954b010de2947f3e,611e07ecdcc96256ae8d5b80,611e656a95469e55d3811e35,
,,,,space,0.4336,,0,32,32,169,1,L, , , , ,space,2500,2.5,5e45f2a9954b010de2947f3e,001,2021-08-19_15h07.02.736,natb3,2021.2.3,Linux x86_64,60.06006006,5e45f2a9954b010de2947f3e,611e07ecdcc96256ae8d5b80,611e656a95469e55d3811e35,
,,,,space,0.4715,,0,33,33,253,1,N, , , , ,space,2500,2.5,5e45f2a9954b010de2947f3e,001,2021-08-19_15h07.02.736,natb3,2021.2.3,Linux x86_64,60.06006006,5e45f2a9954b010de2947f3e,611e07ecdcc96256ae8d5b80,611e656a95469e55d3811e35,
,,,,,,,0,34,34,145,1,X, , , , ,,2000,2,5e45f2a9954b010de2947f3e,001,2021-08-19_15h07.02.736,natb3,2021.2.3,Linux x86_64,60.06006006,5e45f2a9954b010de2947f3e,611e07ecdcc96256ae8d5b80,611e656a95469e55d3811e35,
,,,,space,0.4483,,0,35,35,119,1,Y, , , , ,space,2500,2.5,5e45f2a9954b010de2947f3e,001,2021-08-19_15h07.02.736,natb3,2021.2.3,Linux x86_64,60.06006006,5e45f2a9954b010de2947f3e,611e07ecdcc96256ae8d5b80,611e656a95469e55d3811e35,
,,,,space,0.5216,,0,36,36,205,1,C, , , , ,space,2000,2,5e45f2a9954b010de2947f3e,001,2021-08-19_15h07.02.736,natb3,2021.2.3,Linux x86_64,60.06006006,5e45f2a9954b010de2947f3e,611e07ecdcc96256ae8d5b80,611e656a95469e55d3811e35,
,,,,space,0.4988,,0,37,37,32,1,M, , , , ,space,1500,1.5,5e45f2a9954b010de2947f3e,001,2021-08-19_15h07.02.736,natb3,2021.2.3,Linux x86_64,60.06006006,5e45f2a9954b010de2947f3e,611e07ecdcc96256ae8d5b80,611e656a95469e55d3811e35,
,,,,space,0.5122,,0,38,38,206,1,V, , , , ,space,2000,2,5e45f2a9954b010de2947f3e,001,2021-08-19_15h07.02.736,natb3,2021.2.3,Linux x86_64,60.06006006,5e45f2a9954b010de2947f3e,611e07ecdcc96256ae8d5b80,611e656a95469e55d3811e35,
,,,,space,0.4633,,0,39,39,52,1,F, , , , ,space,1500,1.5,5e45f2a9954b010de2947f3e,001,2021-08-19_15h07.02.736,natb3,2021.2.3,Linux x86_64,60.06006006,5e45f2a9954b010de2947f3e,611e07ecdcc96256ae8d5b80,611e656a95469e55d3811e35,
,,,,space,0.4743,,0,40,40,42,1,U, , , , ,space,1500,1.5,5e45f2a9954b010de2947f3e,001,2021-08-19_15h07.02.736,natb3,2021.2.3,Linux x86_64,60.06006006,5e45f2a9954b010de2947f3e,611e07ecdcc96256ae8d5b80,611e656a95469e55d3811e35,
,,,,space,0.4296,,0,41,41,3,1,R, , , , ,space,2000,2,5e45f2a9954b010de2947f3e,001,2021-08-19_15h07.02.736,natb3,2021.2.3,Linux x86_64,60.06006006,5e45f2a9954b010de2947f3e,611e07ecdcc96256ae8d5b80,611e656a95469e55d3811e35,
,,,,space,0.441,,0,42,42,26,1,C, , , , ,space,2000,2,5e45f2a9954b010de2947f3e,001,2021-08-19_15h07.02.736,natb3,2021.2.3,Linux x86_64,60.06006006,5e45f2a9954b010de2947f3e,611e07ecdcc96256ae8d5b80,611e656a95469e55d3811e35,
,,,,space,0.8678,,0,43,43,36,1,W, , , , ,space,2000,2,5e45f2a9954b010de2947f3e,001,2021-08-19_15h07.02.736,natb3,2021.2.3,Linux x86_64,60.06006006,5e45f2a9954b010de2947f3e,611e07ecdcc96256ae8d5b80,611e656a95469e55d3811e35,
,,,,space,0.6331,,0,44,44,37,1,E, , , , ,space,2500,2.5,5e45f2a9954b010de2947f3e,001,2021-08-19_15h07.02.736,natb3,2021.2.3,Linux x86_64,60.06006006,5e45f2a9954b010de2947f3e,611e07ecdcc96256ae8d5b80,611e656a95469e55d3811e35,
,,,,,,,0,45,45,7,1,X, , , , ,,1500,1.5,5e45f2a9954b010de2947f3e,001,2021-08-19_15h07.02.736,natb3,2021.2.3,Linux x86_64,60.06006006,5e45f2a9954b010de2947f3e,611e07ecdcc96256ae8d5b80,611e656a95469e55d3811e35,
,,,,,,,0,46,46,318,1,X, , , , ,,1500,1.5,5e45f2a9954b010de2947f3e,001,2021-08-19_15h07.02.736,natb3,2021.2.3,Linux x86_64,60.06006006,5e45f2a9954b010de2947f3e,611e07ecdcc96256ae8d5b80,611e656a95469e55d3811e35,
,,,,space,0.4343,,0,47,47,260,1,R, , , , ,space,2000,2,5e45f2a9954b010de2947f3e,001,2021-08-19_15h07.02.736,natb3,2021.2.3,Linux x86_64,60.06006006,5e45f2a9954b010de2947f3e,611e07ecdcc96256ae8d5b80,611e656a95469e55d3811e35,
,,,,,,,0,48,48,116,1,X, , , , ,,2000,2,5e45f2a9954b010de2947f3e,001,2021-08-19_15h07.02.736,natb3,2021.2.3,Linux x86_64,60.06006006,5e45f2a9954b010de2947f3e,611e07ecdcc96256ae8d5b80,611e656a95469e55d3811e35,
,,,,,,,0,49,49,122,1,X,1, , ,8,,1500,1.5,5e45f2a9954b010de2947f3e,001,2021-08-19_15h07.02.736,natb3,2021.2.3,Linux x86_64,60.06006006,5e45f2a9954b010de2947f3e,611e07ecdcc96256ae8d5b80,611e656a95469e55d3811e35,
,,,,,,,0,50,50,311,1,X,1,2,7,3,,2500,2.5,5e45f2a9954b010de2947f3e,001,2021-08-19_15h07.02.736,natb3,2021.2.3,Linux x86_64,60.06006006,5e45f2a9954b010de2947f3e,611e07ecdcc96256ae8d5b80,611e656a95469e55d3811e35,
,,,,space,0.455,,0,51,51,142,1,N, , , , ,space,2500,2.5,5e45f2a9954b010de2947f3e,001,2021-08-19_15h07.02.736,natb3,2021.2.3,Linux x86_64,60.06006006,5e45f2a9954b010de2947f3e,611e07ecdcc96256ae8d5b80,611e656a95469e55d3811e35,
,,,,space,0.5725,,0,52,52,321,1,N, , , , ,space,2000,2,5e45f2a9954b010de2947f3e,001,2021-08-19_15h07.02.736,natb3,2021.2.3,Linux x86_64,60.06006006,5e45f2a9954b010de2947f3e,611e07ecdcc96256ae8d5b80,611e656a95469e55d3811e35,
,,,,space,0.4473,,0,53,53,155,1,O, , , , ,space,1500,1.5,5e45f2a9954b010de2947f3e,001,2021-08-19_15h07.02.736,natb3,2021.2.3,Linux x86_64,60.06006006,5e45f2a9954b010de2947f3e,611e07ecdcc96256ae8d5b80,611e656a95469e55d3811e35,
,,,,space,0.3146,,0,54,54,292,1,E, , , , ,space,2000,2,5e45f2a9954b010de2947f3e,001,2021-08-19_15h07.02.736,natb3,2021.2.3,Linux x86_64,60.06006006,5e45f2a9954b010de2947f3e,611e07ecdcc96256ae8d5b80,611e656a95469e55d3811e35,
,,,,space,0.5072,,0,55,55,6,1,Y, , , , ,space,2500,2.5,5e45f2a9954b010de2947f3e,001,2021-08-19_15h07.02.736,natb3,2021.2.3,Linux x86_64,60.06006006,5e45f2a9954b010de2947f3e,611e07ecdcc96256ae8d5b80,611e656a95469e55d3811e35,
,,,,space,0.6223,,0,56,56,113,1,W, , , , ,space,2500,2.5,5e45f2a9954b010de2947f3e,001,2021-08-19_15h07.02.736,natb3,2021.2.3,Linux x86_64,60.06006006,5e45f2a9954b010de2947f3e,611e07ecdcc96256ae8d5b80,611e656a95469e55d3811e35,
,,,,,,,0,57,57,200,1,X,7, ,5,3,,1500,1.5,5e45f2a9954b010de2947f3e,001,2021-08-19_15h07.02.736,natb3,2021.2.3,Linux x86_64,60.06006006,5e45f2a9954b010de2947f3e,611e07ecdcc96256ae8d5b80,611e656a95469e55d3811e35,
,,,,space,0.5761,,0,58,58,331,1,Y, , , , ,space,2500,2.5,5e45f2a9954b010de2947f3e,001,2021-08-19_15h07.02.736,natb3,2021.2.3,Linux x86_64,60.06006006,5e45f2a9954b010de2947f3e,611e07ecdcc96256ae8d5b80,611e656a95469e55d3811e35,
,,,,space,0.6649,,0,59,59,70,1,E, , , , ,space,2500,2.5,5e45f2a9954b010de2947f3e,001,2021-08-19_15h07.02.736,natb3,2021.2.3,Linux x86_64,60.06006006,5e45f2a9954b010de2947f3e,611e07ecdcc96256ae8d5b80,611e656a95469e55d3811e35,
,,,,,,,0,60,60,60,1,X,7,3,5, ,,1500,1.5,5e45f2a9954b010de2947f3e,001,2021-08-19_15h07.02.736,natb3,2021.2.3,Linux x86_64,60.06006006,5e45f2a9954b010de2947f3e,611e07ecdcc96256ae8d5b80,611e656a95469e55d3811e35,
,,,,space,0.9066,,0,61,61,110,1,I, , , , ,space,1500,1.5,5e45f2a9954b010de2947f3e,001,2021-08-19_15h07.02.736,natb3,2021.2.3,Linux x86_64,60.06006006,5e45f2a9954b010de2947f3e,611e07ecdcc96256ae8d5b80,611e656a95469e55d3811e35,
,,,,space,0.7008,,0,62,62,105,1,R, , , , ,space,2500,2.5,5e45f2a9954b010de2947f3e,001,2021-08-19_15h07.02.736,natb3,2021.2.3,Linux x86_64,60.06006006,5e45f2a9954b010de2947f3e,611e07ecdcc96256ae8d5b80,611e656a95469e55d3811e35,
,,,,,,,0,63,63,243,1,X, , , , ,,2500,2.5,5e45f2a9954b010de2947f3e,001,2021-08-19_15h07.02.736,natb3,2021.2.3,Linux x86_64,60.06006006,5e45f2a9954b010de2947f3e,611e07ecdcc96256ae8d5b80,611e656a95469e55d3811e35,
,,,,space,0.6463,,0,64,64,100,1,M, , , , ,space,2000,2,5e45f2a9954b010de2947f3e,001,2021-08-19_15h07.02.736,natb3,2021.2.3,Linux x86_64,60.06006006,5e45f2a9954b010de2947f3e,611e07ecdcc96256ae8d5b80,611e656a95469e55d3811e35,
,,,,space,0.5321,,0,65,65,79,1,P, , , , ,space,2000,2,5e45f2a9954b010de2947f3e,001,2021-08-19_15h07.02.736,natb3,2021.2.3,Linux x86_64,60.06006006,5e45f2a9954b010de2947f3e,611e07ecdcc96256ae8d5b80,611e656a95469e55d3811e35,
,,,,space,0.7028,,0,66,66,150,1,T, , , , ,space,2500,2.5,5e45f2a9954b010de2947f3e,001,2021-08-19_15h07.02.736,natb3,2021.2.3,Linux x86_64,60.06006006,5e45f2a9954b010de2947f3e,611e07ecdcc96256ae8d5b80,611e656a95469e55d3811e35,
,,,,,,,0,67,67,96,1,X, , , , ,,1500,1.5,5e45f2a9954b010de2947f3e,001,2021-08-19_15h07.02.736,natb3,2021.2.3,Linux x86_64,60.06006006,5e45f2a9954b010de2947f3e,611e07ecdcc96256ae8d5b80,611e656a95469e55d3811e35,
,,,,space,0.3724,,0,68,68,67,1,Q, , , , ,space,2000,2,5e45f2a9954b010de2947f3e,001,2021-08-19_15h07.02.736,natb3,2021.2.3,Linux x86_64,60.06006006,5e45f2a9954b010de2947f3e,611e07ecdcc96256ae8d5b80,611e656a95469e55d3811e35,
,,,,space,0.5917,,0,69,69,128,1,D, , , , ,space,2500,2.5,5e45f2a9954b010de2947f3e,001,2021-08-19_15h07.02.736,natb3,2021.2.3,Linux x86_64,60.06006006,5e45f2a9954b010de2947f3e,611e07ecdcc96256ae8d5b80,611e656a95469e55d3811e35,
,,,,space,0.7329,,0,70,70,257,1,W, , , , ,space,2000,2,5e45f2a9954b010de2947f3e,001,2021-08-19_15h07.02.736,natb3,2021.2.3,Linux x86_64,60.06006006,5e45f2a9954b010de2947f3e,611e07ecdcc96256ae8d5b80,611e656a95469e55d3811e35,
,,,,space,0.7368,,0,71,71,308,1,G, , , , ,space,1500,1.5,5e45f2a9954b010de2947f3e,001,2021-08-19_15h07.02.736,natb3,2021.2.3,Linux x86_64,60.06006006,5e45f2a9954b010de2947f3e,611e07ecdcc96256ae8d5b80,611e656a95469e55d3811e35,
,,,,space,0.8613,,0,72,72,146,1,W, , , , ,space,1500,1.5,5e45f2a9954b010de2947f3e,001,2021-08-19_15h07.02.736,natb3,2021.2.3,Linux x86_64,60.06006006,5e45f2a9954b010de2947f3e,611e07ecdcc96256ae8d5b80,611e656a95469e55d3811e35,
,,,,space,0.6336,,0,73,73,240,1,F, , , , ,space,2500,2.5,5e45f2a9954b010de2947f3e,001,2021-08-19_15h07.02.736,natb3,2021.2.3,Linux x86_64,60.06006006,5e45f2a9954b010de2947f3e,611e07ecdcc96256ae8d5b80,611e656a95469e55d3811e35,
,,,,space,0.7212,,0,74,74,38,1,R, , , , ,space,2500,2.5,5e45f2a9954b010de2947f3e,001,2021-08-19_15h07.02.736,natb3,2021.2.3,Linux x86_64,60.06006006,5e45f2a9954b010de2947f3e,611e07ecdcc96256ae8d5b80,611e656a95469e55d3811e35,
,,,,space,0.5843,,0,75,75,293,1,R, , , , ,space,2500,2.5,5e45f2a9954b010de2947f3e,001,2021-08-19_15h07.02.736,natb3,2021.2.3,Linux x86_64,60.06006006,5e45f2a9954b010de2947f3e,611e07ecdcc96256ae8d5b80,611e656a95469e55d3811e35,
,,,,space,0.5301,,0,76,76,68,1,W, , , , ,space,2500,2.5,5e45f2a9954b010de2947f3e,001,2021-08-19_15h07.02.736,natb3,2021.2.3,Linux x86_64,60.06006006,5e45f2a9954b010de2947f3e,611e07ecdcc96256ae8d5b80,611e656a95469e55d3811e35,
,,,,space,0.5232,,0,77,77,154,1,I, , , , ,space,2500,2.5,5e45f2a9954b010de2947f3e,001,2021-08-19_15h07.02.736,natb3,2021.2.3,Linux x86_64,60.06006006,5e45f2a9954b010de2947f3e,611e07ecdcc96256ae8d5b80,611e656a95469e55d3811e35,
,,,,space,0.6197,,0,78,78,184,1,T, , , , ,space,2000,2,5e45f2a9954b010de2947f3e,001,2021-08-19_15h07.02.736,natb3,2021.2.3,Linux x86_64,60.06006006,5e45f2a9954b010de2947f3e,611e07ecdcc96256ae8d5b80,611e656a95469e55d3811e35,
,,,,,,,0,79,79,179,1,X, ,9, ,2,,1500,1.5,5e45f2a9954b010de2947f3e,001,2021-08-19_15h07.02.736,natb3,2021.2.3,Linux x86_64,60.06006006,5e45f2a9954b010de2947f3e,611e07ecdcc96256ae8d5b80,611e656a95469e55d3811e35,
,,,,,,,0,80,80,138,1,X,8,5, ,3,,2000,2,5e45f2a9954b010de2947f3e,001,2021-08-19_15h07.02.736,natb3,2021.2.3,Linux x86_64,60.06006006,5e45f2a9954b010de2947f3e,611e07ecdcc96256ae8d5b80,611e656a95469e55d3811e35,
,,,,space,0.6278,,0,81,81,306,1,D, , , , ,space,2000,2,5e45f2a9954b010de2947f3e,001,2021-08-19_15h07.02.736,natb3,2021.2.3,Linux x86_64,60.06006006,5e45f2a9954b010de2947f3e,611e07ecdcc96256ae8d5b80,611e656a95469e55d3811e35,
,,,,,,,0,82,82,325,1,X, , , , ,,2500,2.5,5e45f2a9954b010de2947f3e,001,2021-08-19_15h07.02.736,natb3,2021.2.3,Linux x86_64,60.06006006,5e45f2a9954b010de2947f3e,611e07ecdcc96256ae8d5b80,611e656a95469e55d3811e35,
,,,,space,0.8292,,0,83,83,234,1,P, , , , ,space,2000,2,5e45f2a9954b010de2947f3e,001,2021-08-19_15h07.02.736,natb3,2021.2.3,Linux x86_64,60.06006006,5e45f2a9954b010de2947f3e,611e07ecdcc96256ae8d5b80,611e656a95469e55d3811e35,
,,,,space,0.5308,,0,84,84,333,1,I, , , , ,space,1500,1.5,5e45f2a9954b010de2947f3e,001,2021-08-19_15h07.02.736,natb3,2021.2.3,Linux x86_64,60.06006006,5e45f2a9954b010de2947f3e,611e07ecdcc96256ae8d5b80,611e656a95469e55d3811e35,
,,,,,,,0,85,85,295,1,X,8,7,5, ,,2500,2.5,5e45f2a9954b010de2947f3e,001,2021-08-19_15h07.02.736,natb3,2021.2.3,Linux x86_64,60.06006006,5e45f2a9954b010de2947f3e,611e07ecdcc96256ae8d5b80,611e656a95469e55d3811e35,
,,,,,,,0,86,86,84,1,X, , , , ,,2000,2,5e45f2a9954b010de2947f3e,001,2021-08-19_15h07.02.736,natb3,2021.2.3,Linux x86_64,60.06006006,5e45f2a9954b010de2947f3e,611e07ecdcc96256ae8d5b80,611e656a95469e55d3811e35,
,,,,,,,0,87,87,46,1,X, , , , ,,2000,2,5e45f2a9954b010de2947f3e,001,2021-08-19_15h07.02.736,natb3,2021.2.3,Linux x86_64,60.06006006,5e45f2a9954b010de2947f3e,611e07ecdcc96256ae8d5b80,611e656a95469e55d3811e35,
,,,,,,,0,88,88,166,1,X, , , , ,,2000,2,5e45f2a9954b010de2947f3e,001,2021-08-19_15h07.02.736,natb3,2021.2.3,Linux x86_64,60.06006006,5e45f2a9954b010de2947f3e,611e07ecdcc96256ae8d5b80,611e656a95469e55d3811e35,
,,,,space,0.6259,,0,89,89,280,1,L, , , , ,space,1500,1.5,5e45f2a9954b010de2947f3e,001,2021-08-19_15h07.02.736,natb3,2021.2.3,Linux x86_64,60.06006006,5e45f2a9954b010de2947f3e,611e07ecdcc96256ae8d5b80,611e656a95469e55d3811e35,
,,,,space,0.584,,0,90,90,135,1,K, , , , ,space,1500,1.5,5e45f2a9954b010de2947f3e,001,2021-08-19_15h07.02.736,natb3,2021.2.3,Linux x86_64,60.06006006,5e45f2a9954b010de2947f3e,611e07ecdcc96256ae8d5b80,611e656a95469e55d3811e35,
,,,,space,0.5996,,0,91,91,217,1,T, , , , ,space,2500,2.5,5e45f2a9954b010de2947f3e,001,2021-08-19_15h07.02.736,natb3,2021.2.3,Linux x86_64,60.06006006,5e45f2a9954b010de2947f3e,611e07ecdcc96256ae8d5b80,611e656a95469e55d3811e35,
,,,,,,,0,92,92,291,1,X, , , , ,,2000,2,5e45f2a9954b010de2947f3e,001,2021-08-19_15h07.02.736,natb3,2021.2.3,Linux x86_64,60.06006006,5e45f2a9954b010de2947f3e,611e07ecdcc96256ae8d5b80,611e656a95469e55d3811e35,
,,,,space,0.6551,,0,93,93,8,1,U, , , , ,space,1500,1.5,5e45f2a9954b010de2947f3e,001,2021-08-19_15h07.02.736,natb3,2021.2.3,Linux x86_64,60.06006006,5e45f2a9954b010de2947f3e,611e07ecdcc96256ae8d5b80,611e656a95469e55d3811e35,
,,,,,,,0,94,94,263,1,X,4, ,6, ,,1500,1.5,5e45f2a9954b010de2947f3e,001,2021-08-19_15h07.02.736,natb3,2021.2.3,Linux x86_64,60.06006006,5e45f2a9954b010de2947f3e,611e07ecdcc96256ae8d5b80,611e656a95469e55d3811e35,
,,,,,,,0,95,95,315,1,X, , , , ,,2500,2.5,5e45f2a9954b010de2947f3e,001,2021-08-19_15h07.02.736,natb3,2021.2.3,Linux x86_64,60.06006006,5e45f2a9954b010de2947f3e,611e07ecdcc96256ae8d5b80,611e656a95469e55d3811e35,
,,,,,,,0,96,96,27,1,X,5, ,1,3,,1500,1.5,5e45f2a9954b010de2947f3e,001,2021-08-19_15h07.02.736,natb3,2021.2.3,Linux x86_64,60.06006006,5e45f2a9954b010de2947f3e,611e07ecdcc96256ae8d5b80,611e656a95469e55d3811e35,
,,,,,,,0,97,97,171,1,X, , , , ,,1500,1.5,5e45f2a9954b010de2947f3e,001,2021-08-19_15h07.02.736,natb3,2021.2.3,Linux x86_64,60.06006006,5e45f2a9954b010de2947f3e,611e07ecdcc96256ae8d5b80,611e656a95469e55d3811e35,
,,,,,,,0,98,98,259,1,X,8, , ,3,,2500,2.5,5e45f2a9954b010de2947f3e,001,2021-08-19_15h07.02.736,natb3,2021.2.3,Linux x86_64,60.06006006,5e45f2a9954b010de2947f3e,611e07ecdcc96256ae8d5b80,611e656a95469e55d3811e35,
,,,,space,0.8374,,0,99,99,21,1,J, , , , ,space,1500,1.5,5e45f2a9954b010de2947f3e,001,2021-08-19_15h07.02.736,natb3,2021.2.3,Linux x86_64,60.06006006,5e45f2a9954b010de2947f3e,611e07ecdcc96256ae8d5b80,611e656a95469e55d3811e35,
,,,,space,0.7473,,0,100,100,81,1,S, , , , ,space,2000,2,5e45f2a9954b010de2947f3e,001,2021-08-19_15h07.02.736,natb3,2021.2.3,Linux x86_64,60.06006006,5e45f2a9954b010de2947f3e,611e07ecdcc96256ae8d5b80,611e656a95469e55d3811e35,
,,,,,,,0,101,101,4,1,X, , , , ,,2000,2,5e45f2a9954b010de2947f3e,001,2021-08-19_15h07.02.736,natb3,2021.2.3,Linux x86_64,60.06006006,5e45f2a9954b010de2947f3e,611e07ecdcc96256ae8d5b80,611e656a95469e55d3811e35,
,,,,space,0.6864,,0,102,102,194,1,D, , , , ,space,2000,2,5e45f2a9954b010de2947f3e,001,2021-08-19_15h07.02.736,natb3,2021.2.3,Linux x86_64,60.06006006,5e45f2a9954b010de2947f3e,611e07ecdcc96256ae8d5b80,611e656a95469e55d3811e35,
,,,,,,,0,103,103,236,1,X,3, ,4,7,,2500,2.5,5e45f2a9954b010de2947f3e,001,2021-08-19_15h07.02.736,natb3,2021.2.3,Linux x86_64,60.06006006,5e45f2a9954b010de2947f3e,611e07ecdcc96256ae8d5b80,611e656a95469e55d3811e35,
,,,,space,0.614,,0,104,104,170,1,Z, , , , ,space,2000,2,5e45f2a9954b010de2947f3e,001,2021-08-19_15h07.02.736,natb3,2021.2.3,Linux x86_64,60.06006006,5e45f2a9954b010de2947f3e,611e07ecdcc96256ae8d5b80,611e656a95469e55d3811e35,
,,,,space,0.6652,,0,105,105,275,1,G, , , , ,space,1500,1.5,5e45f2a9954b010de2947f3e,001,2021-08-19_15h07.02.736,natb3,2021.2.3,Linux x86_64,60.06006006,5e45f2a9954b010de2947f3e,611e07ecdcc96256ae8d5b80,611e656a95469e55d3811e35,
,,,,space,0.83,,0,106,106,178,1,Q, , , , ,space,1500,1.5,5e45f2a9954b010de2947f3e,001,2021-08-19_15h07.02.736,natb3,2021.2.3,Linux x86_64,60.06006006,5e45f2a9954b010de2947f3e,611e07ecdcc96256ae8d5b80,611e656a95469e55d3811e35,
,,,,space,0.6105,,0,107,107,319,1,V, , , , ,space,2000,2,5e45f2a9954b010de2947f3e,001,2021-08-19_15h07.02.736,natb3,2021.2.3,Linux x86_64,60.06006006,5e45f2a9954b010de2947f3e,611e07ecdcc96256ae8d5b80,611e656a95469e55d3811e35,
,,,,,,,0,108,108,252,1,X,3, ,6,9,,2000,2,5e45f2a9954b010de2947f3e,001,2021-08-19_15h07.02.736,natb3,2021.2.3,Linux x86_64,60.06006006,5e45f2a9954b010de2947f3e,611e07ecdcc96256ae8d5b80,611e656a95469e55d3811e35,
,,,,space,0.5053,,0,109,109,139,1,V, , , , ,space,2000,2,5e45f2a9954b010de2947f3e,001,2021-08-19_15h07.02.736,natb3,2021.2.3,Linux x86_64,60.06006006,5e45f2a9954b010de2947f3e,611e07ecdcc96256ae8d5b80,611e656a95469e55d3811e35,
,,,,space,0.6136,,0,110,110,320,1,B, , , , ,space,1500,1.5,5e45f2a9954b010de2947f3e,001,2021-08-19_15h07.02.736,natb3,2021.2.3,Linux x86_64,60.06006006,5e45f2a9954b010de2947f3e,611e07ecdcc96256ae8d5b80,611e656a95469e55d3811e35,
,,,,,,,0,111,111,23,1,X,1, ,5, ,,2000,2,5e45f2a9954b010de2947f3e,001,2021-08-19_15h07.02.736,natb3,2021.2.3,Linux x86_64,60.06006006,5e45f2a9954b010de2947f3e,611e07ecdcc96256ae8d5b80,611e656a95469e55d3811e35,
,,,,,,,0,112,112,118,1,X, , , , ,,2000,2,5e45f2a9954b010de2947f3e,001,2021-08-19_15h07.02.736,natb3,2021.2.3,Linux x86_64,60.06006006,5e45f2a9954b010de2947f3e,611e07ecdcc96256ae8d5b80,611e656a95469e55d3811e35,
,,,,space,0.5603,,0,113,113,285,1,B, , , , ,space,1500,1.5,5e45f2a9954b010de2947f3e,001,2021-08-19_15h07.02.736,natb3,2021.2.3,Linux x86_64,60.06006006,5e45f2a9954b010de2947f3e,611e07ecdcc96256ae8d5b80,611e656a95469e55d3811e35,
,,,,space,0.7705,,0,114,114,13,1,A, , , , ,space,2000,2,5e45f2a9954b010de2947f3e,001,2021-08-19_15h07.02.736,natb3,2021.2.3,Linux x86_64,60.06006006,5e45f2a9954b010de2947f3e,611e07ecdcc96256ae8d5b80,611e656a95469e55d3811e35,
,,,,space,0.5014,,0,115,115,161,1,F, , , , ,space,1500,1.5,5e45f2a9954b010de2947f3e,001,2021-08-19_15h07.02.736,natb3,2021.2.3,Linux x86_64,60.06006006,5e45f2a9954b010de2947f3e,611e07ecdcc96256ae8d5b80,611e656a95469e55d3811e35,
,,,,space,0.4487,,0,116,116,62,1,V, , , , ,space,1500,1.5,5e45f2a9954b010de2947f3e,001,2021-08-19_15h07.02.736,natb3,2021.2.3,Linux x86_64,60.06006006,5e45f2a9954b010de2947f3e,611e07ecdcc96256ae8d5b80,611e656a95469e55d3811e35,
,,,,space,0.4993,,0,117,117,296,1,Y, , , , ,space,2500,2.5,5e45f2a9954b010de2947f3e,001,2021-08-19_15h07.02.736,natb3,2021.2.3,Linux x86_64,60.06006006,5e45f2a9954b010de2947f3e,611e07ecdcc96256ae8d5b80,611e656a95469e55d3811e35,
,,,,,,,0,118,118,270,1,S, , , , ,space,1500,1.5,5e45f2a9954b010de2947f3e,001,2021-08-19_15h07.02.736,natb3,2021.2.3,Linux x86_64,60.06006006,5e45f2a9954b010de2947f3e,611e07ecdcc96256ae8d5b80,611e656a95469e55d3811e35,
,,,,space,0.4525,,0,119,119,159,1,S, , , , ,space,2500,2.5,5e45f2a9954b010de2947f3e,001,2021-08-19_15h07.02.736,natb3,2021.2.3,Linux x86_64,60.06006006,5e45f2a9954b010de2947f3e,611e07ecdcc96256ae8d5b80,611e656a95469e55d3811e35,
,,,,space,0.4971,,0,120,120,0,1,Q, , , , ,space,1500,1.5,5e45f2a9954b010de2947f3e,001,2021-08-19_15h07.02.736,natb3,2021.2.3,Linux x86_64,60.06006006,5e45f2a9954b010de2947f3e,611e07ecdcc96256ae8d5b80,611e656a95469e55d3811e35,
,,,,space,0.6541,,0,121,121,324,1,Q, , , , ,space,2000,2,5e45f2a9954b010de2947f3e,001,2021-08-19_15h07.02.736,natb3,2021.2.3,Linux x86_64,60.06006006,5e45f2a9954b010de2947f3e,611e07ecdcc96256ae8d5b80,611e656a95469e55d3811e35,
,,,,space,0.4593,,0,122,122,186,1,U, , , , ,space,2500,2.5,5e45f2a9954b010de2947f3e,001,2021-08-19_15h07.02.736,natb3,2021.2.3,Linux x86_64,60.06006006,5e45f2a9954b010de2947f3e,611e07ecdcc96256ae8d5b80,611e656a95469e55d3811e35,
,,,,space,0.6602,,0,123,123,9,1,I, , , , ,space,1500,1.5,5e45f2a9954b010de2947f3e,001,2021-08-19_15h07.02.736,natb3,2021.2.3,Linux x86_64,60.06006006,5e45f2a9954b010de2947f3e,611e07ecdcc96256ae8d5b80,611e656a95469e55d3811e35,
,,,,space,0.5974,,0,124,124,328,1,R, , , , ,space,1500,1.5,5e45f2a9954b010de2947f3e,001,2021-08-19_15h07.02.736,natb3,2021.2.3,Linux x86_64,60.06006006,5e45f2a9954b010de2947f3e,611e07ecdcc96256ae8d5b80,611e656a95469e55d3811e35,
,,,,space,0.7152,,0,125,125,214,1,W, , , , ,space,2000,2,5e45f2a9954b010de2947f3e,001,2021-08-19_15h07.02.736,natb3,2021.2.3,Linux x86_64,60.06006006,5e45f2a9954b010de2947f3e,611e07ecdcc96256ae8d5b80,611e656a95469e55d3811e35,
,,,,space,0.6248,,0,126,126,224,1,W, , , , ,space,1500,1.5,5e45f2a9954b010de2947f3e,001,2021-08-19_15h07.02.736,natb3,2021.2.3,Linux x86_64,60.06006006,5e45f2a9954b010de2947f3e,611e07ecdcc96256ae8d5b80,611e656a95469e55d3811e35,
,,,,,,,0,127,127,93,1,X,5, ,7, ,,2500,2.5,5e45f2a9954b010de2947f3e,001,2021-08-19_15h07.02.736,natb3,2021.2.3,Linux x86_64,60.06006006,5e45f2a9954b010de2947f3e,611e07ecdcc96256ae8d5b80,611e656a95469e55d3811e35,
,,,,space,0.4664,,0,128,128,225,1,E, , , , ,space,2000,2,5e45f2a9954b010de2947f3e,001,2021-08-19_15h07.02.736,natb3,2021.2.3,Linux x86_64,60.06006006,5e45f2a9954b010de2947f3e,611e07ecdcc96256ae8d5b80,611e656a95469e55d3811e35,
,,,,,,,0,129,129,299,1,X, , , , ,,2500,2.5,5e45f2a9954b010de2947f3e,001,2021-08-19_15h07.02.736,natb3,2021.2.3,Linux x86_64,60.06006006,5e45f2a9954b010de2947f3e,611e07ecdcc96256ae8d5b80,611e656a95469e55d3811e35,
,,,,,,,0,130,130,255,1,X, , , , ,,1500,1.5,5e45f2a9954b010de2947f3e,001,2021-08-19_15h07.02.736,natb3,2021.2.3,Linux x86_64,60.06006006,5e45f2a9954b010de2947f3e,611e07ecdcc96256ae8d5b80,611e656a95469e55d3811e35,
,,,,space,0.4533,,0,131,131,136,1,Z, , , , ,space,2500,2.5,5e45f2a9954b010de2947f3e,001,2021-08-19_15h07.02.736,natb3,2021.2.3,Linux x86_64,60.06006006,5e45f2a9954b010de2947f3e,611e07ecdcc96256ae8d5b80,611e656a95469e55d3811e35,
,,,,,,,0,132,132,167,1,K, , , , ,space,1500,1.5,5e45f2a9954b010de2947f3e,001,2021-08-19_15h07.02.736,natb3,2021.2.3,Linux x86_64,60.06006006,5e45f2a9954b010de2947f3e,611e07ecdcc96256ae8d5b80,611e656a95469e55d3811e35,
,,,,space,0.5494,,0,133,133,278,1,J, , , , ,space,2000,2,5e45f2a9954b010de2947f3e,001,2021-08-19_15h07.02.736,natb3,2021.2.3,Linux x86_64,60.06006006,5e45f2a9954b010de2947f3e,611e07ecdcc96256ae8d5b80,611e656a95469e55d3811e35,
,,,,,,,0,134,134,191,1,X,1, ,3,4,,2500,2.5,5e45f2a9954b010de2947f3e,001,2021-08-19_15h07.02.736,natb3,2021.2.3,Linux x86_64,60.06006006,5e45f2a9954b010de2947f3e,611e07ecdcc96256ae8d5b80,611e656a95469e55d3811e35,
,,,,,,,0,135,135,69,1,X, , , , ,,1500,1.5,5e45f2a9954b010de2947f3e,001,2021-08-19_15h07.02.736,natb3,2021.2.3,Linux x86_64,60.06006006,5e45f2a9954b010de2947f3e,611e07ecdcc96256ae8d5b80,611e656a95469e55d3811e35,
,,,,space,0.6987,,0,136,136,228,1,Y, , , , ,space,2000,2,5e45f2a9954b010de2947f3e,001,2021-08-19_15h07.02.736,natb3,2021.2.3,Linux x86_64,60.06006006,5e45f2a9954b010de2947f3e,611e07ecdcc96256ae8d5b80,611e656a95469e55d3811e35,
,,,,space,0.5462,,0,137,137,241,1,G, , , , ,space,2500,2.5,5e45f2a9954b010de2947f3e,001,2021-08-19_15h07.02.736,natb3,2021.2.3,Linux x86_64,60.06006006,5e45f2a9954b010de2947f3e,611e07ecdcc96256ae8d5b80,611e656a95469e55d3811e35,
,,,,space,0.5992,,0,138,138,134,1,J, , , , ,space,2000,2,5e45f2a9954b010de2947f3e,001,2021-08-19_15h07.02.736,natb3,2021.2.3,Linux x86_64,60.06006006,5e45f2a9954b010de2947f3e,611e07ecdcc96256ae8d5b80,611e656a95469e55d3811e35,
,,,,space,0.7304,,0,139,139,251,1,B, , , , ,space,1500,1.5,5e45f2a9954b010de2947f3e,001,2021-08-19_15h07.02.736,natb3,2021.2.3,Linux x86_64,60.06006006,5e45f2a9954b010de2947f3e,611e07ecdcc96256ae8d5b80,611e656a95469e55d3811e35,
,,,,space,0.8324,,0,140,140,298,1,I, , , , ,space,2000,2,5e45f2a9954b010de2947f3e,001,2021-08-19_15h07.02.736,natb3,2021.2.3,Linux x86_64,60.06006006,5e45f2a9954b010de2947f3e,611e07ecdcc96256ae8d5b80,611e656a95469e55d3811e35,
,,,,space,0.6827,,0,141,141,2,1,E, , , , ,space,2500,2.5,5e45f2a9954b010de2947f3e,001,2021-08-19_15h07.02.736,natb3,2021.2.3,Linux x86_64,60.06006006,5e45f2a9954b010de2947f3e,611e07ecdcc96256ae8d5b80,611e656a95469e55d3811e35,
,,,,space,0.5707,,0,142,142,235,1,A, , , , ,space,1500,1.5,5e45f2a9954b010de2947f3e,001,2021-08-19_15h07.02.736,natb3,2021.2.3,Linux x86_64,60.06006006,5e45f2a9954b010de2947f3e,611e07ecdcc96256ae8d5b80,611e656a95469e55d3811e35,
,,,,space,0.5463,,0,143,143,152,1,U, , , , ,space,2000,2,5e45f2a9954b010de2947f3e,001,2021-08-19_15h07.02.736,natb3,2021.2.3,Linux x86_64,60.06006006,5e45f2a9954b010de2947f3e,611e07ecdcc96256ae8d5b80,611e656a95469e55d3811e35,
,,,,space,0.8025,,0,144,144,172,1,C, , , , ,space,1500,1.5,5e45f2a9954b010de2947f3e,001,2021-08-19_15h07.02.736,natb3,2021.2.3,Linux x86_64,60.06006006,5e45f2a9954b010de2947f3e,611e07ecdcc96256ae8d5b80,611e656a95469e55d3811e35,
,,,,,,,0,145,145,82,1,X,4,6,1,7,,2000,2,5e45f2a9954b010de2947f3e,001,2021-08-19_15h07.02.736,natb3,2021.2.3,Linux x86_64,60.06006006,5e45f2a9954b010de2947f3e,611e07ecdcc96256ae8d5b80,611e656a95469e55d3811e35,
,,,,space,0.6014,,0,146,146,316,1,Z, , , , ,space,1500,1.5,5e45f2a9954b010de2947f3e,001,2021-08-19_15h07.02.736,natb3,2021.2.3,Linux x86_64,60.06006006,5e45f2a9954b010de2947f3e,611e07ecdcc96256ae8d5b80,611e656a95469e55d3811e35,
,,,,,,,0,147,147,12,1,X, , , , ,,1500,1.5,5e45f2a9954b010de2947f3e,001,2021-08-19_15h07.02.736,natb3,2021.2.3,Linux x86_64,60.06006006,5e45f2a9954b010de2947f3e,611e07ecdcc96256ae8d5b80,611e656a95469e55d3811e35,
,,,,space,0.822,,0,148,148,264,1,U, , , , ,space,2000,2,5e45f2a9954b010de2947f3e,001,2021-08-19_15h07.02.736,natb3,2021.2.3,Linux x86_64,60.06006006,5e45f2a9954b010de2947f3e,611e07ecdcc96256ae8d5b80,611e656a95469e55d3811e35,
,,,,space,0.5871,,0,149,149,77,1,O, , , , ,space,2000,2,5e45f2a9954b010de2947f3e,001,2021-08-19_15h07.02.736,natb3,2021.2.3,Linux x86_64,60.06006006,5e45f2a9954b010de2947f3e,611e07ecdcc96256ae8d5b80,611e656a95469e55d3811e35,
,,,,space,0.4186,,0,150,150,323,1,M, , , , ,space,2500,2.5,5e45f2a9954b010de2947f3e,001,2021-08-19_15h07.02.736,natb3,2021.2.3,Linux x86_64,60.06006006,5e45f2a9954b010de2947f3e,611e07ecdcc96256ae8d5b80,611e656a95469e55d3811e35,
,,,,space,0.632,,0,151,151,130,1,F, , , , ,space,2000,2,5e45f2a9954b010de2947f3e,001,2021-08-19_15h07.02.736,natb3,2021.2.3,Linux x86_64,60.06006006,5e45f2a9954b010de2947f3e,611e07ecdcc96256ae8d5b80,611e656a95469e55d3811e35,
,,,,space,0.5314,,0,152,152,269,1,A, , , , ,space,2500,2.5,5e45f2a9954b010de2947f3e,001,2021-08-19_15h07.02.736,natb3,2021.2.3,Linux x86_64,60.06006006,5e45f2a9954b010de2947f3e,611e07ecdcc96256ae8d5b80,611e656a95469e55d3811e35,
,,,,space,0.6874,,0,153,153,326,1,W, , , , ,space,2000,2,5e45f2a9954b010de2947f3e,001,2021-08-19_15h07.02.736,natb3,2021.2.3,Linux x86_64,60.06006006,5e45f2a9954b010de2947f3e,611e07ecdcc96256ae8d5b80,611e656a95469e55d3811e35,
,,,,space,0.5151,,0,154,154,55,1,H, , , , ,space,2500,2.5,5e45f2a9954b010de2947f3e,001,2021-08-19_15h07.02.736,natb3,2021.2.3,Linux x86_64,60.06006006,5e45f2a9954b010de2947f3e,611e07ecdcc96256ae8d5b80,611e656a95469e55d3811e35,
,,,,space,0.5598,,0,155,155,124,1,P, , , , ,space,2000,2,5e45f2a9954b010de2947f3e,001,2021-08-19_15h07.02.736,natb3,2021.2.3,Linux x86_64,60.06006006,5e45f2a9954b010de2947f3e,611e07ecdcc96256ae8d5b80,611e656a95469e55d3811e35,
,,,,space,0.5725,,0,156,156,304,1,S, , , , ,space,2000,2,5e45f2a9954b010de2947f3e,001,2021-08-19_15h07.02.736,natb3,2021.2.3,Linux x86_64,60.06006006,5e45f2a9954b010de2947f3e,611e07ecdcc96256ae8d5b80,611e656a95469e55d3811e35,
,,,,space,0.43,,0,157,157,160,1,D, , , , ,space,1500,1.5,5e45f2a9954b010de2947f3e,001,2021-08-19_15h07.02.736,natb3,2021.2.3,Linux x86_64,60.06006006,5e45f2a9954b010de2947f3e,611e07ecdcc96256ae8d5b80,611e656a95469e55d3811e35,
,,,,,,,0,158,158,133,1,X, ,4, ,6,,2500,2.5,5e45f2a9954b010de2947f3e,001,2021-08-19_15h07.02.736,natb3,2021.2.3,Linux x86_64,60.06006006,5e45f2a9954b010de2947f3e,611e07ecdcc96256ae8d5b80,611e656a95469e55d3811e35,
,,,,space,0.4437,,0,159,159,216,1,R, , , , ,space,1500,1.5,5e45f2a9954b010de2947f3e,001,2021-08-19_15h07.02.736,natb3,2021.2.3,Linux x86_64,60.06006006,5e45f2a9954b010de2947f3e,611e07ecdcc96256ae8d5b80,611e656a95469e55d3811e35,
,,,,space,0.499,,0,160,160,307,1,F, , , , ,space,2500,2.5,5e45f2a9954b010de2947f3e,001,2021-08-19_15h07.02.736,natb3,2021.2.3,Linux x86_64,60.06006006,5e45f2a9954b010de2947f3e,611e07ecdcc96256ae8d5b80,611e656a95469e55d3811e35,
,,,,,,,0,161,161,282,1,X, , , , ,,2500,2.5,5e45f2a9954b010de2947f3e,001,2021-08-19_15h07.02.736,natb3,2021.2.3,Linux x86_64,60.06006006,5e45f2a9954b010de2947f3e,611e07ecdcc96256ae8d5b80,611e656a95469e55d3811e35,
,,,,,,,0,162,162,313,1,X, , , , ,,2500,2.5,5e45f2a9954b010de2947f3e,001,2021-08-19_15h07.02.736,natb3,2021.2.3,Linux x86_64,60.06006006,5e45f2a9954b010de2947f3e,611e07ecdcc96256ae8d5b80,611e656a95469e55d3811e35,
,,,,space,0.6961,,0,163,163,20,1,H, , , , ,space,1500,1.5,5e45f2a9954b010de2947f3e,001,2021-08-19_15h07.02.736,natb3,2021.2.3,Linux x86_64,60.06006006,5e45f2a9954b010de2947f3e,611e07ecdcc96256ae8d5b80,611e656a95469e55d3811e35,
,,,,space,0.8553,,0,164,164,101,1,Q, , , , ,space,2500,2.5,5e45f2a9954b010de2947f3e,001,2021-08-19_15h07.02.736,natb3,2021.2.3,Linux x86_64,60.06006006,5e45f2a9954b010de2947f3e,611e07ecdcc96256ae8d5b80,611e656a95469e55d3811e35,
,,,,space,0.8846,,0,165,165,183,1,R, , , , ,space,1500,1.5,5e45f2a9954b010de2947f3e,001,2021-08-19_15h07.02.736,natb3,2021.2.3,Linux x86_64,60.06006006,5e45f2a9954b010de2947f3e,611e07ecdcc96256ae8d5b80,611e656a95469e55d3811e35,
,,,,,,,0,166,166,233,1,X, ,2, ,5,,1500,1.5,5e45f2a9954b010de2947f3e,001,2021-08-19_15h07.02.736,natb3,2021.2.3,Linux x86_64,60.06006006,5e45f2a9954b010de2947f3e,611e07ecdcc96256ae8d5b80,611e656a95469e55d3811e35,
,,,,,,space,0,167,167,158,1,X, , , , ,,1500,1.5,5e45f2a9954b010de2947f3e,001,2021-08-19_15h07.02.736,natb3,2021.2.3,Linux x86_64,60.06006006,5e45f2a9954b010de2947f3e,611e07ecdcc96256ae8d5b80,611e656a95469e55d3811e35,3.1221
,,,,space,0.5512,,0,168,168,202,1,L, , , , ,space,2500,2.5,5e45f2a9954b010de2947f3e,001,2021-08-19_15h07.02.736,natb3,2021.2.3,Linux x86_64,60.06006006,5e45f2a9954b010de2947f3e,611e07ecdcc96256ae8d5b80,611e656a95469e55d3811e35,
,,,,space,0.4645,,0,169,169,256,1,Q, , , , ,space,2000,2,5e45f2a9954b010de2947f3e,001,2021-08-19_15h07.02.736,natb3,2021.2.3,Linux x86_64,60.06006006,5e45f2a9954b010de2947f3e,611e07ecdcc96256ae8d5b80,611e656a95469e55d3811e35,
,,,,space,0.4362,,0,170,170,87,1,H, , , , ,space,1500,1.5,5e45f2a9954b010de2947f3e,001,2021-08-19_15h07.02.736,natb3,2021.2.3,Linux x86_64,60.06006006,5e45f2a9954b010de2947f3e,611e07ecdcc96256ae8d5b80,611e656a95469e55d3811e35,
,,,,space,0.6094,,0,171,171,88,1,J, , , , ,space,2500,2.5,5e45f2a9954b010de2947f3e,001,2021-08-19_15h07.02.736,natb3,2021.2.3,Linux x86_64,60.06006006,5e45f2a9954b010de2947f3e,611e07ecdcc96256ae8d5b80,611e656a95469e55d3811e35,
,,,,space,0.504,,0,172,172,90,1,K, , , , ,space,2000,2,5e45f2a9954b010de2947f3e,001,2021-08-19_15h07.02.736,natb3,2021.2.3,Linux x86_64,60.06006006,5e45f2a9954b010de2947f3e,611e07ecdcc96256ae8d5b80,611e656a95469e55d3811e35,
,,,,space,0.6038,,0,173,173,11,1,P, , , , ,space,2500,2.5,5e45f2a9954b010de2947f3e,001,2021-08-19_15h07.02.736,natb3,2021.2.3,Linux x86_64,60.06006006,5e45f2a9954b010de2947f3e,611e07ecdcc96256ae8d5b80,611e656a95469e55d3811e35,
,,,,space,0.681,,0,174,174,189,1,O, , , , ,space,1500,1.5,5e45f2a9954b010de2947f3e,001,2021-08-19_15h07.02.736,natb3,2021.2.3,Linux x86_64,60.06006006,5e45f2a9954b010de2947f3e,611e07ecdcc96256ae8d5b80,611e656a95469e55d3811e35,
,,,,space,0.5379,,0,175,175,314,1,L, , , , ,space,1500,1.5,5e45f2a9954b010de2947f3e,001,2021-08-19_15h07.02.736,natb3,2021.2.3,Linux x86_64,60.06006006,5e45f2a9954b010de2947f3e,611e07ecdcc96256ae8d5b80,611e656a95469e55d3811e35,
,,,,,,,0,176,176,98,1,X, , , , ,,2500,2.5,5e45f2a9954b010de2947f3e,001,2021-08-19_15h07.02.736,natb3,2021.2.3,Linux x86_64,60.06006006,5e45f2a9954b010de2947f3e,611e07ecdcc96256ae8d5b80,611e656a95469e55d3811e35,
,,,,space,0.5671,,0,177,177,92,1,Z, , , , ,space,1500,1.5,5e45f2a9954b010de2947f3e,001,2021-08-19_15h07.02.736,natb3,2021.2.3,Linux x86_64,60.06006006,5e45f2a9954b010de2947f3e,611e07ecdcc96256ae8d5b80,611e656a95469e55d3811e35,
,,,,space,0.4102,,0,178,178,149,1,R, , , , ,space,2000,2,5e45f2a9954b010de2947f3e,001,2021-08-19_15h07.02.736,natb3,2021.2.3,Linux x86_64,60.06006006,5e45f2a9954b010de2947f3e,611e07ecdcc96256ae8d5b80,611e656a95469e55d3811e35,
,,,,space,0.3802,,0,179,179,226,1,R, , , , ,space,2000,2,5e45f2a9954b010de2947f3e,001,2021-08-19_15h07.02.736,natb3,2021.2.3,Linux x86_64,60.06006006,5e45f2a9954b010de2947f3e,611e07ecdcc96256ae8d5b80,611e656a95469e55d3811e35,
,,,,space,0.4144,,0,180,180,10,1,O, , , , ,space,2000,2,5e45f2a9954b010de2947f3e,001,2021-08-19_15h07.02.736,natb3,2021.2.3,Linux x86_64,60.06006006,5e45f2a9954b010de2947f3e,611e07ecdcc96256ae8d5b80,611e656a95469e55d3811e35,
,,,,space,0.4408,,0,181,181,48,1,A, , , , ,space,2500,2.5,5e45f2a9954b010de2947f3e,001,2021-08-19_15h07.02.736,natb3,2021.2.3,Linux x86_64,60.06006006,5e45f2a9954b010de2947f3e,611e07ecdcc96256ae8d5b80,611e656a95469e55d3811e35,
,,,,,,,0,182,182,175,1,X,7, ,4,2,,1500,1.5,5e45f2a9954b010de2947f3e,001,2021-08-19_15h07.02.736,natb3,2021.2.3,Linux x86_64,60.06006006,5e45f2a9954b010de2947f3e,611e07ecdcc96256ae8d5b80,611e656a95469e55d3811e35,
,,,,,,,0,183,183,305,1,X, , , , ,,1500,1.5,5e45f2a9954b010de2947f3e,001,2021-08-19_15h07.02.736,natb3,2021.2.3,Linux x86_64,60.06006006,5e45f2a9954b010de2947f3e,611e07ecdcc96256ae8d5b80,611e656a95469e55d3811e35,
,,,,space,0.544,,0,184,184,199,1,J, , , , ,space,2500,2.5,5e45f2a9954b010de2947f3e,001,2021-08-19_15h07.02.736,natb3,2021.2.3,Linux x86_64,60.06006006,5e45f2a9954b010de2947f3e,611e07ecdcc96256ae8d5b80,611e656a95469e55d3811e35,
,,,,,,,0,185,185,89,1,X,3, , , ,,2000,2,5e45f2a9954b010de2947f3e,001,2021-08-19_15h07.02.736,natb3,2021.2.3,Linux x86_64,60.06006006,5e45f2a9954b010de2947f3e,611e07ecdcc96256ae8d5b80,611e656a95469e55d3811e35,
,,,,space,0.545,,0,186,186,72,1,T, , , , ,space,1500,1.5,5e45f2a9954b010de2947f3e,001,2021-08-19_15h07.02.736,natb3,2021.2.3,Linux x86_64,60.06006006,5e45f2a9954b010de2947f3e,611e07ecdcc96256ae8d5b80,611e656a95469e55d3811e35,
,,,,space,0.6056,,0,187,187,17,1,F, , , , ,space,2500,2.5,5e45f2a9954b010de2947f3e,001,2021-08-19_15h07.02.736,natb3,2021.2.3,Linux x86_64,60.06006006,5e45f2a9954b010de2947f3e,611e07ecdcc96256ae8d5b80,611e656a95469e55d3811e35,
,,,,space,0.6554,,0,188,188,250,1,V, , , , ,space,2000,2,5e45f2a9954b010de2947f3e,001,2021-08-19_15h07.02.736,natb3,2021.2.3,Linux x86_64,60.06006006,5e45f2a9954b010de2947f3e,611e07ecdcc96256ae8d5b80,611e656a95469e55d3811e35,
,,,,space,0.535,,0,189,189,212,1,Q, , , , ,space,2500,2.5,5e45f2a9954b010de2947f3e,001,2021-08-19_15h07.02.736,natb3,2021.2.3,Linux x86_64,60.06006006,5e45f2a9954b010de2947f3e,611e07ecdcc96256ae8d5b80,611e656a95469e55d3811e35,
,,,,space,0.6648,,0,190,190,165,1,J, , , , ,space,2500,2.5,5e45f2a9954b010de2947f3e,001,2021-08-19_15h07.02.736,natb3,2021.2.3,Linux x86_64,60.06006006,5e45f2a9954b010de2947f3e,611e07ecdcc96256ae8d5b80,611e656a95469e55d3811e35,
,,,,,,,0,191,191,78,1,X, , , , ,,2000,2,5e45f2a9954b010de2947f3e,001,2021-08-19_15h07.02.736,natb3,2021.2.3,Linux x86_64,60.06006006,5e45f2a9954b010de2947f3e,611e07ecdcc96256ae8d5b80,611e656a95469e55d3811e35,
,,,,space,0.5636,,0,192,192,34,1,Q, , , , ,space,2500,2.5,5e45f2a9954b010de2947f3e,001,2021-08-19_15h07.02.736,natb3,2021.2.3,Linux x86_64,60.06006006,5e45f2a9954b010de2947f3e,611e07ecdcc96256ae8d5b80,611e656a95469e55d3811e35,
,,,,space,0.5992,,0,193,193,24,1,L, , , , ,space,2500,2.5,5e45f2a9954b010de2947f3e,001,2021-08-19_15h07.02.736,natb3,2021.2.3,Linux x86_64,60.06006006,5e45f2a9954b010de2947f3e,611e07ecdcc96256ae8d5b80,611e656a95469e55d3811e35,
,,,,space,0.7034,,0,194,194,41,1,Y, , , , ,space,2500,2.5,5e45f2a9954b010de2947f3e,001,2021-08-19_15h07.02.736,natb3,2021.2.3,Linux x86_64,60.06006006,5e45f2a9954b010de2947f3e,611e07ecdcc96256ae8d5b80,611e656a95469e55d3811e35,
,,,,space,0.7138,,0,195,195,85,1,F, , , , ,space,2500,2.5,5e45f2a9954b010de2947f3e,001,2021-08-19_15h07.02.736,natb3,2021.2.3,Linux x86_64,60.06006006,5e45f2a9954b010de2947f3e,611e07ecdcc96256ae8d5b80,611e656a95469e55d3811e35,
,,,,,,,0,196,196,51,1,X,7,5,8, ,,1500,1.5,5e45f2a9954b010de2947f3e,001,2021-08-19_15h07.02.736,natb3,2021.2.3,Linux x86_64,60.06006006,5e45f2a9954b010de2947f3e,611e07ecdcc96256ae8d5b80,611e656a95469e55d3811e35,
,,,,,,,0,197,197,268,1,X,6, ,3, ,,2500,2.5,5e45f2a9954b010de2947f3e,001,2021-08-19_15h07.02.736,natb3,2021.2.3,Linux x86_64,60.06006006,5e45f2a9954b010de2947f3e,611e07ecdcc96256ae8d5b80,611e656a95469e55d3811e35,
,,,,space,0.7434,,0,198,198,57,1,K, , , , ,space,2500,2.5,5e45f2a9954b010de2947f3e,001,2021-08-19_15h07.02.736,natb3,2021.2.3,Linux x86_64,60.06006006,5e45f2a9954b010de2947f3e,611e07ecdcc96256ae8d5b80,611e656a95469e55d3811e35,
,,,,space,0.6412,,0,199,199,317,1,C, , , , ,space,2000,2,5e45f2a9954b010de2947f3e,001,2021-08-19_15h07.02.736,natb3,2021.2.3,Linux x86_64,60.06006006,5e45f2a9954b010de2947f3e,611e07ecdcc96256ae8d5b80,611e656a95469e55d3811e35,
,,,,,,,0,200,200,66,1,X, ,4,7, ,,2000,2,5e45f2a9954b010de2947f3e,001,2021-08-19_15h07.02.736,natb3,2021.2.3,Linux x86_64,60.06006006,5e45f2a9954b010de2947f3e,611e07ecdcc96256ae8d5b80,611e656a95469e55d3811e35,
,,,,space,0.5012,,0,201,201,185,1,Y, , , , ,space,2500,2.5,5e45f2a9954b010de2947f3e,001,2021-08-19_15h07.02.736,natb3,2021.2.3,Linux x86_64,60.06006006,5e45f2a9954b010de2947f3e,611e07ecdcc96256ae8d5b80,611e656a95469e55d3811e35,
,,,,space,0.5867,,0,202,202,279,1,K, , , , ,space,2500,2.5,5e45f2a9954b010de2947f3e,001,2021-08-19_15h07.02.736,natb3,2021.2.3,Linux x86_64,60.06006006,5e45f2a9954b010de2947f3e,611e07ecdcc96256ae8d5b80,611e656a95469e55d3811e35,
,,,,space,0.4987,,0,203,203,109,1,U, , , , ,space,1500,1.5,5e45f2a9954b010de2947f3e,001,2021-08-19_15h07.02.736,natb3,2021.2.3,Linux x86_64,60.06006006,5e45f2a9954b010de2947f3e,611e07ecdcc96256ae8d5b80,611e656a95469e55d3811e35,
,,,,space,0.4999,,0,204,204,215,1,E, , , , ,space,2500,2.5,5e45f2a9954b010de2947f3e,001,2021-08-19_15h07.02.736,natb3,2021.2.3,Linux x86_64,60.06006006,5e45f2a9954b010de2947f3e,611e07ecdcc96256ae8d5b80,611e656a95469e55d3811e35,
,,,,space,0.4433,,0,205,205,174,1,B, , , , ,space,2500,2.5,5e45f2a9954b010de2947f3e,001,2021-08-19_15h07.02.736,natb3,2021.2.3,Linux x86_64,60.06006006,5e45f2a9954b010de2947f3e,611e07ecdcc96256ae8d5b80,611e656a95469e55d3811e35,
,,,,space,0.631,,0,206,206,126,1,A, , , , ,space,2500,2.5,5e45f2a9954b010de2947f3e,001,2021-08-19_15h07.02.736,natb3,2021.2.3,Linux x86_64,60.06006006,5e45f2a9954b010de2947f3e,611e07ecdcc96256ae8d5b80,611e656a95469e55d3811e35,
,,,,,,,0,207,207,168,1,X, , , , ,,2500,2.5,5e45f2a9954b010de2947f3e,001,2021-08-19_15h07.02.736,natb3,2021.2.3,Linux x86_64,60.06006006,5e45f2a9954b010de2947f3e,611e07ecdcc96256ae8d5b80,611e656a95469e55d3811e35,
,,,,,,,0,208,208,35,1,X, , , , ,,2500,2.5,5e45f2a9954b010de2947f3e,001,2021-08-19_15h07.02.736,natb3,2021.2.3,Linux x86_64,60.06006006,5e45f2a9954b010de2947f3e,611e07ecdcc96256ae8d5b80,611e656a95469e55d3811e35,
,,,,space,0.5522,,0,209,209,265,1,I, , , , ,space,2000,2,5e45f2a9954b010de2947f3e,001,2021-08-19_15h07.02.736,natb3,2021.2.3,Linux x86_64,60.06006006,5e45f2a9954b010de2947f3e,611e07ecdcc96256ae8d5b80,611e656a95469e55d3811e35,
,,,,,,,0,210,210,54,1,X, , , , ,,2000,2,5e45f2a9954b010de2947f3e,001,2021-08-19_15h07.02.736,natb3,2021.2.3,Linux x86_64,60.06006006,5e45f2a9954b010de2947f3e,611e07ecdcc96256ae8d5b80,611e656a95469e55d3811e35,
,,,,space,0.5178,,0,211,211,244,1,J, , , , ,space,1500,1.5,5e45f2a9954b010de2947f3e,001,2021-08-19_15h07.02.736,natb3,2021.2.3,Linux x86_64,60.06006006,5e45f2a9954b010de2947f3e,611e07ecdcc96256ae8d5b80,611e656a95469e55d3811e35,
,,,,,,,0,212,212,153,1,X,4,7, ,6,,2000,2,5e45f2a9954b010de2947f3e,001,2021-08-19_15h07.02.736,natb3,2021.2.3,Linux x86_64,60.06006006,5e45f2a9954b010de2947f3e,611e07ecdcc96256ae8d5b80,611e656a95469e55d3811e35,
,,,,space,0.9396,,0,213,213,274,1,F, , , , ,space,2000,2,5e45f2a9954b010de2947f3e,001,2021-08-19_15h07.02.736,natb3,2021.2.3,Linux x86_64,60.06006006,5e45f2a9954b010de2947f3e,611e07ecdcc96256ae8d5b80,611e656a95469e55d3811e35,
,,,,space,0.7651,,0,214,214,254,1,M, , , , ,space,1500,1.5,5e45f2a9954b010de2947f3e,001,2021-08-19_15h07.02.736,natb3,2021.2.3,Linux x86_64,60.06006006,5e45f2a9954b010de2947f3e,611e07ecdcc96256ae8d5b80,611e656a95469e55d3811e35,
,,,,,,,0,215,215,59,1,Z, , , , ,space,2000,2,5e45f2a9954b010de2947f3e,001,2021-08-19_15h07.02.736,natb3,2021.2.3,Linux x86_64,60.06006006,5e45f2a9954b010de2947f3e,611e07ecdcc96256ae8d5b80,611e656a95469e55d3811e35,
,,,,space,0.424,,0,216,216,97,1,B, , , , ,space,2500,2.5,5e45f2a9954b010de2947f3e,001,2021-08-19_15h07.02.736,natb3,2021.2.3,Linux x86_64,60.06006006,5e45f2a9954b010de2947f3e,611e07ecdcc96256ae8d5b80,611e656a95469e55d3811e35,
,,,,space,0.4066,,0,217,217,163,1,G, , , , ,space,2500,2.5,5e45f2a9954b010de2947f3e,001,2021-08-19_15h07.02.736,natb3,2021.2.3,Linux x86_64,60.06006006,5e45f2a9954b010de2947f3e,611e07ecdcc96256ae8d5b80,611e656a95469e55d3811e35,
,,,,space,0.3789,,0,218,218,5,1,T, , , , ,space,2000,2,5e45f2a9954b010de2947f3e,001,2021-08-19_15h07.02.736,natb3,2021.2.3,Linux x86_64,60.06006006,5e45f2a9954b010de2947f3e,611e07ecdcc96256ae8d5b80,611e656a95469e55d3811e35,
,,,,space,0.3977,,0,219,219,44,1,I, , , , ,space,2500,2.5,5e45f2a9954b010de2947f3e,001,2021-08-19_15h07.02.736,natb3,2021.2.3,Linux x86_64,60.06006006,5e45f2a9954b010de2947f3e,611e07ecdcc96256ae8d5b80,611e656a95469e55d3811e35,
,,,,space,0.4736,,0,220,220,286,1,N, , , , ,space,1500,1.5,5e45f2a9954b010de2947f3e,001,2021-08-19_15h07.02.736,natb3,2021.2.3,Linux x86_64,60.06006006,5e45f2a9954b010de2947f3e,611e07ecdcc96256ae8d5b80,611e656a95469e55d3811e35,
,,,,space,0.3465,,0,221,221,63,1,B, , , , ,space,2000,2,5e45f2a9954b010de2947f3e,001,2021-08-19_15h07.02.736,natb3,2021.2.3,Linux x86_64,60.06006006,5e45f2a9954b010de2947f3e,611e07ecdcc96256ae8d5b80,611e656a95469e55d3811e35,
,,,,space,0.4705,,0,222,222,258,1,E, , , , ,space,1500,1.5,5e45f2a9954b010de2947f3e,001,2021-08-19_15h07.02.736,natb3,2021.2.3,Linux x86_64,60.06006006,5e45f2a9954b010de2947f3e,611e07ecdcc96256ae8d5b80,611e656a95469e55d3811e35,
,,,,space,0.3258,,0,223,223,232,1,O, , , , ,space,2500,2.5,5e45f2a9954b010de2947f3e,001,2021-08-19_15h07.02.736,natb3,2021.2.3,Linux x86_64,60.06006006,5e45f2a9954b010de2947f3e,611e07ecdcc96256ae8d5b80,611e656a95469e55d3811e35,
,,,,space,0.3268,,0,224,224,245,1,K, , , , ,space,2000,2,5e45f2a9954b010de2947f3e,001,2021-08-19_15h07.02.736,natb3,2021.2.3,Linux x86_64,60.06006006,5e45f2a9954b010de2947f3e,611e07ecdcc96256ae8d5b80,611e656a95469e55d3811e35,
,,,,space,0.4083,,0,225,225,30,1,N, , , , ,space,2500,2.5,5e45f2a9954b010de2947f3e,001,2021-08-19_15h07.02.736,natb3,2021.2.3,Linux x86_64,60.06006006,5e45f2a9954b010de2947f3e,611e07ecdcc96256ae8d5b80,611e656a95469e55d3811e35,
,,,,,,,0,226,226,162,1,X,1,6, ,2,,1500,1.5,5e45f2a9954b010de2947f3e,001,2021-08-19_15h07.02.736,natb3,2021.2.3,Linux x86_64,60.06006006,5e45f2a9954b010de2947f3e,611e07ecdcc96256ae8d5b80,611e656a95469e55d3811e35,
,,,,space,0.4428,,0,227,227,144,1,Q, , , , ,space,2500,2.5,5e45f2a9954b010de2947f3e,001,2021-08-19_15h07.02.736,natb3,2021.2.3,Linux x86_64,60.06006006,5e45f2a9954b010de2947f3e,611e07ecdcc96256ae8d5b80,611e656a95469e55d3811e35,
,,,,space,0.7295,,0,228,228,219,1,Y, , , , ,space,2000,2,5e45f2a9954b010de2947f3e,001,2021-08-19_15h07.02.736,natb3,2021.2.3,Linux x86_64,60.06006006,5e45f2a9954b010de2947f3e,611e07ecdcc96256ae8d5b80,611e656a95469e55d3811e35,
,,,,,,,0,229,229,31,1,X, , , , ,,1500,1.5,5e45f2a9954b010de2947f3e,001,2021-08-19_15h07.02.736,natb3,2021.2.3,Linux x86_64,60.06006006,5e45f2a9954b010de2947f3e,611e07ecdcc96256ae8d5b80,611e656a95469e55d3811e35,
,,,,space,0.5216,,0,230,230,180,1,W, , , , ,space,2000,2,5e45f2a9954b010de2947f3e,001,2021-08-19_15h07.02.736,natb3,2021.2.3,Linux x86_64,60.06006006,5e45f2a9954b010de2947f3e,611e07ecdcc96256ae8d5b80,611e656a95469e55d3811e35,
,,,,,,,0,231,231,273,1,X, , , , ,,2000,2,5e45f2a9954b010de2947f3e,001,2021-08-19_15h07.02.736,natb3,2021.2.3,Linux x86_64,60.06006006,5e45f2a9954b010de2947f3e,611e07ecdcc96256ae8d5b80,611e656a95469e55d3811e35,
,,,,space,0.451,,0,232,232,204,1,Z, , , , ,space,2000,2,5e45f2a9954b010de2947f3e,001,2021-08-19_15h07.02.736,natb3,2021.2.3,Linux x86_64,60.06006006,5e45f2a9954b010de2947f3e,611e07ecdcc96256ae8d5b80,611e656a95469e55d3811e35,
,,,,space,0.3974,,0,233,233,14,1,S, , , , ,space,2500,2.5,5e45f2a9954b010de2947f3e,001,2021-08-19_15h07.02.736,natb3,2021.2.3,Linux x86_64,60.06006006,5e45f2a9954b010de2947f3e,611e07ecdcc96256ae8d5b80,611e656a95469e55d3811e35,
,,,,space,0.488,,0,234,234,192,1,A, , , , ,space,2000,2,5e45f2a9954b010de2947f3e,001,2021-08-19_15h07.02.736,natb3,2021.2.3,Linux x86_64,60.06006006,5e45f2a9954b010de2947f3e,611e07ecdcc96256ae8d5b80,611e656a95469e55d3811e35,
,,,,space,0.4318,,0,235,235,102,1,X, ,6, , ,,1500,1.5,5e45f2a9954b010de2947f3e,001,2021-08-19_15h07.02.736,natb3,2021.2.3,Linux x86_64,60.06006006,5e45f2a9954b010de2947f3e,611e07ecdcc96256ae8d5b80,611e656a95469e55d3811e35,
,,,,space,0.6563,,0,236,236,237,1,S, , , , ,space,1500,1.5,5e45f2a9954b010de2947f3e,001,2021-08-19_15h07.02.736,natb3,2021.2.3,Linux x86_64,60.06006006,5e45f2a9954b010de2947f3e,611e07ecdcc96256ae8d5b80,611e656a95469e55d3811e35,
,,,,space,0.5385,,0,237,237,173,1,V, , , , ,space,1500,1.5,5e45f2a9954b010de2947f3e,001,2021-08-19_15h07.02.736,natb3,2021.2.3,Linux x86_64,60.06006006,5e45f2a9954b010de2947f3e,611e07ecdcc96256ae8d5b80,611e656a95469e55d3811e35,
,,,,space,0.5065,,0,238,238,227,1,T, , , , ,space,1500,1.5,5e45f2a9954b010de2947f3e,001,2021-08-19_15h07.02.736,natb3,2021.2.3,Linux x86_64,60.06006006,5e45f2a9954b010de2947f3e,611e07ecdcc96256ae8d5b80,611e656a95469e55d3811e35,
,,,,space,0.3418,,0,239,239,33,1,X, , , , ,,1500,1.5,5e45f2a9954b010de2947f3e,001,2021-08-19_15h07.02.736,natb3,2021.2.3,Linux x86_64,60.06006006,5e45f2a9954b010de2947f3e,611e07ecdcc96256ae8d5b80,611e656a95469e55d3811e35,
,,,,,,,0,240,240,182,1,X, , , , ,,1500,1.5,5e45f2a9954b010de2947f3e,001,2021-08-19_15h07.02.736,natb3,2021.2.3,Linux x86_64,60.06006006,5e45f2a9954b010de2947f3e,611e07ecdcc96256ae8d5b80,611e656a95469e55d3811e35,
,,,,space,0.3752,,0,241,241,196,1,F, , , , ,space,1500,1.5,5e45f2a9954b010de2947f3e,001,2021-08-19_15h07.02.736,natb3,2021.2.3,Linux x86_64,60.06006006,5e45f2a9954b010de2947f3e,611e07ecdcc96256ae8d5b80,611e656a95469e55d3811e35,
,,,,space,0.3993,,0,242,242,137,1,C, , , , ,space,2500,2.5,5e45f2a9954b010de2947f3e,001,2021-08-19_15h07.02.736,natb3,2021.2.3,Linux x86_64,60.06006006,5e45f2a9954b010de2947f3e,611e07ecdcc96256ae8d5b80,611e656a95469e55d3811e35,
,,,,space,0.7319,,0,243,243,281,1,Z, , , , ,space,1500,1.5,5e45f2a9954b010de2947f3e,001,2021-08-19_15h07.02.736,natb3,2021.2.3,Linux x86_64,60.06006006,5e45f2a9954b010de2947f3e,611e07ecdcc96256ae8d5b80,611e656a95469e55d3811e35,
,,,,space,0.5418,,0,244,244,50,1,D, , , , ,space,1500,1.5,5e45f2a9954b010de2947f3e,001,2021-08-19_15h07.02.736,natb3,2021.2.3,Linux x86_64,60.06006006,5e45f2a9954b010de2947f3e,611e07ecdcc96256ae8d5b80,611e656a95469e55d3811e35,
,,,,space,0.3854,,0,245,245,111,1,O, , , , ,space,2000,2,5e45f2a9954b010de2947f3e,001,2021-08-19_15h07.02.736,natb3,2021.2.3,Linux x86_64,60.06006006,5e45f2a9954b010de2947f3e,611e07ecdcc96256ae8d5b80,611e656a95469e55d3811e35,
,,,,,,,0,246,246,208,1,B, , , , ,space,1500,1.5,5e45f2a9954b010de2947f3e,001,2021-08-19_15h07.02.736,natb3,2021.2.3,Linux x86_64,60.06006006,5e45f2a9954b010de2947f3e,611e07ecdcc96256ae8d5b80,611e656a95469e55d3811e35,
,,,,,,,0,247,247,43,1,X, ,6, ,2,,2500,2.5,5e45f2a9954b010de2947f3e,001,2021-08-19_15h07.02.736,natb3,2021.2.3,Linux x86_64,60.06006006,5e45f2a9954b010de2947f3e,611e07ecdcc96256ae8d5b80,611e656a95469e55d3811e35,
,,,,space,0.4564,,0,248,248,29,1,B, , , , ,space,1500,1.5,5e45f2a9954b010de2947f3e,001,2021-08-19_15h07.02.736,natb3,2021.2.3,Linux x86_64,60.06006006,5e45f2a9954b010de2947f3e,611e07ecdcc96256ae8d5b80,611e656a95469e55d3811e35,
,,,,space,0.4142,,0,249,249,47,1,P, , , , ,space,2000,2,5e45f2a9954b010de2947f3e,001,2021-08-19_15h07.02.736,natb3,2021.2.3,Linux x86_64,60.06006006,5e45f2a9954b010de2947f3e,611e07ecdcc96256ae8d5b80,611e656a95469e55d3811e35,
,,,,space,0.3804,,0,250,250,242,1,H, , , , ,space,2500,2.5,5e45f2a9954b010de2947f3e,001,2021-08-19_15h07.02.736,natb3,2021.2.3,Linux x86_64,60.06006006,5e45f2a9954b010de2947f3e,611e07ecdcc96256ae8d5b80,611e656a95469e55d3811e35,
,,,,space,0.477,,0,251,251,334,1,O, , , , ,space,1500,1.5,5e45f2a9954b010de2947f3e,001,2021-08-19_15h07.02.736,natb3,2021.2.3,Linux x86_64,60.06006006,5e45f2a9954b010de2947f3e,611e07ecdcc96256ae8d5b80,611e656a95469e55d3811e35,
,,,,space,0.4,,0,252,252,86,1,G, , , , ,space,2000,2,5e45f2a9954b010de2947f3e,001,2021-08-19_15h07.02.736,natb3,2021.2.3,Linux x86_64,60.06006006,5e45f2a9954b010de2947f3e,611e07ecdcc96256ae8d5b80,611e656a95469e55d3811e35,
,,,,,,,0,253,253,322,1,X, , ,1,6,,2000,2,5e45f2a9954b010de2947f3e,001,2021-08-19_15h07.02.736,natb3,2021.2.3,Linux x86_64,60.06006006,5e45f2a9954b010de2947f3e,611e07ecdcc96256ae8d5b80,611e656a95469e55d3811e35,
,,,,space,0.4798,,0,254,254,272,1,D, , , , ,space,2000,2,5e45f2a9954b010de2947f3e,001,2021-08-19_15h07.02.736,natb3,2021.2.3,Linux x86_64,60.06006006,5e45f2a9954b010de2947f3e,611e07ecdcc96256ae8d5b80,611e656a95469e55d3811e35,
,,,,space,0.5146,,0,255,255,123,1,O, , , , ,space,1500,1.5,5e45f2a9954b010de2947f3e,001,2021-08-19_15h07.02.736,natb3,2021.2.3,Linux x86_64,60.06006006,5e45f2a9954b010de2947f3e,611e07ecdcc96256ae8d5b80,611e656a95469e55d3811e35,
,,,,,,,0,256,256,248,1,X, ,1,5, ,,1500,1.5,5e45f2a9954b010de2947f3e,001,2021-08-19_15h07.02.736,natb3,2021.2.3,Linux x86_64,60.06006006,5e45f2a9954b010de2947f3e,611e07ecdcc96256ae8d5b80,611e656a95469e55d3811e35,
,,,,space,0.5305,,0,257,257,131,1,G, , , , ,space,1500,1.5,5e45f2a9954b010de2947f3e,001,2021-08-19_15h07.02.736,natb3,2021.2.3,Linux x86_64,60.06006006,5e45f2a9954b010de2947f3e,611e07ecdcc96256ae8d5b80,611e656a95469e55d3811e35,
,,,,space,0.4991,,0,258,258,76,1,I, , , , ,space,2000,2,5e45f2a9954b010de2947f3e,001,2021-08-19_15h07.02.736,natb3,2021.2.3,Linux x86_64,60.06006006,5e45f2a9954b010de2947f3e,611e07ecdcc96256ae8d5b80,611e656a95469e55d3811e35,
,,,,space,0.4366,,0,259,259,156,1,P, , , , ,space,1500,1.5,5e45f2a9954b010de2947f3e,001,2021-08-19_15h07.02.736,natb3,2021.2.3,Linux x86_64,60.06006006,5e45f2a9954b010de2947f3e,611e07ecdcc96256ae8d5b80,611e656a95469e55d3811e35,
,,,,space,0.4041,,0,260,260,58,1,L, , , , ,space,2000,2,5e45f2a9954b010de2947f3e,001,2021-08-19_15h07.02.736,natb3,2021.2.3,Linux x86_64,60.06006006,5e45f2a9954b010de2947f3e,611e07ecdcc96256ae8d5b80,611e656a95469e55d3811e35,
,,,,space,0.4428,,0,261,261,28,1,V, , , , ,space,1500,1.5,5e45f2a9954b010de2947f3e,001,2021-08-19_15h07.02.736,natb3,2021.2.3,Linux x86_64,60.06006006,5e45f2a9954b010de2947f3e,611e07ecdcc96256ae8d5b80,611e656a95469e55d3811e35,
,,,,space,0.3982,,0,262,262,117,1,T, , , , ,space,2500,2.5,5e45f2a9954b010de2947f3e,001,2021-08-19_15h07.02.736,natb3,2021.2.3,Linux x86_64,60.06006006,5e45f2a9954b010de2947f3e,611e07ecdcc96256ae8d5b80,611e656a95469e55d3811e35,
,,,,,,,0,263,263,277,1,X,8,5, ,2,,2000,2,5e45f2a9954b010de2947f3e,001,2021-08-19_15h07.02.736,natb3,2021.2.3,Linux x86_64,60.06006006,5e45f2a9954b010de2947f3e,611e07ecdcc96256ae8d5b80,611e656a95469e55d3811e35,
,,,,space,0.4527,,0,264,264,238,1,D, , , , ,space,1500,1.5,5e45f2a9954b010de2947f3e,001,2021-08-19_15h07.02.736,natb3,2021.2.3,Linux x86_64,60.06006006,5e45f2a9954b010de2947f3e,611e07ecdcc96256ae8d5b80,611e656a95469e55d3811e35,
,,,,space,0.6488,,0,265,265,74,1,X, ,4,3,2,,1500,1.5,5e45f2a9954b010de2947f3e,001,2021-08-19_15h07.02.736,natb3,2021.2.3,Linux x86_64,60.06006006,5e45f2a9954b010de2947f3e,611e07ecdcc96256ae8d5b80,611e656a95469e55d3811e35,
,,,,space,0.4986,,0,266,266,297,1,U, , , , ,space,2000,2,5e45f2a9954b010de2947f3e,001,2021-08-19_15h07.02.736,natb3,2021.2.3,Linux x86_64,60.06006006,5e45f2a9954b010de2947f3e,611e07ecdcc96256ae8d5b80,611e656a95469e55d3811e35,
,,,,,,,0,267,267,75,1,U, , , , ,space,1500,1.5,5e45f2a9954b010de2947f3e,001,2021-08-19_15h07.02.736,natb3,2021.2.3,Linux x86_64,60.06006006,5e45f2a9954b010de2947f3e,611e07ecdcc96256ae8d5b80,611e656a95469e55d3811e35,
,,,,space,0.4348,,0,268,268,49,1,S, , , , ,space,1500,1.5,5e45f2a9954b010de2947f3e,001,2021-08-19_15h07.02.736,natb3,2021.2.3,Linux x86_64,60.06006006,5e45f2a9954b010de2947f3e,611e07ecdcc96256ae8d5b80,611e656a95469e55d3811e35,
,,,,space,0.5741,,0,269,269,1,1,W, , , , ,space,2000,2,5e45f2a9954b010de2947f3e,001,2021-08-19_15h07.02.736,natb3,2021.2.3,Linux x86_64,60.06006006,5e45f2a9954b010de2947f3e,611e07ecdcc96256ae8d5b80,611e656a95469e55d3811e35,
,,,,space,0.3854,,0,270,270,103,1,W, , , , ,space,2000,2,5e45f2a9954b010de2947f3e,001,2021-08-19_15h07.02.736,natb3,2021.2.3,Linux x86_64,60.06006006,5e45f2a9954b010de2947f3e,611e07ecdcc96256ae8d5b80,611e656a95469e55d3811e35,
,,,,,,,0,271,271,239,1,X, , , , ,,2000,2,5e45f2a9954b010de2947f3e,001,2021-08-19_15h07.02.736,natb3,2021.2.3,Linux x86_64,60.06006006,5e45f2a9954b010de2947f3e,611e07ecdcc96256ae8d5b80,611e656a95469e55d3811e35,
,,,,,,,0,272,272,39,1,X,6,2, , ,,1500,1.5,5e45f2a9954b010de2947f3e,001,2021-08-19_15h07.02.736,natb3,2021.2.3,Linux x86_64,60.06006006,5e45f2a9954b010de2947f3e,611e07ecdcc96256ae8d5b80,611e656a95469e55d3811e35,
,,,,,,,0,273,273,207,1,X,9, ,2, ,,2500,2.5,5e45f2a9954b010de2947f3e,001,2021-08-19_15h07.02.736,natb3,2021.2.3,Linux x86_64,60.06006006,5e45f2a9954b010de2947f3e,611e07ecdcc96256ae8d5b80,611e656a95469e55d3811e35,
,,,,space,0.42,,0,274,274,71,1,R, , , , ,space,2500,2.5,5e45f2a9954b010de2947f3e,001,2021-08-19_15h07.02.736,natb3,2021.2.3,Linux x86_64,60.06006006,5e45f2a9954b010de2947f3e,611e07ecdcc96256ae8d5b80,611e656a95469e55d3811e35,
,,,,,,,0,275,275,107,1,X,9,3, ,2,,2000,2,5e45f2a9954b010de2947f3e,001,2021-08-19_15h07.02.736,natb3,2021.2.3,Linux x86_64,60.06006006,5e45f2a9954b010de2947f3e,611e07ecdcc96256ae8d5b80,611e656a95469e55d3811e35,
,,,,space,0.8192,,0,276,276,284,1,V, , , , ,space,2500,2.5,5e45f2a9954b010de2947f3e,001,2021-08-19_15h07.02.736,natb3,2021.2.3,Linux x86_64,60.06006006,5e45f2a9954b010de2947f3e,611e07ecdcc96256ae8d5b80,611e656a95469e55d3811e35,
,,,,,,,0,277,277,287,1,X, ,2, ,9,,2000,2,5e45f2a9954b010de2947f3e,001,2021-08-19_15h07.02.736,natb3,2021.2.3,Linux x86_64,60.06006006,5e45f2a9954b010de2947f3e,611e07ecdcc96256ae8d5b80,611e656a95469e55d3811e35,
,,,,space,0.6125,,0,278,278,140,1,B, , , , ,space,2500,2.5,5e45f2a9954b010de2947f3e,001,2021-08-19_15h07.02.736,natb3,2021.2.3,Linux x86_64,60.06006006,5e45f2a9954b010de2947f3e,611e07ecdcc96256ae8d5b80,611e656a95469e55d3811e35,
,,,,space,0.7205,,0,279,279,266,1,O, , , , ,space,1500,1.5,5e45f2a9954b010de2947f3e,001,2021-08-19_15h07.02.736,natb3,2021.2.3,Linux x86_64,60.06006006,5e45f2a9954b010de2947f3e,611e07ecdcc96256ae8d5b80,611e656a95469e55d3811e35,
,,,,space,0.7816,,0,280,280,132,1,H, , , , ,space,2500,2.5,5e45f2a9954b010de2947f3e,001,2021-08-19_15h07.02.736,natb3,2021.2.3,Linux x86_64,60.06006006,5e45f2a9954b010de2947f3e,611e07ecdcc96256ae8d5b80,611e656a95469e55d3811e35,
,,,,,,,0,281,281,247,1,Z, , , , ,space,1500,1.5,5e45f2a9954b010de2947f3e,001,2021-08-19_15h07.02.736,natb3,2021.2.3,Linux x86_64,60.06006006,5e45f2a9954b010de2947f3e,611e07ecdcc96256ae8d5b80,611e656a95469e55d3811e35,
,,,,,,,0,282,282,203,1,X, , , , ,,2500,2.5,5e45f2a9954b010de2947f3e,001,2021-08-19_15h07.02.736,natb3,2021.2.3,Linux x86_64,60.06006006,5e45f2a9954b010de2947f3e,611e07ecdcc96256ae8d5b80,611e656a95469e55d3811e35,
,,,,space,0.4816,,0,283,283,332,1,U, , , , ,space,2000,2,5e45f2a9954b010de2947f3e,001,2021-08-19_15h07.02.736,natb3,2021.2.3,Linux x86_64,60.06006006,5e45f2a9954b010de2947f3e,611e07ecdcc96256ae8d5b80,611e656a95469e55d3811e35,
,,,,space,0.4686,,0,284,284,177,1,M, , , , ,space,2500,2.5,5e45f2a9954b010de2947f3e,001,2021-08-19_15h07.02.736,natb3,2021.2.3,Linux x86_64,60.06006006,5e45f2a9954b010de2947f3e,611e07ecdcc96256ae8d5b80,611e656a95469e55d3811e35,
,,,,space,0.5095,,0,285,285,197,1,G, , , , ,space,2500,2.5,5e45f2a9954b010de2947f3e,001,2021-08-19_15h07.02.736,natb3,2021.2.3,Linux x86_64,60.06006006,5e45f2a9954b010de2947f3e,611e07ecdcc96256ae8d5b80,611e656a95469e55d3811e35,
,,,,space,0.5521,,0,286,286,267,1,P, , , , ,space,2000,2,5e45f2a9954b010de2947f3e,001,2021-08-19_15h07.02.736,natb3,2021.2.3,Linux x86_64,60.06006006,5e45f2a9954b010de2947f3e,611e07ecdcc96256ae8d5b80,611e656a95469e55d3811e35,
,,,,,,,0,287,287,22,1,K, , , , ,space,2000,2,5e45f2a9954b010de2947f3e,001,2021-08-19_15h07.02.736,natb3,2021.2.3,Linux x86_64,60.06006006,5e45f2a9954b010de2947f3e,611e07ecdcc96256ae8d5b80,611e656a95469e55d3811e35,
,,,,space,0.381,,0,288,288,15,1,X, , , , ,,1500,1.5,5e45f2a9954b010de2947f3e,001,2021-08-19_15h07.02.736,natb3,2021.2.3,Linux x86_64,60.06006006,5e45f2a9954b010de2947f3e,611e07ecdcc96256ae8d5b80,611e656a95469e55d3811e35,
,,,,space,0.3922,,0,289,289,261,1,T, , , , ,space,2000,2,5e45f2a9954b010de2947f3e,001,2021-08-19_15h07.02.736,natb3,2021.2.3,Linux x86_64,60.06006006,5e45f2a9954b010de2947f3e,611e07ecdcc96256ae8d5b80,611e656a95469e55d3811e35,
,,,,space,0.5163,,0,290,290,19,1,G, , , , ,space,1500,1.5,5e45f2a9954b010de2947f3e,001,2021-08-19_15h07.02.736,natb3,2021.2.3,Linux x86_64,60.06006006,5e45f2a9954b010de2947f3e,611e07ecdcc96256ae8d5b80,611e656a95469e55d3811e35,
,,,,space,0.5482,,0,291,291,112,1,Q, , , , ,space,2500,2.5,5e45f2a9954b010de2947f3e,001,2021-08-19_15h07.02.736,natb3,2021.2.3,Linux x86_64,60.06006006,5e45f2a9954b010de2947f3e,611e07ecdcc96256ae8d5b80,611e656a95469e55d3811e35,
,,,,space,0.5144,,0,292,292,45,1,O, , , , ,space,2000,2,5e45f2a9954b010de2947f3e,001,2021-08-19_15h07.02.736,natb3,2021.2.3,Linux x86_64,60.06006006,5e45f2a9954b010de2947f3e,611e07ecdcc96256ae8d5b80,611e656a95469e55d3811e35,
,,,,space,0.4545,,0,293,293,330,1,T, , , , ,space,2500,2.5,5e45f2a9954b010de2947f3e,001,2021-08-19_15h07.02.736,natb3,2021.2.3,Linux x86_64,60.06006006,5e45f2a9954b010de2947f3e,611e07ecdcc96256ae8d5b80,611e656a95469e55d3811e35,
,,,,space,0.7748,,0,294,294,327,1,E, , , , ,space,1500,1.5,5e45f2a9954b010de2947f3e,001,2021-08-19_15h07.02.736,natb3,2021.2.3,Linux x86_64,60.06006006,5e45f2a9954b010de2947f3e,611e07ecdcc96256ae8d5b80,611e656a95469e55d3811e35,
,,,,space,0.4654,,0,295,295,300,1,O, , , , ,space,2500,2.5,5e45f2a9954b010de2947f3e,001,2021-08-19_15h07.02.736,natb3,2021.2.3,Linux x86_64,60.06006006,5e45f2a9954b010de2947f3e,611e07ecdcc96256ae8d5b80,611e656a95469e55d3811e35,
,,,,space,0.3622,,0,296,296,80,1,A, , , , ,space,2000,2,5e45f2a9954b010de2947f3e,001,2021-08-19_15h07.02.736,natb3,2021.2.3,Linux x86_64,60.06006006,5e45f2a9954b010de2947f3e,611e07ecdcc96256ae8d5b80,611e656a95469e55d3811e35,
,,,,space,0.4828,,0,297,297,127,1,S, , , , ,space,2500,2.5,5e45f2a9954b010de2947f3e,001,2021-08-19_15h07.02.736,natb3,2021.2.3,Linux x86_64,60.06006006,5e45f2a9954b010de2947f3e,611e07ecdcc96256ae8d5b80,611e656a95469e55d3811e35,
,,,,space,0.3318,,0,298,298,201,1,K, , , , ,space,1500,1.5,5e45f2a9954b010de2947f3e,001,2021-08-19_15h07.02.736,natb3,2021.2.3,Linux x86_64,60.06006006,5e45f2a9954b010de2947f3e,611e07ecdcc96256ae8d5b80,611e656a95469e55d3811e35,
,,,,,,,0,299,299,213,1,X, , , , ,,2500,2.5,5e45f2a9954b010de2947f3e,001,2021-08-19_15h07.02.736,natb3,2021.2.3,Linux x86_64,60.06006006,5e45f2a9954b010de2947f3e,611e07ecdcc96256ae8d5b80,611e656a95469e55d3811e35,
,,,,space,0.4714,,0,300,300,231,1,I, , , , ,space,2500,2.5,5e45f2a9954b010de2947f3e,001,2021-08-19_15h07.02.736,natb3,2021.2.3,Linux x86_64,60.06006006,5e45f2a9954b010de2947f3e,611e07ecdcc96256ae8d5b80,611e656a95469e55d3811e35,
,,,,space,0.4772,,0,301,301,249,1,C, , , , ,space,2000,2,5e45f2a9954b010de2947f3e,001,2021-08-19_15h07.02.736,natb3,2021.2.3,Linux x86_64,60.06006006,5e45f2a9954b010de2947f3e,611e07ecdcc96256ae8d5b80,611e656a95469e55d3811e35,
,,,,space,0.5725,,0,302,302,262,1,Y, , , , ,space,2500,2.5,5e45f2a9954b010de2947f3e,001,2021-08-19_15h07.02.736,natb3,2021.2.3,Linux x86_64,60.06006006,5e45f2a9954b010de2947f3e,611e07ecdcc96256ae8d5b80,611e656a95469e55d3811e35,
,,,,space,0.3742,,0,303,303,221,1,I, , , , ,space,2500,2.5,5e45f2a9954b010de2947f3e,001,2021-08-19_15h07.02.736,natb3,2021.2.3,Linux x86_64,60.06006006,5e45f2a9954b010de2947f3e,611e07ecdcc96256ae8d5b80,611e656a95469e55d3811e35,
,,,,space,0.4648,,0,304,304,312,1,K, , , , ,space,2000,2,5e45f2a9954b010de2947f3e,001,2021-08-19_15h07.02.736,natb3,2021.2.3,Linux x86_64,60.06006006,5e45f2a9954b010de2947f3e,611e07ecdcc96256ae8d5b80,611e656a95469e55d3811e35,
,,,,space,0.5651,,0,305,305,121,1,I, , , , ,space,2000,2,5e45f2a9954b010de2947f3e,001,2021-08-19_15h07.02.736,natb3,2021.2.3,Linux x86_64,60.06006006,5e45f2a9954b010de2947f3e,611e07ecdcc96256ae8d5b80,611e656a95469e55d3811e35,
,,,,space,0.416,,0,306,306,193,1,S, , , , ,space,2500,2.5,5e45f2a9954b010de2947f3e,001,2021-08-19_15h07.02.736,natb3,2021.2.3,Linux x86_64,60.06006006,5e45f2a9954b010de2947f3e,611e07ecdcc96256ae8d5b80,611e656a95469e55d3811e35,
,,,,space,0.5354,,0,307,307,53,1,G, , , , ,space,2500,2.5,5e45f2a9954b010de2947f3e,001,2021-08-19_15h07.02.736,natb3,2021.2.3,Linux x86_64,60.06006006,5e45f2a9954b010de2947f3e,611e07ecdcc96256ae8d5b80,611e656a95469e55d3811e35,
,,,,space,0.3862,,0,308,308,99,1,N, , , , ,space,2500,2.5,5e45f2a9954b010de2947f3e,001,2021-08-19_15h07.02.736,natb3,2021.2.3,Linux x86_64,60.06006006,5e45f2a9954b010de2947f3e,611e07ecdcc96256ae8d5b80,611e656a95469e55d3811e35,
,,,,space,0.5334,,0,309,309,143,1,M, , , , ,space,2500,2.5,5e45f2a9954b010de2947f3e,001,2021-08-19_15h07.02.736,natb3,2021.2.3,Linux x86_64,60.06006006,5e45f2a9954b010de2947f3e,611e07ecdcc96256ae8d5b80,611e656a95469e55d3811e35,
,,,,,,,0,310,310,229,1,X,8, ,2,6,,2500,2.5,5e45f2a9954b010de2947f3e,001,2021-08-19_15h07.02.736,natb3,2021.2.3,Linux x86_64,60.06006006,5e45f2a9954b010de2947f3e,611e07ecdcc96256ae8d5b80,611e656a95469e55d3811e35,
,,,,space,0.4784,,0,311,311,65,1,M, , , , ,space,1500,1.5,5e45f2a9954b010de2947f3e,001,2021-08-19_15h07.02.736,natb3,2021.2.3,Linux x86_64,60.06006006,5e45f2a9954b010de2947f3e,611e07ecdcc96256ae8d5b80,611e656a95469e55d3811e35,
,,,,space,0.4143,,0,312,312,147,1,E, , , , ,space,2000,2,5e45f2a9954b010de2947f3e,001,2021-08-19_15h07.02.736,natb3,2021.2.3,Linux x86_64,60.06006006,5e45f2a9954b010de2947f3e,611e07ecdcc96256ae8d5b80,611e656a95469e55d3811e35,
,,,,,,,0,313,313,187,1,X, ,3,7,4,,1500,1.5,5e45f2a9954b010de2947f3e,001,2021-08-19_15h07.02.736,natb3,2021.2.3,Linux x86_64,60.06006006,5e45f2a9954b010de2947f3e,611e07ecdcc96256ae8d5b80,611e656a95469e55d3811e35,
,,,,,,,0,314,314,329,1,X,3,4, ,2,,2500,2.5,5e45f2a9954b010de2947f3e,001,2021-08-19_15h07.02.736,natb3,2021.2.3,Linux x86_64,60.06006006,5e45f2a9954b010de2947f3e,611e07ecdcc96256ae8d5b80,611e656a95469e55d3811e35,
,,,,,,,0,315,315,125,1,X, , , , ,,2000,2,5e45f2a9954b010de2947f3e,001,2021-08-19_15h07.02.736,natb3,2021.2.3,Linux x86_64,60.06006006,5e45f2a9954b010de2947f3e,611e07ecdcc96256ae8d5b80,611e656a95469e55d3811e35,
,,,,space,0.5907,,0,316,316,64,1,N, , , , ,space,2000,2,5e45f2a9954b010de2947f3e,001,2021-08-19_15h07.02.736,natb3,2021.2.3,Linux x86_64,60.06006006,5e45f2a9954b010de2947f3e,611e07ecdcc96256ae8d5b80,611e656a95469e55d3811e35,
,,,,space,0.4533,,0,317,317,209,1,N, , , , ,space,2000,2,5e45f2a9954b010de2947f3e,001,2021-08-19_15h07.02.736,natb3,2021.2.3,Linux x86_64,60.06006006,5e45f2a9954b010de2947f3e,611e07ecdcc96256ae8d5b80,611e656a95469e55d3811e35,
,,,,space,0.5001,,0,318,318,120,1,U, , , , ,space,1500,1.5,5e45f2a9954b010de2947f3e,001,2021-08-19_15h07.02.736,natb3,2021.2.3,Linux x86_64,60.06006006,5e45f2a9954b010de2947f3e,611e07ecdcc96256ae8d5b80,611e656a95469e55d3811e35,
,,,,space,0.4647,,0,319,319,40,1,T, , , , ,space,1500,1.5,5e45f2a9954b010de2947f3e,001,2021-08-19_15h07.02.736,natb3,2021.2.3,Linux x86_64,60.06006006,5e45f2a9954b010de2947f3e,611e07ecdcc96256ae8d5b80,611e656a95469e55d3811e35,
,,,,space,0.3989,,0,320,320,195,1,X, , , , ,,1500,1.5,5e45f2a9954b010de2947f3e,001,2021-08-19_15h07.02.736,natb3,2021.2.3,Linux x86_64,60.06006006,5e45f2a9954b010de2947f3e,611e07ecdcc96256ae8d5b80,611e656a95469e55d3811e35,
,,,,space,0.4914,,0,321,321,106,1,T, , , , ,space,1500,1.5,5e45f2a9954b010de2947f3e,001,2021-08-19_15h07.02.736,natb3,2021.2.3,Linux x86_64,60.06006006,5e45f2a9954b010de2947f3e,611e07ecdcc96256ae8d5b80,611e656a95469e55d3811e35,
,,,,space,0.4495,,0,322,322,114,1,E, , , , ,space,2000,2,5e45f2a9954b010de2947f3e,001,2021-08-19_15h07.02.736,natb3,2021.2.3,Linux x86_64,60.06006006,5e45f2a9954b010de2947f3e,611e07ecdcc96256ae8d5b80,611e656a95469e55d3811e35,
,,,,,,,0,323,323,211,1,X, , , , ,,2500,2.5,5e45f2a9954b010de2947f3e,001,2021-08-19_15h07.02.736,natb3,2021.2.3,Linux x86_64,60.06006006,5e45f2a9954b010de2947f3e,611e07ecdcc96256ae8d5b80,611e656a95469e55d3811e35,
,,,,space,0.4177,,0,324,324,73,1,Y, , , , ,space,2000,2,5e45f2a9954b010de2947f3e,001,2021-08-19_15h07.02.736,natb3,2021.2.3,Linux x86_64,60.06006006,5e45f2a9954b010de2947f3e,611e07ecdcc96256ae8d5b80,611e656a95469e55d3811e35,
,,,,space,0.4475,,0,325,325,303,1,A, , , , ,space,2000,2,5e45f2a9954b010de2947f3e,001,2021-08-19_15h07.02.736,natb3,2021.2.3,Linux x86_64,60.06006006,5e45f2a9954b010de2947f3e,611e07ecdcc96256ae8d5b80,611e656a95469e55d3811e35,
,,,,space,0.4919,,0,326,326,246,1,L, , , , ,space,2500,2.5,5e45f2a9954b010de2947f3e,001,2021-08-19_15h07.02.736,natb3,2021.2.3,Linux x86_64,60.06006006,5e45f2a9954b010de2947f3e,611e07ecdcc96256ae8d5b80,611e656a95469e55d3811e35,
,,,,space,0.5496,,0,327,327,115,1,R, , , , ,space,1500,1.5,5e45f2a9954b010de2947f3e,001,2021-08-19_15h07.02.736,natb3,2021.2.3,Linux x86_64,60.06006006,5e45f2a9954b010de2947f3e,611e07ecdcc96256ae8d5b80,611e656a95469e55d3811e35,
,,,,space,0.5666,,0,328,328,288,1,M, , , , ,space,1500,1.5,5e45f2a9954b010de2947f3e,001,2021-08-19_15h07.02.736,natb3,2021.2.3,Linux x86_64,60.06006006,5e45f2a9954b010de2947f3e,611e07ecdcc96256ae8d5b80,611e656a95469e55d3811e35,
,,,,space,0.4966,,0,329,329,56,1,J, , , , ,space,1500,1.5,5e45f2a9954b010de2947f3e,001,2021-08-19_15h07.02.736,natb3,2021.2.3,Linux x86_64,60.06006006,5e45f2a9954b010de2947f3e,611e07ecdcc96256ae8d5b80,611e656a95469e55d3811e35,
,,,,space,0.6334,,0,330,330,151,1,Y, , , , ,space,2500,2.5,5e45f2a9954b010de2947f3e,001,2021-08-19_15h07.02.736,natb3,2021.2.3,Linux x86_64,60.06006006,5e45f2a9954b010de2947f3e,611e07ecdcc96256ae8d5b80,611e656a95469e55d3811e35,
,,,,space,0.4886,,0,331,331,61,1,C, , , , ,space,2000,2,5e45f2a9954b010de2947f3e,001,2021-08-19_15h07.02.736,natb3,2021.2.3,Linux x86_64,60.06006006,5e45f2a9954b010de2947f3e,611e07ecdcc96256ae8d5b80,611e656a95469e55d3811e35,
,,,,,,,0,332,332,302,1,X, , , , ,,2000,2,5e45f2a9954b010de2947f3e,001,2021-08-19_15h07.02.736,natb3,2021.2.3,Linux x86_64,60.06006006,5e45f2a9954b010de2947f3e,611e07ecdcc96256ae8d5b80,611e656a95469e55d3811e35,
,,,,space,0.519,,0,333,333,289,1,Q, , , , ,space,2000,2,5e45f2a9954b010de2947f3e,001,2021-08-19_15h07.02.736,natb3,2021.2.3,Linux x86_64,60.06006006,5e45f2a9954b010de2947f3e,611e07ecdcc96256ae8d5b80,611e656a95469e55d3811e35,
,,,,space,0.4525,,0,334,334,223,1,Q, , , , ,space,2000,2,5e45f2a9954b010de2947f3e,001,2021-08-19_15h07.02.736,natb3,2021.2.3,Linux x86_64,60.06006006,5e45f2a9954b010de2947f3e,611e07ecdcc96256ae8d5b80,611e656a95469e55d3811e35,
,,,,space,0.436,,0,335,335,157,1,A, , , , ,space,2500,2.5,5e45f2a9954b010de2947f3e,001,2021-08-19_15h07.02.736,natb3,2021.2.3,Linux x86_64,60.06006006,5e45f2a9954b010de2947f3e,611e07ecdcc96256ae8d5b80,611e656a95469e55d3811e35,
