key_resp_2.keys,key_resp_2.rt,key_resp_3.keys,key_resp_3.rt,key_resp.keys,key_resp_4.keys,trials.thisRepN,trials.thisTrialN,trials.thisN,trials.thisIndex,trials.ran,stimulus,distractor1,distractor2,distractor3,distractor4,CorrAns,isi_duration,isi_dur_in_seconds,participant,session,date,expName,psychopyVersion,OS,frameRate,PROLIFIC_PID,STUDY_ID,SESSION_ID,key_resp.rt,key_resp_4.rt
return,20.2971,space,16.7322,,,0,0,0,191,1,X,1, ,3,4,,2500,2.5,5e4d3d6b5efe0318a3a119a8,001,2021-08-17_16h52.55.894,natb3,2021.2.3,MacIntel,59.99880002,5e4d3d6b5efe0318a3a119a8,6107d0959f7c4c3641818b95,611bdb49286679e8b76c8a62,,
,,,,space,,0,1,1,6,1,Y, , , , ,space,2500,2.5,5e4d3d6b5efe0318a3a119a8,001,2021-08-17_16h52.55.894,natb3,2021.2.3,MacIntel,59.99880002,5e4d3d6b5efe0318a3a119a8,6107d0959f7c4c3641818b95,611bdb49286679e8b76c8a62,0.5097,
,,,,space,,0,2,2,286,1,N, , , , ,space,1500,1.5,5e4d3d6b5efe0318a3a119a8,001,2021-08-17_16h52.55.894,natb3,2021.2.3,MacIntel,59.99880002,5e4d3d6b5efe0318a3a119a8,6107d0959f7c4c3641818b95,611bdb49286679e8b76c8a62,0.4683,
,,,,,,0,3,3,168,1,X, , , , ,,2500,2.5,5e4d3d6b5efe0318a3a119a8,001,2021-08-17_16h52.55.894,natb3,2021.2.3,MacIntel,59.99880002,5e4d3d6b5efe0318a3a119a8,6107d0959f7c4c3641818b95,611bdb49286679e8b76c8a62,,
,,,,space,,0,4,4,308,1,G, , , , ,space,1500,1.5,5e4d3d6b5efe0318a3a119a8,001,2021-08-17_16h52.55.894,natb3,2021.2.3,MacIntel,59.99880002,5e4d3d6b5efe0318a3a119a8,6107d0959f7c4c3641818b95,611bdb49286679e8b76c8a62,0.4842,
,,,,space,,0,5,5,63,1,B, , , , ,space,2000,2,5e4d3d6b5efe0318a3a119a8,001,2021-08-17_16h52.55.894,natb3,2021.2.3,MacIntel,59.99880002,5e4d3d6b5efe0318a3a119a8,6107d0959f7c4c3641818b95,611bdb49286679e8b76c8a62,0.3885,
,,,,space,,0,6,6,97,1,B, , , , ,space,2500,2.5,5e4d3d6b5efe0318a3a119a8,001,2021-08-17_16h52.55.894,natb3,2021.2.3,MacIntel,59.99880002,5e4d3d6b5efe0318a3a119a8,6107d0959f7c4c3641818b95,611bdb49286679e8b76c8a62,0.3967,
,,,,space,,0,7,7,8,1,U, , , , ,space,1500,1.5,5e4d3d6b5efe0318a3a119a8,001,2021-08-17_16h52.55.894,natb3,2021.2.3,MacIntel,59.99880002,5e4d3d6b5efe0318a3a119a8,6107d0959f7c4c3641818b95,611bdb49286679e8b76c8a62,0.4029,
,,,,,,0,8,8,313,1,X, , , , ,,2500,2.5,5e4d3d6b5efe0318a3a119a8,001,2021-08-17_16h52.55.894,natb3,2021.2.3,MacIntel,59.99880002,5e4d3d6b5efe0318a3a119a8,6107d0959f7c4c3641818b95,611bdb49286679e8b76c8a62,,
,,,,space,,0,9,9,216,1,R, , , , ,space,1500,1.5,5e4d3d6b5efe0318a3a119a8,001,2021-08-17_16h52.55.894,natb3,2021.2.3,MacIntel,59.99880002,5e4d3d6b5efe0318a3a119a8,6107d0959f7c4c3641818b95,611bdb49286679e8b76c8a62,0.3988,
,,,,space,,0,10,10,95,1,V, , , , ,space,1500,1.5,5e4d3d6b5efe0318a3a119a8,001,2021-08-17_16h52.55.894,natb3,2021.2.3,MacIntel,59.99880002,5e4d3d6b5efe0318a3a119a8,6107d0959f7c4c3641818b95,611bdb49286679e8b76c8a62,0.4135,
,,,,space,,0,11,11,267,1,P, , , , ,space,2000,2,5e4d3d6b5efe0318a3a119a8,001,2021-08-17_16h52.55.894,natb3,2021.2.3,MacIntel,59.99880002,5e4d3d6b5efe0318a3a119a8,6107d0959f7c4c3641818b95,611bdb49286679e8b76c8a62,0.4393,
,,,,,,0,12,12,51,1,X,7,5,8, ,,1500,1.5,5e4d3d6b5efe0318a3a119a8,001,2021-08-17_16h52.55.894,natb3,2021.2.3,MacIntel,59.99880002,5e4d3d6b5efe0318a3a119a8,6107d0959f7c4c3641818b95,611bdb49286679e8b76c8a62,,
,,,,space,,0,13,13,55,1,H, , , , ,space,2500,2.5,5e4d3d6b5efe0318a3a119a8,001,2021-08-17_16h52.55.894,natb3,2021.2.3,MacIntel,59.99880002,5e4d3d6b5efe0318a3a119a8,6107d0959f7c4c3641818b95,611bdb49286679e8b76c8a62,0.4107,
,,,,space,,0,14,14,109,1,U, , , , ,space,1500,1.5,5e4d3d6b5efe0318a3a119a8,001,2021-08-17_16h52.55.894,natb3,2021.2.3,MacIntel,59.99880002,5e4d3d6b5efe0318a3a119a8,6107d0959f7c4c3641818b95,611bdb49286679e8b76c8a62,0.3848,
,,,,space,,0,15,15,14,1,S, , , , ,space,2500,2.5,5e4d3d6b5efe0318a3a119a8,001,2021-08-17_16h52.55.894,natb3,2021.2.3,MacIntel,59.99880002,5e4d3d6b5efe0318a3a119a8,6107d0959f7c4c3641818b95,611bdb49286679e8b76c8a62,0.4489,
,,,,space,,0,16,16,45,1,O, , , , ,space,2000,2,5e4d3d6b5efe0318a3a119a8,001,2021-08-17_16h52.55.894,natb3,2021.2.3,MacIntel,59.99880002,5e4d3d6b5efe0318a3a119a8,6107d0959f7c4c3641818b95,611bdb49286679e8b76c8a62,0.5278,
,,,,space,,0,17,17,173,1,V, , , , ,space,1500,1.5,5e4d3d6b5efe0318a3a119a8,001,2021-08-17_16h52.55.894,natb3,2021.2.3,MacIntel,59.99880002,5e4d3d6b5efe0318a3a119a8,6107d0959f7c4c3641818b95,611bdb49286679e8b76c8a62,0.4019,
,,,,space,,0,18,18,278,1,J, , , , ,space,2000,2,5e4d3d6b5efe0318a3a119a8,001,2021-08-17_16h52.55.894,natb3,2021.2.3,MacIntel,59.99880002,5e4d3d6b5efe0318a3a119a8,6107d0959f7c4c3641818b95,611bdb49286679e8b76c8a62,0.406,
,,,,space,,0,19,19,192,1,A, , , , ,space,2000,2,5e4d3d6b5efe0318a3a119a8,001,2021-08-17_16h52.55.894,natb3,2021.2.3,MacIntel,59.99880002,5e4d3d6b5efe0318a3a119a8,6107d0959f7c4c3641818b95,611bdb49286679e8b76c8a62,0.4714,
,,,,space,,0,20,20,276,1,H, , , , ,space,2000,2,5e4d3d6b5efe0318a3a119a8,001,2021-08-17_16h52.55.894,natb3,2021.2.3,MacIntel,59.99880002,5e4d3d6b5efe0318a3a119a8,6107d0959f7c4c3641818b95,611bdb49286679e8b76c8a62,0.3845,
,,,,space,,0,21,21,298,1,I, , , , ,space,2000,2,5e4d3d6b5efe0318a3a119a8,001,2021-08-17_16h52.55.894,natb3,2021.2.3,MacIntel,59.99880002,5e4d3d6b5efe0318a3a119a8,6107d0959f7c4c3641818b95,611bdb49286679e8b76c8a62,0.4362,
,,,,space,,0,22,22,85,1,F, , , , ,space,2500,2.5,5e4d3d6b5efe0318a3a119a8,001,2021-08-17_16h52.55.894,natb3,2021.2.3,MacIntel,59.99880002,5e4d3d6b5efe0318a3a119a8,6107d0959f7c4c3641818b95,611bdb49286679e8b76c8a62,0.4325,
,,,,space,,0,23,23,274,1,F, , , , ,space,2000,2,5e4d3d6b5efe0318a3a119a8,001,2021-08-17_16h52.55.894,natb3,2021.2.3,MacIntel,59.99880002,5e4d3d6b5efe0318a3a119a8,6107d0959f7c4c3641818b95,611bdb49286679e8b76c8a62,0.4045,
,,,,,,0,24,24,125,1,X, , , , ,,2000,2,5e4d3d6b5efe0318a3a119a8,001,2021-08-17_16h52.55.894,natb3,2021.2.3,MacIntel,59.99880002,5e4d3d6b5efe0318a3a119a8,6107d0959f7c4c3641818b95,611bdb49286679e8b76c8a62,,
,,,,space,,0,25,25,260,1,R, , , , ,space,2000,2,5e4d3d6b5efe0318a3a119a8,001,2021-08-17_16h52.55.894,natb3,2021.2.3,MacIntel,59.99880002,5e4d3d6b5efe0318a3a119a8,6107d0959f7c4c3641818b95,611bdb49286679e8b76c8a62,0.4005,
,,,,space,,0,26,26,163,1,G, , , , ,space,2500,2.5,5e4d3d6b5efe0318a3a119a8,001,2021-08-17_16h52.55.894,natb3,2021.2.3,MacIntel,59.99880002,5e4d3d6b5efe0318a3a119a8,6107d0959f7c4c3641818b95,611bdb49286679e8b76c8a62,0.415,
,,,,space,,0,27,27,98,1,X, , , , ,,2500,2.5,5e4d3d6b5efe0318a3a119a8,001,2021-08-17_16h52.55.894,natb3,2021.2.3,MacIntel,59.99880002,5e4d3d6b5efe0318a3a119a8,6107d0959f7c4c3641818b95,611bdb49286679e8b76c8a62,0.4156,
,,,,,,0,28,28,271,1,X, , , , ,,2500,2.5,5e4d3d6b5efe0318a3a119a8,001,2021-08-17_16h52.55.894,natb3,2021.2.3,MacIntel,59.99880002,5e4d3d6b5efe0318a3a119a8,6107d0959f7c4c3641818b95,611bdb49286679e8b76c8a62,,
,,,,space,,0,29,29,79,1,P, , , , ,space,2000,2,5e4d3d6b5efe0318a3a119a8,001,2021-08-17_16h52.55.894,natb3,2021.2.3,MacIntel,59.99880002,5e4d3d6b5efe0318a3a119a8,6107d0959f7c4c3641818b95,611bdb49286679e8b76c8a62,0.4147,
,,,,space,,0,30,30,146,1,W, , , , ,space,1500,1.5,5e4d3d6b5efe0318a3a119a8,001,2021-08-17_16h52.55.894,natb3,2021.2.3,MacIntel,59.99880002,5e4d3d6b5efe0318a3a119a8,6107d0959f7c4c3641818b95,611bdb49286679e8b76c8a62,0.4631,
,,,,,,0,31,31,302,1,X, , , , ,,2000,2,5e4d3d6b5efe0318a3a119a8,001,2021-08-17_16h52.55.894,natb3,2021.2.3,MacIntel,59.99880002,5e4d3d6b5efe0318a3a119a8,6107d0959f7c4c3641818b95,611bdb49286679e8b76c8a62,,
,,,,space,,0,32,32,254,1,M, , , , ,space,1500,1.5,5e4d3d6b5efe0318a3a119a8,001,2021-08-17_16h52.55.894,natb3,2021.2.3,MacIntel,59.99880002,5e4d3d6b5efe0318a3a119a8,6107d0959f7c4c3641818b95,611bdb49286679e8b76c8a62,0.4804,
,,,,space,,0,33,33,30,1,N, , , , ,space,2500,2.5,5e4d3d6b5efe0318a3a119a8,001,2021-08-17_16h52.55.894,natb3,2021.2.3,MacIntel,59.99880002,5e4d3d6b5efe0318a3a119a8,6107d0959f7c4c3641818b95,611bdb49286679e8b76c8a62,0.4482,
,,,,space,,0,34,34,0,1,Q, , , , ,space,1500,1.5,5e4d3d6b5efe0318a3a119a8,001,2021-08-17_16h52.55.894,natb3,2021.2.3,MacIntel,59.99880002,5e4d3d6b5efe0318a3a119a8,6107d0959f7c4c3641818b95,611bdb49286679e8b76c8a62,0.4926,
,,,,space,,0,35,35,183,1,R, , , , ,space,1500,1.5,5e4d3d6b5efe0318a3a119a8,001,2021-08-17_16h52.55.894,natb3,2021.2.3,MacIntel,59.99880002,5e4d3d6b5efe0318a3a119a8,6107d0959f7c4c3641818b95,611bdb49286679e8b76c8a62,0.4831,
,,,,space,,0,36,36,77,1,O, , , , ,space,2000,2,5e4d3d6b5efe0318a3a119a8,001,2021-08-17_16h52.55.894,natb3,2021.2.3,MacIntel,59.99880002,5e4d3d6b5efe0318a3a119a8,6107d0959f7c4c3641818b95,611bdb49286679e8b76c8a62,0.5177,
,,,,,,0,37,37,12,1,X, , , , ,,1500,1.5,5e4d3d6b5efe0318a3a119a8,001,2021-08-17_16h52.55.894,natb3,2021.2.3,MacIntel,59.99880002,5e4d3d6b5efe0318a3a119a8,6107d0959f7c4c3641818b95,611bdb49286679e8b76c8a62,,
,,,,space,,0,38,38,169,1,L, , , , ,space,2500,2.5,5e4d3d6b5efe0318a3a119a8,001,2021-08-17_16h52.55.894,natb3,2021.2.3,MacIntel,59.99880002,5e4d3d6b5efe0318a3a119a8,6107d0959f7c4c3641818b95,611bdb49286679e8b76c8a62,0.4154,
,,,,space,,0,39,39,108,1,Y, , , , ,space,2500,2.5,5e4d3d6b5efe0318a3a119a8,001,2021-08-17_16h52.55.894,natb3,2021.2.3,MacIntel,59.99880002,5e4d3d6b5efe0318a3a119a8,6107d0959f7c4c3641818b95,611bdb49286679e8b76c8a62,0.5025,
,,,,space,,0,40,40,194,1,D, , , , ,space,2000,2,5e4d3d6b5efe0318a3a119a8,001,2021-08-17_16h52.55.894,natb3,2021.2.3,MacIntel,59.99880002,5e4d3d6b5efe0318a3a119a8,6107d0959f7c4c3641818b95,611bdb49286679e8b76c8a62,0.4987,
,,,,space,,0,41,41,80,1,A, , , , ,space,2000,2,5e4d3d6b5efe0318a3a119a8,001,2021-08-17_16h52.55.894,natb3,2021.2.3,MacIntel,59.99880002,5e4d3d6b5efe0318a3a119a8,6107d0959f7c4c3641818b95,611bdb49286679e8b76c8a62,0.489,
,,,,space,,0,42,42,249,1,C, , , , ,space,2000,2,5e4d3d6b5efe0318a3a119a8,001,2021-08-17_16h52.55.894,natb3,2021.2.3,MacIntel,59.99880002,5e4d3d6b5efe0318a3a119a8,6107d0959f7c4c3641818b95,611bdb49286679e8b76c8a62,0.4329,
,,,,space,,0,43,43,225,1,E, , , , ,space,2000,2,5e4d3d6b5efe0318a3a119a8,001,2021-08-17_16h52.55.894,natb3,2021.2.3,MacIntel,59.99880002,5e4d3d6b5efe0318a3a119a8,6107d0959f7c4c3641818b95,611bdb49286679e8b76c8a62,0.4161,
,,,,space,,0,44,44,272,1,D, , , , ,space,2000,2,5e4d3d6b5efe0318a3a119a8,001,2021-08-17_16h52.55.894,natb3,2021.2.3,MacIntel,59.99880002,5e4d3d6b5efe0318a3a119a8,6107d0959f7c4c3641818b95,611bdb49286679e8b76c8a62,0.3915,
,,,,space,,0,45,45,25,1,Z, , , , ,space,2500,2.5,5e4d3d6b5efe0318a3a119a8,001,2021-08-17_16h52.55.894,natb3,2021.2.3,MacIntel,59.99880002,5e4d3d6b5efe0318a3a119a8,6107d0959f7c4c3641818b95,611bdb49286679e8b76c8a62,0.4498,
,,,,space,,0,46,46,159,1,S, , , , ,space,2500,2.5,5e4d3d6b5efe0318a3a119a8,001,2021-08-17_16h52.55.894,natb3,2021.2.3,MacIntel,59.99880002,5e4d3d6b5efe0318a3a119a8,6107d0959f7c4c3641818b95,611bdb49286679e8b76c8a62,0.3839,
,,,,,,0,47,47,15,1,X, , , , ,,1500,1.5,5e4d3d6b5efe0318a3a119a8,001,2021-08-17_16h52.55.894,natb3,2021.2.3,MacIntel,59.99880002,5e4d3d6b5efe0318a3a119a8,6107d0959f7c4c3641818b95,611bdb49286679e8b76c8a62,,
,,,,space,,0,48,48,178,1,Q, , , , ,space,1500,1.5,5e4d3d6b5efe0318a3a119a8,001,2021-08-17_16h52.55.894,natb3,2021.2.3,MacIntel,59.99880002,5e4d3d6b5efe0318a3a119a8,6107d0959f7c4c3641818b95,611bdb49286679e8b76c8a62,0.4358,
,,,,space,,0,49,49,59,1,Z, , , , ,space,2000,2,5e4d3d6b5efe0318a3a119a8,001,2021-08-17_16h52.55.894,natb3,2021.2.3,MacIntel,59.99880002,5e4d3d6b5efe0318a3a119a8,6107d0959f7c4c3641818b95,611bdb49286679e8b76c8a62,0.5332,
,,,,,,0,50,50,273,1,X, , , , ,,2000,2,5e4d3d6b5efe0318a3a119a8,001,2021-08-17_16h52.55.894,natb3,2021.2.3,MacIntel,59.99880002,5e4d3d6b5efe0318a3a119a8,6107d0959f7c4c3641818b95,611bdb49286679e8b76c8a62,,
,,,,space,,0,51,51,253,1,N, , , , ,space,2500,2.5,5e4d3d6b5efe0318a3a119a8,001,2021-08-17_16h52.55.894,natb3,2021.2.3,MacIntel,59.99880002,5e4d3d6b5efe0318a3a119a8,6107d0959f7c4c3641818b95,611bdb49286679e8b76c8a62,0.52,
,,,,space,,0,52,52,136,1,Z, , , , ,space,2500,2.5,5e4d3d6b5efe0318a3a119a8,001,2021-08-17_16h52.55.894,natb3,2021.2.3,MacIntel,59.99880002,5e4d3d6b5efe0318a3a119a8,6107d0959f7c4c3641818b95,611bdb49286679e8b76c8a62,0.4667,
,,,,space,,0,53,53,294,1,T, , , , ,space,2000,2,5e4d3d6b5efe0318a3a119a8,001,2021-08-17_16h52.55.894,natb3,2021.2.3,MacIntel,59.99880002,5e4d3d6b5efe0318a3a119a8,6107d0959f7c4c3641818b95,611bdb49286679e8b76c8a62,0.5248,
,,,,space,,0,54,54,193,1,S, , , , ,space,2500,2.5,5e4d3d6b5efe0318a3a119a8,001,2021-08-17_16h52.55.894,natb3,2021.2.3,MacIntel,59.99880002,5e4d3d6b5efe0318a3a119a8,6107d0959f7c4c3641818b95,611bdb49286679e8b76c8a62,0.489,
,,,,space,,0,55,55,152,1,U, , , , ,space,2000,2,5e4d3d6b5efe0318a3a119a8,001,2021-08-17_16h52.55.894,natb3,2021.2.3,MacIntel,59.99880002,5e4d3d6b5efe0318a3a119a8,6107d0959f7c4c3641818b95,611bdb49286679e8b76c8a62,0.4524,
,,,,space,,0,56,56,250,1,V, , , , ,space,2000,2,5e4d3d6b5efe0318a3a119a8,001,2021-08-17_16h52.55.894,natb3,2021.2.3,MacIntel,59.99880002,5e4d3d6b5efe0318a3a119a8,6107d0959f7c4c3641818b95,611bdb49286679e8b76c8a62,0.4901,
,,,,space,,0,57,57,128,1,D, , , , ,space,2500,2.5,5e4d3d6b5efe0318a3a119a8,001,2021-08-17_16h52.55.894,natb3,2021.2.3,MacIntel,59.99880002,5e4d3d6b5efe0318a3a119a8,6107d0959f7c4c3641818b95,611bdb49286679e8b76c8a62,0.501,
,,,,space,,0,58,58,297,1,U, , , , ,space,2000,2,5e4d3d6b5efe0318a3a119a8,001,2021-08-17_16h52.55.894,natb3,2021.2.3,MacIntel,59.99880002,5e4d3d6b5efe0318a3a119a8,6107d0959f7c4c3641818b95,611bdb49286679e8b76c8a62,0.4846,
,,,,space,,0,59,59,219,1,Y, , , , ,space,2000,2,5e4d3d6b5efe0318a3a119a8,001,2021-08-17_16h52.55.894,natb3,2021.2.3,MacIntel,59.99880002,5e4d3d6b5efe0318a3a119a8,6107d0959f7c4c3641818b95,611bdb49286679e8b76c8a62,0.4019,
,,,,space,,0,60,60,266,1,O, , , , ,space,1500,1.5,5e4d3d6b5efe0318a3a119a8,001,2021-08-17_16h52.55.894,natb3,2021.2.3,MacIntel,59.99880002,5e4d3d6b5efe0318a3a119a8,6107d0959f7c4c3641818b95,611bdb49286679e8b76c8a62,0.5002,
,,,,,,0,61,61,39,1,X,6,2, , ,,1500,1.5,5e4d3d6b5efe0318a3a119a8,001,2021-08-17_16h52.55.894,natb3,2021.2.3,MacIntel,59.99880002,5e4d3d6b5efe0318a3a119a8,6107d0959f7c4c3641818b95,611bdb49286679e8b76c8a62,,
,,,,space,,0,62,62,177,1,M, , , , ,space,2500,2.5,5e4d3d6b5efe0318a3a119a8,001,2021-08-17_16h52.55.894,natb3,2021.2.3,MacIntel,59.99880002,5e4d3d6b5efe0318a3a119a8,6107d0959f7c4c3641818b95,611bdb49286679e8b76c8a62,0.5942,
,,,,space,,0,63,63,246,1,L, , , , ,space,2500,2.5,5e4d3d6b5efe0318a3a119a8,001,2021-08-17_16h52.55.894,natb3,2021.2.3,MacIntel,59.99880002,5e4d3d6b5efe0318a3a119a8,6107d0959f7c4c3641818b95,611bdb49286679e8b76c8a62,0.4251,
,,,,space,,0,64,64,117,1,T, , , , ,space,2500,2.5,5e4d3d6b5efe0318a3a119a8,001,2021-08-17_16h52.55.894,natb3,2021.2.3,MacIntel,59.99880002,5e4d3d6b5efe0318a3a119a8,6107d0959f7c4c3641818b95,611bdb49286679e8b76c8a62,0.5361,
,,,,,,0,65,65,263,1,X,4, ,6, ,,1500,1.5,5e4d3d6b5efe0318a3a119a8,001,2021-08-17_16h52.55.894,natb3,2021.2.3,MacIntel,59.99880002,5e4d3d6b5efe0318a3a119a8,6107d0959f7c4c3641818b95,611bdb49286679e8b76c8a62,,
,,,,space,,0,66,66,289,1,Q, , , , ,space,2000,2,5e4d3d6b5efe0318a3a119a8,001,2021-08-17_16h52.55.894,natb3,2021.2.3,MacIntel,59.99880002,5e4d3d6b5efe0318a3a119a8,6107d0959f7c4c3641818b95,611bdb49286679e8b76c8a62,0.4825,
,,,,,,0,67,67,78,1,X, , , , ,,2000,2,5e4d3d6b5efe0318a3a119a8,001,2021-08-17_16h52.55.894,natb3,2021.2.3,MacIntel,59.99880002,5e4d3d6b5efe0318a3a119a8,6107d0959f7c4c3641818b95,611bdb49286679e8b76c8a62,,
,,,,space,,0,68,68,104,1,E, , , , ,space,2000,2,5e4d3d6b5efe0318a3a119a8,001,2021-08-17_16h52.55.894,natb3,2021.2.3,MacIntel,59.99880002,5e4d3d6b5efe0318a3a119a8,6107d0959f7c4c3641818b95,611bdb49286679e8b76c8a62,0.5352,
,,,,,,0,69,69,60,1,X,7,3,5, ,,1500,1.5,5e4d3d6b5efe0318a3a119a8,001,2021-08-17_16h52.55.894,natb3,2021.2.3,MacIntel,59.99880002,5e4d3d6b5efe0318a3a119a8,6107d0959f7c4c3641818b95,611bdb49286679e8b76c8a62,,
,,,,space,,0,70,70,157,1,A, , , , ,space,2500,2.5,5e4d3d6b5efe0318a3a119a8,001,2021-08-17_16h52.55.894,natb3,2021.2.3,MacIntel,59.99880002,5e4d3d6b5efe0318a3a119a8,6107d0959f7c4c3641818b95,611bdb49286679e8b76c8a62,0.4133,
,,,,,,0,71,71,158,1,X, , , , ,,1500,1.5,5e4d3d6b5efe0318a3a119a8,001,2021-08-17_16h52.55.894,natb3,2021.2.3,MacIntel,59.99880002,5e4d3d6b5efe0318a3a119a8,6107d0959f7c4c3641818b95,611bdb49286679e8b76c8a62,,
,,,,space,,0,72,72,215,1,E, , , , ,space,2500,2.5,5e4d3d6b5efe0318a3a119a8,001,2021-08-17_16h52.55.894,natb3,2021.2.3,MacIntel,59.99880002,5e4d3d6b5efe0318a3a119a8,6107d0959f7c4c3641818b95,611bdb49286679e8b76c8a62,0.3476,
,,,,space,,0,73,73,68,1,W, , , , ,space,2500,2.5,5e4d3d6b5efe0318a3a119a8,001,2021-08-17_16h52.55.894,natb3,2021.2.3,MacIntel,59.99880002,5e4d3d6b5efe0318a3a119a8,6107d0959f7c4c3641818b95,611bdb49286679e8b76c8a62,0.4985,
,,,,,,0,74,74,69,1,X, , , , ,,1500,1.5,5e4d3d6b5efe0318a3a119a8,001,2021-08-17_16h52.55.894,natb3,2021.2.3,MacIntel,59.99880002,5e4d3d6b5efe0318a3a119a8,6107d0959f7c4c3641818b95,611bdb49286679e8b76c8a62,,
,,,,,,0,75,75,96,1,X, , , , ,,1500,1.5,5e4d3d6b5efe0318a3a119a8,001,2021-08-17_16h52.55.894,natb3,2021.2.3,MacIntel,59.99880002,5e4d3d6b5efe0318a3a119a8,6107d0959f7c4c3641818b95,611bdb49286679e8b76c8a62,,
,,,,,,0,76,76,282,1,X, , , , ,,2500,2.5,5e4d3d6b5efe0318a3a119a8,001,2021-08-17_16h52.55.894,natb3,2021.2.3,MacIntel,59.99880002,5e4d3d6b5efe0318a3a119a8,6107d0959f7c4c3641818b95,611bdb49286679e8b76c8a62,,
,,,,,,0,77,77,318,1,X, , , , ,,1500,1.5,5e4d3d6b5efe0318a3a119a8,001,2021-08-17_16h52.55.894,natb3,2021.2.3,MacIntel,59.99880002,5e4d3d6b5efe0318a3a119a8,6107d0959f7c4c3641818b95,611bdb49286679e8b76c8a62,,
,,,,space,,0,78,78,327,1,E, , , , ,space,1500,1.5,5e4d3d6b5efe0318a3a119a8,001,2021-08-17_16h52.55.894,natb3,2021.2.3,MacIntel,59.99880002,5e4d3d6b5efe0318a3a119a8,6107d0959f7c4c3641818b95,611bdb49286679e8b76c8a62,0.5171,
,,,,,,0,79,79,166,1,X, , , , ,,2000,2,5e4d3d6b5efe0318a3a119a8,001,2021-08-17_16h52.55.894,natb3,2021.2.3,MacIntel,59.99880002,5e4d3d6b5efe0318a3a119a8,6107d0959f7c4c3641818b95,611bdb49286679e8b76c8a62,,
,,,,space,,0,80,80,223,1,Q, , , , ,space,2000,2,5e4d3d6b5efe0318a3a119a8,001,2021-08-17_16h52.55.894,natb3,2021.2.3,MacIntel,59.99880002,5e4d3d6b5efe0318a3a119a8,6107d0959f7c4c3641818b95,611bdb49286679e8b76c8a62,0.4658,
,,,,space,,0,81,81,320,1,B, , , , ,space,1500,1.5,5e4d3d6b5efe0318a3a119a8,001,2021-08-17_16h52.55.894,natb3,2021.2.3,MacIntel,59.99880002,5e4d3d6b5efe0318a3a119a8,6107d0959f7c4c3641818b95,611bdb49286679e8b76c8a62,0.4897,
,,,,,,0,82,82,233,1,X, ,2, ,5,,1500,1.5,5e4d3d6b5efe0318a3a119a8,001,2021-08-17_16h52.55.894,natb3,2021.2.3,MacIntel,59.99880002,5e4d3d6b5efe0318a3a119a8,6107d0959f7c4c3641818b95,611bdb49286679e8b76c8a62,,
,,,,,,0,83,83,129,1,X,2,3,5, ,,1500,1.5,5e4d3d6b5efe0318a3a119a8,001,2021-08-17_16h52.55.894,natb3,2021.2.3,MacIntel,59.99880002,5e4d3d6b5efe0318a3a119a8,6107d0959f7c4c3641818b95,611bdb49286679e8b76c8a62,,
,,,,space,,0,84,84,309,1,H, , , , ,space,2500,2.5,5e4d3d6b5efe0318a3a119a8,001,2021-08-17_16h52.55.894,natb3,2021.2.3,MacIntel,59.99880002,5e4d3d6b5efe0318a3a119a8,6107d0959f7c4c3641818b95,611bdb49286679e8b76c8a62,0.3791,
,,,,,,0,85,85,259,1,X,8, , ,3,,2500,2.5,5e4d3d6b5efe0318a3a119a8,001,2021-08-17_16h52.55.894,natb3,2021.2.3,MacIntel,59.99880002,5e4d3d6b5efe0318a3a119a8,6107d0959f7c4c3641818b95,611bdb49286679e8b76c8a62,,
,,,,,,0,86,86,18,1,X, ,2,5,8,,2500,2.5,5e4d3d6b5efe0318a3a119a8,001,2021-08-17_16h52.55.894,natb3,2021.2.3,MacIntel,59.99880002,5e4d3d6b5efe0318a3a119a8,6107d0959f7c4c3641818b95,611bdb49286679e8b76c8a62,,
,,,,space,,0,87,87,335,1,P,,,,,space,1500,1.5,5e4d3d6b5efe0318a3a119a8,001,2021-08-17_16h52.55.894,natb3,2021.2.3,MacIntel,59.99880002,5e4d3d6b5efe0318a3a119a8,6107d0959f7c4c3641818b95,611bdb49286679e8b76c8a62,0.7178,
,,,,space,,0,88,88,151,1,Y, , , , ,space,2500,2.5,5e4d3d6b5efe0318a3a119a8,001,2021-08-17_16h52.55.894,natb3,2021.2.3,MacIntel,59.99880002,5e4d3d6b5efe0318a3a119a8,6107d0959f7c4c3641818b95,611bdb49286679e8b76c8a62,0.7452,
,,,,space,,0,89,89,3,1,R, , , , ,space,2000,2,5e4d3d6b5efe0318a3a119a8,001,2021-08-17_16h52.55.894,natb3,2021.2.3,MacIntel,59.99880002,5e4d3d6b5efe0318a3a119a8,6107d0959f7c4c3641818b95,611bdb49286679e8b76c8a62,0.4342,
,,,,space,,0,90,90,241,1,G, , , , ,space,2500,2.5,5e4d3d6b5efe0318a3a119a8,001,2021-08-17_16h52.55.894,natb3,2021.2.3,MacIntel,59.99880002,5e4d3d6b5efe0318a3a119a8,6107d0959f7c4c3641818b95,611bdb49286679e8b76c8a62,0.4162,
,,,,,,0,91,91,43,1,X, ,6, ,2,,2500,2.5,5e4d3d6b5efe0318a3a119a8,001,2021-08-17_16h52.55.894,natb3,2021.2.3,MacIntel,59.99880002,5e4d3d6b5efe0318a3a119a8,6107d0959f7c4c3641818b95,611bdb49286679e8b76c8a62,,
,,,,space,,0,92,92,293,1,R, , , , ,space,2500,2.5,5e4d3d6b5efe0318a3a119a8,001,2021-08-17_16h52.55.894,natb3,2021.2.3,MacIntel,59.99880002,5e4d3d6b5efe0318a3a119a8,6107d0959f7c4c3641818b95,611bdb49286679e8b76c8a62,0.4466,
,,,,,,0,93,93,211,1,X, , , , ,,2500,2.5,5e4d3d6b5efe0318a3a119a8,001,2021-08-17_16h52.55.894,natb3,2021.2.3,MacIntel,59.99880002,5e4d3d6b5efe0318a3a119a8,6107d0959f7c4c3641818b95,611bdb49286679e8b76c8a62,,
,,,,space,,0,94,94,198,1,H, , , , ,space,2500,2.5,5e4d3d6b5efe0318a3a119a8,001,2021-08-17_16h52.55.894,natb3,2021.2.3,MacIntel,59.99880002,5e4d3d6b5efe0318a3a119a8,6107d0959f7c4c3641818b95,611bdb49286679e8b76c8a62,0.4019,
,,,,,,0,95,95,195,1,X, , , , ,,1500,1.5,5e4d3d6b5efe0318a3a119a8,001,2021-08-17_16h52.55.894,natb3,2021.2.3,MacIntel,59.99880002,5e4d3d6b5efe0318a3a119a8,6107d0959f7c4c3641818b95,611bdb49286679e8b76c8a62,,
,,,,space,,0,96,96,10,1,O, , , , ,space,2000,2,5e4d3d6b5efe0318a3a119a8,001,2021-08-17_16h52.55.894,natb3,2021.2.3,MacIntel,59.99880002,5e4d3d6b5efe0318a3a119a8,6107d0959f7c4c3641818b95,611bdb49286679e8b76c8a62,0.4336,
,,,,space,,0,97,97,306,1,D, , , , ,space,2000,2,5e4d3d6b5efe0318a3a119a8,001,2021-08-17_16h52.55.894,natb3,2021.2.3,MacIntel,59.99880002,5e4d3d6b5efe0318a3a119a8,6107d0959f7c4c3641818b95,611bdb49286679e8b76c8a62,0.5838,
,,,,space,,0,98,98,86,1,G, , , , ,space,2000,2,5e4d3d6b5efe0318a3a119a8,001,2021-08-17_16h52.55.894,natb3,2021.2.3,MacIntel,59.99880002,5e4d3d6b5efe0318a3a119a8,6107d0959f7c4c3641818b95,611bdb49286679e8b76c8a62,0.4239,
,,,,space,,0,99,99,105,1,R, , , , ,space,2500,2.5,5e4d3d6b5efe0318a3a119a8,001,2021-08-17_16h52.55.894,natb3,2021.2.3,MacIntel,59.99880002,5e4d3d6b5efe0318a3a119a8,6107d0959f7c4c3641818b95,611bdb49286679e8b76c8a62,0.3583,
,,,,space,,0,100,100,38,1,R, , , , ,space,2500,2.5,5e4d3d6b5efe0318a3a119a8,001,2021-08-17_16h52.55.894,natb3,2021.2.3,MacIntel,59.99880002,5e4d3d6b5efe0318a3a119a8,6107d0959f7c4c3641818b95,611bdb49286679e8b76c8a62,0.423,
,,,,space,,0,101,101,256,1,Q, , , , ,space,2000,2,5e4d3d6b5efe0318a3a119a8,001,2021-08-17_16h52.55.894,natb3,2021.2.3,MacIntel,59.99880002,5e4d3d6b5efe0318a3a119a8,6107d0959f7c4c3641818b95,611bdb49286679e8b76c8a62,0.3898,
,,,,space,,0,102,102,76,1,I, , , , ,space,2000,2,5e4d3d6b5efe0318a3a119a8,001,2021-08-17_16h52.55.894,natb3,2021.2.3,MacIntel,59.99880002,5e4d3d6b5efe0318a3a119a8,6107d0959f7c4c3641818b95,611bdb49286679e8b76c8a62,0.5668,
,,,,space,,0,103,103,264,1,U, , , , ,space,2000,2,5e4d3d6b5efe0318a3a119a8,001,2021-08-17_16h52.55.894,natb3,2021.2.3,MacIntel,59.99880002,5e4d3d6b5efe0318a3a119a8,6107d0959f7c4c3641818b95,611bdb49286679e8b76c8a62,0.417,
,,,,space,,0,104,104,242,1,H, , , , ,space,2500,2.5,5e4d3d6b5efe0318a3a119a8,001,2021-08-17_16h52.55.894,natb3,2021.2.3,MacIntel,59.99880002,5e4d3d6b5efe0318a3a119a8,6107d0959f7c4c3641818b95,611bdb49286679e8b76c8a62,0.4393,
,,,,space,,0,105,105,234,1,P, , , , ,space,2000,2,5e4d3d6b5efe0318a3a119a8,001,2021-08-17_16h52.55.894,natb3,2021.2.3,MacIntel,59.99880002,5e4d3d6b5efe0318a3a119a8,6107d0959f7c4c3641818b95,611bdb49286679e8b76c8a62,0.4368,
,,,,space,,0,106,106,202,1,L, , , , ,space,2500,2.5,5e4d3d6b5efe0318a3a119a8,001,2021-08-17_16h52.55.894,natb3,2021.2.3,MacIntel,59.99880002,5e4d3d6b5efe0318a3a119a8,6107d0959f7c4c3641818b95,611bdb49286679e8b76c8a62,0.4005,
,,,,space,,0,107,107,258,1,E, , , , ,space,1500,1.5,5e4d3d6b5efe0318a3a119a8,001,2021-08-17_16h52.55.894,natb3,2021.2.3,MacIntel,59.99880002,5e4d3d6b5efe0318a3a119a8,6107d0959f7c4c3641818b95,611bdb49286679e8b76c8a62,0.4835,
,,,,space,,0,108,108,217,1,T, , , , ,space,2500,2.5,5e4d3d6b5efe0318a3a119a8,001,2021-08-17_16h52.55.894,natb3,2021.2.3,MacIntel,59.99880002,5e4d3d6b5efe0318a3a119a8,6107d0959f7c4c3641818b95,611bdb49286679e8b76c8a62,0.4542,
,,,,space,,0,109,109,2,1,E, , , , ,space,2500,2.5,5e4d3d6b5efe0318a3a119a8,001,2021-08-17_16h52.55.894,natb3,2021.2.3,MacIntel,59.99880002,5e4d3d6b5efe0318a3a119a8,6107d0959f7c4c3641818b95,611bdb49286679e8b76c8a62,0.4003,
,,,,,,0,110,110,46,1,X, , , , ,,2000,2,5e4d3d6b5efe0318a3a119a8,001,2021-08-17_16h52.55.894,natb3,2021.2.3,MacIntel,59.99880002,5e4d3d6b5efe0318a3a119a8,6107d0959f7c4c3641818b95,611bdb49286679e8b76c8a62,,
,,,,space,,0,111,111,42,1,U, , , , ,space,1500,1.5,5e4d3d6b5efe0318a3a119a8,001,2021-08-17_16h52.55.894,natb3,2021.2.3,MacIntel,59.99880002,5e4d3d6b5efe0318a3a119a8,6107d0959f7c4c3641818b95,611bdb49286679e8b76c8a62,0.4342,
,,,,space,,0,112,112,53,1,G, , , , ,space,2500,2.5,5e4d3d6b5efe0318a3a119a8,001,2021-08-17_16h52.55.894,natb3,2021.2.3,MacIntel,59.99880002,5e4d3d6b5efe0318a3a119a8,6107d0959f7c4c3641818b95,611bdb49286679e8b76c8a62,0.4353,
,,,,space,,0,113,113,21,1,J, , , , ,space,1500,1.5,5e4d3d6b5efe0318a3a119a8,001,2021-08-17_16h52.55.894,natb3,2021.2.3,MacIntel,59.99880002,5e4d3d6b5efe0318a3a119a8,6107d0959f7c4c3641818b95,611bdb49286679e8b76c8a62,0.5129,
,,,,space,,0,114,114,227,1,T, , , , ,space,1500,1.5,5e4d3d6b5efe0318a3a119a8,001,2021-08-17_16h52.55.894,natb3,2021.2.3,MacIntel,59.99880002,5e4d3d6b5efe0318a3a119a8,6107d0959f7c4c3641818b95,611bdb49286679e8b76c8a62,0.5005,
,,,,space,,0,115,115,28,1,V, , , , ,space,1500,1.5,5e4d3d6b5efe0318a3a119a8,001,2021-08-17_16h52.55.894,natb3,2021.2.3,MacIntel,59.99880002,5e4d3d6b5efe0318a3a119a8,6107d0959f7c4c3641818b95,611bdb49286679e8b76c8a62,0.5314,
,,,,,,0,116,116,200,1,X,7, ,5,3,,1500,1.5,5e4d3d6b5efe0318a3a119a8,001,2021-08-17_16h52.55.894,natb3,2021.2.3,MacIntel,59.99880002,5e4d3d6b5efe0318a3a119a8,6107d0959f7c4c3641818b95,611bdb49286679e8b76c8a62,,
,,,,space,,0,117,117,209,1,N, , , , ,space,2000,2,5e4d3d6b5efe0318a3a119a8,001,2021-08-17_16h52.55.894,natb3,2021.2.3,MacIntel,59.99880002,5e4d3d6b5efe0318a3a119a8,6107d0959f7c4c3641818b95,611bdb49286679e8b76c8a62,0.4715,
,,,,space,,0,118,118,210,1,M, , , , ,space,1500,1.5,5e4d3d6b5efe0318a3a119a8,001,2021-08-17_16h52.55.894,natb3,2021.2.3,MacIntel,59.99880002,5e4d3d6b5efe0318a3a119a8,6107d0959f7c4c3641818b95,611bdb49286679e8b76c8a62,0.5323,
,,,,space,,0,119,119,70,1,E, , , , ,space,2500,2.5,5e4d3d6b5efe0318a3a119a8,001,2021-08-17_16h52.55.894,natb3,2021.2.3,MacIntel,59.99880002,5e4d3d6b5efe0318a3a119a8,6107d0959f7c4c3641818b95,611bdb49286679e8b76c8a62,0.5662,
,,,,space,,0,120,120,149,1,R, , , , ,space,2000,2,5e4d3d6b5efe0318a3a119a8,001,2021-08-17_16h52.55.894,natb3,2021.2.3,MacIntel,59.99880002,5e4d3d6b5efe0318a3a119a8,6107d0959f7c4c3641818b95,611bdb49286679e8b76c8a62,0.9119,
,,,,space,,0,121,121,29,1,B, , , , ,space,1500,1.5,5e4d3d6b5efe0318a3a119a8,001,2021-08-17_16h52.55.894,natb3,2021.2.3,MacIntel,59.99880002,5e4d3d6b5efe0318a3a119a8,6107d0959f7c4c3641818b95,611bdb49286679e8b76c8a62,0.4595,
,,,,space,,0,122,122,304,1,S, , , , ,space,2000,2,5e4d3d6b5efe0318a3a119a8,001,2021-08-17_16h52.55.894,natb3,2021.2.3,MacIntel,59.99880002,5e4d3d6b5efe0318a3a119a8,6107d0959f7c4c3641818b95,611bdb49286679e8b76c8a62,0.4327,
,,,,,,0,123,123,252,1,X,3, ,6,9,,2000,2,5e4d3d6b5efe0318a3a119a8,001,2021-08-17_16h52.55.894,natb3,2021.2.3,MacIntel,59.99880002,5e4d3d6b5efe0318a3a119a8,6107d0959f7c4c3641818b95,611bdb49286679e8b76c8a62,,
,,,,space,,0,124,124,119,1,Y, , , , ,space,2500,2.5,5e4d3d6b5efe0318a3a119a8,001,2021-08-17_16h52.55.894,natb3,2021.2.3,MacIntel,59.99880002,5e4d3d6b5efe0318a3a119a8,6107d0959f7c4c3641818b95,611bdb49286679e8b76c8a62,0.4268,
,,,,space,,0,125,125,81,1,S, , , , ,space,2000,2,5e4d3d6b5efe0318a3a119a8,001,2021-08-17_16h52.55.894,natb3,2021.2.3,MacIntel,59.99880002,5e4d3d6b5efe0318a3a119a8,6107d0959f7c4c3641818b95,611bdb49286679e8b76c8a62,0.425,
,,,,space,,0,126,126,303,1,A, , , , ,space,2000,2,5e4d3d6b5efe0318a3a119a8,001,2021-08-17_16h52.55.894,natb3,2021.2.3,MacIntel,59.99880002,5e4d3d6b5efe0318a3a119a8,6107d0959f7c4c3641818b95,611bdb49286679e8b76c8a62,0.5503,
,,,,space,,0,127,127,36,1,W, , , , ,space,2000,2,5e4d3d6b5efe0318a3a119a8,001,2021-08-17_16h52.55.894,natb3,2021.2.3,MacIntel,59.99880002,5e4d3d6b5efe0318a3a119a8,6107d0959f7c4c3641818b95,611bdb49286679e8b76c8a62,0.4668,
,,,,space,,0,128,128,11,1,P, , , , ,space,2500,2.5,5e4d3d6b5efe0318a3a119a8,001,2021-08-17_16h52.55.894,natb3,2021.2.3,MacIntel,59.99880002,5e4d3d6b5efe0318a3a119a8,6107d0959f7c4c3641818b95,611bdb49286679e8b76c8a62,0.4244,
,,,,,,0,129,129,315,1,X, , , , ,,2500,2.5,5e4d3d6b5efe0318a3a119a8,001,2021-08-17_16h52.55.894,natb3,2021.2.3,MacIntel,59.99880002,5e4d3d6b5efe0318a3a119a8,6107d0959f7c4c3641818b95,611bdb49286679e8b76c8a62,,
,,,,space,,0,130,130,199,1,J, , , , ,space,2500,2.5,5e4d3d6b5efe0318a3a119a8,001,2021-08-17_16h52.55.894,natb3,2021.2.3,MacIntel,59.99880002,5e4d3d6b5efe0318a3a119a8,6107d0959f7c4c3641818b95,611bdb49286679e8b76c8a62,0.4459,
,,,,space,,0,131,131,52,1,F, , , , ,space,1500,1.5,5e4d3d6b5efe0318a3a119a8,001,2021-08-17_16h52.55.894,natb3,2021.2.3,MacIntel,59.99880002,5e4d3d6b5efe0318a3a119a8,6107d0959f7c4c3641818b95,611bdb49286679e8b76c8a62,0.5006,
,,,,space,,0,132,132,319,1,V, , , , ,space,2000,2,5e4d3d6b5efe0318a3a119a8,001,2021-08-17_16h52.55.894,natb3,2021.2.3,MacIntel,59.99880002,5e4d3d6b5efe0318a3a119a8,6107d0959f7c4c3641818b95,611bdb49286679e8b76c8a62,0.4651,
,,,,space,,0,133,133,26,1,C, , , , ,space,2000,2,5e4d3d6b5efe0318a3a119a8,001,2021-08-17_16h52.55.894,natb3,2021.2.3,MacIntel,59.99880002,5e4d3d6b5efe0318a3a119a8,6107d0959f7c4c3641818b95,611bdb49286679e8b76c8a62,0.432,
,,,,,,0,134,134,295,1,X,8,7,5, ,,2500,2.5,5e4d3d6b5efe0318a3a119a8,001,2021-08-17_16h52.55.894,natb3,2021.2.3,MacIntel,59.99880002,5e4d3d6b5efe0318a3a119a8,6107d0959f7c4c3641818b95,611bdb49286679e8b76c8a62,,
,,,,,,0,135,135,148,1,X, , , , ,,2000,2,5e4d3d6b5efe0318a3a119a8,001,2021-08-17_16h52.55.894,natb3,2021.2.3,MacIntel,59.99880002,5e4d3d6b5efe0318a3a119a8,6107d0959f7c4c3641818b95,611bdb49286679e8b76c8a62,,
,,,,space,,0,136,136,90,1,K, , , , ,space,2000,2,5e4d3d6b5efe0318a3a119a8,001,2021-08-17_16h52.55.894,natb3,2021.2.3,MacIntel,59.99880002,5e4d3d6b5efe0318a3a119a8,6107d0959f7c4c3641818b95,611bdb49286679e8b76c8a62,0.4737,
,,,,,,0,137,137,329,1,X,3,4, ,2,,2500,2.5,5e4d3d6b5efe0318a3a119a8,001,2021-08-17_16h52.55.894,natb3,2021.2.3,MacIntel,59.99880002,5e4d3d6b5efe0318a3a119a8,6107d0959f7c4c3641818b95,611bdb49286679e8b76c8a62,,
,,,,,,0,138,138,153,1,X,4,7, ,6,,2000,2,5e4d3d6b5efe0318a3a119a8,001,2021-08-17_16h52.55.894,natb3,2021.2.3,MacIntel,59.99880002,5e4d3d6b5efe0318a3a119a8,6107d0959f7c4c3641818b95,611bdb49286679e8b76c8a62,,
,,,,space,,0,139,139,123,1,O, , , , ,space,1500,1.5,5e4d3d6b5efe0318a3a119a8,001,2021-08-17_16h52.55.894,natb3,2021.2.3,MacIntel,59.99880002,5e4d3d6b5efe0318a3a119a8,6107d0959f7c4c3641818b95,611bdb49286679e8b76c8a62,0.5822,
,,,,space,,0,140,140,334,1,O, , , , ,space,1500,1.5,5e4d3d6b5efe0318a3a119a8,001,2021-08-17_16h52.55.894,natb3,2021.2.3,MacIntel,59.99880002,5e4d3d6b5efe0318a3a119a8,6107d0959f7c4c3641818b95,611bdb49286679e8b76c8a62,0.617,
,,,,space,,0,141,141,245,1,K, , , , ,space,2000,2,5e4d3d6b5efe0318a3a119a8,001,2021-08-17_16h52.55.894,natb3,2021.2.3,MacIntel,59.99880002,5e4d3d6b5efe0318a3a119a8,6107d0959f7c4c3641818b95,611bdb49286679e8b76c8a62,0.4682,
,,,,,,0,142,142,207,1,X,9, ,2, ,,2500,2.5,5e4d3d6b5efe0318a3a119a8,001,2021-08-17_16h52.55.894,natb3,2021.2.3,MacIntel,59.99880002,5e4d3d6b5efe0318a3a119a8,6107d0959f7c4c3641818b95,611bdb49286679e8b76c8a62,,
,,,,space,,0,143,143,220,1,U, , , , ,space,2500,2.5,5e4d3d6b5efe0318a3a119a8,001,2021-08-17_16h52.55.894,natb3,2021.2.3,MacIntel,59.99880002,5e4d3d6b5efe0318a3a119a8,6107d0959f7c4c3641818b95,611bdb49286679e8b76c8a62,0.4644,
,,,,space,,0,144,144,181,1,E, , , , ,space,1500,1.5,5e4d3d6b5efe0318a3a119a8,001,2021-08-17_16h52.55.894,natb3,2021.2.3,MacIntel,59.99880002,5e4d3d6b5efe0318a3a119a8,6107d0959f7c4c3641818b95,611bdb49286679e8b76c8a62,0.4713,
,,,,space,,0,145,145,65,1,M, , , , ,space,1500,1.5,5e4d3d6b5efe0318a3a119a8,001,2021-08-17_16h52.55.894,natb3,2021.2.3,MacIntel,59.99880002,5e4d3d6b5efe0318a3a119a8,6107d0959f7c4c3641818b95,611bdb49286679e8b76c8a62,0.4163,
,,,,space,,0,146,146,156,1,P, , , , ,space,1500,1.5,5e4d3d6b5efe0318a3a119a8,001,2021-08-17_16h52.55.894,natb3,2021.2.3,MacIntel,59.99880002,5e4d3d6b5efe0318a3a119a8,6107d0959f7c4c3641818b95,611bdb49286679e8b76c8a62,0.4583,
,,,,space,,0,147,147,67,1,Q, , , , ,space,2000,2,5e4d3d6b5efe0318a3a119a8,001,2021-08-17_16h52.55.894,natb3,2021.2.3,MacIntel,59.99880002,5e4d3d6b5efe0318a3a119a8,6107d0959f7c4c3641818b95,611bdb49286679e8b76c8a62,0.4172,
,,,,space,,0,148,148,189,1,O, , , , ,space,1500,1.5,5e4d3d6b5efe0318a3a119a8,001,2021-08-17_16h52.55.894,natb3,2021.2.3,MacIntel,59.99880002,5e4d3d6b5efe0318a3a119a8,6107d0959f7c4c3641818b95,611bdb49286679e8b76c8a62,0.4501,
,,,,space,,0,149,149,222,1,O, , , , ,space,2000,2,5e4d3d6b5efe0318a3a119a8,001,2021-08-17_16h52.55.894,natb3,2021.2.3,MacIntel,59.99880002,5e4d3d6b5efe0318a3a119a8,6107d0959f7c4c3641818b95,611bdb49286679e8b76c8a62,0.4525,
,,,,,,0,150,150,145,1,X, , , , ,,2000,2,5e4d3d6b5efe0318a3a119a8,001,2021-08-17_16h52.55.894,natb3,2021.2.3,MacIntel,59.99880002,5e4d3d6b5efe0318a3a119a8,6107d0959f7c4c3641818b95,611bdb49286679e8b76c8a62,,
,,,,,,0,151,151,122,1,X,1, , ,8,,1500,1.5,5e4d3d6b5efe0318a3a119a8,001,2021-08-17_16h52.55.894,natb3,2021.2.3,MacIntel,59.99880002,5e4d3d6b5efe0318a3a119a8,6107d0959f7c4c3641818b95,611bdb49286679e8b76c8a62,,
,,,,space,,0,152,152,75,1,U, , , , ,space,1500,1.5,5e4d3d6b5efe0318a3a119a8,001,2021-08-17_16h52.55.894,natb3,2021.2.3,MacIntel,59.99880002,5e4d3d6b5efe0318a3a119a8,6107d0959f7c4c3641818b95,611bdb49286679e8b76c8a62,0.5963,
,,,,space,,0,153,153,296,1,Y, , , , ,space,2500,2.5,5e4d3d6b5efe0318a3a119a8,001,2021-08-17_16h52.55.894,natb3,2021.2.3,MacIntel,59.99880002,5e4d3d6b5efe0318a3a119a8,6107d0959f7c4c3641818b95,611bdb49286679e8b76c8a62,0.4499,
,,,,,,0,154,154,84,1,X, , , , ,,2000,2,5e4d3d6b5efe0318a3a119a8,001,2021-08-17_16h52.55.894,natb3,2021.2.3,MacIntel,59.99880002,5e4d3d6b5efe0318a3a119a8,6107d0959f7c4c3641818b95,611bdb49286679e8b76c8a62,,
,,,,space,,0,155,155,71,1,R, , , , ,space,2500,2.5,5e4d3d6b5efe0318a3a119a8,001,2021-08-17_16h52.55.894,natb3,2021.2.3,MacIntel,59.99880002,5e4d3d6b5efe0318a3a119a8,6107d0959f7c4c3641818b95,611bdb49286679e8b76c8a62,0.6093,
,,,,space,,0,156,156,49,1,S, , , , ,space,1500,1.5,5e4d3d6b5efe0318a3a119a8,001,2021-08-17_16h52.55.894,natb3,2021.2.3,MacIntel,59.99880002,5e4d3d6b5efe0318a3a119a8,6107d0959f7c4c3641818b95,611bdb49286679e8b76c8a62,0.4678,
,,,,,,0,157,157,141,1,X,1, ,4,6,,1500,1.5,5e4d3d6b5efe0318a3a119a8,001,2021-08-17_16h52.55.894,natb3,2021.2.3,MacIntel,59.99880002,5e4d3d6b5efe0318a3a119a8,6107d0959f7c4c3641818b95,611bdb49286679e8b76c8a62,,
,,,,,,0,158,158,102,1,X, ,6, , ,,1500,1.5,5e4d3d6b5efe0318a3a119a8,001,2021-08-17_16h52.55.894,natb3,2021.2.3,MacIntel,59.99880002,5e4d3d6b5efe0318a3a119a8,6107d0959f7c4c3641818b95,611bdb49286679e8b76c8a62,,
,,,,space,,0,159,159,185,1,Y, , , , ,space,2500,2.5,5e4d3d6b5efe0318a3a119a8,001,2021-08-17_16h52.55.894,natb3,2021.2.3,MacIntel,59.99880002,5e4d3d6b5efe0318a3a119a8,6107d0959f7c4c3641818b95,611bdb49286679e8b76c8a62,0.5,
,,,,space,,0,160,160,91,1,L, , , , ,space,2000,2,5e4d3d6b5efe0318a3a119a8,001,2021-08-17_16h52.55.894,natb3,2021.2.3,MacIntel,59.99880002,5e4d3d6b5efe0318a3a119a8,6107d0959f7c4c3641818b95,611bdb49286679e8b76c8a62,0.4675,
,,,,space,,0,161,161,62,1,V, , , , ,space,1500,1.5,5e4d3d6b5efe0318a3a119a8,001,2021-08-17_16h52.55.894,natb3,2021.2.3,MacIntel,59.99880002,5e4d3d6b5efe0318a3a119a8,6107d0959f7c4c3641818b95,611bdb49286679e8b76c8a62,0.4863,
,,,,space,,0,162,162,240,1,F, , , , ,space,2500,2.5,5e4d3d6b5efe0318a3a119a8,001,2021-08-17_16h52.55.894,natb3,2021.2.3,MacIntel,59.99880002,5e4d3d6b5efe0318a3a119a8,6107d0959f7c4c3641818b95,611bdb49286679e8b76c8a62,0.3693,
,,,,space,,0,163,163,48,1,A, , , , ,space,2500,2.5,5e4d3d6b5efe0318a3a119a8,001,2021-08-17_16h52.55.894,natb3,2021.2.3,MacIntel,59.99880002,5e4d3d6b5efe0318a3a119a8,6107d0959f7c4c3641818b95,611bdb49286679e8b76c8a62,0.3628,
,,,,space,,0,164,164,206,1,V, , , , ,space,2000,2,5e4d3d6b5efe0318a3a119a8,001,2021-08-17_16h52.55.894,natb3,2021.2.3,MacIntel,59.99880002,5e4d3d6b5efe0318a3a119a8,6107d0959f7c4c3641818b95,611bdb49286679e8b76c8a62,0.3814,
,,,,space,,0,165,165,170,1,Z, , , , ,space,2000,2,5e4d3d6b5efe0318a3a119a8,001,2021-08-17_16h52.55.894,natb3,2021.2.3,MacIntel,59.99880002,5e4d3d6b5efe0318a3a119a8,6107d0959f7c4c3641818b95,611bdb49286679e8b76c8a62,0.4084,
,,,,space,,0,166,166,224,1,W, , , , ,space,1500,1.5,5e4d3d6b5efe0318a3a119a8,001,2021-08-17_16h52.55.894,natb3,2021.2.3,MacIntel,59.99880002,5e4d3d6b5efe0318a3a119a8,6107d0959f7c4c3641818b95,611bdb49286679e8b76c8a62,0.4423,
,,,,space,space,0,167,167,280,1,L, , , , ,space,1500,1.5,5e4d3d6b5efe0318a3a119a8,001,2021-08-17_16h52.55.894,natb3,2021.2.3,MacIntel,59.99880002,5e4d3d6b5efe0318a3a119a8,6107d0959f7c4c3641818b95,611bdb49286679e8b76c8a62,0.438,15.0479
,,,,,,0,168,168,133,1,X, ,4, ,6,,2500,2.5,5e4d3d6b5efe0318a3a119a8,001,2021-08-17_16h52.55.894,natb3,2021.2.3,MacIntel,59.99880002,5e4d3d6b5efe0318a3a119a8,6107d0959f7c4c3641818b95,611bdb49286679e8b76c8a62,,
,,,,space,,0,169,169,58,1,L, , , , ,space,2000,2,5e4d3d6b5efe0318a3a119a8,001,2021-08-17_16h52.55.894,natb3,2021.2.3,MacIntel,59.99880002,5e4d3d6b5efe0318a3a119a8,6107d0959f7c4c3641818b95,611bdb49286679e8b76c8a62,0.403,
,,,,space,,0,170,170,16,1,D, , , , ,space,1500,1.5,5e4d3d6b5efe0318a3a119a8,001,2021-08-17_16h52.55.894,natb3,2021.2.3,MacIntel,59.99880002,5e4d3d6b5efe0318a3a119a8,6107d0959f7c4c3641818b95,611bdb49286679e8b76c8a62,0.4414,
,,,,space,,0,171,171,237,1,S, , , , ,space,1500,1.5,5e4d3d6b5efe0318a3a119a8,001,2021-08-17_16h52.55.894,natb3,2021.2.3,MacIntel,59.99880002,5e4d3d6b5efe0318a3a119a8,6107d0959f7c4c3641818b95,611bdb49286679e8b76c8a62,0.4749,
,,,,space,,0,172,172,257,1,W, , , , ,space,2000,2,5e4d3d6b5efe0318a3a119a8,001,2021-08-17_16h52.55.894,natb3,2021.2.3,MacIntel,59.99880002,5e4d3d6b5efe0318a3a119a8,6107d0959f7c4c3641818b95,611bdb49286679e8b76c8a62,0.4822,
,,,,space,,0,173,173,41,1,Y, , , , ,space,2500,2.5,5e4d3d6b5efe0318a3a119a8,001,2021-08-17_16h52.55.894,natb3,2021.2.3,MacIntel,59.99880002,5e4d3d6b5efe0318a3a119a8,6107d0959f7c4c3641818b95,611bdb49286679e8b76c8a62,0.4902,
,,,,space,,0,174,174,281,1,Z, , , , ,space,1500,1.5,5e4d3d6b5efe0318a3a119a8,001,2021-08-17_16h52.55.894,natb3,2021.2.3,MacIntel,59.99880002,5e4d3d6b5efe0318a3a119a8,6107d0959f7c4c3641818b95,611bdb49286679e8b76c8a62,0.7952,
,,,,space,,0,175,175,154,1,I, , , , ,space,2500,2.5,5e4d3d6b5efe0318a3a119a8,001,2021-08-17_16h52.55.894,natb3,2021.2.3,MacIntel,59.99880002,5e4d3d6b5efe0318a3a119a8,6107d0959f7c4c3641818b95,611bdb49286679e8b76c8a62,0.4481,
,,,,space,,0,176,176,64,1,N, , , , ,space,2000,2,5e4d3d6b5efe0318a3a119a8,001,2021-08-17_16h52.55.894,natb3,2021.2.3,MacIntel,59.99880002,5e4d3d6b5efe0318a3a119a8,6107d0959f7c4c3641818b95,611bdb49286679e8b76c8a62,0.4173,
,,,,space,,0,177,177,167,1,K, , , , ,space,1500,1.5,5e4d3d6b5efe0318a3a119a8,001,2021-08-17_16h52.55.894,natb3,2021.2.3,MacIntel,59.99880002,5e4d3d6b5efe0318a3a119a8,6107d0959f7c4c3641818b95,611bdb49286679e8b76c8a62,0.4391,
,,,,,,0,178,178,243,1,X, , , , ,,2500,2.5,5e4d3d6b5efe0318a3a119a8,001,2021-08-17_16h52.55.894,natb3,2021.2.3,MacIntel,59.99880002,5e4d3d6b5efe0318a3a119a8,6107d0959f7c4c3641818b95,611bdb49286679e8b76c8a62,,
,,,,space,,0,179,179,137,1,C, , , , ,space,2500,2.5,5e4d3d6b5efe0318a3a119a8,001,2021-08-17_16h52.55.894,natb3,2021.2.3,MacIntel,59.99880002,5e4d3d6b5efe0318a3a119a8,6107d0959f7c4c3641818b95,611bdb49286679e8b76c8a62,0.467,
,,,,space,,0,180,180,247,1,Z, , , , ,space,1500,1.5,5e4d3d6b5efe0318a3a119a8,001,2021-08-17_16h52.55.894,natb3,2021.2.3,MacIntel,59.99880002,5e4d3d6b5efe0318a3a119a8,6107d0959f7c4c3641818b95,611bdb49286679e8b76c8a62,0.4514,
,,,,space,,0,181,181,186,1,U, , , , ,space,2500,2.5,5e4d3d6b5efe0318a3a119a8,001,2021-08-17_16h52.55.894,natb3,2021.2.3,MacIntel,59.99880002,5e4d3d6b5efe0318a3a119a8,6107d0959f7c4c3641818b95,611bdb49286679e8b76c8a62,0.456,
,,,,space,,0,182,182,155,1,O, , , , ,space,1500,1.5,5e4d3d6b5efe0318a3a119a8,001,2021-08-17_16h52.55.894,natb3,2021.2.3,MacIntel,59.99880002,5e4d3d6b5efe0318a3a119a8,6107d0959f7c4c3641818b95,611bdb49286679e8b76c8a62,0.4604,
,,,,space,,0,183,183,314,1,L, , , , ,space,1500,1.5,5e4d3d6b5efe0318a3a119a8,001,2021-08-17_16h52.55.894,natb3,2021.2.3,MacIntel,59.99880002,5e4d3d6b5efe0318a3a119a8,6107d0959f7c4c3641818b95,611bdb49286679e8b76c8a62,0.4474,
,,,,,,0,184,184,33,1,X, , , , ,,1500,1.5,5e4d3d6b5efe0318a3a119a8,001,2021-08-17_16h52.55.894,natb3,2021.2.3,MacIntel,59.99880002,5e4d3d6b5efe0318a3a119a8,6107d0959f7c4c3641818b95,611bdb49286679e8b76c8a62,,
,,,,space,,0,185,185,317,1,C, , , , ,space,2000,2,5e4d3d6b5efe0318a3a119a8,001,2021-08-17_16h52.55.894,natb3,2021.2.3,MacIntel,59.99880002,5e4d3d6b5efe0318a3a119a8,6107d0959f7c4c3641818b95,611bdb49286679e8b76c8a62,0.5213,
,,,,space,,0,186,186,114,1,E, , , , ,space,2000,2,5e4d3d6b5efe0318a3a119a8,001,2021-08-17_16h52.55.894,natb3,2021.2.3,MacIntel,59.99880002,5e4d3d6b5efe0318a3a119a8,6107d0959f7c4c3641818b95,611bdb49286679e8b76c8a62,0.8917,
,,,,space,,0,187,187,310,1,J, , , , ,space,2500,2.5,5e4d3d6b5efe0318a3a119a8,001,2021-08-17_16h52.55.894,natb3,2021.2.3,MacIntel,59.99880002,5e4d3d6b5efe0318a3a119a8,6107d0959f7c4c3641818b95,611bdb49286679e8b76c8a62,0.4158,
,,,,space,,0,188,188,269,1,A, , , , ,space,2500,2.5,5e4d3d6b5efe0318a3a119a8,001,2021-08-17_16h52.55.894,natb3,2021.2.3,MacIntel,59.99880002,5e4d3d6b5efe0318a3a119a8,6107d0959f7c4c3641818b95,611bdb49286679e8b76c8a62,0.5227,
,,,,space,,0,189,189,20,1,H, , , , ,space,1500,1.5,5e4d3d6b5efe0318a3a119a8,001,2021-08-17_16h52.55.894,natb3,2021.2.3,MacIntel,59.99880002,5e4d3d6b5efe0318a3a119a8,6107d0959f7c4c3641818b95,611bdb49286679e8b76c8a62,0.5018,
,,,,space,,0,190,190,115,1,R, , , , ,space,1500,1.5,5e4d3d6b5efe0318a3a119a8,001,2021-08-17_16h52.55.894,natb3,2021.2.3,MacIntel,59.99880002,5e4d3d6b5efe0318a3a119a8,6107d0959f7c4c3641818b95,611bdb49286679e8b76c8a62,0.4151,
,,,,space,,0,191,191,333,1,I, , , , ,space,1500,1.5,5e4d3d6b5efe0318a3a119a8,001,2021-08-17_16h52.55.894,natb3,2021.2.3,MacIntel,59.99880002,5e4d3d6b5efe0318a3a119a8,6107d0959f7c4c3641818b95,611bdb49286679e8b76c8a62,0.4197,
,,,,,,0,192,192,236,1,X,3, ,4,7,,2500,2.5,5e4d3d6b5efe0318a3a119a8,001,2021-08-17_16h52.55.894,natb3,2021.2.3,MacIntel,59.99880002,5e4d3d6b5efe0318a3a119a8,6107d0959f7c4c3641818b95,611bdb49286679e8b76c8a62,,
,,,,,,0,193,193,229,1,X,8, ,2,6,,2500,2.5,5e4d3d6b5efe0318a3a119a8,001,2021-08-17_16h52.55.894,natb3,2021.2.3,MacIntel,59.99880002,5e4d3d6b5efe0318a3a119a8,6107d0959f7c4c3641818b95,611bdb49286679e8b76c8a62,,
,,,,space,,0,194,194,184,1,T, , , , ,space,2000,2,5e4d3d6b5efe0318a3a119a8,001,2021-08-17_16h52.55.894,natb3,2021.2.3,MacIntel,59.99880002,5e4d3d6b5efe0318a3a119a8,6107d0959f7c4c3641818b95,611bdb49286679e8b76c8a62,0.5298,
,,,,,,0,195,195,4,1,X, , , , ,,2000,2,5e4d3d6b5efe0318a3a119a8,001,2021-08-17_16h52.55.894,natb3,2021.2.3,MacIntel,59.99880002,5e4d3d6b5efe0318a3a119a8,6107d0959f7c4c3641818b95,611bdb49286679e8b76c8a62,,
,,,,,,0,196,196,277,1,X,8,5, ,2,,2000,2,5e4d3d6b5efe0318a3a119a8,001,2021-08-17_16h52.55.894,natb3,2021.2.3,MacIntel,59.99880002,5e4d3d6b5efe0318a3a119a8,6107d0959f7c4c3641818b95,611bdb49286679e8b76c8a62,,
,,,,space,,0,197,197,292,1,E, , , , ,space,2000,2,5e4d3d6b5efe0318a3a119a8,001,2021-08-17_16h52.55.894,natb3,2021.2.3,MacIntel,59.99880002,5e4d3d6b5efe0318a3a119a8,6107d0959f7c4c3641818b95,611bdb49286679e8b76c8a62,0.5455,
,,,,space,,0,198,198,312,1,K, , , , ,space,2000,2,5e4d3d6b5efe0318a3a119a8,001,2021-08-17_16h52.55.894,natb3,2021.2.3,MacIntel,59.99880002,5e4d3d6b5efe0318a3a119a8,6107d0959f7c4c3641818b95,611bdb49286679e8b76c8a62,0.5007,
,,,,space,,0,199,199,321,1,N, , , , ,space,2000,2,5e4d3d6b5efe0318a3a119a8,001,2021-08-17_16h52.55.894,natb3,2021.2.3,MacIntel,59.99880002,5e4d3d6b5efe0318a3a119a8,6107d0959f7c4c3641818b95,611bdb49286679e8b76c8a62,0.432,
,,,,space,,0,200,200,332,1,U, , , , ,space,2000,2,5e4d3d6b5efe0318a3a119a8,001,2021-08-17_16h52.55.894,natb3,2021.2.3,MacIntel,59.99880002,5e4d3d6b5efe0318a3a119a8,6107d0959f7c4c3641818b95,611bdb49286679e8b76c8a62,0.5589,
,,,,,,0,201,201,74,1,X, ,4,3,2,,1500,1.5,5e4d3d6b5efe0318a3a119a8,001,2021-08-17_16h52.55.894,natb3,2021.2.3,MacIntel,59.99880002,5e4d3d6b5efe0318a3a119a8,6107d0959f7c4c3641818b95,611bdb49286679e8b76c8a62,,
,,,,,,0,202,202,291,1,X, , , , ,,2000,2,5e4d3d6b5efe0318a3a119a8,001,2021-08-17_16h52.55.894,natb3,2021.2.3,MacIntel,59.99880002,5e4d3d6b5efe0318a3a119a8,6107d0959f7c4c3641818b95,611bdb49286679e8b76c8a62,,
,,,,space,,0,203,203,164,1,H, , , , ,space,2500,2.5,5e4d3d6b5efe0318a3a119a8,001,2021-08-17_16h52.55.894,natb3,2021.2.3,MacIntel,59.99880002,5e4d3d6b5efe0318a3a119a8,6107d0959f7c4c3641818b95,611bdb49286679e8b76c8a62,0.5355,
,,,,,,0,204,204,107,1,X,9,3, ,2,,2000,2,5e4d3d6b5efe0318a3a119a8,001,2021-08-17_16h52.55.894,natb3,2021.2.3,MacIntel,59.99880002,5e4d3d6b5efe0318a3a119a8,6107d0959f7c4c3641818b95,611bdb49286679e8b76c8a62,,
,,,,space,,0,205,205,56,1,J, , , , ,space,1500,1.5,5e4d3d6b5efe0318a3a119a8,001,2021-08-17_16h52.55.894,natb3,2021.2.3,MacIntel,59.99880002,5e4d3d6b5efe0318a3a119a8,6107d0959f7c4c3641818b95,611bdb49286679e8b76c8a62,0.5475,
,,,,space,,0,206,206,160,1,D, , , , ,space,1500,1.5,5e4d3d6b5efe0318a3a119a8,001,2021-08-17_16h52.55.894,natb3,2021.2.3,MacIntel,59.99880002,5e4d3d6b5efe0318a3a119a8,6107d0959f7c4c3641818b95,611bdb49286679e8b76c8a62,0.5168,
,,,,space,,0,207,207,279,1,K, , , , ,space,2500,2.5,5e4d3d6b5efe0318a3a119a8,001,2021-08-17_16h52.55.894,natb3,2021.2.3,MacIntel,59.99880002,5e4d3d6b5efe0318a3a119a8,6107d0959f7c4c3641818b95,611bdb49286679e8b76c8a62,0.4231,
,,,,space,,0,208,208,284,1,V, , , , ,space,2500,2.5,5e4d3d6b5efe0318a3a119a8,001,2021-08-17_16h52.55.894,natb3,2021.2.3,MacIntel,59.99880002,5e4d3d6b5efe0318a3a119a8,6107d0959f7c4c3641818b95,611bdb49286679e8b76c8a62,0.4994,
,,,,space,,0,209,209,316,1,Z, , , , ,space,1500,1.5,5e4d3d6b5efe0318a3a119a8,001,2021-08-17_16h52.55.894,natb3,2021.2.3,MacIntel,59.99880002,5e4d3d6b5efe0318a3a119a8,6107d0959f7c4c3641818b95,611bdb49286679e8b76c8a62,0.7806,
,,,,space,,0,210,210,176,1,N, , , , ,space,1500,1.5,5e4d3d6b5efe0318a3a119a8,001,2021-08-17_16h52.55.894,natb3,2021.2.3,MacIntel,59.99880002,5e4d3d6b5efe0318a3a119a8,6107d0959f7c4c3641818b95,611bdb49286679e8b76c8a62,0.4726,
,,,,space,,0,211,211,143,1,M, , , , ,space,2500,2.5,5e4d3d6b5efe0318a3a119a8,001,2021-08-17_16h52.55.894,natb3,2021.2.3,MacIntel,59.99880002,5e4d3d6b5efe0318a3a119a8,6107d0959f7c4c3641818b95,611bdb49286679e8b76c8a62,0.4507,
,,,,,,0,212,212,182,1,X, , , , ,,1500,1.5,5e4d3d6b5efe0318a3a119a8,001,2021-08-17_16h52.55.894,natb3,2021.2.3,MacIntel,59.99880002,5e4d3d6b5efe0318a3a119a8,6107d0959f7c4c3641818b95,611bdb49286679e8b76c8a62,,
,,,,space,,0,213,213,228,1,Y, , , , ,space,2000,2,5e4d3d6b5efe0318a3a119a8,001,2021-08-17_16h52.55.894,natb3,2021.2.3,MacIntel,59.99880002,5e4d3d6b5efe0318a3a119a8,6107d0959f7c4c3641818b95,611bdb49286679e8b76c8a62,0.4588,
,,,,space,,0,214,214,50,1,D, , , , ,space,1500,1.5,5e4d3d6b5efe0318a3a119a8,001,2021-08-17_16h52.55.894,natb3,2021.2.3,MacIntel,59.99880002,5e4d3d6b5efe0318a3a119a8,6107d0959f7c4c3641818b95,611bdb49286679e8b76c8a62,0.4412,
,,,,space,,0,215,215,328,1,R, , , , ,space,1500,1.5,5e4d3d6b5efe0318a3a119a8,001,2021-08-17_16h52.55.894,natb3,2021.2.3,MacIntel,59.99880002,5e4d3d6b5efe0318a3a119a8,6107d0959f7c4c3641818b95,611bdb49286679e8b76c8a62,0.4864,
,,,,space,,0,216,216,34,1,Q, , , , ,space,2500,2.5,5e4d3d6b5efe0318a3a119a8,001,2021-08-17_16h52.55.894,natb3,2021.2.3,MacIntel,59.99880002,5e4d3d6b5efe0318a3a119a8,6107d0959f7c4c3641818b95,611bdb49286679e8b76c8a62,0.7343,
,,,,space,,0,217,217,131,1,G, , , , ,space,1500,1.5,5e4d3d6b5efe0318a3a119a8,001,2021-08-17_16h52.55.894,natb3,2021.2.3,MacIntel,59.99880002,5e4d3d6b5efe0318a3a119a8,6107d0959f7c4c3641818b95,611bdb49286679e8b76c8a62,0.6167,
,,,,space,,0,218,218,288,1,M, , , , ,space,1500,1.5,5e4d3d6b5efe0318a3a119a8,001,2021-08-17_16h52.55.894,natb3,2021.2.3,MacIntel,59.99880002,5e4d3d6b5efe0318a3a119a8,6107d0959f7c4c3641818b95,611bdb49286679e8b76c8a62,0.5737,
,,,,space,,0,219,219,165,1,J, , , , ,space,2500,2.5,5e4d3d6b5efe0318a3a119a8,001,2021-08-17_16h52.55.894,natb3,2021.2.3,MacIntel,59.99880002,5e4d3d6b5efe0318a3a119a8,6107d0959f7c4c3641818b95,611bdb49286679e8b76c8a62,0.482,
,,,,space,,0,220,220,111,1,O, , , , ,space,2000,2,5e4d3d6b5efe0318a3a119a8,001,2021-08-17_16h52.55.894,natb3,2021.2.3,MacIntel,59.99880002,5e4d3d6b5efe0318a3a119a8,6107d0959f7c4c3641818b95,611bdb49286679e8b76c8a62,0.4748,
,,,,space,,0,221,221,171,1,X, , , , ,,1500,1.5,5e4d3d6b5efe0318a3a119a8,001,2021-08-17_16h52.55.894,natb3,2021.2.3,MacIntel,59.99880002,5e4d3d6b5efe0318a3a119a8,6107d0959f7c4c3641818b95,611bdb49286679e8b76c8a62,0.4664,
,,,,space,,0,222,222,19,1,G, , , , ,space,1500,1.5,5e4d3d6b5efe0318a3a119a8,001,2021-08-17_16h52.55.894,natb3,2021.2.3,MacIntel,59.99880002,5e4d3d6b5efe0318a3a119a8,6107d0959f7c4c3641818b95,611bdb49286679e8b76c8a62,0.5656,
,,,,,,0,223,223,66,1,X, ,4,7, ,,2000,2,5e4d3d6b5efe0318a3a119a8,001,2021-08-17_16h52.55.894,natb3,2021.2.3,MacIntel,59.99880002,5e4d3d6b5efe0318a3a119a8,6107d0959f7c4c3641818b95,611bdb49286679e8b76c8a62,,
,,,,space,,0,224,224,144,1,Q, , , , ,space,2500,2.5,5e4d3d6b5efe0318a3a119a8,001,2021-08-17_16h52.55.894,natb3,2021.2.3,MacIntel,59.99880002,5e4d3d6b5efe0318a3a119a8,6107d0959f7c4c3641818b95,611bdb49286679e8b76c8a62,0.4968,
,,,,space,,0,225,225,265,1,I, , , , ,space,2000,2,5e4d3d6b5efe0318a3a119a8,001,2021-08-17_16h52.55.894,natb3,2021.2.3,MacIntel,59.99880002,5e4d3d6b5efe0318a3a119a8,6107d0959f7c4c3641818b95,611bdb49286679e8b76c8a62,0.4573,
,,,,space,,0,226,226,221,1,I, , , , ,space,2500,2.5,5e4d3d6b5efe0318a3a119a8,001,2021-08-17_16h52.55.894,natb3,2021.2.3,MacIntel,59.99880002,5e4d3d6b5efe0318a3a119a8,6107d0959f7c4c3641818b95,611bdb49286679e8b76c8a62,0.5244,
,,,,space,,0,227,227,135,1,K, , , , ,space,1500,1.5,5e4d3d6b5efe0318a3a119a8,001,2021-08-17_16h52.55.894,natb3,2021.2.3,MacIntel,59.99880002,5e4d3d6b5efe0318a3a119a8,6107d0959f7c4c3641818b95,611bdb49286679e8b76c8a62,0.5501,
,,,,,,0,228,228,138,1,X,8,5, ,3,,2000,2,5e4d3d6b5efe0318a3a119a8,001,2021-08-17_16h52.55.894,natb3,2021.2.3,MacIntel,59.99880002,5e4d3d6b5efe0318a3a119a8,6107d0959f7c4c3641818b95,611bdb49286679e8b76c8a62,,
,,,,space,,0,229,229,190,1,P, , , , ,space,2000,2,5e4d3d6b5efe0318a3a119a8,001,2021-08-17_16h52.55.894,natb3,2021.2.3,MacIntel,59.99880002,5e4d3d6b5efe0318a3a119a8,6107d0959f7c4c3641818b95,611bdb49286679e8b76c8a62,0.5678,
,,,,space,,0,230,230,300,1,O, , , , ,space,2500,2.5,5e4d3d6b5efe0318a3a119a8,001,2021-08-17_16h52.55.894,natb3,2021.2.3,MacIntel,59.99880002,5e4d3d6b5efe0318a3a119a8,6107d0959f7c4c3641818b95,611bdb49286679e8b76c8a62,0.5674,
,,,,space,,0,231,231,142,1,N, , , , ,space,2500,2.5,5e4d3d6b5efe0318a3a119a8,001,2021-08-17_16h52.55.894,natb3,2021.2.3,MacIntel,59.99880002,5e4d3d6b5efe0318a3a119a8,6107d0959f7c4c3641818b95,611bdb49286679e8b76c8a62,0.4818,
,,,,space,,0,232,232,37,1,E, , , , ,space,2500,2.5,5e4d3d6b5efe0318a3a119a8,001,2021-08-17_16h52.55.894,natb3,2021.2.3,MacIntel,59.99880002,5e4d3d6b5efe0318a3a119a8,6107d0959f7c4c3641818b95,611bdb49286679e8b76c8a62,0.4956,
,,,,,,0,233,233,325,1,X, , , , ,,2500,2.5,5e4d3d6b5efe0318a3a119a8,001,2021-08-17_16h52.55.894,natb3,2021.2.3,MacIntel,59.99880002,5e4d3d6b5efe0318a3a119a8,6107d0959f7c4c3641818b95,611bdb49286679e8b76c8a62,,
,,,,space,,0,234,234,330,1,T, , , , ,space,2500,2.5,5e4d3d6b5efe0318a3a119a8,001,2021-08-17_16h52.55.894,natb3,2021.2.3,MacIntel,59.99880002,5e4d3d6b5efe0318a3a119a8,6107d0959f7c4c3641818b95,611bdb49286679e8b76c8a62,0.525,
,,,,space,,0,235,235,127,1,S, , , , ,space,2500,2.5,5e4d3d6b5efe0318a3a119a8,001,2021-08-17_16h52.55.894,natb3,2021.2.3,MacIntel,59.99880002,5e4d3d6b5efe0318a3a119a8,6107d0959f7c4c3641818b95,611bdb49286679e8b76c8a62,0.4731,
,,,,space,,0,236,236,134,1,J, , , , ,space,2000,2,5e4d3d6b5efe0318a3a119a8,001,2021-08-17_16h52.55.894,natb3,2021.2.3,MacIntel,59.99880002,5e4d3d6b5efe0318a3a119a8,6107d0959f7c4c3641818b95,611bdb49286679e8b76c8a62,0.5683,
,,,,space,,0,237,237,132,1,H, , , , ,space,2500,2.5,5e4d3d6b5efe0318a3a119a8,001,2021-08-17_16h52.55.894,natb3,2021.2.3,MacIntel,59.99880002,5e4d3d6b5efe0318a3a119a8,6107d0959f7c4c3641818b95,611bdb49286679e8b76c8a62,0.4822,
,,,,space,,0,238,238,101,1,Q, , , , ,space,2500,2.5,5e4d3d6b5efe0318a3a119a8,001,2021-08-17_16h52.55.894,natb3,2021.2.3,MacIntel,59.99880002,5e4d3d6b5efe0318a3a119a8,6107d0959f7c4c3641818b95,611bdb49286679e8b76c8a62,0.5887,
,,,,,,0,239,239,305,1,X, , , , ,,1500,1.5,5e4d3d6b5efe0318a3a119a8,001,2021-08-17_16h52.55.894,natb3,2021.2.3,MacIntel,59.99880002,5e4d3d6b5efe0318a3a119a8,6107d0959f7c4c3641818b95,611bdb49286679e8b76c8a62,,
,,,,space,,0,240,240,83,1,D, , , , ,space,2000,2,5e4d3d6b5efe0318a3a119a8,001,2021-08-17_16h52.55.894,natb3,2021.2.3,MacIntel,59.99880002,5e4d3d6b5efe0318a3a119a8,6107d0959f7c4c3641818b95,611bdb49286679e8b76c8a62,0.3842,
,,,,space,,0,241,241,130,1,F, , , , ,space,2000,2,5e4d3d6b5efe0318a3a119a8,001,2021-08-17_16h52.55.894,natb3,2021.2.3,MacIntel,59.99880002,5e4d3d6b5efe0318a3a119a8,6107d0959f7c4c3641818b95,611bdb49286679e8b76c8a62,0.5834,
,,,,space,,0,242,242,174,1,B, , , , ,space,2500,2.5,5e4d3d6b5efe0318a3a119a8,001,2021-08-17_16h52.55.894,natb3,2021.2.3,MacIntel,59.99880002,5e4d3d6b5efe0318a3a119a8,6107d0959f7c4c3641818b95,611bdb49286679e8b76c8a62,0.4677,
,,,,space,,0,243,243,5,1,T, , , , ,space,2000,2,5e4d3d6b5efe0318a3a119a8,001,2021-08-17_16h52.55.894,natb3,2021.2.3,MacIntel,59.99880002,5e4d3d6b5efe0318a3a119a8,6107d0959f7c4c3641818b95,611bdb49286679e8b76c8a62,0.4327,
,,,,space,,0,244,244,72,1,T, , , , ,space,1500,1.5,5e4d3d6b5efe0318a3a119a8,001,2021-08-17_16h52.55.894,natb3,2021.2.3,MacIntel,59.99880002,5e4d3d6b5efe0318a3a119a8,6107d0959f7c4c3641818b95,611bdb49286679e8b76c8a62,0.5191,
,,,,space,,0,245,245,201,1,K, , , , ,space,1500,1.5,5e4d3d6b5efe0318a3a119a8,001,2021-08-17_16h52.55.894,natb3,2021.2.3,MacIntel,59.99880002,5e4d3d6b5efe0318a3a119a8,6107d0959f7c4c3641818b95,611bdb49286679e8b76c8a62,0.4514,
,,,,space,,0,246,246,88,1,J, , , , ,space,2500,2.5,5e4d3d6b5efe0318a3a119a8,001,2021-08-17_16h52.55.894,natb3,2021.2.3,MacIntel,59.99880002,5e4d3d6b5efe0318a3a119a8,6107d0959f7c4c3641818b95,611bdb49286679e8b76c8a62,0.48,
,,,,,,0,247,247,54,1,X, , , , ,,2000,2,5e4d3d6b5efe0318a3a119a8,001,2021-08-17_16h52.55.894,natb3,2021.2.3,MacIntel,59.99880002,5e4d3d6b5efe0318a3a119a8,6107d0959f7c4c3641818b95,611bdb49286679e8b76c8a62,,
,,,,,,0,248,248,248,1,X, ,1,5, ,,1500,1.5,5e4d3d6b5efe0318a3a119a8,001,2021-08-17_16h52.55.894,natb3,2021.2.3,MacIntel,59.99880002,5e4d3d6b5efe0318a3a119a8,6107d0959f7c4c3641818b95,611bdb49286679e8b76c8a62,,
,,,,,,0,249,249,118,1,X, , , , ,,2000,2,5e4d3d6b5efe0318a3a119a8,001,2021-08-17_16h52.55.894,natb3,2021.2.3,MacIntel,59.99880002,5e4d3d6b5efe0318a3a119a8,6107d0959f7c4c3641818b95,611bdb49286679e8b76c8a62,,
,,,,space,,0,250,250,270,1,S, , , , ,space,1500,1.5,5e4d3d6b5efe0318a3a119a8,001,2021-08-17_16h52.55.894,natb3,2021.2.3,MacIntel,59.99880002,5e4d3d6b5efe0318a3a119a8,6107d0959f7c4c3641818b95,611bdb49286679e8b76c8a62,0.5225,
,,,,space,,0,251,251,235,1,A, , , , ,space,1500,1.5,5e4d3d6b5efe0318a3a119a8,001,2021-08-17_16h52.55.894,natb3,2021.2.3,MacIntel,59.99880002,5e4d3d6b5efe0318a3a119a8,6107d0959f7c4c3641818b95,611bdb49286679e8b76c8a62,0.6844,
,,,,space,,0,252,252,13,1,A, , , , ,space,2000,2,5e4d3d6b5efe0318a3a119a8,001,2021-08-17_16h52.55.894,natb3,2021.2.3,MacIntel,59.99880002,5e4d3d6b5efe0318a3a119a8,6107d0959f7c4c3641818b95,611bdb49286679e8b76c8a62,0.6079,
,,,,space,,0,253,253,22,1,K, , , , ,space,2000,2,5e4d3d6b5efe0318a3a119a8,001,2021-08-17_16h52.55.894,natb3,2021.2.3,MacIntel,59.99880002,5e4d3d6b5efe0318a3a119a8,6107d0959f7c4c3641818b95,611bdb49286679e8b76c8a62,0.5396,
,,,,,,0,254,254,322,1,X, , ,1,6,,2000,2,5e4d3d6b5efe0318a3a119a8,001,2021-08-17_16h52.55.894,natb3,2021.2.3,MacIntel,59.99880002,5e4d3d6b5efe0318a3a119a8,6107d0959f7c4c3641818b95,611bdb49286679e8b76c8a62,,
,,,,space,,0,255,255,230,1,U, , , , ,space,1500,1.5,5e4d3d6b5efe0318a3a119a8,001,2021-08-17_16h52.55.894,natb3,2021.2.3,MacIntel,59.99880002,5e4d3d6b5efe0318a3a119a8,6107d0959f7c4c3641818b95,611bdb49286679e8b76c8a62,0.5506,
,,,,space,,0,256,256,92,1,Z, , , , ,space,1500,1.5,5e4d3d6b5efe0318a3a119a8,001,2021-08-17_16h52.55.894,natb3,2021.2.3,MacIntel,59.99880002,5e4d3d6b5efe0318a3a119a8,6107d0959f7c4c3641818b95,611bdb49286679e8b76c8a62,0.5842,
,,,,space,,0,257,257,197,1,G, , , , ,space,2500,2.5,5e4d3d6b5efe0318a3a119a8,001,2021-08-17_16h52.55.894,natb3,2021.2.3,MacIntel,59.99880002,5e4d3d6b5efe0318a3a119a8,6107d0959f7c4c3641818b95,611bdb49286679e8b76c8a62,0.658,
,,,,space,,0,258,258,32,1,M, , , , ,space,1500,1.5,5e4d3d6b5efe0318a3a119a8,001,2021-08-17_16h52.55.894,natb3,2021.2.3,MacIntel,59.99880002,5e4d3d6b5efe0318a3a119a8,6107d0959f7c4c3641818b95,611bdb49286679e8b76c8a62,0.5741,
,,,,space,,0,259,259,73,1,Y, , , , ,space,2000,2,5e4d3d6b5efe0318a3a119a8,001,2021-08-17_16h52.55.894,natb3,2021.2.3,MacIntel,59.99880002,5e4d3d6b5efe0318a3a119a8,6107d0959f7c4c3641818b95,611bdb49286679e8b76c8a62,0.471,
,,,,space,,0,260,260,121,1,I, , , , ,space,2000,2,5e4d3d6b5efe0318a3a119a8,001,2021-08-17_16h52.55.894,natb3,2021.2.3,MacIntel,59.99880002,5e4d3d6b5efe0318a3a119a8,6107d0959f7c4c3641818b95,611bdb49286679e8b76c8a62,0.432,
,,,,space,,0,261,261,140,1,B, , , , ,space,2500,2.5,5e4d3d6b5efe0318a3a119a8,001,2021-08-17_16h52.55.894,natb3,2021.2.3,MacIntel,59.99880002,5e4d3d6b5efe0318a3a119a8,6107d0959f7c4c3641818b95,611bdb49286679e8b76c8a62,0.4501,
,,,,space,,0,262,262,103,1,W, , , , ,space,2000,2,5e4d3d6b5efe0318a3a119a8,001,2021-08-17_16h52.55.894,natb3,2021.2.3,MacIntel,59.99880002,5e4d3d6b5efe0318a3a119a8,6107d0959f7c4c3641818b95,611bdb49286679e8b76c8a62,0.4885,
,,,,space,,0,263,263,100,1,M, , , , ,space,2000,2,5e4d3d6b5efe0318a3a119a8,001,2021-08-17_16h52.55.894,natb3,2021.2.3,MacIntel,59.99880002,5e4d3d6b5efe0318a3a119a8,6107d0959f7c4c3641818b95,611bdb49286679e8b76c8a62,0.4836,
,,,,,,0,264,264,268,1,X,6, ,3, ,,2500,2.5,5e4d3d6b5efe0318a3a119a8,001,2021-08-17_16h52.55.894,natb3,2021.2.3,MacIntel,59.99880002,5e4d3d6b5efe0318a3a119a8,6107d0959f7c4c3641818b95,611bdb49286679e8b76c8a62,,
,,,,space,,0,265,265,262,1,Y, , , , ,space,2500,2.5,5e4d3d6b5efe0318a3a119a8,001,2021-08-17_16h52.55.894,natb3,2021.2.3,MacIntel,59.99880002,5e4d3d6b5efe0318a3a119a8,6107d0959f7c4c3641818b95,611bdb49286679e8b76c8a62,0.5419,
,,,,space,,0,266,266,94,1,C, , , , ,space,2000,2,5e4d3d6b5efe0318a3a119a8,001,2021-08-17_16h52.55.894,natb3,2021.2.3,MacIntel,59.99880002,5e4d3d6b5efe0318a3a119a8,6107d0959f7c4c3641818b95,611bdb49286679e8b76c8a62,0.5841,
,,,,space,,0,267,267,208,1,B, , , , ,space,1500,1.5,5e4d3d6b5efe0318a3a119a8,001,2021-08-17_16h52.55.894,natb3,2021.2.3,MacIntel,59.99880002,5e4d3d6b5efe0318a3a119a8,6107d0959f7c4c3641818b95,611bdb49286679e8b76c8a62,0.515,
,,,,space,,0,268,268,147,1,E, , , , ,space,2000,2,5e4d3d6b5efe0318a3a119a8,001,2021-08-17_16h52.55.894,natb3,2021.2.3,MacIntel,59.99880002,5e4d3d6b5efe0318a3a119a8,6107d0959f7c4c3641818b95,611bdb49286679e8b76c8a62,0.5691,
,,,,space,,0,269,269,44,1,I, , , , ,space,2500,2.5,5e4d3d6b5efe0318a3a119a8,001,2021-08-17_16h52.55.894,natb3,2021.2.3,MacIntel,59.99880002,5e4d3d6b5efe0318a3a119a8,6107d0959f7c4c3641818b95,611bdb49286679e8b76c8a62,0.482,
,,,,space,,0,270,270,231,1,I, , , , ,space,2500,2.5,5e4d3d6b5efe0318a3a119a8,001,2021-08-17_16h52.55.894,natb3,2021.2.3,MacIntel,59.99880002,5e4d3d6b5efe0318a3a119a8,6107d0959f7c4c3641818b95,611bdb49286679e8b76c8a62,0.4463,
,,,,space,,0,271,271,172,1,C, , , , ,space,1500,1.5,5e4d3d6b5efe0318a3a119a8,001,2021-08-17_16h52.55.894,natb3,2021.2.3,MacIntel,59.99880002,5e4d3d6b5efe0318a3a119a8,6107d0959f7c4c3641818b95,611bdb49286679e8b76c8a62,0.4676,
,,,,space,,0,272,272,331,1,Y, , , , ,space,2500,2.5,5e4d3d6b5efe0318a3a119a8,001,2021-08-17_16h52.55.894,natb3,2021.2.3,MacIntel,59.99880002,5e4d3d6b5efe0318a3a119a8,6107d0959f7c4c3641818b95,611bdb49286679e8b76c8a62,0.4564,
,,,,space,,0,273,273,24,1,L, , , , ,space,2500,2.5,5e4d3d6b5efe0318a3a119a8,001,2021-08-17_16h52.55.894,natb3,2021.2.3,MacIntel,59.99880002,5e4d3d6b5efe0318a3a119a8,6107d0959f7c4c3641818b95,611bdb49286679e8b76c8a62,0.4503,
,,,,,,0,274,274,31,1,X, , , , ,,1500,1.5,5e4d3d6b5efe0318a3a119a8,001,2021-08-17_16h52.55.894,natb3,2021.2.3,MacIntel,59.99880002,5e4d3d6b5efe0318a3a119a8,6107d0959f7c4c3641818b95,611bdb49286679e8b76c8a62,,
,,,,space,,0,275,275,126,1,A, , , , ,space,2500,2.5,5e4d3d6b5efe0318a3a119a8,001,2021-08-17_16h52.55.894,natb3,2021.2.3,MacIntel,59.99880002,5e4d3d6b5efe0318a3a119a8,6107d0959f7c4c3641818b95,611bdb49286679e8b76c8a62,0.5147,
,,,,space,,0,276,276,110,1,I, , , , ,space,1500,1.5,5e4d3d6b5efe0318a3a119a8,001,2021-08-17_16h52.55.894,natb3,2021.2.3,MacIntel,59.99880002,5e4d3d6b5efe0318a3a119a8,6107d0959f7c4c3641818b95,611bdb49286679e8b76c8a62,0.5761,
,,,,space,,0,277,277,150,1,T, , , , ,space,2500,2.5,5e4d3d6b5efe0318a3a119a8,001,2021-08-17_16h52.55.894,natb3,2021.2.3,MacIntel,59.99880002,5e4d3d6b5efe0318a3a119a8,6107d0959f7c4c3641818b95,611bdb49286679e8b76c8a62,0.5184,
,,,,space,,0,278,278,251,1,B, , , , ,space,1500,1.5,5e4d3d6b5efe0318a3a119a8,001,2021-08-17_16h52.55.894,natb3,2021.2.3,MacIntel,59.99880002,5e4d3d6b5efe0318a3a119a8,6107d0959f7c4c3641818b95,611bdb49286679e8b76c8a62,0.7041,
,,,,space,,0,279,279,17,1,F, , , , ,space,2500,2.5,5e4d3d6b5efe0318a3a119a8,001,2021-08-17_16h52.55.894,natb3,2021.2.3,MacIntel,59.99880002,5e4d3d6b5efe0318a3a119a8,6107d0959f7c4c3641818b95,611bdb49286679e8b76c8a62,0.5176,
,,,,space,,0,280,280,61,1,C, , , , ,space,2000,2,5e4d3d6b5efe0318a3a119a8,001,2021-08-17_16h52.55.894,natb3,2021.2.3,MacIntel,59.99880002,5e4d3d6b5efe0318a3a119a8,6107d0959f7c4c3641818b95,611bdb49286679e8b76c8a62,0.492,
,,,,space,,0,281,281,205,1,C, , , , ,space,2000,2,5e4d3d6b5efe0318a3a119a8,001,2021-08-17_16h52.55.894,natb3,2021.2.3,MacIntel,59.99880002,5e4d3d6b5efe0318a3a119a8,6107d0959f7c4c3641818b95,611bdb49286679e8b76c8a62,0.4594,
,,,,space,,0,282,282,290,1,W, , , , ,space,1500,1.5,5e4d3d6b5efe0318a3a119a8,001,2021-08-17_16h52.55.894,natb3,2021.2.3,MacIntel,59.99880002,5e4d3d6b5efe0318a3a119a8,6107d0959f7c4c3641818b95,611bdb49286679e8b76c8a62,0.5839,
,,,,space,,0,283,283,139,1,V, , , , ,space,2000,2,5e4d3d6b5efe0318a3a119a8,001,2021-08-17_16h52.55.894,natb3,2021.2.3,MacIntel,59.99880002,5e4d3d6b5efe0318a3a119a8,6107d0959f7c4c3641818b95,611bdb49286679e8b76c8a62,0.6809,
,,,,space,,0,284,284,112,1,Q, , , , ,space,2500,2.5,5e4d3d6b5efe0318a3a119a8,001,2021-08-17_16h52.55.894,natb3,2021.2.3,MacIntel,59.99880002,5e4d3d6b5efe0318a3a119a8,6107d0959f7c4c3641818b95,611bdb49286679e8b76c8a62,0.5287,
,,,,space,,0,285,285,283,1,C, , , , ,space,1500,1.5,5e4d3d6b5efe0318a3a119a8,001,2021-08-17_16h52.55.894,natb3,2021.2.3,MacIntel,59.99880002,5e4d3d6b5efe0318a3a119a8,6107d0959f7c4c3641818b95,611bdb49286679e8b76c8a62,0.4625,
,,,,space,,0,286,286,47,1,P, , , , ,space,2000,2,5e4d3d6b5efe0318a3a119a8,001,2021-08-17_16h52.55.894,natb3,2021.2.3,MacIntel,59.99880002,5e4d3d6b5efe0318a3a119a8,6107d0959f7c4c3641818b95,611bdb49286679e8b76c8a62,0.4866,
,,,,space,,0,287,287,40,1,T, , , , ,space,1500,1.5,5e4d3d6b5efe0318a3a119a8,001,2021-08-17_16h52.55.894,natb3,2021.2.3,MacIntel,59.99880002,5e4d3d6b5efe0318a3a119a8,6107d0959f7c4c3641818b95,611bdb49286679e8b76c8a62,0.5165,
,,,,space,,0,288,288,196,1,F, , , , ,space,1500,1.5,5e4d3d6b5efe0318a3a119a8,001,2021-08-17_16h52.55.894,natb3,2021.2.3,MacIntel,59.99880002,5e4d3d6b5efe0318a3a119a8,6107d0959f7c4c3641818b95,611bdb49286679e8b76c8a62,0.4394,
,,,,,,0,289,289,7,1,X, , , , ,,1500,1.5,5e4d3d6b5efe0318a3a119a8,001,2021-08-17_16h52.55.894,natb3,2021.2.3,MacIntel,59.99880002,5e4d3d6b5efe0318a3a119a8,6107d0959f7c4c3641818b95,611bdb49286679e8b76c8a62,,
,,,,space,,0,290,290,99,1,N, , , , ,space,2500,2.5,5e4d3d6b5efe0318a3a119a8,001,2021-08-17_16h52.55.894,natb3,2021.2.3,MacIntel,59.99880002,5e4d3d6b5efe0318a3a119a8,6107d0959f7c4c3641818b95,611bdb49286679e8b76c8a62,0.4579,
,,,,,,0,291,291,179,1,X, ,9, ,2,,1500,1.5,5e4d3d6b5efe0318a3a119a8,001,2021-08-17_16h52.55.894,natb3,2021.2.3,MacIntel,59.99880002,5e4d3d6b5efe0318a3a119a8,6107d0959f7c4c3641818b95,611bdb49286679e8b76c8a62,,
,,,,,,0,292,292,93,1,X,5, ,7, ,,2500,2.5,5e4d3d6b5efe0318a3a119a8,001,2021-08-17_16h52.55.894,natb3,2021.2.3,MacIntel,59.99880002,5e4d3d6b5efe0318a3a119a8,6107d0959f7c4c3641818b95,611bdb49286679e8b76c8a62,,
,,,,space,,0,293,293,212,1,Q, , , , ,space,2500,2.5,5e4d3d6b5efe0318a3a119a8,001,2021-08-17_16h52.55.894,natb3,2021.2.3,MacIntel,59.99880002,5e4d3d6b5efe0318a3a119a8,6107d0959f7c4c3641818b95,611bdb49286679e8b76c8a62,0.47,
,,,,,,0,294,294,287,1,X, ,2, ,9,,2000,2,5e4d3d6b5efe0318a3a119a8,001,2021-08-17_16h52.55.894,natb3,2021.2.3,MacIntel,59.99880002,5e4d3d6b5efe0318a3a119a8,6107d0959f7c4c3641818b95,611bdb49286679e8b76c8a62,,
,,,,space,,0,295,295,244,1,J, , , , ,space,1500,1.5,5e4d3d6b5efe0318a3a119a8,001,2021-08-17_16h52.55.894,natb3,2021.2.3,MacIntel,59.99880002,5e4d3d6b5efe0318a3a119a8,6107d0959f7c4c3641818b95,611bdb49286679e8b76c8a62,0.5362,
,,,,space,,0,296,296,261,1,T, , , , ,space,2000,2,5e4d3d6b5efe0318a3a119a8,001,2021-08-17_16h52.55.894,natb3,2021.2.3,MacIntel,59.99880002,5e4d3d6b5efe0318a3a119a8,6107d0959f7c4c3641818b95,611bdb49286679e8b76c8a62,0.4713,
,,,,space,,0,297,297,326,1,W, , , , ,space,2000,2,5e4d3d6b5efe0318a3a119a8,001,2021-08-17_16h52.55.894,natb3,2021.2.3,MacIntel,59.99880002,5e4d3d6b5efe0318a3a119a8,6107d0959f7c4c3641818b95,611bdb49286679e8b76c8a62,0.584,
,,,,,,0,298,298,311,1,X,1,2,7,3,,2500,2.5,5e4d3d6b5efe0318a3a119a8,001,2021-08-17_16h52.55.894,natb3,2021.2.3,MacIntel,59.99880002,5e4d3d6b5efe0318a3a119a8,6107d0959f7c4c3641818b95,611bdb49286679e8b76c8a62,,
,,,,space,,0,299,299,214,1,W, , , , ,space,2000,2,5e4d3d6b5efe0318a3a119a8,001,2021-08-17_16h52.55.894,natb3,2021.2.3,MacIntel,59.99880002,5e4d3d6b5efe0318a3a119a8,6107d0959f7c4c3641818b95,611bdb49286679e8b76c8a62,0.7375,
,,,,space,,0,300,300,238,1,D, , , , ,space,1500,1.5,5e4d3d6b5efe0318a3a119a8,001,2021-08-17_16h52.55.894,natb3,2021.2.3,MacIntel,59.99880002,5e4d3d6b5efe0318a3a119a8,6107d0959f7c4c3641818b95,611bdb49286679e8b76c8a62,0.569,
,,,,,,0,301,301,89,1,X,3, , , ,,2000,2,5e4d3d6b5efe0318a3a119a8,001,2021-08-17_16h52.55.894,natb3,2021.2.3,MacIntel,59.99880002,5e4d3d6b5efe0318a3a119a8,6107d0959f7c4c3641818b95,611bdb49286679e8b76c8a62,,
,,,,,,0,302,302,175,1,X,7, ,4,2,,1500,1.5,5e4d3d6b5efe0318a3a119a8,001,2021-08-17_16h52.55.894,natb3,2021.2.3,MacIntel,59.99880002,5e4d3d6b5efe0318a3a119a8,6107d0959f7c4c3641818b95,611bdb49286679e8b76c8a62,,
,,,,space,,0,303,303,299,1,X, , , , ,,2500,2.5,5e4d3d6b5efe0318a3a119a8,001,2021-08-17_16h52.55.894,natb3,2021.2.3,MacIntel,59.99880002,5e4d3d6b5efe0318a3a119a8,6107d0959f7c4c3641818b95,611bdb49286679e8b76c8a62,0.3637,
,,,,space,,0,304,304,161,1,F, , , , ,space,1500,1.5,5e4d3d6b5efe0318a3a119a8,001,2021-08-17_16h52.55.894,natb3,2021.2.3,MacIntel,59.99880002,5e4d3d6b5efe0318a3a119a8,6107d0959f7c4c3641818b95,611bdb49286679e8b76c8a62,0.7518,
,,,,,,0,305,305,23,1,X,1, ,5, ,,2000,2,5e4d3d6b5efe0318a3a119a8,001,2021-08-17_16h52.55.894,natb3,2021.2.3,MacIntel,59.99880002,5e4d3d6b5efe0318a3a119a8,6107d0959f7c4c3641818b95,611bdb49286679e8b76c8a62,,
,,,,space,,0,306,306,124,1,P, , , , ,space,2000,2,5e4d3d6b5efe0318a3a119a8,001,2021-08-17_16h52.55.894,natb3,2021.2.3,MacIntel,59.99880002,5e4d3d6b5efe0318a3a119a8,6107d0959f7c4c3641818b95,611bdb49286679e8b76c8a62,0.6997,
,,,,space,,0,307,307,87,1,H, , , , ,space,1500,1.5,5e4d3d6b5efe0318a3a119a8,001,2021-08-17_16h52.55.894,natb3,2021.2.3,MacIntel,59.99880002,5e4d3d6b5efe0318a3a119a8,6107d0959f7c4c3641818b95,611bdb49286679e8b76c8a62,0.5666,
,,,,space,,0,308,308,57,1,K, , , , ,space,2500,2.5,5e4d3d6b5efe0318a3a119a8,001,2021-08-17_16h52.55.894,natb3,2021.2.3,MacIntel,59.99880002,5e4d3d6b5efe0318a3a119a8,6107d0959f7c4c3641818b95,611bdb49286679e8b76c8a62,0.501,
,,,,space,,0,309,309,113,1,W, , , , ,space,2500,2.5,5e4d3d6b5efe0318a3a119a8,001,2021-08-17_16h52.55.894,natb3,2021.2.3,MacIntel,59.99880002,5e4d3d6b5efe0318a3a119a8,6107d0959f7c4c3641818b95,611bdb49286679e8b76c8a62,0.45,
,,,,space,,0,310,310,232,1,O, , , , ,space,2500,2.5,5e4d3d6b5efe0318a3a119a8,001,2021-08-17_16h52.55.894,natb3,2021.2.3,MacIntel,59.99880002,5e4d3d6b5efe0318a3a119a8,6107d0959f7c4c3641818b95,611bdb49286679e8b76c8a62,0.6211,
,,,,,,0,311,311,82,1,X,4,6,1,7,,2000,2,5e4d3d6b5efe0318a3a119a8,001,2021-08-17_16h52.55.894,natb3,2021.2.3,MacIntel,59.99880002,5e4d3d6b5efe0318a3a119a8,6107d0959f7c4c3641818b95,611bdb49286679e8b76c8a62,,
,,,,,,0,312,312,218,1,X,1,3, ,8,,1500,1.5,5e4d3d6b5efe0318a3a119a8,001,2021-08-17_16h52.55.894,natb3,2021.2.3,MacIntel,59.99880002,5e4d3d6b5efe0318a3a119a8,6107d0959f7c4c3641818b95,611bdb49286679e8b76c8a62,,
,,,,,,0,313,313,162,1,X,1,6, ,2,,1500,1.5,5e4d3d6b5efe0318a3a119a8,001,2021-08-17_16h52.55.894,natb3,2021.2.3,MacIntel,59.99880002,5e4d3d6b5efe0318a3a119a8,6107d0959f7c4c3641818b95,611bdb49286679e8b76c8a62,,
,,,,space,,0,314,314,307,1,F, , , , ,space,2500,2.5,5e4d3d6b5efe0318a3a119a8,001,2021-08-17_16h52.55.894,natb3,2021.2.3,MacIntel,59.99880002,5e4d3d6b5efe0318a3a119a8,6107d0959f7c4c3641818b95,611bdb49286679e8b76c8a62,0.5953,
,,,,,,0,315,315,116,1,X, , , , ,,2000,2,5e4d3d6b5efe0318a3a119a8,001,2021-08-17_16h52.55.894,natb3,2021.2.3,MacIntel,59.99880002,5e4d3d6b5efe0318a3a119a8,6107d0959f7c4c3641818b95,611bdb49286679e8b76c8a62,,
,,,,,,0,316,316,239,1,X, , , , ,,2000,2,5e4d3d6b5efe0318a3a119a8,001,2021-08-17_16h52.55.894,natb3,2021.2.3,MacIntel,59.99880002,5e4d3d6b5efe0318a3a119a8,6107d0959f7c4c3641818b95,611bdb49286679e8b76c8a62,,
,,,,space,,0,317,317,106,1,T, , , , ,space,1500,1.5,5e4d3d6b5efe0318a3a119a8,001,2021-08-17_16h52.55.894,natb3,2021.2.3,MacIntel,59.99880002,5e4d3d6b5efe0318a3a119a8,6107d0959f7c4c3641818b95,611bdb49286679e8b76c8a62,0.5738,
,,,,,,0,318,318,203,1,X, , , , ,,2500,2.5,5e4d3d6b5efe0318a3a119a8,001,2021-08-17_16h52.55.894,natb3,2021.2.3,MacIntel,59.99880002,5e4d3d6b5efe0318a3a119a8,6107d0959f7c4c3641818b95,611bdb49286679e8b76c8a62,,
,,,,space,,0,319,319,9,1,I, , , , ,space,1500,1.5,5e4d3d6b5efe0318a3a119a8,001,2021-08-17_16h52.55.894,natb3,2021.2.3,MacIntel,59.99880002,5e4d3d6b5efe0318a3a119a8,6107d0959f7c4c3641818b95,611bdb49286679e8b76c8a62,0.5686,
,,,,space,,0,320,320,323,1,M, , , , ,space,2500,2.5,5e4d3d6b5efe0318a3a119a8,001,2021-08-17_16h52.55.894,natb3,2021.2.3,MacIntel,59.99880002,5e4d3d6b5efe0318a3a119a8,6107d0959f7c4c3641818b95,611bdb49286679e8b76c8a62,0.5679,
,,,,,,0,321,321,255,1,X, , , , ,,1500,1.5,5e4d3d6b5efe0318a3a119a8,001,2021-08-17_16h52.55.894,natb3,2021.2.3,MacIntel,59.99880002,5e4d3d6b5efe0318a3a119a8,6107d0959f7c4c3641818b95,611bdb49286679e8b76c8a62,,
,,,,,,0,322,322,27,1,X,5, ,1,3,,1500,1.5,5e4d3d6b5efe0318a3a119a8,001,2021-08-17_16h52.55.894,natb3,2021.2.3,MacIntel,59.99880002,5e4d3d6b5efe0318a3a119a8,6107d0959f7c4c3641818b95,611bdb49286679e8b76c8a62,,
,,,,space,,0,323,323,180,1,W, , , , ,space,2000,2,5e4d3d6b5efe0318a3a119a8,001,2021-08-17_16h52.55.894,natb3,2021.2.3,MacIntel,59.99880002,5e4d3d6b5efe0318a3a119a8,6107d0959f7c4c3641818b95,611bdb49286679e8b76c8a62,0.5617,
,,,,space,,0,324,324,226,1,R, , , , ,space,2000,2,5e4d3d6b5efe0318a3a119a8,001,2021-08-17_16h52.55.894,natb3,2021.2.3,MacIntel,59.99880002,5e4d3d6b5efe0318a3a119a8,6107d0959f7c4c3641818b95,611bdb49286679e8b76c8a62,0.5159,
,,,,space,,0,325,325,188,1,I, , , , ,space,2500,2.5,5e4d3d6b5efe0318a3a119a8,001,2021-08-17_16h52.55.894,natb3,2021.2.3,MacIntel,59.99880002,5e4d3d6b5efe0318a3a119a8,6107d0959f7c4c3641818b95,611bdb49286679e8b76c8a62,0.5853,
,,,,space,,0,326,326,204,1,Z, , , , ,space,2000,2,5e4d3d6b5efe0318a3a119a8,001,2021-08-17_16h52.55.894,natb3,2021.2.3,MacIntel,59.99880002,5e4d3d6b5efe0318a3a119a8,6107d0959f7c4c3641818b95,611bdb49286679e8b76c8a62,0.5847,
,,,,space,,0,327,327,120,1,U, , , , ,space,1500,1.5,5e4d3d6b5efe0318a3a119a8,001,2021-08-17_16h52.55.894,natb3,2021.2.3,MacIntel,59.99880002,5e4d3d6b5efe0318a3a119a8,6107d0959f7c4c3641818b95,611bdb49286679e8b76c8a62,0.508,
,,,,space,,0,328,328,1,1,W, , , , ,space,2000,2,5e4d3d6b5efe0318a3a119a8,001,2021-08-17_16h52.55.894,natb3,2021.2.3,MacIntel,59.99880002,5e4d3d6b5efe0318a3a119a8,6107d0959f7c4c3641818b95,611bdb49286679e8b76c8a62,0.466,
,,,,space,,0,329,329,285,1,B, , , , ,space,1500,1.5,5e4d3d6b5efe0318a3a119a8,001,2021-08-17_16h52.55.894,natb3,2021.2.3,MacIntel,59.99880002,5e4d3d6b5efe0318a3a119a8,6107d0959f7c4c3641818b95,611bdb49286679e8b76c8a62,0.6523,
,,,,space,,0,330,330,324,1,Q, , , , ,space,2000,2,5e4d3d6b5efe0318a3a119a8,001,2021-08-17_16h52.55.894,natb3,2021.2.3,MacIntel,59.99880002,5e4d3d6b5efe0318a3a119a8,6107d0959f7c4c3641818b95,611bdb49286679e8b76c8a62,0.4495,
,,,,space,,0,331,331,275,1,G, , , , ,space,1500,1.5,5e4d3d6b5efe0318a3a119a8,001,2021-08-17_16h52.55.894,natb3,2021.2.3,MacIntel,59.99880002,5e4d3d6b5efe0318a3a119a8,6107d0959f7c4c3641818b95,611bdb49286679e8b76c8a62,0.4841,
,,,,,,0,332,332,213,1,X, , , , ,,2500,2.5,5e4d3d6b5efe0318a3a119a8,001,2021-08-17_16h52.55.894,natb3,2021.2.3,MacIntel,59.99880002,5e4d3d6b5efe0318a3a119a8,6107d0959f7c4c3641818b95,611bdb49286679e8b76c8a62,,
,,,,space,,0,333,333,301,1,P, , , , ,space,1500,1.5,5e4d3d6b5efe0318a3a119a8,001,2021-08-17_16h52.55.894,natb3,2021.2.3,MacIntel,59.99880002,5e4d3d6b5efe0318a3a119a8,6107d0959f7c4c3641818b95,611bdb49286679e8b76c8a62,0.5039,
,,,,,,0,334,334,35,1,X, , , , ,,2500,2.5,5e4d3d6b5efe0318a3a119a8,001,2021-08-17_16h52.55.894,natb3,2021.2.3,MacIntel,59.99880002,5e4d3d6b5efe0318a3a119a8,6107d0959f7c4c3641818b95,611bdb49286679e8b76c8a62,,
,,,,,,0,335,335,187,1,X, ,3,7,4,,1500,1.5,5e4d3d6b5efe0318a3a119a8,001,2021-08-17_16h52.55.894,natb3,2021.2.3,MacIntel,59.99880002,5e4d3d6b5efe0318a3a119a8,6107d0959f7c4c3641818b95,611bdb49286679e8b76c8a62,,
