key_resp_2.keys,key_resp_2.rt,key_resp_3.keys,key_resp_3.rt,key_resp.keys,key_resp.rt,key_resp_4.keys,trials.thisRepN,trials.thisTrialN,trials.thisN,trials.thisIndex,trials.ran,stimulus,distractor1,distractor2,distractor3,distractor4,CorrAns,isi_duration,isi_dur_in_seconds,participant,session,date,expName,psychopyVersion,OS,frameRate,PROLIFIC_PID,STUDY_ID,SESSION_ID,key_resp_4.rt
return,14.9523,space,16.3365,space,0.8517,,0,0,0,177,1,M, , , , ,space,2500,2.5,5e62c473211a8305ca6411d2,001,2021-08-19_16h35.21.567,natb3,2021.2.3,Win32,60.0240096,5e62c473211a8305ca6411d2,611e07ecdcc96256ae8d5b80,611e79526d26d134376d3b00,
,,,,space,0.3833,,0,1,1,299,1,X, , , , ,,2500,2.5,5e62c473211a8305ca6411d2,001,2021-08-19_16h35.21.567,natb3,2021.2.3,Win32,60.0240096,5e62c473211a8305ca6411d2,611e07ecdcc96256ae8d5b80,611e79526d26d134376d3b00,
,,,,space,0.7465,,0,2,2,20,1,H, , , , ,space,1500,1.5,5e62c473211a8305ca6411d2,001,2021-08-19_16h35.21.567,natb3,2021.2.3,Win32,60.0240096,5e62c473211a8305ca6411d2,611e07ecdcc96256ae8d5b80,611e79526d26d134376d3b00,
,,,,space,0.6576,,0,3,3,307,1,F, , , , ,space,2500,2.5,5e62c473211a8305ca6411d2,001,2021-08-19_16h35.21.567,natb3,2021.2.3,Win32,60.0240096,5e62c473211a8305ca6411d2,611e07ecdcc96256ae8d5b80,611e79526d26d134376d3b00,
,,,,space,0.7175,,0,4,4,83,1,D, , , , ,space,2000,2,5e62c473211a8305ca6411d2,001,2021-08-19_16h35.21.567,natb3,2021.2.3,Win32,60.0240096,5e62c473211a8305ca6411d2,611e07ecdcc96256ae8d5b80,611e79526d26d134376d3b00,
,,,,,,,0,5,5,175,1,X,7, ,4,2,,1500,1.5,5e62c473211a8305ca6411d2,001,2021-08-19_16h35.21.567,natb3,2021.2.3,Win32,60.0240096,5e62c473211a8305ca6411d2,611e07ecdcc96256ae8d5b80,611e79526d26d134376d3b00,
,,,,,,,0,6,6,89,1,X,3, , , ,,2000,2,5e62c473211a8305ca6411d2,001,2021-08-19_16h35.21.567,natb3,2021.2.3,Win32,60.0240096,5e62c473211a8305ca6411d2,611e07ecdcc96256ae8d5b80,611e79526d26d134376d3b00,
,,,,space,0.6555,,0,7,7,301,1,P, , , , ,space,1500,1.5,5e62c473211a8305ca6411d2,001,2021-08-19_16h35.21.567,natb3,2021.2.3,Win32,60.0240096,5e62c473211a8305ca6411d2,611e07ecdcc96256ae8d5b80,611e79526d26d134376d3b00,
,,,,,,,0,8,8,187,1,X, ,3,7,4,,1500,1.5,5e62c473211a8305ca6411d2,001,2021-08-19_16h35.21.567,natb3,2021.2.3,Win32,60.0240096,5e62c473211a8305ca6411d2,611e07ecdcc96256ae8d5b80,611e79526d26d134376d3b00,
,,,,,,,0,9,9,27,1,X,5, ,1,3,,1500,1.5,5e62c473211a8305ca6411d2,001,2021-08-19_16h35.21.567,natb3,2021.2.3,Win32,60.0240096,5e62c473211a8305ca6411d2,611e07ecdcc96256ae8d5b80,611e79526d26d134376d3b00,
,,,,,,,0,10,10,200,1,X,7, ,5,3,,1500,1.5,5e62c473211a8305ca6411d2,001,2021-08-19_16h35.21.567,natb3,2021.2.3,Win32,60.0240096,5e62c473211a8305ca6411d2,611e07ecdcc96256ae8d5b80,611e79526d26d134376d3b00,
,,,,space,0.718,,0,11,11,228,1,Y, , , , ,space,2000,2,5e62c473211a8305ca6411d2,001,2021-08-19_16h35.21.567,natb3,2021.2.3,Win32,60.0240096,5e62c473211a8305ca6411d2,611e07ecdcc96256ae8d5b80,611e79526d26d134376d3b00,
,,,,space,0.9007,,0,12,12,212,1,Q, , , , ,space,2500,2.5,5e62c473211a8305ca6411d2,001,2021-08-19_16h35.21.567,natb3,2021.2.3,Win32,60.0240096,5e62c473211a8305ca6411d2,611e07ecdcc96256ae8d5b80,611e79526d26d134376d3b00,
,,,,,,,0,13,13,51,1,X,7,5,8, ,,1500,1.5,5e62c473211a8305ca6411d2,001,2021-08-19_16h35.21.567,natb3,2021.2.3,Win32,60.0240096,5e62c473211a8305ca6411d2,611e07ecdcc96256ae8d5b80,611e79526d26d134376d3b00,
,,,,space,0.5335,,0,14,14,73,1,Y, , , , ,space,2000,2,5e62c473211a8305ca6411d2,001,2021-08-19_16h35.21.567,natb3,2021.2.3,Win32,60.0240096,5e62c473211a8305ca6411d2,611e07ecdcc96256ae8d5b80,611e79526d26d134376d3b00,
,,,,space,0.5396,,0,15,15,5,1,T, , , , ,space,2000,2,5e62c473211a8305ca6411d2,001,2021-08-19_16h35.21.567,natb3,2021.2.3,Win32,60.0240096,5e62c473211a8305ca6411d2,611e07ecdcc96256ae8d5b80,611e79526d26d134376d3b00,
,,,,,,,0,16,16,268,1,X,6, ,3, ,,2500,2.5,5e62c473211a8305ca6411d2,001,2021-08-19_16h35.21.567,natb3,2021.2.3,Win32,60.0240096,5e62c473211a8305ca6411d2,611e07ecdcc96256ae8d5b80,611e79526d26d134376d3b00,
,,,,space,0.3908,,0,17,17,49,1,S, , , , ,space,1500,1.5,5e62c473211a8305ca6411d2,001,2021-08-19_16h35.21.567,natb3,2021.2.3,Win32,60.0240096,5e62c473211a8305ca6411d2,611e07ecdcc96256ae8d5b80,611e79526d26d134376d3b00,
,,,,space,0.4685,,0,18,18,199,1,J, , , , ,space,2500,2.5,5e62c473211a8305ca6411d2,001,2021-08-19_16h35.21.567,natb3,2021.2.3,Win32,60.0240096,5e62c473211a8305ca6411d2,611e07ecdcc96256ae8d5b80,611e79526d26d134376d3b00,
,,,,space,0.501,,0,19,19,274,1,F, , , , ,space,2000,2,5e62c473211a8305ca6411d2,001,2021-08-19_16h35.21.567,natb3,2021.2.3,Win32,60.0240096,5e62c473211a8305ca6411d2,611e07ecdcc96256ae8d5b80,611e79526d26d134376d3b00,
,,,,space,0.65,,0,20,20,53,1,G, , , , ,space,2500,2.5,5e62c473211a8305ca6411d2,001,2021-08-19_16h35.21.567,natb3,2021.2.3,Win32,60.0240096,5e62c473211a8305ca6411d2,611e07ecdcc96256ae8d5b80,611e79526d26d134376d3b00,
,,,,space,0.5692,,0,21,21,135,1,K, , , , ,space,1500,1.5,5e62c473211a8305ca6411d2,001,2021-08-19_16h35.21.567,natb3,2021.2.3,Win32,60.0240096,5e62c473211a8305ca6411d2,611e07ecdcc96256ae8d5b80,611e79526d26d134376d3b00,
,,,,space,0.3948,,0,22,22,304,1,S, , , , ,space,2000,2,5e62c473211a8305ca6411d2,001,2021-08-19_16h35.21.567,natb3,2021.2.3,Win32,60.0240096,5e62c473211a8305ca6411d2,611e07ecdcc96256ae8d5b80,611e79526d26d134376d3b00,
,,,,space,0.4442,,0,23,23,115,1,R, , , , ,space,1500,1.5,5e62c473211a8305ca6411d2,001,2021-08-19_16h35.21.567,natb3,2021.2.3,Win32,60.0240096,5e62c473211a8305ca6411d2,611e07ecdcc96256ae8d5b80,611e79526d26d134376d3b00,
,,,,space,0.4359,,0,24,24,6,1,Y, , , , ,space,2500,2.5,5e62c473211a8305ca6411d2,001,2021-08-19_16h35.21.567,natb3,2021.2.3,Win32,60.0240096,5e62c473211a8305ca6411d2,611e07ecdcc96256ae8d5b80,611e79526d26d134376d3b00,
,,,,space,0.4759,,0,25,25,137,1,C, , , , ,space,2500,2.5,5e62c473211a8305ca6411d2,001,2021-08-19_16h35.21.567,natb3,2021.2.3,Win32,60.0240096,5e62c473211a8305ca6411d2,611e07ecdcc96256ae8d5b80,611e79526d26d134376d3b00,
,,,,space,0.4564,,0,26,26,155,1,O, , , , ,space,1500,1.5,5e62c473211a8305ca6411d2,001,2021-08-19_16h35.21.567,natb3,2021.2.3,Win32,60.0240096,5e62c473211a8305ca6411d2,611e07ecdcc96256ae8d5b80,611e79526d26d134376d3b00,
,,,,space,0.5548,,0,27,27,270,1,S, , , , ,space,1500,1.5,5e62c473211a8305ca6411d2,001,2021-08-19_16h35.21.567,natb3,2021.2.3,Win32,60.0240096,5e62c473211a8305ca6411d2,611e07ecdcc96256ae8d5b80,611e79526d26d134376d3b00,
,,,,space,0.3978,,0,28,28,294,1,T, , , , ,space,2000,2,5e62c473211a8305ca6411d2,001,2021-08-19_16h35.21.567,natb3,2021.2.3,Win32,60.0240096,5e62c473211a8305ca6411d2,611e07ecdcc96256ae8d5b80,611e79526d26d134376d3b00,
,,,,space,0.3951,,0,29,29,330,1,T, , , , ,space,2500,2.5,5e62c473211a8305ca6411d2,001,2021-08-19_16h35.21.567,natb3,2021.2.3,Win32,60.0240096,5e62c473211a8305ca6411d2,611e07ecdcc96256ae8d5b80,611e79526d26d134376d3b00,
,,,,space,0.5514,,0,30,30,231,1,I, , , , ,space,2500,2.5,5e62c473211a8305ca6411d2,001,2021-08-19_16h35.21.567,natb3,2021.2.3,Win32,60.0240096,5e62c473211a8305ca6411d2,611e07ecdcc96256ae8d5b80,611e79526d26d134376d3b00,
,,,,space,0.6484,,0,31,31,56,1,J, , , , ,space,1500,1.5,5e62c473211a8305ca6411d2,001,2021-08-19_16h35.21.567,natb3,2021.2.3,Win32,60.0240096,5e62c473211a8305ca6411d2,611e07ecdcc96256ae8d5b80,611e79526d26d134376d3b00,
,,,,,,,0,32,32,313,1,X, , , , ,,2500,2.5,5e62c473211a8305ca6411d2,001,2021-08-19_16h35.21.567,natb3,2021.2.3,Win32,60.0240096,5e62c473211a8305ca6411d2,611e07ecdcc96256ae8d5b80,611e79526d26d134376d3b00,
,,,,space,0.5095,,0,33,33,85,1,F, , , , ,space,2500,2.5,5e62c473211a8305ca6411d2,001,2021-08-19_16h35.21.567,natb3,2021.2.3,Win32,60.0240096,5e62c473211a8305ca6411d2,611e07ecdcc96256ae8d5b80,611e79526d26d134376d3b00,
,,,,,,,0,34,34,158,1,X, , , , ,,1500,1.5,5e62c473211a8305ca6411d2,001,2021-08-19_16h35.21.567,natb3,2021.2.3,Win32,60.0240096,5e62c473211a8305ca6411d2,611e07ecdcc96256ae8d5b80,611e79526d26d134376d3b00,
,,,,,,,0,35,35,236,1,X,3, ,4,7,,2500,2.5,5e62c473211a8305ca6411d2,001,2021-08-19_16h35.21.567,natb3,2021.2.3,Win32,60.0240096,5e62c473211a8305ca6411d2,611e07ecdcc96256ae8d5b80,611e79526d26d134376d3b00,
,,,,,,,0,36,36,311,1,X,1,2,7,3,,2500,2.5,5e62c473211a8305ca6411d2,001,2021-08-19_16h35.21.567,natb3,2021.2.3,Win32,60.0240096,5e62c473211a8305ca6411d2,611e07ecdcc96256ae8d5b80,611e79526d26d134376d3b00,
,,,,space,0.5633,,0,37,37,281,1,Z, , , , ,space,1500,1.5,5e62c473211a8305ca6411d2,001,2021-08-19_16h35.21.567,natb3,2021.2.3,Win32,60.0240096,5e62c473211a8305ca6411d2,611e07ecdcc96256ae8d5b80,611e79526d26d134376d3b00,
,,,,space,0.4737,,0,38,38,173,1,V, , , , ,space,1500,1.5,5e62c473211a8305ca6411d2,001,2021-08-19_16h35.21.567,natb3,2021.2.3,Win32,60.0240096,5e62c473211a8305ca6411d2,611e07ecdcc96256ae8d5b80,611e79526d26d134376d3b00,
,,,,space,0.6106,,0,39,39,316,1,Z, , , , ,space,1500,1.5,5e62c473211a8305ca6411d2,001,2021-08-19_16h35.21.567,natb3,2021.2.3,Win32,60.0240096,5e62c473211a8305ca6411d2,611e07ecdcc96256ae8d5b80,611e79526d26d134376d3b00,
,,,,space,0.4834,,0,40,40,261,1,T, , , , ,space,2000,2,5e62c473211a8305ca6411d2,001,2021-08-19_16h35.21.567,natb3,2021.2.3,Win32,60.0240096,5e62c473211a8305ca6411d2,611e07ecdcc96256ae8d5b80,611e79526d26d134376d3b00,
,,,,,,,0,41,41,277,1,X,8,5, ,2,,2000,2,5e62c473211a8305ca6411d2,001,2021-08-19_16h35.21.567,natb3,2021.2.3,Win32,60.0240096,5e62c473211a8305ca6411d2,611e07ecdcc96256ae8d5b80,611e79526d26d134376d3b00,
,,,,space,0.6458,,0,42,42,80,1,A, , , , ,space,2000,2,5e62c473211a8305ca6411d2,001,2021-08-19_16h35.21.567,natb3,2021.2.3,Win32,60.0240096,5e62c473211a8305ca6411d2,611e07ecdcc96256ae8d5b80,611e79526d26d134376d3b00,
,,,,,,,0,43,43,271,1,X, , , , ,,2500,2.5,5e62c473211a8305ca6411d2,001,2021-08-19_16h35.21.567,natb3,2021.2.3,Win32,60.0240096,5e62c473211a8305ca6411d2,611e07ecdcc96256ae8d5b80,611e79526d26d134376d3b00,
,,,,,,,0,44,44,148,1,X, , , , ,,2000,2,5e62c473211a8305ca6411d2,001,2021-08-19_16h35.21.567,natb3,2021.2.3,Win32,60.0240096,5e62c473211a8305ca6411d2,611e07ecdcc96256ae8d5b80,611e79526d26d134376d3b00,
,,,,space,0.4391,,0,45,45,75,1,U, , , , ,space,1500,1.5,5e62c473211a8305ca6411d2,001,2021-08-19_16h35.21.567,natb3,2021.2.3,Win32,60.0240096,5e62c473211a8305ca6411d2,611e07ecdcc96256ae8d5b80,611e79526d26d134376d3b00,
,,,,space,0.8409,,0,46,46,247,1,Z, , , , ,space,1500,1.5,5e62c473211a8305ca6411d2,001,2021-08-19_16h35.21.567,natb3,2021.2.3,Win32,60.0240096,5e62c473211a8305ca6411d2,611e07ecdcc96256ae8d5b80,611e79526d26d134376d3b00,
,,,,,,,0,47,47,66,1,X, ,4,7, ,,2000,2,5e62c473211a8305ca6411d2,001,2021-08-19_16h35.21.567,natb3,2021.2.3,Win32,60.0240096,5e62c473211a8305ca6411d2,611e07ecdcc96256ae8d5b80,611e79526d26d134376d3b00,
,,,,,,,0,48,48,255,1,X, , , , ,,1500,1.5,5e62c473211a8305ca6411d2,001,2021-08-19_16h35.21.567,natb3,2021.2.3,Win32,60.0240096,5e62c473211a8305ca6411d2,611e07ecdcc96256ae8d5b80,611e79526d26d134376d3b00,
,,,,space,0.4281,,0,49,49,0,1,Q, , , , ,space,1500,1.5,5e62c473211a8305ca6411d2,001,2021-08-19_16h35.21.567,natb3,2021.2.3,Win32,60.0240096,5e62c473211a8305ca6411d2,611e07ecdcc96256ae8d5b80,611e79526d26d134376d3b00,
,,,,space,0.4296,,0,50,50,32,1,M, , , , ,space,1500,1.5,5e62c473211a8305ca6411d2,001,2021-08-19_16h35.21.567,natb3,2021.2.3,Win32,60.0240096,5e62c473211a8305ca6411d2,611e07ecdcc96256ae8d5b80,611e79526d26d134376d3b00,
,,,,space,0.4163,,0,51,51,192,1,A, , , , ,space,2000,2,5e62c473211a8305ca6411d2,001,2021-08-19_16h35.21.567,natb3,2021.2.3,Win32,60.0240096,5e62c473211a8305ca6411d2,611e07ecdcc96256ae8d5b80,611e79526d26d134376d3b00,
,,,,space,0.385,,0,52,52,234,1,P, , , , ,space,2000,2,5e62c473211a8305ca6411d2,001,2021-08-19_16h35.21.567,natb3,2021.2.3,Win32,60.0240096,5e62c473211a8305ca6411d2,611e07ecdcc96256ae8d5b80,611e79526d26d134376d3b00,
,,,,,,,0,53,53,179,1,X, ,9, ,2,,1500,1.5,5e62c473211a8305ca6411d2,001,2021-08-19_16h35.21.567,natb3,2021.2.3,Win32,60.0240096,5e62c473211a8305ca6411d2,611e07ecdcc96256ae8d5b80,611e79526d26d134376d3b00,
,,,,space,0.4047,,0,54,54,193,1,S, , , , ,space,2500,2.5,5e62c473211a8305ca6411d2,001,2021-08-19_16h35.21.567,natb3,2021.2.3,Win32,60.0240096,5e62c473211a8305ca6411d2,611e07ecdcc96256ae8d5b80,611e79526d26d134376d3b00,
,,,,space,0.4384,,0,55,55,280,1,L, , , , ,space,1500,1.5,5e62c473211a8305ca6411d2,001,2021-08-19_16h35.21.567,natb3,2021.2.3,Win32,60.0240096,5e62c473211a8305ca6411d2,611e07ecdcc96256ae8d5b80,611e79526d26d134376d3b00,
,,,,space,0.4074,,0,56,56,117,1,T, , , , ,space,2500,2.5,5e62c473211a8305ca6411d2,001,2021-08-19_16h35.21.567,natb3,2021.2.3,Win32,60.0240096,5e62c473211a8305ca6411d2,611e07ecdcc96256ae8d5b80,611e79526d26d134376d3b00,
,,,,,,,0,57,57,207,1,X,9, ,2, ,,2500,2.5,5e62c473211a8305ca6411d2,001,2021-08-19_16h35.21.567,natb3,2021.2.3,Win32,60.0240096,5e62c473211a8305ca6411d2,611e07ecdcc96256ae8d5b80,611e79526d26d134376d3b00,
,,,,,,,0,58,58,153,1,X,4,7, ,6,,2000,2,5e62c473211a8305ca6411d2,001,2021-08-19_16h35.21.567,natb3,2021.2.3,Win32,60.0240096,5e62c473211a8305ca6411d2,611e07ecdcc96256ae8d5b80,611e79526d26d134376d3b00,
,,,,space,0.4758,,0,59,59,59,1,Z, , , , ,space,2000,2,5e62c473211a8305ca6411d2,001,2021-08-19_16h35.21.567,natb3,2021.2.3,Win32,60.0240096,5e62c473211a8305ca6411d2,611e07ecdcc96256ae8d5b80,611e79526d26d134376d3b00,
,,,,space,0.4182,,0,60,60,202,1,L, , , , ,space,2500,2.5,5e62c473211a8305ca6411d2,001,2021-08-19_16h35.21.567,natb3,2021.2.3,Win32,60.0240096,5e62c473211a8305ca6411d2,611e07ecdcc96256ae8d5b80,611e79526d26d134376d3b00,
,,,,space,0.3936,,0,61,61,221,1,I, , , , ,space,2500,2.5,5e62c473211a8305ca6411d2,001,2021-08-19_16h35.21.567,natb3,2021.2.3,Win32,60.0240096,5e62c473211a8305ca6411d2,611e07ecdcc96256ae8d5b80,611e79526d26d134376d3b00,
,,,,space,0.4096,,0,62,62,13,1,A, , , , ,space,2000,2,5e62c473211a8305ca6411d2,001,2021-08-19_16h35.21.567,natb3,2021.2.3,Win32,60.0240096,5e62c473211a8305ca6411d2,611e07ecdcc96256ae8d5b80,611e79526d26d134376d3b00,
,,,,space,0.3344,,0,63,63,128,1,D, , , , ,space,2500,2.5,5e62c473211a8305ca6411d2,001,2021-08-19_16h35.21.567,natb3,2021.2.3,Win32,60.0240096,5e62c473211a8305ca6411d2,611e07ecdcc96256ae8d5b80,611e79526d26d134376d3b00,
,,,,,,,0,64,64,243,1,X, , , , ,,2500,2.5,5e62c473211a8305ca6411d2,001,2021-08-19_16h35.21.567,natb3,2021.2.3,Win32,60.0240096,5e62c473211a8305ca6411d2,611e07ecdcc96256ae8d5b80,611e79526d26d134376d3b00,
,,,,space,0.4577,,0,65,65,57,1,K, , , , ,space,2500,2.5,5e62c473211a8305ca6411d2,001,2021-08-19_16h35.21.567,natb3,2021.2.3,Win32,60.0240096,5e62c473211a8305ca6411d2,611e07ecdcc96256ae8d5b80,611e79526d26d134376d3b00,
,,,,space,0.6121,,0,66,66,24,1,L, , , , ,space,2500,2.5,5e62c473211a8305ca6411d2,001,2021-08-19_16h35.21.567,natb3,2021.2.3,Win32,60.0240096,5e62c473211a8305ca6411d2,611e07ecdcc96256ae8d5b80,611e79526d26d134376d3b00,
,,,,,,,0,67,67,21,1,J, , , , ,space,1500,1.5,5e62c473211a8305ca6411d2,001,2021-08-19_16h35.21.567,natb3,2021.2.3,Win32,60.0240096,5e62c473211a8305ca6411d2,611e07ecdcc96256ae8d5b80,611e79526d26d134376d3b00,
,,,,space,0.6245,,0,68,68,174,1,B, , , , ,space,2500,2.5,5e62c473211a8305ca6411d2,001,2021-08-19_16h35.21.567,natb3,2021.2.3,Win32,60.0240096,5e62c473211a8305ca6411d2,611e07ecdcc96256ae8d5b80,611e79526d26d134376d3b00,
,,,,space,0.6036,,0,69,69,130,1,F, , , , ,space,2000,2,5e62c473211a8305ca6411d2,001,2021-08-19_16h35.21.567,natb3,2021.2.3,Win32,60.0240096,5e62c473211a8305ca6411d2,611e07ecdcc96256ae8d5b80,611e79526d26d134376d3b00,
,,,,space,0.4112,,0,70,70,244,1,J, , , , ,space,1500,1.5,5e62c473211a8305ca6411d2,001,2021-08-19_16h35.21.567,natb3,2021.2.3,Win32,60.0240096,5e62c473211a8305ca6411d2,611e07ecdcc96256ae8d5b80,611e79526d26d134376d3b00,
,,,,space,0.441,,0,71,71,289,1,Q, , , , ,space,2000,2,5e62c473211a8305ca6411d2,001,2021-08-19_16h35.21.567,natb3,2021.2.3,Win32,60.0240096,5e62c473211a8305ca6411d2,611e07ecdcc96256ae8d5b80,611e79526d26d134376d3b00,
,,,,space,0.4677,,0,72,72,92,1,Z, , , , ,space,1500,1.5,5e62c473211a8305ca6411d2,001,2021-08-19_16h35.21.567,natb3,2021.2.3,Win32,60.0240096,5e62c473211a8305ca6411d2,611e07ecdcc96256ae8d5b80,611e79526d26d134376d3b00,
,,,,space,0.4168,,0,73,73,94,1,C, , , , ,space,2000,2,5e62c473211a8305ca6411d2,001,2021-08-19_16h35.21.567,natb3,2021.2.3,Win32,60.0240096,5e62c473211a8305ca6411d2,611e07ecdcc96256ae8d5b80,611e79526d26d134376d3b00,
,,,,space,0.3407,,0,74,74,61,1,C, , , , ,space,2000,2,5e62c473211a8305ca6411d2,001,2021-08-19_16h35.21.567,natb3,2021.2.3,Win32,60.0240096,5e62c473211a8305ca6411d2,611e07ecdcc96256ae8d5b80,611e79526d26d134376d3b00,
,,,,space,0.2935,,0,75,75,86,1,G, , , , ,space,2000,2,5e62c473211a8305ca6411d2,001,2021-08-19_16h35.21.567,natb3,2021.2.3,Win32,60.0240096,5e62c473211a8305ca6411d2,611e07ecdcc96256ae8d5b80,611e79526d26d134376d3b00,
,,,,,,,0,76,76,125,1,X, , , , ,,2000,2,5e62c473211a8305ca6411d2,001,2021-08-19_16h35.21.567,natb3,2021.2.3,Win32,60.0240096,5e62c473211a8305ca6411d2,611e07ecdcc96256ae8d5b80,611e79526d26d134376d3b00,
,,,,,,,0,77,77,54,1,X, , , , ,,2000,2,5e62c473211a8305ca6411d2,001,2021-08-19_16h35.21.567,natb3,2021.2.3,Win32,60.0240096,5e62c473211a8305ca6411d2,611e07ecdcc96256ae8d5b80,611e79526d26d134376d3b00,
,,,,space,0.3339,,0,78,78,116,1,X, , , , ,,2000,2,5e62c473211a8305ca6411d2,001,2021-08-19_16h35.21.567,natb3,2021.2.3,Win32,60.0240096,5e62c473211a8305ca6411d2,611e07ecdcc96256ae8d5b80,611e79526d26d134376d3b00,
,,,,,,,0,79,79,329,1,X,3,4, ,2,,2500,2.5,5e62c473211a8305ca6411d2,001,2021-08-19_16h35.21.567,natb3,2021.2.3,Win32,60.0240096,5e62c473211a8305ca6411d2,611e07ecdcc96256ae8d5b80,611e79526d26d134376d3b00,
,,,,space,0.7848,,0,80,80,335,1,P,,,,,space,1500,1.5,5e62c473211a8305ca6411d2,001,2021-08-19_16h35.21.567,natb3,2021.2.3,Win32,60.0240096,5e62c473211a8305ca6411d2,611e07ecdcc96256ae8d5b80,611e79526d26d134376d3b00,
,,,,space,0.5008,,0,81,81,150,1,T, , , , ,space,2500,2.5,5e62c473211a8305ca6411d2,001,2021-08-19_16h35.21.567,natb3,2021.2.3,Win32,60.0240096,5e62c473211a8305ca6411d2,611e07ecdcc96256ae8d5b80,611e79526d26d134376d3b00,
,,,,space,0.4178,,0,82,82,134,1,J, , , , ,space,2000,2,5e62c473211a8305ca6411d2,001,2021-08-19_16h35.21.567,natb3,2021.2.3,Win32,60.0240096,5e62c473211a8305ca6411d2,611e07ecdcc96256ae8d5b80,611e79526d26d134376d3b00,
,,,,,,,0,83,83,31,1,X, , , , ,,1500,1.5,5e62c473211a8305ca6411d2,001,2021-08-19_16h35.21.567,natb3,2021.2.3,Win32,60.0240096,5e62c473211a8305ca6411d2,611e07ecdcc96256ae8d5b80,611e79526d26d134376d3b00,
,,,,space,0.4507,,0,84,84,196,1,F, , , , ,space,1500,1.5,5e62c473211a8305ca6411d2,001,2021-08-19_16h35.21.567,natb3,2021.2.3,Win32,60.0240096,5e62c473211a8305ca6411d2,611e07ecdcc96256ae8d5b80,611e79526d26d134376d3b00,
,,,,,,,0,85,85,191,1,X,1, ,3,4,,2500,2.5,5e62c473211a8305ca6411d2,001,2021-08-19_16h35.21.567,natb3,2021.2.3,Win32,60.0240096,5e62c473211a8305ca6411d2,611e07ecdcc96256ae8d5b80,611e79526d26d134376d3b00,
,,,,space,0.3882,,0,86,86,2,1,E, , , , ,space,2500,2.5,5e62c473211a8305ca6411d2,001,2021-08-19_16h35.21.567,natb3,2021.2.3,Win32,60.0240096,5e62c473211a8305ca6411d2,611e07ecdcc96256ae8d5b80,611e79526d26d134376d3b00,
,,,,,,,0,87,87,273,1,X, , , , ,,2000,2,5e62c473211a8305ca6411d2,001,2021-08-19_16h35.21.567,natb3,2021.2.3,Win32,60.0240096,5e62c473211a8305ca6411d2,611e07ecdcc96256ae8d5b80,611e79526d26d134376d3b00,
,,,,space,0.4011,,0,88,88,216,1,R, , , , ,space,1500,1.5,5e62c473211a8305ca6411d2,001,2021-08-19_16h35.21.567,natb3,2021.2.3,Win32,60.0240096,5e62c473211a8305ca6411d2,611e07ecdcc96256ae8d5b80,611e79526d26d134376d3b00,
,,,,space,0.401,,0,89,89,220,1,U, , , , ,space,2500,2.5,5e62c473211a8305ca6411d2,001,2021-08-19_16h35.21.567,natb3,2021.2.3,Win32,60.0240096,5e62c473211a8305ca6411d2,611e07ecdcc96256ae8d5b80,611e79526d26d134376d3b00,
,,,,space,0.3531,,0,90,90,269,1,A, , , , ,space,2500,2.5,5e62c473211a8305ca6411d2,001,2021-08-19_16h35.21.567,natb3,2021.2.3,Win32,60.0240096,5e62c473211a8305ca6411d2,611e07ecdcc96256ae8d5b80,611e79526d26d134376d3b00,
,,,,space,0.3673,,0,91,91,319,1,V, , , , ,space,2000,2,5e62c473211a8305ca6411d2,001,2021-08-19_16h35.21.567,natb3,2021.2.3,Win32,60.0240096,5e62c473211a8305ca6411d2,611e07ecdcc96256ae8d5b80,611e79526d26d134376d3b00,
,,,,space,0.5432,,0,92,92,189,1,O, , , , ,space,1500,1.5,5e62c473211a8305ca6411d2,001,2021-08-19_16h35.21.567,natb3,2021.2.3,Win32,60.0240096,5e62c473211a8305ca6411d2,611e07ecdcc96256ae8d5b80,611e79526d26d134376d3b00,
,,,,space,0.3835,,0,93,93,230,1,U, , , , ,space,1500,1.5,5e62c473211a8305ca6411d2,001,2021-08-19_16h35.21.567,natb3,2021.2.3,Win32,60.0240096,5e62c473211a8305ca6411d2,611e07ecdcc96256ae8d5b80,611e79526d26d134376d3b00,
,,,,,,,0,94,94,195,1,X, , , , ,,1500,1.5,5e62c473211a8305ca6411d2,001,2021-08-19_16h35.21.567,natb3,2021.2.3,Win32,60.0240096,5e62c473211a8305ca6411d2,611e07ecdcc96256ae8d5b80,611e79526d26d134376d3b00,
,,,,,,,0,95,95,166,1,X, , , , ,,2000,2,5e62c473211a8305ca6411d2,001,2021-08-19_16h35.21.567,natb3,2021.2.3,Win32,60.0240096,5e62c473211a8305ca6411d2,611e07ecdcc96256ae8d5b80,611e79526d26d134376d3b00,
,,,,,,,0,96,96,211,1,X, , , , ,,2500,2.5,5e62c473211a8305ca6411d2,001,2021-08-19_16h35.21.567,natb3,2021.2.3,Win32,60.0240096,5e62c473211a8305ca6411d2,611e07ecdcc96256ae8d5b80,611e79526d26d134376d3b00,
,,,,,,,0,97,97,43,1,X, ,6, ,2,,2500,2.5,5e62c473211a8305ca6411d2,001,2021-08-19_16h35.21.567,natb3,2021.2.3,Win32,60.0240096,5e62c473211a8305ca6411d2,611e07ecdcc96256ae8d5b80,611e79526d26d134376d3b00,
,,,,space,0.655,,0,98,98,303,1,A, , , , ,space,2000,2,5e62c473211a8305ca6411d2,001,2021-08-19_16h35.21.567,natb3,2021.2.3,Win32,60.0240096,5e62c473211a8305ca6411d2,611e07ecdcc96256ae8d5b80,611e79526d26d134376d3b00,
,,,,space,0.4095,,0,99,99,284,1,V, , , , ,space,2500,2.5,5e62c473211a8305ca6411d2,001,2021-08-19_16h35.21.567,natb3,2021.2.3,Win32,60.0240096,5e62c473211a8305ca6411d2,611e07ecdcc96256ae8d5b80,611e79526d26d134376d3b00,
,,,,space,0.49,,0,100,100,165,1,J, , , , ,space,2500,2.5,5e62c473211a8305ca6411d2,001,2021-08-19_16h35.21.567,natb3,2021.2.3,Win32,60.0240096,5e62c473211a8305ca6411d2,611e07ecdcc96256ae8d5b80,611e79526d26d134376d3b00,
,,,,space,0.3369,,0,101,101,256,1,Q, , , , ,space,2000,2,5e62c473211a8305ca6411d2,001,2021-08-19_16h35.21.567,natb3,2021.2.3,Win32,60.0240096,5e62c473211a8305ca6411d2,611e07ecdcc96256ae8d5b80,611e79526d26d134376d3b00,
,,,,space,0.3348,,0,102,102,300,1,O, , , , ,space,2500,2.5,5e62c473211a8305ca6411d2,001,2021-08-19_16h35.21.567,natb3,2021.2.3,Win32,60.0240096,5e62c473211a8305ca6411d2,611e07ecdcc96256ae8d5b80,611e79526d26d134376d3b00,
,,,,space,0.2715,,0,103,103,16,1,D, , , , ,space,1500,1.5,5e62c473211a8305ca6411d2,001,2021-08-19_16h35.21.567,natb3,2021.2.3,Win32,60.0240096,5e62c473211a8305ca6411d2,611e07ecdcc96256ae8d5b80,611e79526d26d134376d3b00,
,,,,space,0.4591,,0,104,104,198,1,H, , , , ,space,2500,2.5,5e62c473211a8305ca6411d2,001,2021-08-19_16h35.21.567,natb3,2021.2.3,Win32,60.0240096,5e62c473211a8305ca6411d2,611e07ecdcc96256ae8d5b80,611e79526d26d134376d3b00,
,,,,space,0.2904,,0,105,105,285,1,B, , , , ,space,1500,1.5,5e62c473211a8305ca6411d2,001,2021-08-19_16h35.21.567,natb3,2021.2.3,Win32,60.0240096,5e62c473211a8305ca6411d2,611e07ecdcc96256ae8d5b80,611e79526d26d134376d3b00,
,,,,space,0.3122,,0,106,106,102,1,X, ,6, , ,,1500,1.5,5e62c473211a8305ca6411d2,001,2021-08-19_16h35.21.567,natb3,2021.2.3,Win32,60.0240096,5e62c473211a8305ca6411d2,611e07ecdcc96256ae8d5b80,611e79526d26d134376d3b00,
,,,,space,0.484,,0,107,107,126,1,A, , , , ,space,2500,2.5,5e62c473211a8305ca6411d2,001,2021-08-19_16h35.21.567,natb3,2021.2.3,Win32,60.0240096,5e62c473211a8305ca6411d2,611e07ecdcc96256ae8d5b80,611e79526d26d134376d3b00,
,,,,,,,0,108,108,203,1,X, , , , ,,2500,2.5,5e62c473211a8305ca6411d2,001,2021-08-19_16h35.21.567,natb3,2021.2.3,Win32,60.0240096,5e62c473211a8305ca6411d2,611e07ecdcc96256ae8d5b80,611e79526d26d134376d3b00,
,,,,space,0.3996,,0,109,109,119,1,Y, , , , ,space,2500,2.5,5e62c473211a8305ca6411d2,001,2021-08-19_16h35.21.567,natb3,2021.2.3,Win32,60.0240096,5e62c473211a8305ca6411d2,611e07ecdcc96256ae8d5b80,611e79526d26d134376d3b00,
,,,,,,,0,110,110,74,1,X, ,4,3,2,,1500,1.5,5e62c473211a8305ca6411d2,001,2021-08-19_16h35.21.567,natb3,2021.2.3,Win32,60.0240096,5e62c473211a8305ca6411d2,611e07ecdcc96256ae8d5b80,611e79526d26d134376d3b00,
,,,,space,0.4003,,0,111,111,114,1,E, , , , ,space,2000,2,5e62c473211a8305ca6411d2,001,2021-08-19_16h35.21.567,natb3,2021.2.3,Win32,60.0240096,5e62c473211a8305ca6411d2,611e07ecdcc96256ae8d5b80,611e79526d26d134376d3b00,
,,,,space,0.6341,,0,112,112,1,1,W, , , , ,space,2000,2,5e62c473211a8305ca6411d2,001,2021-08-19_16h35.21.567,natb3,2021.2.3,Win32,60.0240096,5e62c473211a8305ca6411d2,611e07ecdcc96256ae8d5b80,611e79526d26d134376d3b00,
,,,,space,0.4341,,0,113,113,87,1,H, , , , ,space,1500,1.5,5e62c473211a8305ca6411d2,001,2021-08-19_16h35.21.567,natb3,2021.2.3,Win32,60.0240096,5e62c473211a8305ca6411d2,611e07ecdcc96256ae8d5b80,611e79526d26d134376d3b00,
,,,,space,0.5177,,0,114,114,183,1,R, , , , ,space,1500,1.5,5e62c473211a8305ca6411d2,001,2021-08-19_16h35.21.567,natb3,2021.2.3,Win32,60.0240096,5e62c473211a8305ca6411d2,611e07ecdcc96256ae8d5b80,611e79526d26d134376d3b00,
,,,,space,0.4168,,0,115,115,288,1,M, , , , ,space,1500,1.5,5e62c473211a8305ca6411d2,001,2021-08-19_16h35.21.567,natb3,2021.2.3,Win32,60.0240096,5e62c473211a8305ca6411d2,611e07ecdcc96256ae8d5b80,611e79526d26d134376d3b00,
,,,,space,0.627,,0,116,116,224,1,W, , , , ,space,1500,1.5,5e62c473211a8305ca6411d2,001,2021-08-19_16h35.21.567,natb3,2021.2.3,Win32,60.0240096,5e62c473211a8305ca6411d2,611e07ecdcc96256ae8d5b80,611e79526d26d134376d3b00,
,,,,space,0.4942,,0,117,117,30,1,N, , , , ,space,2500,2.5,5e62c473211a8305ca6411d2,001,2021-08-19_16h35.21.567,natb3,2021.2.3,Win32,60.0240096,5e62c473211a8305ca6411d2,611e07ecdcc96256ae8d5b80,611e79526d26d134376d3b00,
,,,,,,,0,118,118,93,1,X,5, ,7, ,,2500,2.5,5e62c473211a8305ca6411d2,001,2021-08-19_16h35.21.567,natb3,2021.2.3,Win32,60.0240096,5e62c473211a8305ca6411d2,611e07ecdcc96256ae8d5b80,611e79526d26d134376d3b00,
,,,,space,0.4502,,0,119,119,90,1,K, , , , ,space,2000,2,5e62c473211a8305ca6411d2,001,2021-08-19_16h35.21.567,natb3,2021.2.3,Win32,60.0240096,5e62c473211a8305ca6411d2,611e07ecdcc96256ae8d5b80,611e79526d26d134376d3b00,
,,,,space,0.4998,,0,120,120,103,1,W, , , , ,space,2000,2,5e62c473211a8305ca6411d2,001,2021-08-19_16h35.21.567,natb3,2021.2.3,Win32,60.0240096,5e62c473211a8305ca6411d2,611e07ecdcc96256ae8d5b80,611e79526d26d134376d3b00,
,,,,space,0.3668,,0,121,121,88,1,J, , , , ,space,2500,2.5,5e62c473211a8305ca6411d2,001,2021-08-19_16h35.21.567,natb3,2021.2.3,Win32,60.0240096,5e62c473211a8305ca6411d2,611e07ecdcc96256ae8d5b80,611e79526d26d134376d3b00,
,,,,space,0.3387,,0,122,122,161,1,F, , , , ,space,1500,1.5,5e62c473211a8305ca6411d2,001,2021-08-19_16h35.21.567,natb3,2021.2.3,Win32,60.0240096,5e62c473211a8305ca6411d2,611e07ecdcc96256ae8d5b80,611e79526d26d134376d3b00,
,,,,space,0.4672,,0,123,123,257,1,W, , , , ,space,2000,2,5e62c473211a8305ca6411d2,001,2021-08-19_16h35.21.567,natb3,2021.2.3,Win32,60.0240096,5e62c473211a8305ca6411d2,611e07ecdcc96256ae8d5b80,611e79526d26d134376d3b00,
,,,,space,0.4008,,0,124,124,58,1,L, , , , ,space,2000,2,5e62c473211a8305ca6411d2,001,2021-08-19_16h35.21.567,natb3,2021.2.3,Win32,60.0240096,5e62c473211a8305ca6411d2,611e07ecdcc96256ae8d5b80,611e79526d26d134376d3b00,
,,,,space,0.3837,,0,125,125,182,1,X, , , , ,,1500,1.5,5e62c473211a8305ca6411d2,001,2021-08-19_16h35.21.567,natb3,2021.2.3,Win32,60.0240096,5e62c473211a8305ca6411d2,611e07ecdcc96256ae8d5b80,611e79526d26d134376d3b00,
,,,,space,0.5073,,0,126,126,79,1,P, , , , ,space,2000,2,5e62c473211a8305ca6411d2,001,2021-08-19_16h35.21.567,natb3,2021.2.3,Win32,60.0240096,5e62c473211a8305ca6411d2,611e07ecdcc96256ae8d5b80,611e79526d26d134376d3b00,
,,,,space,0.567,,0,127,127,178,1,Q, , , , ,space,1500,1.5,5e62c473211a8305ca6411d2,001,2021-08-19_16h35.21.567,natb3,2021.2.3,Win32,60.0240096,5e62c473211a8305ca6411d2,611e07ecdcc96256ae8d5b80,611e79526d26d134376d3b00,
,,,,space,0.3755,,0,128,128,44,1,I, , , , ,space,2500,2.5,5e62c473211a8305ca6411d2,001,2021-08-19_16h35.21.567,natb3,2021.2.3,Win32,60.0240096,5e62c473211a8305ca6411d2,611e07ecdcc96256ae8d5b80,611e79526d26d134376d3b00,
,,,,,,,0,129,129,118,1,X, , , , ,,2000,2,5e62c473211a8305ca6411d2,001,2021-08-19_16h35.21.567,natb3,2021.2.3,Win32,60.0240096,5e62c473211a8305ca6411d2,611e07ecdcc96256ae8d5b80,611e79526d26d134376d3b00,
,,,,space,0.3518,,0,130,130,19,1,G, , , , ,space,1500,1.5,5e62c473211a8305ca6411d2,001,2021-08-19_16h35.21.567,natb3,2021.2.3,Win32,60.0240096,5e62c473211a8305ca6411d2,611e07ecdcc96256ae8d5b80,611e79526d26d134376d3b00,
,,,,,,,0,131,131,322,1,X, , ,1,6,,2000,2,5e62c473211a8305ca6411d2,001,2021-08-19_16h35.21.567,natb3,2021.2.3,Win32,60.0240096,5e62c473211a8305ca6411d2,611e07ecdcc96256ae8d5b80,611e79526d26d134376d3b00,
,,,,space,0.5588,,0,132,132,3,1,R, , , , ,space,2000,2,5e62c473211a8305ca6411d2,001,2021-08-19_16h35.21.567,natb3,2021.2.3,Win32,60.0240096,5e62c473211a8305ca6411d2,611e07ecdcc96256ae8d5b80,611e79526d26d134376d3b00,
,,,,space,0.5678,,0,133,133,136,1,Z, , , , ,space,2500,2.5,5e62c473211a8305ca6411d2,001,2021-08-19_16h35.21.567,natb3,2021.2.3,Win32,60.0240096,5e62c473211a8305ca6411d2,611e07ecdcc96256ae8d5b80,611e79526d26d134376d3b00,
,,,,space,0.5672,,0,134,134,28,1,V, , , , ,space,1500,1.5,5e62c473211a8305ca6411d2,001,2021-08-19_16h35.21.567,natb3,2021.2.3,Win32,60.0240096,5e62c473211a8305ca6411d2,611e07ecdcc96256ae8d5b80,611e79526d26d134376d3b00,
,,,,space,0.4176,,0,135,135,40,1,T, , , , ,space,1500,1.5,5e62c473211a8305ca6411d2,001,2021-08-19_16h35.21.567,natb3,2021.2.3,Win32,60.0240096,5e62c473211a8305ca6411d2,611e07ecdcc96256ae8d5b80,611e79526d26d134376d3b00,
,,,,space,0.4342,,0,136,136,275,1,G, , , , ,space,1500,1.5,5e62c473211a8305ca6411d2,001,2021-08-19_16h35.21.567,natb3,2021.2.3,Win32,60.0240096,5e62c473211a8305ca6411d2,611e07ecdcc96256ae8d5b80,611e79526d26d134376d3b00,
,,,,,,,0,137,137,138,1,X,8,5, ,3,,2000,2,5e62c473211a8305ca6411d2,001,2021-08-19_16h35.21.567,natb3,2021.2.3,Win32,60.0240096,5e62c473211a8305ca6411d2,611e07ecdcc96256ae8d5b80,611e79526d26d134376d3b00,
,,,,space,0.3592,,0,138,138,71,1,R, , , , ,space,2500,2.5,5e62c473211a8305ca6411d2,001,2021-08-19_16h35.21.567,natb3,2021.2.3,Win32,60.0240096,5e62c473211a8305ca6411d2,611e07ecdcc96256ae8d5b80,611e79526d26d134376d3b00,
,,,,space,0.3992,,0,139,139,328,1,R, , , , ,space,1500,1.5,5e62c473211a8305ca6411d2,001,2021-08-19_16h35.21.567,natb3,2021.2.3,Win32,60.0240096,5e62c473211a8305ca6411d2,611e07ecdcc96256ae8d5b80,611e79526d26d134376d3b00,
,,,,,,,0,140,140,318,1,X, , , , ,,1500,1.5,5e62c473211a8305ca6411d2,001,2021-08-19_16h35.21.567,natb3,2021.2.3,Win32,60.0240096,5e62c473211a8305ca6411d2,611e07ecdcc96256ae8d5b80,611e79526d26d134376d3b00,
,,,,space,0.3695,,0,141,141,181,1,E, , , , ,space,1500,1.5,5e62c473211a8305ca6411d2,001,2021-08-19_16h35.21.567,natb3,2021.2.3,Win32,60.0240096,5e62c473211a8305ca6411d2,611e07ecdcc96256ae8d5b80,611e79526d26d134376d3b00,
,,,,space,0.4172,,0,142,142,164,1,H, , , , ,space,2500,2.5,5e62c473211a8305ca6411d2,001,2021-08-19_16h35.21.567,natb3,2021.2.3,Win32,60.0240096,5e62c473211a8305ca6411d2,611e07ecdcc96256ae8d5b80,611e79526d26d134376d3b00,
,,,,space,0.4168,,0,143,143,246,1,L, , , , ,space,2500,2.5,5e62c473211a8305ca6411d2,001,2021-08-19_16h35.21.567,natb3,2021.2.3,Win32,60.0240096,5e62c473211a8305ca6411d2,611e07ecdcc96256ae8d5b80,611e79526d26d134376d3b00,
,,,,space,0.3835,,0,144,144,296,1,Y, , , , ,space,2500,2.5,5e62c473211a8305ca6411d2,001,2021-08-19_16h35.21.567,natb3,2021.2.3,Win32,60.0240096,5e62c473211a8305ca6411d2,611e07ecdcc96256ae8d5b80,611e79526d26d134376d3b00,
,,,,space,0.4169,,0,145,145,159,1,S, , , , ,space,2500,2.5,5e62c473211a8305ca6411d2,001,2021-08-19_16h35.21.567,natb3,2021.2.3,Win32,60.0240096,5e62c473211a8305ca6411d2,611e07ecdcc96256ae8d5b80,611e79526d26d134376d3b00,
,,,,space,0.4668,,0,146,146,235,1,A, , , , ,space,1500,1.5,5e62c473211a8305ca6411d2,001,2021-08-19_16h35.21.567,natb3,2021.2.3,Win32,60.0240096,5e62c473211a8305ca6411d2,611e07ecdcc96256ae8d5b80,611e79526d26d134376d3b00,
,,,,,,,0,147,147,12,1,X, , , , ,,1500,1.5,5e62c473211a8305ca6411d2,001,2021-08-19_16h35.21.567,natb3,2021.2.3,Win32,60.0240096,5e62c473211a8305ca6411d2,611e07ecdcc96256ae8d5b80,611e79526d26d134376d3b00,
,,,,space,0.5342,,0,148,148,140,1,B, , , , ,space,2500,2.5,5e62c473211a8305ca6411d2,001,2021-08-19_16h35.21.567,natb3,2021.2.3,Win32,60.0240096,5e62c473211a8305ca6411d2,611e07ecdcc96256ae8d5b80,611e79526d26d134376d3b00,
,,,,,,,0,149,149,259,1,X,8, , ,3,,2500,2.5,5e62c473211a8305ca6411d2,001,2021-08-19_16h35.21.567,natb3,2021.2.3,Win32,60.0240096,5e62c473211a8305ca6411d2,611e07ecdcc96256ae8d5b80,611e79526d26d134376d3b00,
,,,,space,0.5005,,0,150,150,70,1,E, , , , ,space,2500,2.5,5e62c473211a8305ca6411d2,001,2021-08-19_16h35.21.567,natb3,2021.2.3,Win32,60.0240096,5e62c473211a8305ca6411d2,611e07ecdcc96256ae8d5b80,611e79526d26d134376d3b00,
,,,,space,0.4678,,0,151,151,176,1,N, , , , ,space,1500,1.5,5e62c473211a8305ca6411d2,001,2021-08-19_16h35.21.567,natb3,2021.2.3,Win32,60.0240096,5e62c473211a8305ca6411d2,611e07ecdcc96256ae8d5b80,611e79526d26d134376d3b00,
,,,,space,0.3676,,0,152,152,169,1,L, , , , ,space,2500,2.5,5e62c473211a8305ca6411d2,001,2021-08-19_16h35.21.567,natb3,2021.2.3,Win32,60.0240096,5e62c473211a8305ca6411d2,611e07ecdcc96256ae8d5b80,611e79526d26d134376d3b00,
,,,,space,0.3515,,0,153,153,302,1,X, , , , ,,2000,2,5e62c473211a8305ca6411d2,001,2021-08-19_16h35.21.567,natb3,2021.2.3,Win32,60.0240096,5e62c473211a8305ca6411d2,611e07ecdcc96256ae8d5b80,611e79526d26d134376d3b00,
,,,,,,,0,154,154,35,1,X, , , , ,,2500,2.5,5e62c473211a8305ca6411d2,001,2021-08-19_16h35.21.567,natb3,2021.2.3,Win32,60.0240096,5e62c473211a8305ca6411d2,611e07ecdcc96256ae8d5b80,611e79526d26d134376d3b00,
,,,,space,0.4149,,0,155,155,111,1,O, , , , ,space,2000,2,5e62c473211a8305ca6411d2,001,2021-08-19_16h35.21.567,natb3,2021.2.3,Win32,60.0240096,5e62c473211a8305ca6411d2,611e07ecdcc96256ae8d5b80,611e79526d26d134376d3b00,
,,,,space,0.464,,0,156,156,326,1,W, , , , ,space,2000,2,5e62c473211a8305ca6411d2,001,2021-08-19_16h35.21.567,natb3,2021.2.3,Win32,60.0240096,5e62c473211a8305ca6411d2,611e07ecdcc96256ae8d5b80,611e79526d26d134376d3b00,
,,,,space,0.6378,,0,157,157,17,1,F, , , , ,space,2500,2.5,5e62c473211a8305ca6411d2,001,2021-08-19_16h35.21.567,natb3,2021.2.3,Win32,60.0240096,5e62c473211a8305ca6411d2,611e07ecdcc96256ae8d5b80,611e79526d26d134376d3b00,
,,,,space,0.4353,,0,158,158,124,1,P, , , , ,space,2000,2,5e62c473211a8305ca6411d2,001,2021-08-19_16h35.21.567,natb3,2021.2.3,Win32,60.0240096,5e62c473211a8305ca6411d2,611e07ecdcc96256ae8d5b80,611e79526d26d134376d3b00,
,,,,space,0.5059,,0,159,159,209,1,N, , , , ,space,2000,2,5e62c473211a8305ca6411d2,001,2021-08-19_16h35.21.567,natb3,2021.2.3,Win32,60.0240096,5e62c473211a8305ca6411d2,611e07ecdcc96256ae8d5b80,611e79526d26d134376d3b00,
,,,,space,0.6746,,0,160,160,121,1,I, , , , ,space,2000,2,5e62c473211a8305ca6411d2,001,2021-08-19_16h35.21.567,natb3,2021.2.3,Win32,60.0240096,5e62c473211a8305ca6411d2,611e07ecdcc96256ae8d5b80,611e79526d26d134376d3b00,
,,,,space,0.6232,,0,161,161,265,1,I, , , , ,space,2000,2,5e62c473211a8305ca6411d2,001,2021-08-19_16h35.21.567,natb3,2021.2.3,Win32,60.0240096,5e62c473211a8305ca6411d2,611e07ecdcc96256ae8d5b80,611e79526d26d134376d3b00,
,,,,space,0.6027,,0,162,162,334,1,O, , , , ,space,1500,1.5,5e62c473211a8305ca6411d2,001,2021-08-19_16h35.21.567,natb3,2021.2.3,Win32,60.0240096,5e62c473211a8305ca6411d2,611e07ecdcc96256ae8d5b80,611e79526d26d134376d3b00,
,,,,space,0.4043,,0,163,163,286,1,N, , , , ,space,1500,1.5,5e62c473211a8305ca6411d2,001,2021-08-19_16h35.21.567,natb3,2021.2.3,Win32,60.0240096,5e62c473211a8305ca6411d2,611e07ecdcc96256ae8d5b80,611e79526d26d134376d3b00,
,,,,space,0.3595,,0,164,164,264,1,U, , , , ,space,2000,2,5e62c473211a8305ca6411d2,001,2021-08-19_16h35.21.567,natb3,2021.2.3,Win32,60.0240096,5e62c473211a8305ca6411d2,611e07ecdcc96256ae8d5b80,611e79526d26d134376d3b00,
,,,,space,0.3092,,0,165,165,253,1,N, , , , ,space,2500,2.5,5e62c473211a8305ca6411d2,001,2021-08-19_16h35.21.567,natb3,2021.2.3,Win32,60.0240096,5e62c473211a8305ca6411d2,611e07ecdcc96256ae8d5b80,611e79526d26d134376d3b00,
,,,,space,0.4175,,0,166,166,240,1,F, , , , ,space,2500,2.5,5e62c473211a8305ca6411d2,001,2021-08-19_16h35.21.567,natb3,2021.2.3,Win32,60.0240096,5e62c473211a8305ca6411d2,611e07ecdcc96256ae8d5b80,611e79526d26d134376d3b00,
,,,,space,0.3344,space,0,167,167,282,1,X, , , , ,,2500,2.5,5e62c473211a8305ca6411d2,001,2021-08-19_16h35.21.567,natb3,2021.2.3,Win32,60.0240096,5e62c473211a8305ca6411d2,611e07ecdcc96256ae8d5b80,611e79526d26d134376d3b00,0.1688
,,,,space,0.7667,,0,168,168,262,1,Y, , , , ,space,2500,2.5,5e62c473211a8305ca6411d2,001,2021-08-19_16h35.21.567,natb3,2021.2.3,Win32,60.0240096,5e62c473211a8305ca6411d2,611e07ecdcc96256ae8d5b80,611e79526d26d134376d3b00,
,,,,space,0.4881,,0,169,169,91,1,L, , , , ,space,2000,2,5e62c473211a8305ca6411d2,001,2021-08-19_16h35.21.567,natb3,2021.2.3,Win32,60.0240096,5e62c473211a8305ca6411d2,611e07ecdcc96256ae8d5b80,611e79526d26d134376d3b00,
,,,,space,0.4062,,0,170,170,321,1,N, , , , ,space,2000,2,5e62c473211a8305ca6411d2,001,2021-08-19_16h35.21.567,natb3,2021.2.3,Win32,60.0240096,5e62c473211a8305ca6411d2,611e07ecdcc96256ae8d5b80,611e79526d26d134376d3b00,
,,,,space,0.3952,,0,171,171,109,1,U, , , , ,space,1500,1.5,5e62c473211a8305ca6411d2,001,2021-08-19_16h35.21.567,natb3,2021.2.3,Win32,60.0240096,5e62c473211a8305ca6411d2,611e07ecdcc96256ae8d5b80,611e79526d26d134376d3b00,
,,,,space,0.4837,,0,172,172,180,1,W, , , , ,space,2000,2,5e62c473211a8305ca6411d2,001,2021-08-19_16h35.21.567,natb3,2021.2.3,Win32,60.0240096,5e62c473211a8305ca6411d2,611e07ecdcc96256ae8d5b80,611e79526d26d134376d3b00,
,,,,,,,0,173,173,78,1,X, , , , ,,2000,2,5e62c473211a8305ca6411d2,001,2021-08-19_16h35.21.567,natb3,2021.2.3,Win32,60.0240096,5e62c473211a8305ca6411d2,611e07ecdcc96256ae8d5b80,611e79526d26d134376d3b00,
,,,,space,0.3842,,0,174,174,314,1,L, , , , ,space,1500,1.5,5e62c473211a8305ca6411d2,001,2021-08-19_16h35.21.567,natb3,2021.2.3,Win32,60.0240096,5e62c473211a8305ca6411d2,611e07ecdcc96256ae8d5b80,611e79526d26d134376d3b00,
,,,,space,0.6213,,0,175,175,37,1,E, , , , ,space,2500,2.5,5e62c473211a8305ca6411d2,001,2021-08-19_16h35.21.567,natb3,2021.2.3,Win32,60.0240096,5e62c473211a8305ca6411d2,611e07ecdcc96256ae8d5b80,611e79526d26d134376d3b00,
,,,,space,0.3678,,0,176,176,55,1,H, , , , ,space,2500,2.5,5e62c473211a8305ca6411d2,001,2021-08-19_16h35.21.567,natb3,2021.2.3,Win32,60.0240096,5e62c473211a8305ca6411d2,611e07ecdcc96256ae8d5b80,611e79526d26d134376d3b00,
,,,,space,0.4436,,0,177,177,160,1,D, , , , ,space,1500,1.5,5e62c473211a8305ca6411d2,001,2021-08-19_16h35.21.567,natb3,2021.2.3,Win32,60.0240096,5e62c473211a8305ca6411d2,611e07ecdcc96256ae8d5b80,611e79526d26d134376d3b00,
,,,,space,0.374,,0,178,178,48,1,A, , , , ,space,2500,2.5,5e62c473211a8305ca6411d2,001,2021-08-19_16h35.21.567,natb3,2021.2.3,Win32,60.0240096,5e62c473211a8305ca6411d2,611e07ecdcc96256ae8d5b80,611e79526d26d134376d3b00,
,,,,space,0.4398,,0,179,179,245,1,K, , , , ,space,2000,2,5e62c473211a8305ca6411d2,001,2021-08-19_16h35.21.567,natb3,2021.2.3,Win32,60.0240096,5e62c473211a8305ca6411d2,611e07ecdcc96256ae8d5b80,611e79526d26d134376d3b00,
,,,,space,0.4509,,0,180,180,104,1,E, , , , ,space,2000,2,5e62c473211a8305ca6411d2,001,2021-08-19_16h35.21.567,natb3,2021.2.3,Win32,60.0240096,5e62c473211a8305ca6411d2,611e07ecdcc96256ae8d5b80,611e79526d26d134376d3b00,
,,,,space,0.3199,,0,181,181,297,1,U, , , , ,space,2000,2,5e62c473211a8305ca6411d2,001,2021-08-19_16h35.21.567,natb3,2021.2.3,Win32,60.0240096,5e62c473211a8305ca6411d2,611e07ecdcc96256ae8d5b80,611e79526d26d134376d3b00,
,,,,space,0.3865,,0,182,182,14,1,S, , , , ,space,2500,2.5,5e62c473211a8305ca6411d2,001,2021-08-19_16h35.21.567,natb3,2021.2.3,Win32,60.0240096,5e62c473211a8305ca6411d2,611e07ecdcc96256ae8d5b80,611e79526d26d134376d3b00,
,,,,space,0.5789,,0,183,183,208,1,B, , , , ,space,1500,1.5,5e62c473211a8305ca6411d2,001,2021-08-19_16h35.21.567,natb3,2021.2.3,Win32,60.0240096,5e62c473211a8305ca6411d2,611e07ecdcc96256ae8d5b80,611e79526d26d134376d3b00,
,,,,,,,0,184,184,168,1,X, , , , ,,2500,2.5,5e62c473211a8305ca6411d2,001,2021-08-19_16h35.21.567,natb3,2021.2.3,Win32,60.0240096,5e62c473211a8305ca6411d2,611e07ecdcc96256ae8d5b80,611e79526d26d134376d3b00,
,,,,space,0.4172,,0,185,185,143,1,M, , , , ,space,2500,2.5,5e62c473211a8305ca6411d2,001,2021-08-19_16h35.21.567,natb3,2021.2.3,Win32,60.0240096,5e62c473211a8305ca6411d2,611e07ecdcc96256ae8d5b80,611e79526d26d134376d3b00,
,,,,,,,0,186,186,252,1,X,3, ,6,9,,2000,2,5e62c473211a8305ca6411d2,001,2021-08-19_16h35.21.567,natb3,2021.2.3,Win32,60.0240096,5e62c473211a8305ca6411d2,611e07ecdcc96256ae8d5b80,611e79526d26d134376d3b00,
,,,,,,,0,187,187,145,1,X, , , , ,,2000,2,5e62c473211a8305ca6411d2,001,2021-08-19_16h35.21.567,natb3,2021.2.3,Win32,60.0240096,5e62c473211a8305ca6411d2,611e07ecdcc96256ae8d5b80,611e79526d26d134376d3b00,
,,,,space,0.4354,,0,188,188,47,1,P, , , , ,space,2000,2,5e62c473211a8305ca6411d2,001,2021-08-19_16h35.21.567,natb3,2021.2.3,Win32,60.0240096,5e62c473211a8305ca6411d2,611e07ecdcc96256ae8d5b80,611e79526d26d134376d3b00,
,,,,space,0.5607,,0,189,189,25,1,Z, , , , ,space,2500,2.5,5e62c473211a8305ca6411d2,001,2021-08-19_16h35.21.567,natb3,2021.2.3,Win32,60.0240096,5e62c473211a8305ca6411d2,611e07ecdcc96256ae8d5b80,611e79526d26d134376d3b00,
,,,,space,0.4558,,0,190,190,72,1,T, , , , ,space,1500,1.5,5e62c473211a8305ca6411d2,001,2021-08-19_16h35.21.567,natb3,2021.2.3,Win32,60.0240096,5e62c473211a8305ca6411d2,611e07ecdcc96256ae8d5b80,611e79526d26d134376d3b00,
,,,,space,0.3669,,0,191,191,77,1,O, , , , ,space,2000,2,5e62c473211a8305ca6411d2,001,2021-08-19_16h35.21.567,natb3,2021.2.3,Win32,60.0240096,5e62c473211a8305ca6411d2,611e07ecdcc96256ae8d5b80,611e79526d26d134376d3b00,
,,,,space,0.6013,,0,192,192,68,1,W, , , , ,space,2500,2.5,5e62c473211a8305ca6411d2,001,2021-08-19_16h35.21.567,natb3,2021.2.3,Win32,60.0240096,5e62c473211a8305ca6411d2,611e07ecdcc96256ae8d5b80,611e79526d26d134376d3b00,
,,,,space,0.3829,,0,193,193,317,1,C, , , , ,space,2000,2,5e62c473211a8305ca6411d2,001,2021-08-19_16h35.21.567,natb3,2021.2.3,Win32,60.0240096,5e62c473211a8305ca6411d2,611e07ecdcc96256ae8d5b80,611e79526d26d134376d3b00,
,,,,space,0.4069,,0,194,194,258,1,E, , , , ,space,1500,1.5,5e62c473211a8305ca6411d2,001,2021-08-19_16h35.21.567,natb3,2021.2.3,Win32,60.0240096,5e62c473211a8305ca6411d2,611e07ecdcc96256ae8d5b80,611e79526d26d134376d3b00,
,,,,,,,0,195,195,84,1,X, , , , ,,2000,2,5e62c473211a8305ca6411d2,001,2021-08-19_16h35.21.567,natb3,2021.2.3,Win32,60.0240096,5e62c473211a8305ca6411d2,611e07ecdcc96256ae8d5b80,611e79526d26d134376d3b00,
,,,,,,,0,196,196,315,1,X, , , , ,,2500,2.5,5e62c473211a8305ca6411d2,001,2021-08-19_16h35.21.567,natb3,2021.2.3,Win32,60.0240096,5e62c473211a8305ca6411d2,611e07ecdcc96256ae8d5b80,611e79526d26d134376d3b00,
,,,,space,0.4938,,0,197,197,298,1,I, , , , ,space,2000,2,5e62c473211a8305ca6411d2,001,2021-08-19_16h35.21.567,natb3,2021.2.3,Win32,60.0240096,5e62c473211a8305ca6411d2,611e07ecdcc96256ae8d5b80,611e79526d26d134376d3b00,
,,,,space,0.3271,,0,198,198,38,1,R, , , , ,space,2500,2.5,5e62c473211a8305ca6411d2,001,2021-08-19_16h35.21.567,natb3,2021.2.3,Win32,60.0240096,5e62c473211a8305ca6411d2,611e07ecdcc96256ae8d5b80,611e79526d26d134376d3b00,
,,,,space,0.7177,,0,199,199,42,1,U, , , , ,space,1500,1.5,5e62c473211a8305ca6411d2,001,2021-08-19_16h35.21.567,natb3,2021.2.3,Win32,60.0240096,5e62c473211a8305ca6411d2,611e07ecdcc96256ae8d5b80,611e79526d26d134376d3b00,
,,,,space,0.5057,,0,200,200,204,1,Z, , , , ,space,2000,2,5e62c473211a8305ca6411d2,001,2021-08-19_16h35.21.567,natb3,2021.2.3,Win32,60.0240096,5e62c473211a8305ca6411d2,611e07ecdcc96256ae8d5b80,611e79526d26d134376d3b00,
,,,,space,0.5668,,0,201,201,210,1,M, , , , ,space,1500,1.5,5e62c473211a8305ca6411d2,001,2021-08-19_16h35.21.567,natb3,2021.2.3,Win32,60.0240096,5e62c473211a8305ca6411d2,611e07ecdcc96256ae8d5b80,611e79526d26d134376d3b00,
,,,,space,0.357,,0,202,202,215,1,E, , , , ,space,2500,2.5,5e62c473211a8305ca6411d2,001,2021-08-19_16h35.21.567,natb3,2021.2.3,Win32,60.0240096,5e62c473211a8305ca6411d2,611e07ecdcc96256ae8d5b80,611e79526d26d134376d3b00,
,,,,,,,0,203,203,233,1,X, ,2, ,5,,1500,1.5,5e62c473211a8305ca6411d2,001,2021-08-19_16h35.21.567,natb3,2021.2.3,Win32,60.0240096,5e62c473211a8305ca6411d2,611e07ecdcc96256ae8d5b80,611e79526d26d134376d3b00,
,,,,space,0.3589,,0,204,204,266,1,O, , , , ,space,1500,1.5,5e62c473211a8305ca6411d2,001,2021-08-19_16h35.21.567,natb3,2021.2.3,Win32,60.0240096,5e62c473211a8305ca6411d2,611e07ecdcc96256ae8d5b80,611e79526d26d134376d3b00,
,,,,space,0.4681,,0,205,205,97,1,B, , , , ,space,2500,2.5,5e62c473211a8305ca6411d2,001,2021-08-19_16h35.21.567,natb3,2021.2.3,Win32,60.0240096,5e62c473211a8305ca6411d2,611e07ecdcc96256ae8d5b80,611e79526d26d134376d3b00,
,,,,,,,0,206,206,107,1,X,9,3, ,2,,2000,2,5e62c473211a8305ca6411d2,001,2021-08-19_16h35.21.567,natb3,2021.2.3,Win32,60.0240096,5e62c473211a8305ca6411d2,611e07ecdcc96256ae8d5b80,611e79526d26d134376d3b00,
,,,,space,0.5396,,0,207,207,194,1,D, , , , ,space,2000,2,5e62c473211a8305ca6411d2,001,2021-08-19_16h35.21.567,natb3,2021.2.3,Win32,60.0240096,5e62c473211a8305ca6411d2,611e07ecdcc96256ae8d5b80,611e79526d26d134376d3b00,
,,,,,,,0,208,208,287,1,X, ,2, ,9,,2000,2,5e62c473211a8305ca6411d2,001,2021-08-19_16h35.21.567,natb3,2021.2.3,Win32,60.0240096,5e62c473211a8305ca6411d2,611e07ecdcc96256ae8d5b80,611e79526d26d134376d3b00,
,,,,space,0.5411,,0,209,209,276,1,H, , , , ,space,2000,2,5e62c473211a8305ca6411d2,001,2021-08-19_16h35.21.567,natb3,2021.2.3,Win32,60.0240096,5e62c473211a8305ca6411d2,611e07ecdcc96256ae8d5b80,611e79526d26d134376d3b00,
,,,,space,0.4103,,0,210,210,225,1,E, , , , ,space,2000,2,5e62c473211a8305ca6411d2,001,2021-08-19_16h35.21.567,natb3,2021.2.3,Win32,60.0240096,5e62c473211a8305ca6411d2,611e07ecdcc96256ae8d5b80,611e79526d26d134376d3b00,
,,,,space,0.6508,,0,211,211,227,1,T, , , , ,space,1500,1.5,5e62c473211a8305ca6411d2,001,2021-08-19_16h35.21.567,natb3,2021.2.3,Win32,60.0240096,5e62c473211a8305ca6411d2,611e07ecdcc96256ae8d5b80,611e79526d26d134376d3b00,
,,,,space,0.4362,,0,212,212,186,1,U, , , , ,space,2500,2.5,5e62c473211a8305ca6411d2,001,2021-08-19_16h35.21.567,natb3,2021.2.3,Win32,60.0240096,5e62c473211a8305ca6411d2,611e07ecdcc96256ae8d5b80,611e79526d26d134376d3b00,
,,,,space,0.404,,0,213,213,67,1,Q, , , , ,space,2000,2,5e62c473211a8305ca6411d2,001,2021-08-19_16h35.21.567,natb3,2021.2.3,Win32,60.0240096,5e62c473211a8305ca6411d2,611e07ecdcc96256ae8d5b80,611e79526d26d134376d3b00,
,,,,space,0.4724,,0,214,214,36,1,W, , , , ,space,2000,2,5e62c473211a8305ca6411d2,001,2021-08-19_16h35.21.567,natb3,2021.2.3,Win32,60.0240096,5e62c473211a8305ca6411d2,611e07ecdcc96256ae8d5b80,611e79526d26d134376d3b00,
,,,,,,,0,215,215,327,1,E, , , , ,space,1500,1.5,5e62c473211a8305ca6411d2,001,2021-08-19_16h35.21.567,natb3,2021.2.3,Win32,60.0240096,5e62c473211a8305ca6411d2,611e07ecdcc96256ae8d5b80,611e79526d26d134376d3b00,
,,,,space,0.3452,,0,216,216,283,1,C, , , , ,space,1500,1.5,5e62c473211a8305ca6411d2,001,2021-08-19_16h35.21.567,natb3,2021.2.3,Win32,60.0240096,5e62c473211a8305ca6411d2,611e07ecdcc96256ae8d5b80,611e79526d26d134376d3b00,
,,,,space,0.3564,,0,217,217,214,1,W, , , , ,space,2000,2,5e62c473211a8305ca6411d2,001,2021-08-19_16h35.21.567,natb3,2021.2.3,Win32,60.0240096,5e62c473211a8305ca6411d2,611e07ecdcc96256ae8d5b80,611e79526d26d134376d3b00,
,,,,space,0.3494,,0,218,218,76,1,I, , , , ,space,2000,2,5e62c473211a8305ca6411d2,001,2021-08-19_16h35.21.567,natb3,2021.2.3,Win32,60.0240096,5e62c473211a8305ca6411d2,611e07ecdcc96256ae8d5b80,611e79526d26d134376d3b00,
,,,,space,0.3177,,0,219,219,41,1,Y, , , , ,space,2500,2.5,5e62c473211a8305ca6411d2,001,2021-08-19_16h35.21.567,natb3,2021.2.3,Win32,60.0240096,5e62c473211a8305ca6411d2,611e07ecdcc96256ae8d5b80,611e79526d26d134376d3b00,
,,,,space,0.4079,,0,220,220,331,1,Y, , , , ,space,2500,2.5,5e62c473211a8305ca6411d2,001,2021-08-19_16h35.21.567,natb3,2021.2.3,Win32,60.0240096,5e62c473211a8305ca6411d2,611e07ecdcc96256ae8d5b80,611e79526d26d134376d3b00,
,,,,space,0.3193,,0,221,221,223,1,Q, , , , ,space,2000,2,5e62c473211a8305ca6411d2,001,2021-08-19_16h35.21.567,natb3,2021.2.3,Win32,60.0240096,5e62c473211a8305ca6411d2,611e07ecdcc96256ae8d5b80,611e79526d26d134376d3b00,
,,,,space,0.3262,,0,222,222,242,1,H, , , , ,space,2500,2.5,5e62c473211a8305ca6411d2,001,2021-08-19_16h35.21.567,natb3,2021.2.3,Win32,60.0240096,5e62c473211a8305ca6411d2,611e07ecdcc96256ae8d5b80,611e79526d26d134376d3b00,
,,,,space,0.3177,,0,223,223,99,1,N, , , , ,space,2500,2.5,5e62c473211a8305ca6411d2,001,2021-08-19_16h35.21.567,natb3,2021.2.3,Win32,60.0240096,5e62c473211a8305ca6411d2,611e07ecdcc96256ae8d5b80,611e79526d26d134376d3b00,
,,,,space,0.4009,,0,224,224,222,1,O, , , , ,space,2000,2,5e62c473211a8305ca6411d2,001,2021-08-19_16h35.21.567,natb3,2021.2.3,Win32,60.0240096,5e62c473211a8305ca6411d2,611e07ecdcc96256ae8d5b80,611e79526d26d134376d3b00,
,,,,space,0.9014,,0,225,225,15,1,X, , , , ,,1500,1.5,5e62c473211a8305ca6411d2,001,2021-08-19_16h35.21.567,natb3,2021.2.3,Win32,60.0240096,5e62c473211a8305ca6411d2,611e07ecdcc96256ae8d5b80,611e79526d26d134376d3b00,
,,,,,,,0,226,226,18,1,X, ,2,5,8,,2500,2.5,5e62c473211a8305ca6411d2,001,2021-08-19_16h35.21.567,natb3,2021.2.3,Win32,60.0240096,5e62c473211a8305ca6411d2,611e07ecdcc96256ae8d5b80,611e79526d26d134376d3b00,
,,,,,,,0,227,227,98,1,X, , , , ,,2500,2.5,5e62c473211a8305ca6411d2,001,2021-08-19_16h35.21.567,natb3,2021.2.3,Win32,60.0240096,5e62c473211a8305ca6411d2,611e07ecdcc96256ae8d5b80,611e79526d26d134376d3b00,
,,,,space,0.4076,,0,228,228,190,1,P, , , , ,space,2000,2,5e62c473211a8305ca6411d2,001,2021-08-19_16h35.21.567,natb3,2021.2.3,Win32,60.0240096,5e62c473211a8305ca6411d2,611e07ecdcc96256ae8d5b80,611e79526d26d134376d3b00,
,,,,space,0.7687,,0,229,229,251,1,B, , , , ,space,1500,1.5,5e62c473211a8305ca6411d2,001,2021-08-19_16h35.21.567,natb3,2021.2.3,Win32,60.0240096,5e62c473211a8305ca6411d2,611e07ecdcc96256ae8d5b80,611e79526d26d134376d3b00,
,,,,space,0.4348,,0,230,230,120,1,U, , , , ,space,1500,1.5,5e62c473211a8305ca6411d2,001,2021-08-19_16h35.21.567,natb3,2021.2.3,Win32,60.0240096,5e62c473211a8305ca6411d2,611e07ecdcc96256ae8d5b80,611e79526d26d134376d3b00,
,,,,,,,0,231,231,23,1,X,1, ,5, ,,2000,2,5e62c473211a8305ca6411d2,001,2021-08-19_16h35.21.567,natb3,2021.2.3,Win32,60.0240096,5e62c473211a8305ca6411d2,611e07ecdcc96256ae8d5b80,611e79526d26d134376d3b00,
,,,,,,,0,232,232,218,1,X,1,3, ,8,,1500,1.5,5e62c473211a8305ca6411d2,001,2021-08-19_16h35.21.567,natb3,2021.2.3,Win32,60.0240096,5e62c473211a8305ca6411d2,611e07ecdcc96256ae8d5b80,611e79526d26d134376d3b00,
,,,,space,0.4427,,0,233,233,156,1,P, , , , ,space,1500,1.5,5e62c473211a8305ca6411d2,001,2021-08-19_16h35.21.567,natb3,2021.2.3,Win32,60.0240096,5e62c473211a8305ca6411d2,611e07ecdcc96256ae8d5b80,611e79526d26d134376d3b00,
,,,,space,0.5431,,0,234,234,152,1,U, , , , ,space,2000,2,5e62c473211a8305ca6411d2,001,2021-08-19_16h35.21.567,natb3,2021.2.3,Win32,60.0240096,5e62c473211a8305ca6411d2,611e07ecdcc96256ae8d5b80,611e79526d26d134376d3b00,
,,,,space,0.6204,,0,235,235,11,1,P, , , , ,space,2500,2.5,5e62c473211a8305ca6411d2,001,2021-08-19_16h35.21.567,natb3,2021.2.3,Win32,60.0240096,5e62c473211a8305ca6411d2,611e07ecdcc96256ae8d5b80,611e79526d26d134376d3b00,
,,,,space,0.5829,,0,236,236,112,1,Q, , , , ,space,2500,2.5,5e62c473211a8305ca6411d2,001,2021-08-19_16h35.21.567,natb3,2021.2.3,Win32,60.0240096,5e62c473211a8305ca6411d2,611e07ecdcc96256ae8d5b80,611e79526d26d134376d3b00,
,,,,,,,0,237,237,171,1,X, , , , ,,1500,1.5,5e62c473211a8305ca6411d2,001,2021-08-19_16h35.21.567,natb3,2021.2.3,Win32,60.0240096,5e62c473211a8305ca6411d2,611e07ecdcc96256ae8d5b80,611e79526d26d134376d3b00,
,,,,space,0.4666,,0,238,238,29,1,B, , , , ,space,1500,1.5,5e62c473211a8305ca6411d2,001,2021-08-19_16h35.21.567,natb3,2021.2.3,Win32,60.0240096,5e62c473211a8305ca6411d2,611e07ecdcc96256ae8d5b80,611e79526d26d134376d3b00,
,,,,,,,0,239,239,122,1,X,1, , ,8,,1500,1.5,5e62c473211a8305ca6411d2,001,2021-08-19_16h35.21.567,natb3,2021.2.3,Win32,60.0240096,5e62c473211a8305ca6411d2,611e07ecdcc96256ae8d5b80,611e79526d26d134376d3b00,
,,,,,,,0,240,240,129,1,X,2,3,5, ,,1500,1.5,5e62c473211a8305ca6411d2,001,2021-08-19_16h35.21.567,natb3,2021.2.3,Win32,60.0240096,5e62c473211a8305ca6411d2,611e07ecdcc96256ae8d5b80,611e79526d26d134376d3b00,
,,,,space,0.4939,,0,241,241,22,1,K, , , , ,space,2000,2,5e62c473211a8305ca6411d2,001,2021-08-19_16h35.21.567,natb3,2021.2.3,Win32,60.0240096,5e62c473211a8305ca6411d2,611e07ecdcc96256ae8d5b80,611e79526d26d134376d3b00,
,,,,space,0.4154,,0,242,242,81,1,S, , , , ,space,2000,2,5e62c473211a8305ca6411d2,001,2021-08-19_16h35.21.567,natb3,2021.2.3,Win32,60.0240096,5e62c473211a8305ca6411d2,611e07ecdcc96256ae8d5b80,611e79526d26d134376d3b00,
,,,,space,0.6044,,0,243,243,146,1,W, , , , ,space,1500,1.5,5e62c473211a8305ca6411d2,001,2021-08-19_16h35.21.567,natb3,2021.2.3,Win32,60.0240096,5e62c473211a8305ca6411d2,611e07ecdcc96256ae8d5b80,611e79526d26d134376d3b00,
,,,,space,0.3682,,0,244,244,132,1,H, , , , ,space,2500,2.5,5e62c473211a8305ca6411d2,001,2021-08-19_16h35.21.567,natb3,2021.2.3,Win32,60.0240096,5e62c473211a8305ca6411d2,611e07ecdcc96256ae8d5b80,611e79526d26d134376d3b00,
,,,,space,0.2932,,0,245,245,157,1,A, , , , ,space,2500,2.5,5e62c473211a8305ca6411d2,001,2021-08-19_16h35.21.567,natb3,2021.2.3,Win32,60.0240096,5e62c473211a8305ca6411d2,611e07ecdcc96256ae8d5b80,611e79526d26d134376d3b00,
,,,,space,0.3363,,0,246,246,127,1,S, , , , ,space,2500,2.5,5e62c473211a8305ca6411d2,001,2021-08-19_16h35.21.567,natb3,2021.2.3,Win32,60.0240096,5e62c473211a8305ca6411d2,611e07ecdcc96256ae8d5b80,611e79526d26d134376d3b00,
,,,,space,0.4034,,0,247,247,110,1,I, , , , ,space,1500,1.5,5e62c473211a8305ca6411d2,001,2021-08-19_16h35.21.567,natb3,2021.2.3,Win32,60.0240096,5e62c473211a8305ca6411d2,611e07ecdcc96256ae8d5b80,611e79526d26d134376d3b00,
,,,,space,0.3143,,0,248,248,100,1,M, , , , ,space,2000,2,5e62c473211a8305ca6411d2,001,2021-08-19_16h35.21.567,natb3,2021.2.3,Win32,60.0240096,5e62c473211a8305ca6411d2,611e07ecdcc96256ae8d5b80,611e79526d26d134376d3b00,
,,,,space,0.3555,,0,249,249,113,1,W, , , , ,space,2500,2.5,5e62c473211a8305ca6411d2,001,2021-08-19_16h35.21.567,natb3,2021.2.3,Win32,60.0240096,5e62c473211a8305ca6411d2,611e07ecdcc96256ae8d5b80,611e79526d26d134376d3b00,
,,,,,,,0,250,250,239,1,X, , , , ,,2000,2,5e62c473211a8305ca6411d2,001,2021-08-19_16h35.21.567,natb3,2021.2.3,Win32,60.0240096,5e62c473211a8305ca6411d2,611e07ecdcc96256ae8d5b80,611e79526d26d134376d3b00,
,,,,,,,0,251,251,162,1,X,1,6, ,2,,1500,1.5,5e62c473211a8305ca6411d2,001,2021-08-19_16h35.21.567,natb3,2021.2.3,Win32,60.0240096,5e62c473211a8305ca6411d2,611e07ecdcc96256ae8d5b80,611e79526d26d134376d3b00,
,,,,space,0.3559,,0,252,252,241,1,G, , , , ,space,2500,2.5,5e62c473211a8305ca6411d2,001,2021-08-19_16h35.21.567,natb3,2021.2.3,Win32,60.0240096,5e62c473211a8305ca6411d2,611e07ecdcc96256ae8d5b80,611e79526d26d134376d3b00,
,,,,space,0.4091,,0,253,253,272,1,D, , , , ,space,2000,2,5e62c473211a8305ca6411d2,001,2021-08-19_16h35.21.567,natb3,2021.2.3,Win32,60.0240096,5e62c473211a8305ca6411d2,611e07ecdcc96256ae8d5b80,611e79526d26d134376d3b00,
,,,,space,0.3162,,0,254,254,163,1,G, , , , ,space,2500,2.5,5e62c473211a8305ca6411d2,001,2021-08-19_16h35.21.567,natb3,2021.2.3,Win32,60.0240096,5e62c473211a8305ca6411d2,611e07ecdcc96256ae8d5b80,611e79526d26d134376d3b00,
,,,,space,0.4176,,0,255,255,105,1,R, , , , ,space,2500,2.5,5e62c473211a8305ca6411d2,001,2021-08-19_16h35.21.567,natb3,2021.2.3,Win32,60.0240096,5e62c473211a8305ca6411d2,611e07ecdcc96256ae8d5b80,611e79526d26d134376d3b00,
,,,,space,0.3218,,0,256,256,279,1,K, , , , ,space,2500,2.5,5e62c473211a8305ca6411d2,001,2021-08-19_16h35.21.567,natb3,2021.2.3,Win32,60.0240096,5e62c473211a8305ca6411d2,611e07ecdcc96256ae8d5b80,611e79526d26d134376d3b00,
,,,,space,0.6039,,0,257,257,206,1,V, , , , ,space,2000,2,5e62c473211a8305ca6411d2,001,2021-08-19_16h35.21.567,natb3,2021.2.3,Win32,60.0240096,5e62c473211a8305ca6411d2,611e07ecdcc96256ae8d5b80,611e79526d26d134376d3b00,
,,,,space,0.3869,,0,258,258,106,1,T, , , , ,space,1500,1.5,5e62c473211a8305ca6411d2,001,2021-08-19_16h35.21.567,natb3,2021.2.3,Win32,60.0240096,5e62c473211a8305ca6411d2,611e07ecdcc96256ae8d5b80,611e79526d26d134376d3b00,
,,,,space,0.7013,,0,259,259,123,1,O, , , , ,space,1500,1.5,5e62c473211a8305ca6411d2,001,2021-08-19_16h35.21.567,natb3,2021.2.3,Win32,60.0240096,5e62c473211a8305ca6411d2,611e07ecdcc96256ae8d5b80,611e79526d26d134376d3b00,
,,,,,,,0,260,260,69,1,X, , , , ,,1500,1.5,5e62c473211a8305ca6411d2,001,2021-08-19_16h35.21.567,natb3,2021.2.3,Win32,60.0240096,5e62c473211a8305ca6411d2,611e07ecdcc96256ae8d5b80,611e79526d26d134376d3b00,
,,,,space,0.3749,,0,261,261,232,1,O, , , , ,space,2500,2.5,5e62c473211a8305ca6411d2,001,2021-08-19_16h35.21.567,natb3,2021.2.3,Win32,60.0240096,5e62c473211a8305ca6411d2,611e07ecdcc96256ae8d5b80,611e79526d26d134376d3b00,
,,,,space,0.3104,,0,262,262,108,1,Y, , , , ,space,2500,2.5,5e62c473211a8305ca6411d2,001,2021-08-19_16h35.21.567,natb3,2021.2.3,Win32,60.0240096,5e62c473211a8305ca6411d2,611e07ecdcc96256ae8d5b80,611e79526d26d134376d3b00,
,,,,space,0.3498,,0,263,263,325,1,X, , , , ,,2500,2.5,5e62c473211a8305ca6411d2,001,2021-08-19_16h35.21.567,natb3,2021.2.3,Win32,60.0240096,5e62c473211a8305ca6411d2,611e07ecdcc96256ae8d5b80,611e79526d26d134376d3b00,
,,,,space,0.4419,,0,264,264,8,1,U, , , , ,space,1500,1.5,5e62c473211a8305ca6411d2,001,2021-08-19_16h35.21.567,natb3,2021.2.3,Win32,60.0240096,5e62c473211a8305ca6411d2,611e07ecdcc96256ae8d5b80,611e79526d26d134376d3b00,
,,,,space,0.4177,,0,265,265,306,1,D, , , , ,space,2000,2,5e62c473211a8305ca6411d2,001,2021-08-19_16h35.21.567,natb3,2021.2.3,Win32,60.0240096,5e62c473211a8305ca6411d2,611e07ecdcc96256ae8d5b80,611e79526d26d134376d3b00,
,,,,,,,0,266,266,7,1,X, , , , ,,1500,1.5,5e62c473211a8305ca6411d2,001,2021-08-19_16h35.21.567,natb3,2021.2.3,Win32,60.0240096,5e62c473211a8305ca6411d2,611e07ecdcc96256ae8d5b80,611e79526d26d134376d3b00,
,,,,,,,0,267,267,39,1,X,6,2, , ,,1500,1.5,5e62c473211a8305ca6411d2,001,2021-08-19_16h35.21.567,natb3,2021.2.3,Win32,60.0240096,5e62c473211a8305ca6411d2,611e07ecdcc96256ae8d5b80,611e79526d26d134376d3b00,
,,,,space,0.358,,0,268,268,188,1,I, , , , ,space,2500,2.5,5e62c473211a8305ca6411d2,001,2021-08-19_16h35.21.567,natb3,2021.2.3,Win32,60.0240096,5e62c473211a8305ca6411d2,611e07ecdcc96256ae8d5b80,611e79526d26d134376d3b00,
,,,,space,0.4106,,0,269,269,154,1,I, , , , ,space,2500,2.5,5e62c473211a8305ca6411d2,001,2021-08-19_16h35.21.567,natb3,2021.2.3,Win32,60.0240096,5e62c473211a8305ca6411d2,611e07ecdcc96256ae8d5b80,611e79526d26d134376d3b00,
,,,,space,0.4872,,0,270,270,278,1,J, , , , ,space,2000,2,5e62c473211a8305ca6411d2,001,2021-08-19_16h35.21.567,natb3,2021.2.3,Win32,60.0240096,5e62c473211a8305ca6411d2,611e07ecdcc96256ae8d5b80,611e79526d26d134376d3b00,
,,,,,,,0,271,271,213,1,X, , , , ,,2500,2.5,5e62c473211a8305ca6411d2,001,2021-08-19_16h35.21.567,natb3,2021.2.3,Win32,60.0240096,5e62c473211a8305ca6411d2,611e07ecdcc96256ae8d5b80,611e79526d26d134376d3b00,
,,,,space,0.353,,0,272,272,267,1,P, , , , ,space,2000,2,5e62c473211a8305ca6411d2,001,2021-08-19_16h35.21.567,natb3,2021.2.3,Win32,60.0240096,5e62c473211a8305ca6411d2,611e07ecdcc96256ae8d5b80,611e79526d26d134376d3b00,
,,,,,,,0,273,273,263,1,X,4, ,6, ,,1500,1.5,5e62c473211a8305ca6411d2,001,2021-08-19_16h35.21.567,natb3,2021.2.3,Win32,60.0240096,5e62c473211a8305ca6411d2,611e07ecdcc96256ae8d5b80,611e79526d26d134376d3b00,
,,,,space,0.3871,,0,274,274,324,1,Q, , , , ,space,2000,2,5e62c473211a8305ca6411d2,001,2021-08-19_16h35.21.567,natb3,2021.2.3,Win32,60.0240096,5e62c473211a8305ca6411d2,611e07ecdcc96256ae8d5b80,611e79526d26d134376d3b00,
,,,,space,0.4536,,0,275,275,167,1,K, , , , ,space,1500,1.5,5e62c473211a8305ca6411d2,001,2021-08-19_16h35.21.567,natb3,2021.2.3,Win32,60.0240096,5e62c473211a8305ca6411d2,611e07ecdcc96256ae8d5b80,611e79526d26d134376d3b00,
,,,,space,0.3282,,0,276,276,237,1,S, , , , ,space,1500,1.5,5e62c473211a8305ca6411d2,001,2021-08-19_16h35.21.567,natb3,2021.2.3,Win32,60.0240096,5e62c473211a8305ca6411d2,611e07ecdcc96256ae8d5b80,611e79526d26d134376d3b00,
,,,,space,0.3784,,0,277,277,34,1,Q, , , , ,space,2500,2.5,5e62c473211a8305ca6411d2,001,2021-08-19_16h35.21.567,natb3,2021.2.3,Win32,60.0240096,5e62c473211a8305ca6411d2,611e07ecdcc96256ae8d5b80,611e79526d26d134376d3b00,
,,,,space,0.4088,,0,278,278,9,1,I, , , , ,space,1500,1.5,5e62c473211a8305ca6411d2,001,2021-08-19_16h35.21.567,natb3,2021.2.3,Win32,60.0240096,5e62c473211a8305ca6411d2,611e07ecdcc96256ae8d5b80,611e79526d26d134376d3b00,
,,,,,,,0,279,279,141,1,X,1, ,4,6,,1500,1.5,5e62c473211a8305ca6411d2,001,2021-08-19_16h35.21.567,natb3,2021.2.3,Win32,60.0240096,5e62c473211a8305ca6411d2,611e07ecdcc96256ae8d5b80,611e79526d26d134376d3b00,
,,,,space,0.8427,,0,280,280,60,1,X,7,3,5, ,,1500,1.5,5e62c473211a8305ca6411d2,001,2021-08-19_16h35.21.567,natb3,2021.2.3,Win32,60.0240096,5e62c473211a8305ca6411d2,611e07ecdcc96256ae8d5b80,611e79526d26d134376d3b00,
,,,,space,0.4412,,0,281,281,50,1,D, , , , ,space,1500,1.5,5e62c473211a8305ca6411d2,001,2021-08-19_16h35.21.567,natb3,2021.2.3,Win32,60.0240096,5e62c473211a8305ca6411d2,611e07ecdcc96256ae8d5b80,611e79526d26d134376d3b00,
,,,,space,0.5,,0,282,282,139,1,V, , , , ,space,2000,2,5e62c473211a8305ca6411d2,001,2021-08-19_16h35.21.567,natb3,2021.2.3,Win32,60.0240096,5e62c473211a8305ca6411d2,611e07ecdcc96256ae8d5b80,611e79526d26d134376d3b00,
,,,,space,0.3901,,0,283,283,101,1,Q, , , , ,space,2500,2.5,5e62c473211a8305ca6411d2,001,2021-08-19_16h35.21.567,natb3,2021.2.3,Win32,60.0240096,5e62c473211a8305ca6411d2,611e07ecdcc96256ae8d5b80,611e79526d26d134376d3b00,
,,,,space,0.4185,,0,284,284,217,1,T, , , , ,space,2500,2.5,5e62c473211a8305ca6411d2,001,2021-08-19_16h35.21.567,natb3,2021.2.3,Win32,60.0240096,5e62c473211a8305ca6411d2,611e07ecdcc96256ae8d5b80,611e79526d26d134376d3b00,
,,,,,,,0,285,285,291,1,X, , , , ,,2000,2,5e62c473211a8305ca6411d2,001,2021-08-19_16h35.21.567,natb3,2021.2.3,Win32,60.0240096,5e62c473211a8305ca6411d2,611e07ecdcc96256ae8d5b80,611e79526d26d134376d3b00,
,,,,space,0.4526,,0,286,286,310,1,J, , , , ,space,2500,2.5,5e62c473211a8305ca6411d2,001,2021-08-19_16h35.21.567,natb3,2021.2.3,Win32,60.0240096,5e62c473211a8305ca6411d2,611e07ecdcc96256ae8d5b80,611e79526d26d134376d3b00,
,,,,space,0.4428,,0,287,287,45,1,O, , , , ,space,2000,2,5e62c473211a8305ca6411d2,001,2021-08-19_16h35.21.567,natb3,2021.2.3,Win32,60.0240096,5e62c473211a8305ca6411d2,611e07ecdcc96256ae8d5b80,611e79526d26d134376d3b00,
,,,,space,0.6524,,0,288,288,333,1,I, , , , ,space,1500,1.5,5e62c473211a8305ca6411d2,001,2021-08-19_16h35.21.567,natb3,2021.2.3,Win32,60.0240096,5e62c473211a8305ca6411d2,611e07ecdcc96256ae8d5b80,611e79526d26d134376d3b00,
,,,,,,,0,289,289,305,1,X, , , , ,,1500,1.5,5e62c473211a8305ca6411d2,001,2021-08-19_16h35.21.567,natb3,2021.2.3,Win32,60.0240096,5e62c473211a8305ca6411d2,611e07ecdcc96256ae8d5b80,611e79526d26d134376d3b00,
,,,,space,0.4013,,0,290,290,332,1,U, , , , ,space,2000,2,5e62c473211a8305ca6411d2,001,2021-08-19_16h35.21.567,natb3,2021.2.3,Win32,60.0240096,5e62c473211a8305ca6411d2,611e07ecdcc96256ae8d5b80,611e79526d26d134376d3b00,
,,,,space,0.5013,,0,291,291,142,1,N, , , , ,space,2500,2.5,5e62c473211a8305ca6411d2,001,2021-08-19_16h35.21.567,natb3,2021.2.3,Win32,60.0240096,5e62c473211a8305ca6411d2,611e07ecdcc96256ae8d5b80,611e79526d26d134376d3b00,
,,,,space,0.456,,0,292,292,219,1,Y, , , , ,space,2000,2,5e62c473211a8305ca6411d2,001,2021-08-19_16h35.21.567,natb3,2021.2.3,Win32,60.0240096,5e62c473211a8305ca6411d2,611e07ecdcc96256ae8d5b80,611e79526d26d134376d3b00,
,,,,,,,0,293,293,96,1,X, , , , ,,1500,1.5,5e62c473211a8305ca6411d2,001,2021-08-19_16h35.21.567,natb3,2021.2.3,Win32,60.0240096,5e62c473211a8305ca6411d2,611e07ecdcc96256ae8d5b80,611e79526d26d134376d3b00,
,,,,space,0.4837,,0,294,294,254,1,M, , , , ,space,1500,1.5,5e62c473211a8305ca6411d2,001,2021-08-19_16h35.21.567,natb3,2021.2.3,Win32,60.0240096,5e62c473211a8305ca6411d2,611e07ecdcc96256ae8d5b80,611e79526d26d134376d3b00,
,,,,space,0.4504,,0,295,295,147,1,E, , , , ,space,2000,2,5e62c473211a8305ca6411d2,001,2021-08-19_16h35.21.567,natb3,2021.2.3,Win32,60.0240096,5e62c473211a8305ca6411d2,611e07ecdcc96256ae8d5b80,611e79526d26d134376d3b00,
,,,,,,,0,296,296,229,1,X,8, ,2,6,,2500,2.5,5e62c473211a8305ca6411d2,001,2021-08-19_16h35.21.567,natb3,2021.2.3,Win32,60.0240096,5e62c473211a8305ca6411d2,611e07ecdcc96256ae8d5b80,611e79526d26d134376d3b00,
,,,,space,0.4423,,0,297,297,201,1,K, , , , ,space,1500,1.5,5e62c473211a8305ca6411d2,001,2021-08-19_16h35.21.567,natb3,2021.2.3,Win32,60.0240096,5e62c473211a8305ca6411d2,611e07ecdcc96256ae8d5b80,611e79526d26d134376d3b00,
,,,,space,0.5168,,0,298,298,52,1,F, , , , ,space,1500,1.5,5e62c473211a8305ca6411d2,001,2021-08-19_16h35.21.567,natb3,2021.2.3,Win32,60.0240096,5e62c473211a8305ca6411d2,611e07ecdcc96256ae8d5b80,611e79526d26d134376d3b00,
,,,,space,0.4257,,0,299,299,309,1,H, , , , ,space,2500,2.5,5e62c473211a8305ca6411d2,001,2021-08-19_16h35.21.567,natb3,2021.2.3,Win32,60.0240096,5e62c473211a8305ca6411d2,611e07ecdcc96256ae8d5b80,611e79526d26d134376d3b00,
,,,,space,0.451,,0,300,300,260,1,R, , , , ,space,2000,2,5e62c473211a8305ca6411d2,001,2021-08-19_16h35.21.567,natb3,2021.2.3,Win32,60.0240096,5e62c473211a8305ca6411d2,611e07ecdcc96256ae8d5b80,611e79526d26d134376d3b00,
,,,,space,0.5174,,0,301,301,149,1,R, , , , ,space,2000,2,5e62c473211a8305ca6411d2,001,2021-08-19_16h35.21.567,natb3,2021.2.3,Win32,60.0240096,5e62c473211a8305ca6411d2,611e07ecdcc96256ae8d5b80,611e79526d26d134376d3b00,
,,,,space,0.3837,,0,302,302,82,1,X,4,6,1,7,,2000,2,5e62c473211a8305ca6411d2,001,2021-08-19_16h35.21.567,natb3,2021.2.3,Win32,60.0240096,5e62c473211a8305ca6411d2,611e07ecdcc96256ae8d5b80,611e79526d26d134376d3b00,
,,,,space,0.4169,,0,303,303,205,1,C, , , , ,space,2000,2,5e62c473211a8305ca6411d2,001,2021-08-19_16h35.21.567,natb3,2021.2.3,Win32,60.0240096,5e62c473211a8305ca6411d2,611e07ecdcc96256ae8d5b80,611e79526d26d134376d3b00,
,,,,space,0.7022,,0,304,304,172,1,C, , , , ,space,1500,1.5,5e62c473211a8305ca6411d2,001,2021-08-19_16h35.21.567,natb3,2021.2.3,Win32,60.0240096,5e62c473211a8305ca6411d2,611e07ecdcc96256ae8d5b80,611e79526d26d134376d3b00,
,,,,,,,0,305,305,4,1,X, , , , ,,2000,2,5e62c473211a8305ca6411d2,001,2021-08-19_16h35.21.567,natb3,2021.2.3,Win32,60.0240096,5e62c473211a8305ca6411d2,611e07ecdcc96256ae8d5b80,611e79526d26d134376d3b00,
,,,,,,,0,306,306,63,1,B, , , , ,space,2000,2,5e62c473211a8305ca6411d2,001,2021-08-19_16h35.21.567,natb3,2021.2.3,Win32,60.0240096,5e62c473211a8305ca6411d2,611e07ecdcc96256ae8d5b80,611e79526d26d134376d3b00,
,,,,space,0.426,,0,307,307,64,1,N, , , , ,space,2000,2,5e62c473211a8305ca6411d2,001,2021-08-19_16h35.21.567,natb3,2021.2.3,Win32,60.0240096,5e62c473211a8305ca6411d2,611e07ecdcc96256ae8d5b80,611e79526d26d134376d3b00,
,,,,space,0.4511,,0,308,308,131,1,G, , , , ,space,1500,1.5,5e62c473211a8305ca6411d2,001,2021-08-19_16h35.21.567,natb3,2021.2.3,Win32,60.0240096,5e62c473211a8305ca6411d2,611e07ecdcc96256ae8d5b80,611e79526d26d134376d3b00,
,,,,space,0.4171,,0,309,309,144,1,Q, , , , ,space,2500,2.5,5e62c473211a8305ca6411d2,001,2021-08-19_16h35.21.567,natb3,2021.2.3,Win32,60.0240096,5e62c473211a8305ca6411d2,611e07ecdcc96256ae8d5b80,611e79526d26d134376d3b00,
,,,,space,0.3836,,0,310,310,95,1,V, , , , ,space,1500,1.5,5e62c473211a8305ca6411d2,001,2021-08-19_16h35.21.567,natb3,2021.2.3,Win32,60.0240096,5e62c473211a8305ca6411d2,611e07ecdcc96256ae8d5b80,611e79526d26d134376d3b00,
,,,,,,,0,311,311,46,1,X, , , , ,,2000,2,5e62c473211a8305ca6411d2,001,2021-08-19_16h35.21.567,natb3,2021.2.3,Win32,60.0240096,5e62c473211a8305ca6411d2,611e07ecdcc96256ae8d5b80,611e79526d26d134376d3b00,
,,,,space,0.3865,,0,312,312,184,1,T, , , , ,space,2000,2,5e62c473211a8305ca6411d2,001,2021-08-19_16h35.21.567,natb3,2021.2.3,Win32,60.0240096,5e62c473211a8305ca6411d2,611e07ecdcc96256ae8d5b80,611e79526d26d134376d3b00,
,,,,space,0.4169,,0,313,313,197,1,G, , , , ,space,2500,2.5,5e62c473211a8305ca6411d2,001,2021-08-19_16h35.21.567,natb3,2021.2.3,Win32,60.0240096,5e62c473211a8305ca6411d2,611e07ecdcc96256ae8d5b80,611e79526d26d134376d3b00,
,,,,space,0.4097,,0,314,314,308,1,G, , , , ,space,1500,1.5,5e62c473211a8305ca6411d2,001,2021-08-19_16h35.21.567,natb3,2021.2.3,Win32,60.0240096,5e62c473211a8305ca6411d2,611e07ecdcc96256ae8d5b80,611e79526d26d134376d3b00,
,,,,space,0.4701,,0,315,315,323,1,M, , , , ,space,2500,2.5,5e62c473211a8305ca6411d2,001,2021-08-19_16h35.21.567,natb3,2021.2.3,Win32,60.0240096,5e62c473211a8305ca6411d2,611e07ecdcc96256ae8d5b80,611e79526d26d134376d3b00,
,,,,space,0.7298,,0,316,316,250,1,V, , , , ,space,2000,2,5e62c473211a8305ca6411d2,001,2021-08-19_16h35.21.567,natb3,2021.2.3,Win32,60.0240096,5e62c473211a8305ca6411d2,611e07ecdcc96256ae8d5b80,611e79526d26d134376d3b00,
,,,,space,0.3555,,0,317,317,249,1,C, , , , ,space,2000,2,5e62c473211a8305ca6411d2,001,2021-08-19_16h35.21.567,natb3,2021.2.3,Win32,60.0240096,5e62c473211a8305ca6411d2,611e07ecdcc96256ae8d5b80,611e79526d26d134376d3b00,
,,,,space,0.4198,,0,318,318,293,1,R, , , , ,space,2500,2.5,5e62c473211a8305ca6411d2,001,2021-08-19_16h35.21.567,natb3,2021.2.3,Win32,60.0240096,5e62c473211a8305ca6411d2,611e07ecdcc96256ae8d5b80,611e79526d26d134376d3b00,
,,,,space,0.4339,,0,319,319,10,1,O, , , , ,space,2000,2,5e62c473211a8305ca6411d2,001,2021-08-19_16h35.21.567,natb3,2021.2.3,Win32,60.0240096,5e62c473211a8305ca6411d2,611e07ecdcc96256ae8d5b80,611e79526d26d134376d3b00,
,,,,space,0.4686,,0,320,320,170,1,Z, , , , ,space,2000,2,5e62c473211a8305ca6411d2,001,2021-08-19_16h35.21.567,natb3,2021.2.3,Win32,60.0240096,5e62c473211a8305ca6411d2,611e07ecdcc96256ae8d5b80,611e79526d26d134376d3b00,
,,,,space,0.373,,0,321,321,151,1,Y, , , , ,space,2500,2.5,5e62c473211a8305ca6411d2,001,2021-08-19_16h35.21.567,natb3,2021.2.3,Win32,60.0240096,5e62c473211a8305ca6411d2,611e07ecdcc96256ae8d5b80,611e79526d26d134376d3b00,
,,,,space,0.4649,,0,322,322,320,1,B, , , , ,space,1500,1.5,5e62c473211a8305ca6411d2,001,2021-08-19_16h35.21.567,natb3,2021.2.3,Win32,60.0240096,5e62c473211a8305ca6411d2,611e07ecdcc96256ae8d5b80,611e79526d26d134376d3b00,
,,,,space,0.3416,,0,323,323,292,1,E, , , , ,space,2000,2,5e62c473211a8305ca6411d2,001,2021-08-19_16h35.21.567,natb3,2021.2.3,Win32,60.0240096,5e62c473211a8305ca6411d2,611e07ecdcc96256ae8d5b80,611e79526d26d134376d3b00,
,,,,space,0.5983,,0,324,324,290,1,W, , , , ,space,1500,1.5,5e62c473211a8305ca6411d2,001,2021-08-19_16h35.21.567,natb3,2021.2.3,Win32,60.0240096,5e62c473211a8305ca6411d2,611e07ecdcc96256ae8d5b80,611e79526d26d134376d3b00,
,,,,space,0.5212,,0,325,325,238,1,D, , , , ,space,1500,1.5,5e62c473211a8305ca6411d2,001,2021-08-19_16h35.21.567,natb3,2021.2.3,Win32,60.0240096,5e62c473211a8305ca6411d2,611e07ecdcc96256ae8d5b80,611e79526d26d134376d3b00,
,,,,,,,0,326,326,295,1,X,8,7,5, ,,2500,2.5,5e62c473211a8305ca6411d2,001,2021-08-19_16h35.21.567,natb3,2021.2.3,Win32,60.0240096,5e62c473211a8305ca6411d2,611e07ecdcc96256ae8d5b80,611e79526d26d134376d3b00,
,,,,space,0.4362,,0,327,327,312,1,K, , , , ,space,2000,2,5e62c473211a8305ca6411d2,001,2021-08-19_16h35.21.567,natb3,2021.2.3,Win32,60.0240096,5e62c473211a8305ca6411d2,611e07ecdcc96256ae8d5b80,611e79526d26d134376d3b00,
,,,,space,0.653,,0,328,328,62,1,V, , , , ,space,1500,1.5,5e62c473211a8305ca6411d2,001,2021-08-19_16h35.21.567,natb3,2021.2.3,Win32,60.0240096,5e62c473211a8305ca6411d2,611e07ecdcc96256ae8d5b80,611e79526d26d134376d3b00,
,,,,space,0.5772,,0,329,329,26,1,C, , , , ,space,2000,2,5e62c473211a8305ca6411d2,001,2021-08-19_16h35.21.567,natb3,2021.2.3,Win32,60.0240096,5e62c473211a8305ca6411d2,611e07ecdcc96256ae8d5b80,611e79526d26d134376d3b00,
,,,,,,,0,330,330,248,1,X, ,1,5, ,,1500,1.5,5e62c473211a8305ca6411d2,001,2021-08-19_16h35.21.567,natb3,2021.2.3,Win32,60.0240096,5e62c473211a8305ca6411d2,611e07ecdcc96256ae8d5b80,611e79526d26d134376d3b00,
,,,,space,0.449,,0,331,331,65,1,M, , , , ,space,1500,1.5,5e62c473211a8305ca6411d2,001,2021-08-19_16h35.21.567,natb3,2021.2.3,Win32,60.0240096,5e62c473211a8305ca6411d2,611e07ecdcc96256ae8d5b80,611e79526d26d134376d3b00,
,,,,,,,0,332,332,33,1,X, , , , ,,1500,1.5,5e62c473211a8305ca6411d2,001,2021-08-19_16h35.21.567,natb3,2021.2.3,Win32,60.0240096,5e62c473211a8305ca6411d2,611e07ecdcc96256ae8d5b80,611e79526d26d134376d3b00,
,,,,space,0.411,,0,333,333,185,1,Y, , , , ,space,2500,2.5,5e62c473211a8305ca6411d2,001,2021-08-19_16h35.21.567,natb3,2021.2.3,Win32,60.0240096,5e62c473211a8305ca6411d2,611e07ecdcc96256ae8d5b80,611e79526d26d134376d3b00,
,,,,space,0.5128,,0,334,334,226,1,R, , , , ,space,2000,2,5e62c473211a8305ca6411d2,001,2021-08-19_16h35.21.567,natb3,2021.2.3,Win32,60.0240096,5e62c473211a8305ca6411d2,611e07ecdcc96256ae8d5b80,611e79526d26d134376d3b00,
,,,,,,,0,335,335,133,1,X, ,4, ,6,,2500,2.5,5e62c473211a8305ca6411d2,001,2021-08-19_16h35.21.567,natb3,2021.2.3,Win32,60.0240096,5e62c473211a8305ca6411d2,611e07ecdcc96256ae8d5b80,611e79526d26d134376d3b00,
