key_resp_2.keys,key_resp_2.rt,key_resp_3.keys,key_resp_3.rt,key_resp.keys,key_resp.rt,key_resp_4.keys,trials.thisRepN,trials.thisTrialN,trials.thisN,trials.thisIndex,trials.ran,stimulus,distractor1,distractor2,distractor3,distractor4,CorrAns,isi_duration,isi_dur_in_seconds,participant,session,date,expName,psychopyVersion,OS,frameRate,PROLIFIC_PID,STUDY_ID,SESSION_ID,key_resp_4.rt
return,13.0971,space,22.6351,space,0.7967,,0,0,0,136,1,Z, , , , ,space,2500,2.5,5e764220adefaa1a931b1774,001,2021-08-19_16h31.26.561,natb3,2021.2.3,Win32,143.7401179,5e764220adefaa1a931b1774,611e07ecdcc96256ae8d5b80,611e792d741de5058deaf268,
,,,,,,,0,1,1,153,1,X,4,7, ,6,,2000,2,5e764220adefaa1a931b1774,001,2021-08-19_16h31.26.561,natb3,2021.2.3,Win32,143.7401179,5e764220adefaa1a931b1774,611e07ecdcc96256ae8d5b80,611e792d741de5058deaf268,
,,,,space,0.3829,,0,2,2,117,1,T, , , , ,space,2500,2.5,5e764220adefaa1a931b1774,001,2021-08-19_16h31.26.561,natb3,2021.2.3,Win32,143.7401179,5e764220adefaa1a931b1774,611e07ecdcc96256ae8d5b80,611e792d741de5058deaf268,
,,,,,,,0,3,3,305,1,X, , , , ,,1500,1.5,5e764220adefaa1a931b1774,001,2021-08-19_16h31.26.561,natb3,2021.2.3,Win32,143.7401179,5e764220adefaa1a931b1774,611e07ecdcc96256ae8d5b80,611e792d741de5058deaf268,
,,,,,,,0,4,4,273,1,X, , , , ,,2000,2,5e764220adefaa1a931b1774,001,2021-08-19_16h31.26.561,natb3,2021.2.3,Win32,143.7401179,5e764220adefaa1a931b1774,611e07ecdcc96256ae8d5b80,611e792d741de5058deaf268,
,,,,space,0.4368,,0,5,5,154,1,I, , , , ,space,2500,2.5,5e764220adefaa1a931b1774,001,2021-08-19_16h31.26.561,natb3,2021.2.3,Win32,143.7401179,5e764220adefaa1a931b1774,611e07ecdcc96256ae8d5b80,611e792d741de5058deaf268,
,,,,,,,0,6,6,125,1,X, , , , ,,2000,2,5e764220adefaa1a931b1774,001,2021-08-19_16h31.26.561,natb3,2021.2.3,Win32,143.7401179,5e764220adefaa1a931b1774,611e07ecdcc96256ae8d5b80,611e792d741de5058deaf268,
,,,,space,0.3448,,0,7,7,331,1,Y, , , , ,space,2500,2.5,5e764220adefaa1a931b1774,001,2021-08-19_16h31.26.561,natb3,2021.2.3,Win32,143.7401179,5e764220adefaa1a931b1774,611e07ecdcc96256ae8d5b80,611e792d741de5058deaf268,
,,,,space,0.4813,,0,8,8,206,1,V, , , , ,space,2000,2,5e764220adefaa1a931b1774,001,2021-08-19_16h31.26.561,natb3,2021.2.3,Win32,143.7401179,5e764220adefaa1a931b1774,611e07ecdcc96256ae8d5b80,611e792d741de5058deaf268,
,,,,space,0.4579,,0,9,9,276,1,H, , , , ,space,2000,2,5e764220adefaa1a931b1774,001,2021-08-19_16h31.26.561,natb3,2021.2.3,Win32,143.7401179,5e764220adefaa1a931b1774,611e07ecdcc96256ae8d5b80,611e792d741de5058deaf268,
,,,,space,0.3814,,0,10,10,17,1,F, , , , ,space,2500,2.5,5e764220adefaa1a931b1774,001,2021-08-19_16h31.26.561,natb3,2021.2.3,Win32,143.7401179,5e764220adefaa1a931b1774,611e07ecdcc96256ae8d5b80,611e792d741de5058deaf268,
,,,,space,0.4883,,0,11,11,215,1,E, , , , ,space,2500,2.5,5e764220adefaa1a931b1774,001,2021-08-19_16h31.26.561,natb3,2021.2.3,Win32,143.7401179,5e764220adefaa1a931b1774,611e07ecdcc96256ae8d5b80,611e792d741de5058deaf268,
,,,,space,0.5934,,0,12,12,310,1,J, , , , ,space,2500,2.5,5e764220adefaa1a931b1774,001,2021-08-19_16h31.26.561,natb3,2021.2.3,Win32,143.7401179,5e764220adefaa1a931b1774,611e07ecdcc96256ae8d5b80,611e792d741de5058deaf268,
,,,,space,0.314,,0,13,13,44,1,I, , , , ,space,2500,2.5,5e764220adefaa1a931b1774,001,2021-08-19_16h31.26.561,natb3,2021.2.3,Win32,143.7401179,5e764220adefaa1a931b1774,611e07ecdcc96256ae8d5b80,611e792d741de5058deaf268,
,,,,space,0.4324,,0,14,14,56,1,J, , , , ,space,1500,1.5,5e764220adefaa1a931b1774,001,2021-08-19_16h31.26.561,natb3,2021.2.3,Win32,143.7401179,5e764220adefaa1a931b1774,611e07ecdcc96256ae8d5b80,611e792d741de5058deaf268,
,,,,space,0.3481,,0,15,15,328,1,R, , , , ,space,1500,1.5,5e764220adefaa1a931b1774,001,2021-08-19_16h31.26.561,natb3,2021.2.3,Win32,143.7401179,5e764220adefaa1a931b1774,611e07ecdcc96256ae8d5b80,611e792d741de5058deaf268,
,,,,space,0.2515,,0,16,16,142,1,N, , , , ,space,2500,2.5,5e764220adefaa1a931b1774,001,2021-08-19_16h31.26.561,natb3,2021.2.3,Win32,143.7401179,5e764220adefaa1a931b1774,611e07ecdcc96256ae8d5b80,611e792d741de5058deaf268,
,,,,space,0.2768,,0,17,17,230,1,U, , , , ,space,1500,1.5,5e764220adefaa1a931b1774,001,2021-08-19_16h31.26.561,natb3,2021.2.3,Win32,143.7401179,5e764220adefaa1a931b1774,611e07ecdcc96256ae8d5b80,611e792d741de5058deaf268,
,,,,space,0.6721,,0,18,18,123,1,O, , , , ,space,1500,1.5,5e764220adefaa1a931b1774,001,2021-08-19_16h31.26.561,natb3,2021.2.3,Win32,143.7401179,5e764220adefaa1a931b1774,611e07ecdcc96256ae8d5b80,611e792d741de5058deaf268,
,,,,space,0.2604,,0,19,19,258,1,E, , , , ,space,1500,1.5,5e764220adefaa1a931b1774,001,2021-08-19_16h31.26.561,natb3,2021.2.3,Win32,143.7401179,5e764220adefaa1a931b1774,611e07ecdcc96256ae8d5b80,611e792d741de5058deaf268,
,,,,space,0.3119,,0,20,20,19,1,G, , , , ,space,1500,1.5,5e764220adefaa1a931b1774,001,2021-08-19_16h31.26.561,natb3,2021.2.3,Win32,143.7401179,5e764220adefaa1a931b1774,611e07ecdcc96256ae8d5b80,611e792d741de5058deaf268,
,,,,,,,0,21,21,191,1,X,1, ,3,4,,2500,2.5,5e764220adefaa1a931b1774,001,2021-08-19_16h31.26.561,natb3,2021.2.3,Win32,143.7401179,5e764220adefaa1a931b1774,611e07ecdcc96256ae8d5b80,611e792d741de5058deaf268,
,,,,space,0.2782,,0,22,22,297,1,U, , , , ,space,2000,2,5e764220adefaa1a931b1774,001,2021-08-19_16h31.26.561,natb3,2021.2.3,Win32,143.7401179,5e764220adefaa1a931b1774,611e07ecdcc96256ae8d5b80,611e792d741de5058deaf268,
,,,,,,,0,23,23,51,1,X,7,5,8, ,,1500,1.5,5e764220adefaa1a931b1774,001,2021-08-19_16h31.26.561,natb3,2021.2.3,Win32,143.7401179,5e764220adefaa1a931b1774,611e07ecdcc96256ae8d5b80,611e792d741de5058deaf268,
,,,,space,0.3626,,0,24,24,238,1,D, , , , ,space,1500,1.5,5e764220adefaa1a931b1774,001,2021-08-19_16h31.26.561,natb3,2021.2.3,Win32,143.7401179,5e764220adefaa1a931b1774,611e07ecdcc96256ae8d5b80,611e792d741de5058deaf268,
,,,,space,0.3021,,0,25,25,304,1,S, , , , ,space,2000,2,5e764220adefaa1a931b1774,001,2021-08-19_16h31.26.561,natb3,2021.2.3,Win32,143.7401179,5e764220adefaa1a931b1774,611e07ecdcc96256ae8d5b80,611e792d741de5058deaf268,
,,,,space,0.3022,,0,26,26,20,1,H, , , , ,space,1500,1.5,5e764220adefaa1a931b1774,001,2021-08-19_16h31.26.561,natb3,2021.2.3,Win32,143.7401179,5e764220adefaa1a931b1774,611e07ecdcc96256ae8d5b80,611e792d741de5058deaf268,
,,,,space,0.2703,,0,27,27,266,1,O, , , , ,space,1500,1.5,5e764220adefaa1a931b1774,001,2021-08-19_16h31.26.561,natb3,2021.2.3,Win32,143.7401179,5e764220adefaa1a931b1774,611e07ecdcc96256ae8d5b80,611e792d741de5058deaf268,
,,,,space,0.3592,,0,28,28,317,1,C, , , , ,space,2000,2,5e764220adefaa1a931b1774,001,2021-08-19_16h31.26.561,natb3,2021.2.3,Win32,143.7401179,5e764220adefaa1a931b1774,611e07ecdcc96256ae8d5b80,611e792d741de5058deaf268,
,,,,space,0.302,,0,29,29,137,1,C, , , , ,space,2500,2.5,5e764220adefaa1a931b1774,001,2021-08-19_16h31.26.561,natb3,2021.2.3,Win32,143.7401179,5e764220adefaa1a931b1774,611e07ecdcc96256ae8d5b80,611e792d741de5058deaf268,
,,,,space,0.2645,,0,30,30,281,1,Z, , , , ,space,1500,1.5,5e764220adefaa1a931b1774,001,2021-08-19_16h31.26.561,natb3,2021.2.3,Win32,143.7401179,5e764220adefaa1a931b1774,611e07ecdcc96256ae8d5b80,611e792d741de5058deaf268,
,,,,space,0.2588,,0,31,31,124,1,P, , , , ,space,2000,2,5e764220adefaa1a931b1774,001,2021-08-19_16h31.26.561,natb3,2021.2.3,Win32,143.7401179,5e764220adefaa1a931b1774,611e07ecdcc96256ae8d5b80,611e792d741de5058deaf268,
,,,,space,0.2388,,0,32,32,249,1,C, , , , ,space,2000,2,5e764220adefaa1a931b1774,001,2021-08-19_16h31.26.561,natb3,2021.2.3,Win32,143.7401179,5e764220adefaa1a931b1774,611e07ecdcc96256ae8d5b80,611e792d741de5058deaf268,
,,,,,,,0,33,33,218,1,X,1,3, ,8,,1500,1.5,5e764220adefaa1a931b1774,001,2021-08-19_16h31.26.561,natb3,2021.2.3,Win32,143.7401179,5e764220adefaa1a931b1774,611e07ecdcc96256ae8d5b80,611e792d741de5058deaf268,
,,,,space,0.2951,,0,34,34,97,1,B, , , , ,space,2500,2.5,5e764220adefaa1a931b1774,001,2021-08-19_16h31.26.561,natb3,2021.2.3,Win32,143.7401179,5e764220adefaa1a931b1774,611e07ecdcc96256ae8d5b80,611e792d741de5058deaf268,
,,,,space,0.2759,,0,35,35,308,1,G, , , , ,space,1500,1.5,5e764220adefaa1a931b1774,001,2021-08-19_16h31.26.561,natb3,2021.2.3,Win32,143.7401179,5e764220adefaa1a931b1774,611e07ecdcc96256ae8d5b80,611e792d741de5058deaf268,
,,,,space,0.3141,,0,36,36,233,1,X, ,2, ,5,,1500,1.5,5e764220adefaa1a931b1774,001,2021-08-19_16h31.26.561,natb3,2021.2.3,Win32,143.7401179,5e764220adefaa1a931b1774,611e07ecdcc96256ae8d5b80,611e792d741de5058deaf268,
,,,,,,,0,37,37,69,1,X, , , , ,,1500,1.5,5e764220adefaa1a931b1774,001,2021-08-19_16h31.26.561,natb3,2021.2.3,Win32,143.7401179,5e764220adefaa1a931b1774,611e07ecdcc96256ae8d5b80,611e792d741de5058deaf268,
,,,,space,0.3605,,0,38,38,115,1,R, , , , ,space,1500,1.5,5e764220adefaa1a931b1774,001,2021-08-19_16h31.26.561,natb3,2021.2.3,Win32,143.7401179,5e764220adefaa1a931b1774,611e07ecdcc96256ae8d5b80,611e792d741de5058deaf268,
,,,,space,0.3225,,0,39,39,157,1,A, , , , ,space,2500,2.5,5e764220adefaa1a931b1774,001,2021-08-19_16h31.26.561,natb3,2021.2.3,Win32,143.7401179,5e764220adefaa1a931b1774,611e07ecdcc96256ae8d5b80,611e792d741de5058deaf268,
,,,,,,,0,40,40,322,1,X, , ,1,6,,2000,2,5e764220adefaa1a931b1774,001,2021-08-19_16h31.26.561,natb3,2021.2.3,Win32,143.7401179,5e764220adefaa1a931b1774,611e07ecdcc96256ae8d5b80,611e792d741de5058deaf268,
,,,,space,0.3243,,0,41,41,72,1,T, , , , ,space,1500,1.5,5e764220adefaa1a931b1774,001,2021-08-19_16h31.26.561,natb3,2021.2.3,Win32,143.7401179,5e764220adefaa1a931b1774,611e07ecdcc96256ae8d5b80,611e792d741de5058deaf268,
,,,,space,0.2785,,0,42,42,54,1,X, , , , ,,2000,2,5e764220adefaa1a931b1774,001,2021-08-19_16h31.26.561,natb3,2021.2.3,Win32,143.7401179,5e764220adefaa1a931b1774,611e07ecdcc96256ae8d5b80,611e792d741de5058deaf268,
,,,,space,0.474,,0,43,43,77,1,O, , , , ,space,2000,2,5e764220adefaa1a931b1774,001,2021-08-19_16h31.26.561,natb3,2021.2.3,Win32,143.7401179,5e764220adefaa1a931b1774,611e07ecdcc96256ae8d5b80,611e792d741de5058deaf268,
,,,,space,0.3978,,0,44,44,53,1,G, , , , ,space,2500,2.5,5e764220adefaa1a931b1774,001,2021-08-19_16h31.26.561,natb3,2021.2.3,Win32,143.7401179,5e764220adefaa1a931b1774,611e07ecdcc96256ae8d5b80,611e792d741de5058deaf268,
,,,,space,0.3689,,0,45,45,234,1,P, , , , ,space,2000,2,5e764220adefaa1a931b1774,001,2021-08-19_16h31.26.561,natb3,2021.2.3,Win32,143.7401179,5e764220adefaa1a931b1774,611e07ecdcc96256ae8d5b80,611e792d741de5058deaf268,
,,,,space,0.3846,,0,46,46,152,1,U, , , , ,space,2000,2,5e764220adefaa1a931b1774,001,2021-08-19_16h31.26.561,natb3,2021.2.3,Win32,143.7401179,5e764220adefaa1a931b1774,611e07ecdcc96256ae8d5b80,611e792d741de5058deaf268,
,,,,,,,0,47,47,168,1,X, , , , ,,2500,2.5,5e764220adefaa1a931b1774,001,2021-08-19_16h31.26.561,natb3,2021.2.3,Win32,143.7401179,5e764220adefaa1a931b1774,611e07ecdcc96256ae8d5b80,611e792d741de5058deaf268,
,,,,space,0.3088,,0,48,48,59,1,Z, , , , ,space,2000,2,5e764220adefaa1a931b1774,001,2021-08-19_16h31.26.561,natb3,2021.2.3,Win32,143.7401179,5e764220adefaa1a931b1774,611e07ecdcc96256ae8d5b80,611e792d741de5058deaf268,
,,,,space,0.3209,,0,49,49,40,1,T, , , , ,space,1500,1.5,5e764220adefaa1a931b1774,001,2021-08-19_16h31.26.561,natb3,2021.2.3,Win32,143.7401179,5e764220adefaa1a931b1774,611e07ecdcc96256ae8d5b80,611e792d741de5058deaf268,
,,,,space,0.3089,,0,50,50,81,1,S, , , , ,space,2000,2,5e764220adefaa1a931b1774,001,2021-08-19_16h31.26.561,natb3,2021.2.3,Win32,143.7401179,5e764220adefaa1a931b1774,611e07ecdcc96256ae8d5b80,611e792d741de5058deaf268,
,,,,space,0.355,,0,51,51,333,1,I, , , , ,space,1500,1.5,5e764220adefaa1a931b1774,001,2021-08-19_16h31.26.561,natb3,2021.2.3,Win32,143.7401179,5e764220adefaa1a931b1774,611e07ecdcc96256ae8d5b80,611e792d741de5058deaf268,
,,,,space,0.2723,,0,52,52,216,1,R, , , , ,space,1500,1.5,5e764220adefaa1a931b1774,001,2021-08-19_16h31.26.561,natb3,2021.2.3,Win32,143.7401179,5e764220adefaa1a931b1774,611e07ecdcc96256ae8d5b80,611e792d741de5058deaf268,
,,,,space,0.3522,,0,53,53,6,1,Y, , , , ,space,2500,2.5,5e764220adefaa1a931b1774,001,2021-08-19_16h31.26.561,natb3,2021.2.3,Win32,143.7401179,5e764220adefaa1a931b1774,611e07ecdcc96256ae8d5b80,611e792d741de5058deaf268,
,,,,space,0.2866,,0,54,54,45,1,O, , , , ,space,2000,2,5e764220adefaa1a931b1774,001,2021-08-19_16h31.26.561,natb3,2021.2.3,Win32,143.7401179,5e764220adefaa1a931b1774,611e07ecdcc96256ae8d5b80,611e792d741de5058deaf268,
,,,,space,0.3122,,0,55,55,24,1,L, , , , ,space,2500,2.5,5e764220adefaa1a931b1774,001,2021-08-19_16h31.26.561,natb3,2021.2.3,Win32,143.7401179,5e764220adefaa1a931b1774,611e07ecdcc96256ae8d5b80,611e792d741de5058deaf268,
,,,,space,0.2803,,0,56,56,245,1,K, , , , ,space,2000,2,5e764220adefaa1a931b1774,001,2021-08-19_16h31.26.561,natb3,2021.2.3,Win32,143.7401179,5e764220adefaa1a931b1774,611e07ecdcc96256ae8d5b80,611e792d741de5058deaf268,
,,,,space,0.3788,,0,57,57,38,1,R, , , , ,space,2500,2.5,5e764220adefaa1a931b1774,001,2021-08-19_16h31.26.561,natb3,2021.2.3,Win32,143.7401179,5e764220adefaa1a931b1774,611e07ecdcc96256ae8d5b80,611e792d741de5058deaf268,
,,,,space,0.31,,0,58,58,280,1,L, , , , ,space,1500,1.5,5e764220adefaa1a931b1774,001,2021-08-19_16h31.26.561,natb3,2021.2.3,Win32,143.7401179,5e764220adefaa1a931b1774,611e07ecdcc96256ae8d5b80,611e792d741de5058deaf268,
,,,,,,,0,59,59,268,1,X,6, ,3, ,,2500,2.5,5e764220adefaa1a931b1774,001,2021-08-19_16h31.26.561,natb3,2021.2.3,Win32,143.7401179,5e764220adefaa1a931b1774,611e07ecdcc96256ae8d5b80,611e792d741de5058deaf268,
,,,,space,0.3231,,0,60,60,151,1,Y, , , , ,space,2500,2.5,5e764220adefaa1a931b1774,001,2021-08-19_16h31.26.561,natb3,2021.2.3,Win32,143.7401179,5e764220adefaa1a931b1774,611e07ecdcc96256ae8d5b80,611e792d741de5058deaf268,
,,,,space,0.2501,,0,61,61,159,1,S, , , , ,space,2500,2.5,5e764220adefaa1a931b1774,001,2021-08-19_16h31.26.561,natb3,2021.2.3,Win32,143.7401179,5e764220adefaa1a931b1774,611e07ecdcc96256ae8d5b80,611e792d741de5058deaf268,
,,,,space,0.2534,,0,62,62,169,1,L, , , , ,space,2500,2.5,5e764220adefaa1a931b1774,001,2021-08-19_16h31.26.561,natb3,2021.2.3,Win32,143.7401179,5e764220adefaa1a931b1774,611e07ecdcc96256ae8d5b80,611e792d741de5058deaf268,
,,,,space,0.2562,,0,63,63,166,1,X, , , , ,,2000,2,5e764220adefaa1a931b1774,001,2021-08-19_16h31.26.561,natb3,2021.2.3,Win32,143.7401179,5e764220adefaa1a931b1774,611e07ecdcc96256ae8d5b80,611e792d741de5058deaf268,
,,,,,,,0,64,64,138,1,X,8,5, ,3,,2000,2,5e764220adefaa1a931b1774,001,2021-08-19_16h31.26.561,natb3,2021.2.3,Win32,143.7401179,5e764220adefaa1a931b1774,611e07ecdcc96256ae8d5b80,611e792d741de5058deaf268,
,,,,space,0.3005,,0,65,65,114,1,E, , , , ,space,2000,2,5e764220adefaa1a931b1774,001,2021-08-19_16h31.26.561,natb3,2021.2.3,Win32,143.7401179,5e764220adefaa1a931b1774,611e07ecdcc96256ae8d5b80,611e792d741de5058deaf268,
,,,,space,0.4869,,0,66,66,113,1,W, , , , ,space,2500,2.5,5e764220adefaa1a931b1774,001,2021-08-19_16h31.26.561,natb3,2021.2.3,Win32,143.7401179,5e764220adefaa1a931b1774,611e07ecdcc96256ae8d5b80,611e792d741de5058deaf268,
,,,,space,0.2996,,0,67,67,177,1,M, , , , ,space,2500,2.5,5e764220adefaa1a931b1774,001,2021-08-19_16h31.26.561,natb3,2021.2.3,Win32,143.7401179,5e764220adefaa1a931b1774,611e07ecdcc96256ae8d5b80,611e792d741de5058deaf268,
,,,,space,0.2942,,0,68,68,87,1,H, , , , ,space,1500,1.5,5e764220adefaa1a931b1774,001,2021-08-19_16h31.26.561,natb3,2021.2.3,Win32,143.7401179,5e764220adefaa1a931b1774,611e07ecdcc96256ae8d5b80,611e792d741de5058deaf268,
,,,,space,0.2859,,0,69,69,214,1,W, , , , ,space,2000,2,5e764220adefaa1a931b1774,001,2021-08-19_16h31.26.561,natb3,2021.2.3,Win32,143.7401179,5e764220adefaa1a931b1774,611e07ecdcc96256ae8d5b80,611e792d741de5058deaf268,
,,,,space,0.3204,,0,70,70,241,1,G, , , , ,space,2500,2.5,5e764220adefaa1a931b1774,001,2021-08-19_16h31.26.561,natb3,2021.2.3,Win32,143.7401179,5e764220adefaa1a931b1774,611e07ecdcc96256ae8d5b80,611e792d741de5058deaf268,
,,,,space,0.2878,,0,71,71,11,1,P, , , , ,space,2500,2.5,5e764220adefaa1a931b1774,001,2021-08-19_16h31.26.561,natb3,2021.2.3,Win32,143.7401179,5e764220adefaa1a931b1774,611e07ecdcc96256ae8d5b80,611e792d741de5058deaf268,
,,,,space,0.3055,,0,72,72,128,1,D, , , , ,space,2500,2.5,5e764220adefaa1a931b1774,001,2021-08-19_16h31.26.561,natb3,2021.2.3,Win32,143.7401179,5e764220adefaa1a931b1774,611e07ecdcc96256ae8d5b80,611e792d741de5058deaf268,
,,,,space,0.2872,,0,73,73,228,1,Y, , , , ,space,2000,2,5e764220adefaa1a931b1774,001,2021-08-19_16h31.26.561,natb3,2021.2.3,Win32,143.7401179,5e764220adefaa1a931b1774,611e07ecdcc96256ae8d5b80,611e792d741de5058deaf268,
,,,,space,0.3036,,0,74,74,170,1,Z, , , , ,space,2000,2,5e764220adefaa1a931b1774,001,2021-08-19_16h31.26.561,natb3,2021.2.3,Win32,143.7401179,5e764220adefaa1a931b1774,611e07ecdcc96256ae8d5b80,611e792d741de5058deaf268,
,,,,space,0.3578,,0,75,75,94,1,C, , , , ,space,2000,2,5e764220adefaa1a931b1774,001,2021-08-19_16h31.26.561,natb3,2021.2.3,Win32,143.7401179,5e764220adefaa1a931b1774,611e07ecdcc96256ae8d5b80,611e792d741de5058deaf268,
,,,,space,0.3616,,0,76,76,288,1,M, , , , ,space,1500,1.5,5e764220adefaa1a931b1774,001,2021-08-19_16h31.26.561,natb3,2021.2.3,Win32,143.7401179,5e764220adefaa1a931b1774,611e07ecdcc96256ae8d5b80,611e792d741de5058deaf268,
,,,,,,,0,77,77,93,1,X,5, ,7, ,,2500,2.5,5e764220adefaa1a931b1774,001,2021-08-19_16h31.26.561,natb3,2021.2.3,Win32,143.7401179,5e764220adefaa1a931b1774,611e07ecdcc96256ae8d5b80,611e792d741de5058deaf268,
,,,,space,0.3225,,0,78,78,131,1,G, , , , ,space,1500,1.5,5e764220adefaa1a931b1774,001,2021-08-19_16h31.26.561,natb3,2021.2.3,Win32,143.7401179,5e764220adefaa1a931b1774,611e07ecdcc96256ae8d5b80,611e792d741de5058deaf268,
,,,,space,0.3462,,0,79,79,183,1,R, , , , ,space,1500,1.5,5e764220adefaa1a931b1774,001,2021-08-19_16h31.26.561,natb3,2021.2.3,Win32,143.7401179,5e764220adefaa1a931b1774,611e07ecdcc96256ae8d5b80,611e792d741de5058deaf268,
,,,,space,0.3111,,0,80,80,48,1,A, , , , ,space,2500,2.5,5e764220adefaa1a931b1774,001,2021-08-19_16h31.26.561,natb3,2021.2.3,Win32,143.7401179,5e764220adefaa1a931b1774,611e07ecdcc96256ae8d5b80,611e792d741de5058deaf268,
,,,,space,0.2991,,0,81,81,130,1,F, , , , ,space,2000,2,5e764220adefaa1a931b1774,001,2021-08-19_16h31.26.561,natb3,2021.2.3,Win32,143.7401179,5e764220adefaa1a931b1774,611e07ecdcc96256ae8d5b80,611e792d741de5058deaf268,
,,,,space,0.2649,,0,82,82,253,1,N, , , , ,space,2500,2.5,5e764220adefaa1a931b1774,001,2021-08-19_16h31.26.561,natb3,2021.2.3,Win32,143.7401179,5e764220adefaa1a931b1774,611e07ecdcc96256ae8d5b80,611e792d741de5058deaf268,
,,,,,,,0,83,83,187,1,X, ,3,7,4,,1500,1.5,5e764220adefaa1a931b1774,001,2021-08-19_16h31.26.561,natb3,2021.2.3,Win32,143.7401179,5e764220adefaa1a931b1774,611e07ecdcc96256ae8d5b80,611e792d741de5058deaf268,
,,,,space,0.3658,,0,84,84,224,1,W, , , , ,space,1500,1.5,5e764220adefaa1a931b1774,001,2021-08-19_16h31.26.561,natb3,2021.2.3,Win32,143.7401179,5e764220adefaa1a931b1774,611e07ecdcc96256ae8d5b80,611e792d741de5058deaf268,
,,,,space,0.3224,,0,85,85,334,1,O, , , , ,space,1500,1.5,5e764220adefaa1a931b1774,001,2021-08-19_16h31.26.561,natb3,2021.2.3,Win32,143.7401179,5e764220adefaa1a931b1774,611e07ecdcc96256ae8d5b80,611e792d741de5058deaf268,
,,,,space,0.449,,0,86,86,332,1,U, , , , ,space,2000,2,5e764220adefaa1a931b1774,001,2021-08-19_16h31.26.561,natb3,2021.2.3,Win32,143.7401179,5e764220adefaa1a931b1774,611e07ecdcc96256ae8d5b80,611e792d741de5058deaf268,
,,,,space,0.4919,,0,87,87,180,1,W, , , , ,space,2000,2,5e764220adefaa1a931b1774,001,2021-08-19_16h31.26.561,natb3,2021.2.3,Win32,143.7401179,5e764220adefaa1a931b1774,611e07ecdcc96256ae8d5b80,611e792d741de5058deaf268,
,,,,,,,0,88,88,162,1,X,1,6, ,2,,1500,1.5,5e764220adefaa1a931b1774,001,2021-08-19_16h31.26.561,natb3,2021.2.3,Win32,143.7401179,5e764220adefaa1a931b1774,611e07ecdcc96256ae8d5b80,611e792d741de5058deaf268,
,,,,space,0.3414,,0,89,89,62,1,V, , , , ,space,1500,1.5,5e764220adefaa1a931b1774,001,2021-08-19_16h31.26.561,natb3,2021.2.3,Win32,143.7401179,5e764220adefaa1a931b1774,611e07ecdcc96256ae8d5b80,611e792d741de5058deaf268,
,,,,space,0.2813,,0,90,90,133,1,X, ,4, ,6,,2500,2.5,5e764220adefaa1a931b1774,001,2021-08-19_16h31.26.561,natb3,2021.2.3,Win32,143.7401179,5e764220adefaa1a931b1774,611e07ecdcc96256ae8d5b80,611e792d741de5058deaf268,
,,,,,,,0,91,91,311,1,X,1,2,7,3,,2500,2.5,5e764220adefaa1a931b1774,001,2021-08-19_16h31.26.561,natb3,2021.2.3,Win32,143.7401179,5e764220adefaa1a931b1774,611e07ecdcc96256ae8d5b80,611e792d741de5058deaf268,
,,,,space,0.3586,,0,92,92,160,1,D, , , , ,space,1500,1.5,5e764220adefaa1a931b1774,001,2021-08-19_16h31.26.561,natb3,2021.2.3,Win32,143.7401179,5e764220adefaa1a931b1774,611e07ecdcc96256ae8d5b80,611e792d741de5058deaf268,
,,,,,,,0,93,93,259,1,X,8, , ,3,,2500,2.5,5e764220adefaa1a931b1774,001,2021-08-19_16h31.26.561,natb3,2021.2.3,Win32,143.7401179,5e764220adefaa1a931b1774,611e07ecdcc96256ae8d5b80,611e792d741de5058deaf268,
,,,,,,,0,94,94,23,1,X,1, ,5, ,,2000,2,5e764220adefaa1a931b1774,001,2021-08-19_16h31.26.561,natb3,2021.2.3,Win32,143.7401179,5e764220adefaa1a931b1774,611e07ecdcc96256ae8d5b80,611e792d741de5058deaf268,
,,,,,,,0,95,95,46,1,X, , , , ,,2000,2,5e764220adefaa1a931b1774,001,2021-08-19_16h31.26.561,natb3,2021.2.3,Win32,143.7401179,5e764220adefaa1a931b1774,611e07ecdcc96256ae8d5b80,611e792d741de5058deaf268,
,,,,space,0.7402,,0,96,96,9,1,I, , , , ,space,1500,1.5,5e764220adefaa1a931b1774,001,2021-08-19_16h31.26.561,natb3,2021.2.3,Win32,143.7401179,5e764220adefaa1a931b1774,611e07ecdcc96256ae8d5b80,611e792d741de5058deaf268,
,,,,space,0.3879,,0,97,97,42,1,U, , , , ,space,1500,1.5,5e764220adefaa1a931b1774,001,2021-08-19_16h31.26.561,natb3,2021.2.3,Win32,143.7401179,5e764220adefaa1a931b1774,611e07ecdcc96256ae8d5b80,611e792d741de5058deaf268,
,,,,space,0.3548,,0,98,98,4,1,X, , , , ,,2000,2,5e764220adefaa1a931b1774,001,2021-08-19_16h31.26.561,natb3,2021.2.3,Win32,143.7401179,5e764220adefaa1a931b1774,611e07ecdcc96256ae8d5b80,611e792d741de5058deaf268,
,,,,,,,0,99,99,60,1,X,7,3,5, ,,1500,1.5,5e764220adefaa1a931b1774,001,2021-08-19_16h31.26.561,natb3,2021.2.3,Win32,143.7401179,5e764220adefaa1a931b1774,611e07ecdcc96256ae8d5b80,611e792d741de5058deaf268,
,,,,space,0.3828,,0,100,100,90,1,K, , , , ,space,2000,2,5e764220adefaa1a931b1774,001,2021-08-19_16h31.26.561,natb3,2021.2.3,Win32,143.7401179,5e764220adefaa1a931b1774,611e07ecdcc96256ae8d5b80,611e792d741de5058deaf268,
,,,,space,0.455,,0,101,101,217,1,T, , , , ,space,2500,2.5,5e764220adefaa1a931b1774,001,2021-08-19_16h31.26.561,natb3,2021.2.3,Win32,143.7401179,5e764220adefaa1a931b1774,611e07ecdcc96256ae8d5b80,611e792d741de5058deaf268,
,,,,space,0.4371,,0,102,102,285,1,B, , , , ,space,1500,1.5,5e764220adefaa1a931b1774,001,2021-08-19_16h31.26.561,natb3,2021.2.3,Win32,143.7401179,5e764220adefaa1a931b1774,611e07ecdcc96256ae8d5b80,611e792d741de5058deaf268,
,,,,space,0.4951,,0,103,103,212,1,Q, , , , ,space,2500,2.5,5e764220adefaa1a931b1774,001,2021-08-19_16h31.26.561,natb3,2021.2.3,Win32,143.7401179,5e764220adefaa1a931b1774,611e07ecdcc96256ae8d5b80,611e792d741de5058deaf268,
,,,,space,0.8369,,0,104,104,227,1,T, , , , ,space,1500,1.5,5e764220adefaa1a931b1774,001,2021-08-19_16h31.26.561,natb3,2021.2.3,Win32,143.7401179,5e764220adefaa1a931b1774,611e07ecdcc96256ae8d5b80,611e792d741de5058deaf268,
,,,,space,0.3465,,0,105,105,303,1,A, , , , ,space,2000,2,5e764220adefaa1a931b1774,001,2021-08-19_16h31.26.561,natb3,2021.2.3,Win32,143.7401179,5e764220adefaa1a931b1774,611e07ecdcc96256ae8d5b80,611e792d741de5058deaf268,
,,,,space,0.6089,,0,106,106,204,1,Z, , , , ,space,2000,2,5e764220adefaa1a931b1774,001,2021-08-19_16h31.26.561,natb3,2021.2.3,Win32,143.7401179,5e764220adefaa1a931b1774,611e07ecdcc96256ae8d5b80,611e792d741de5058deaf268,
,,,,space,0.3603,,0,107,107,261,1,T, , , , ,space,2000,2,5e764220adefaa1a931b1774,001,2021-08-19_16h31.26.561,natb3,2021.2.3,Win32,143.7401179,5e764220adefaa1a931b1774,611e07ecdcc96256ae8d5b80,611e792d741de5058deaf268,
,,,,space,0.3568,,0,108,108,79,1,P, , , , ,space,2000,2,5e764220adefaa1a931b1774,001,2021-08-19_16h31.26.561,natb3,2021.2.3,Win32,143.7401179,5e764220adefaa1a931b1774,611e07ecdcc96256ae8d5b80,611e792d741de5058deaf268,
,,,,space,0.3501,,0,109,109,84,1,X, , , , ,,2000,2,5e764220adefaa1a931b1774,001,2021-08-19_16h31.26.561,natb3,2021.2.3,Win32,143.7401179,5e764220adefaa1a931b1774,611e07ecdcc96256ae8d5b80,611e792d741de5058deaf268,
,,,,space,0.3401,,0,110,110,330,1,T, , , , ,space,2500,2.5,5e764220adefaa1a931b1774,001,2021-08-19_16h31.26.561,natb3,2021.2.3,Win32,143.7401179,5e764220adefaa1a931b1774,611e07ecdcc96256ae8d5b80,611e792d741de5058deaf268,
,,,,space,0.3251,,0,111,111,189,1,O, , , , ,space,1500,1.5,5e764220adefaa1a931b1774,001,2021-08-19_16h31.26.561,natb3,2021.2.3,Win32,143.7401179,5e764220adefaa1a931b1774,611e07ecdcc96256ae8d5b80,611e792d741de5058deaf268,
,,,,,,,0,112,112,7,1,X, , , , ,,1500,1.5,5e764220adefaa1a931b1774,001,2021-08-19_16h31.26.561,natb3,2021.2.3,Win32,143.7401179,5e764220adefaa1a931b1774,611e07ecdcc96256ae8d5b80,611e792d741de5058deaf268,
,,,,space,0.3318,,0,113,113,64,1,N, , , , ,space,2000,2,5e764220adefaa1a931b1774,001,2021-08-19_16h31.26.561,natb3,2021.2.3,Win32,143.7401179,5e764220adefaa1a931b1774,611e07ecdcc96256ae8d5b80,611e792d741de5058deaf268,
,,,,,,,0,114,114,315,1,X, , , , ,,2500,2.5,5e764220adefaa1a931b1774,001,2021-08-19_16h31.26.561,natb3,2021.2.3,Win32,143.7401179,5e764220adefaa1a931b1774,611e07ecdcc96256ae8d5b80,611e792d741de5058deaf268,
,,,,space,0.3602,,0,115,115,319,1,V, , , , ,space,2000,2,5e764220adefaa1a931b1774,001,2021-08-19_16h31.26.561,natb3,2021.2.3,Win32,143.7401179,5e764220adefaa1a931b1774,611e07ecdcc96256ae8d5b80,611e792d741de5058deaf268,
,,,,,,,0,116,116,255,1,X, , , , ,,1500,1.5,5e764220adefaa1a931b1774,001,2021-08-19_16h31.26.561,natb3,2021.2.3,Win32,143.7401179,5e764220adefaa1a931b1774,611e07ecdcc96256ae8d5b80,611e792d741de5058deaf268,
,,,,,,,0,117,117,102,1,X, ,6, , ,,1500,1.5,5e764220adefaa1a931b1774,001,2021-08-19_16h31.26.561,natb3,2021.2.3,Win32,143.7401179,5e764220adefaa1a931b1774,611e07ecdcc96256ae8d5b80,611e792d741de5058deaf268,
,,,,,,,0,118,118,282,1,X, , , , ,,2500,2.5,5e764220adefaa1a931b1774,001,2021-08-19_16h31.26.561,natb3,2021.2.3,Win32,143.7401179,5e764220adefaa1a931b1774,611e07ecdcc96256ae8d5b80,611e792d741de5058deaf268,
,,,,space,0.5115,,0,119,119,55,1,H, , , , ,space,2500,2.5,5e764220adefaa1a931b1774,001,2021-08-19_16h31.26.561,natb3,2021.2.3,Win32,143.7401179,5e764220adefaa1a931b1774,611e07ecdcc96256ae8d5b80,611e792d741de5058deaf268,
,,,,space,0.455,,0,120,120,68,1,W, , , , ,space,2500,2.5,5e764220adefaa1a931b1774,001,2021-08-19_16h31.26.561,natb3,2021.2.3,Win32,143.7401179,5e764220adefaa1a931b1774,611e07ecdcc96256ae8d5b80,611e792d741de5058deaf268,
,,,,space,0.3753,,0,121,121,300,1,O, , , , ,space,2500,2.5,5e764220adefaa1a931b1774,001,2021-08-19_16h31.26.561,natb3,2021.2.3,Win32,143.7401179,5e764220adefaa1a931b1774,611e07ecdcc96256ae8d5b80,611e792d741de5058deaf268,
,,,,space,0.3581,,0,122,122,199,1,J, , , , ,space,2500,2.5,5e764220adefaa1a931b1774,001,2021-08-19_16h31.26.561,natb3,2021.2.3,Win32,143.7401179,5e764220adefaa1a931b1774,611e07ecdcc96256ae8d5b80,611e792d741de5058deaf268,
,,,,space,0.3613,,0,123,123,164,1,H, , , , ,space,2500,2.5,5e764220adefaa1a931b1774,001,2021-08-19_16h31.26.561,natb3,2021.2.3,Win32,143.7401179,5e764220adefaa1a931b1774,611e07ecdcc96256ae8d5b80,611e792d741de5058deaf268,
,,,,space,0.3338,,0,124,124,279,1,K, , , , ,space,2500,2.5,5e764220adefaa1a931b1774,001,2021-08-19_16h31.26.561,natb3,2021.2.3,Win32,143.7401179,5e764220adefaa1a931b1774,611e07ecdcc96256ae8d5b80,611e792d741de5058deaf268,
,,,,space,0.3832,,0,125,125,231,1,I, , , , ,space,2500,2.5,5e764220adefaa1a931b1774,001,2021-08-19_16h31.26.561,natb3,2021.2.3,Win32,143.7401179,5e764220adefaa1a931b1774,611e07ecdcc96256ae8d5b80,611e792d741de5058deaf268,
,,,,space,0.371,,0,126,126,270,1,S, , , , ,space,1500,1.5,5e764220adefaa1a931b1774,001,2021-08-19_16h31.26.561,natb3,2021.2.3,Win32,143.7401179,5e764220adefaa1a931b1774,611e07ecdcc96256ae8d5b80,611e792d741de5058deaf268,
,,,,space,0.3792,,0,127,127,172,1,C, , , , ,space,1500,1.5,5e764220adefaa1a931b1774,001,2021-08-19_16h31.26.561,natb3,2021.2.3,Win32,143.7401179,5e764220adefaa1a931b1774,611e07ecdcc96256ae8d5b80,611e792d741de5058deaf268,
,,,,space,0.3827,,0,128,128,188,1,I, , , , ,space,2500,2.5,5e764220adefaa1a931b1774,001,2021-08-19_16h31.26.561,natb3,2021.2.3,Win32,143.7401179,5e764220adefaa1a931b1774,611e07ecdcc96256ae8d5b80,611e792d741de5058deaf268,
,,,,space,0.4113,,0,129,129,190,1,P, , , , ,space,2000,2,5e764220adefaa1a931b1774,001,2021-08-19_16h31.26.561,natb3,2021.2.3,Win32,143.7401179,5e764220adefaa1a931b1774,611e07ecdcc96256ae8d5b80,611e792d741de5058deaf268,
,,,,space,0.4078,,0,130,130,132,1,H, , , , ,space,2500,2.5,5e764220adefaa1a931b1774,001,2021-08-19_16h31.26.561,natb3,2021.2.3,Win32,143.7401179,5e764220adefaa1a931b1774,611e07ecdcc96256ae8d5b80,611e792d741de5058deaf268,
,,,,space,0.5673,,0,131,131,95,1,V, , , , ,space,1500,1.5,5e764220adefaa1a931b1774,001,2021-08-19_16h31.26.561,natb3,2021.2.3,Win32,143.7401179,5e764220adefaa1a931b1774,611e07ecdcc96256ae8d5b80,611e792d741de5058deaf268,
,,,,space,0.3656,,0,132,132,296,1,Y, , , , ,space,2500,2.5,5e764220adefaa1a931b1774,001,2021-08-19_16h31.26.561,natb3,2021.2.3,Win32,143.7401179,5e764220adefaa1a931b1774,611e07ecdcc96256ae8d5b80,611e792d741de5058deaf268,
,,,,space,0.3464,,0,133,133,14,1,S, , , , ,space,2500,2.5,5e764220adefaa1a931b1774,001,2021-08-19_16h31.26.561,natb3,2021.2.3,Win32,143.7401179,5e764220adefaa1a931b1774,611e07ecdcc96256ae8d5b80,611e792d741de5058deaf268,
,,,,space,0.3904,,0,134,134,146,1,W, , , , ,space,1500,1.5,5e764220adefaa1a931b1774,001,2021-08-19_16h31.26.561,natb3,2021.2.3,Win32,143.7401179,5e764220adefaa1a931b1774,611e07ecdcc96256ae8d5b80,611e792d741de5058deaf268,
,,,,space,0.3871,,0,135,135,66,1,X, ,4,7, ,,2000,2,5e764220adefaa1a931b1774,001,2021-08-19_16h31.26.561,natb3,2021.2.3,Win32,143.7401179,5e764220adefaa1a931b1774,611e07ecdcc96256ae8d5b80,611e792d741de5058deaf268,
,,,,space,0.3422,,0,136,136,85,1,F, , , , ,space,2500,2.5,5e764220adefaa1a931b1774,001,2021-08-19_16h31.26.561,natb3,2021.2.3,Win32,143.7401179,5e764220adefaa1a931b1774,611e07ecdcc96256ae8d5b80,611e792d741de5058deaf268,
,,,,space,0.353,,0,137,137,144,1,Q, , , , ,space,2500,2.5,5e764220adefaa1a931b1774,001,2021-08-19_16h31.26.561,natb3,2021.2.3,Win32,143.7401179,5e764220adefaa1a931b1774,611e07ecdcc96256ae8d5b80,611e792d741de5058deaf268,
,,,,space,0.3567,,0,138,138,155,1,O, , , , ,space,1500,1.5,5e764220adefaa1a931b1774,001,2021-08-19_16h31.26.561,natb3,2021.2.3,Win32,143.7401179,5e764220adefaa1a931b1774,611e07ecdcc96256ae8d5b80,611e792d741de5058deaf268,
,,,,space,0.4268,,0,139,139,196,1,F, , , , ,space,1500,1.5,5e764220adefaa1a931b1774,001,2021-08-19_16h31.26.561,natb3,2021.2.3,Win32,143.7401179,5e764220adefaa1a931b1774,611e07ecdcc96256ae8d5b80,611e792d741de5058deaf268,
,,,,space,0.3979,,0,140,140,70,1,E, , , , ,space,2500,2.5,5e764220adefaa1a931b1774,001,2021-08-19_16h31.26.561,natb3,2021.2.3,Win32,143.7401179,5e764220adefaa1a931b1774,611e07ecdcc96256ae8d5b80,611e792d741de5058deaf268,
,,,,space,0.3926,,0,141,141,271,1,X, , , , ,,2500,2.5,5e764220adefaa1a931b1774,001,2021-08-19_16h31.26.561,natb3,2021.2.3,Win32,143.7401179,5e764220adefaa1a931b1774,611e07ecdcc96256ae8d5b80,611e792d741de5058deaf268,
,,,,space,0.37,,0,142,142,321,1,N, , , , ,space,2000,2,5e764220adefaa1a931b1774,001,2021-08-19_16h31.26.561,natb3,2021.2.3,Win32,143.7401179,5e764220adefaa1a931b1774,611e07ecdcc96256ae8d5b80,611e792d741de5058deaf268,
,,,,,,,0,143,143,243,1,X, , , , ,,2500,2.5,5e764220adefaa1a931b1774,001,2021-08-19_16h31.26.561,natb3,2021.2.3,Win32,143.7401179,5e764220adefaa1a931b1774,611e07ecdcc96256ae8d5b80,611e792d741de5058deaf268,
,,,,space,0.3628,,0,144,144,63,1,B, , , , ,space,2000,2,5e764220adefaa1a931b1774,001,2021-08-19_16h31.26.561,natb3,2021.2.3,Win32,143.7401179,5e764220adefaa1a931b1774,611e07ecdcc96256ae8d5b80,611e792d741de5058deaf268,
,,,,space,0.2743,,0,145,145,267,1,P, , , , ,space,2000,2,5e764220adefaa1a931b1774,001,2021-08-19_16h31.26.561,natb3,2021.2.3,Win32,143.7401179,5e764220adefaa1a931b1774,611e07ecdcc96256ae8d5b80,611e792d741de5058deaf268,
,,,,space,0.3996,,0,146,146,147,1,E, , , , ,space,2000,2,5e764220adefaa1a931b1774,001,2021-08-19_16h31.26.561,natb3,2021.2.3,Win32,143.7401179,5e764220adefaa1a931b1774,611e07ecdcc96256ae8d5b80,611e792d741de5058deaf268,
,,,,,,,0,147,147,335,1,P,,,,,space,1500,1.5,5e764220adefaa1a931b1774,001,2021-08-19_16h31.26.561,natb3,2021.2.3,Win32,143.7401179,5e764220adefaa1a931b1774,611e07ecdcc96256ae8d5b80,611e792d741de5058deaf268,
,,,,space,0.5316,,0,148,148,264,1,U, , , , ,space,2000,2,5e764220adefaa1a931b1774,001,2021-08-19_16h31.26.561,natb3,2021.2.3,Win32,143.7401179,5e764220adefaa1a931b1774,611e07ecdcc96256ae8d5b80,611e792d741de5058deaf268,
,,,,,,,0,149,149,27,1,X,5, ,1,3,,1500,1.5,5e764220adefaa1a931b1774,001,2021-08-19_16h31.26.561,natb3,2021.2.3,Win32,143.7401179,5e764220adefaa1a931b1774,611e07ecdcc96256ae8d5b80,611e792d741de5058deaf268,
,,,,space,0.4662,,0,150,150,184,1,T, , , , ,space,2000,2,5e764220adefaa1a931b1774,001,2021-08-19_16h31.26.561,natb3,2021.2.3,Win32,143.7401179,5e764220adefaa1a931b1774,611e07ecdcc96256ae8d5b80,611e792d741de5058deaf268,
,,,,space,0.3901,,0,151,151,13,1,A, , , , ,space,2000,2,5e764220adefaa1a931b1774,001,2021-08-19_16h31.26.561,natb3,2021.2.3,Win32,143.7401179,5e764220adefaa1a931b1774,611e07ecdcc96256ae8d5b80,611e792d741de5058deaf268,
,,,,space,0.5944,,0,152,152,91,1,L, , , , ,space,2000,2,5e764220adefaa1a931b1774,001,2021-08-19_16h31.26.561,natb3,2021.2.3,Win32,143.7401179,5e764220adefaa1a931b1774,611e07ecdcc96256ae8d5b80,611e792d741de5058deaf268,
,,,,space,0.4047,,0,153,153,186,1,U, , , , ,space,2500,2.5,5e764220adefaa1a931b1774,001,2021-08-19_16h31.26.561,natb3,2021.2.3,Win32,143.7401179,5e764220adefaa1a931b1774,611e07ecdcc96256ae8d5b80,611e792d741de5058deaf268,
,,,,space,0.5119,,0,154,154,73,1,Y, , , , ,space,2000,2,5e764220adefaa1a931b1774,001,2021-08-19_16h31.26.561,natb3,2021.2.3,Win32,143.7401179,5e764220adefaa1a931b1774,611e07ecdcc96256ae8d5b80,611e792d741de5058deaf268,
,,,,space,0.3605,,0,155,155,307,1,F, , , , ,space,2500,2.5,5e764220adefaa1a931b1774,001,2021-08-19_16h31.26.561,natb3,2021.2.3,Win32,143.7401179,5e764220adefaa1a931b1774,611e07ecdcc96256ae8d5b80,611e792d741de5058deaf268,
,,,,space,0.3595,,0,156,156,326,1,W, , , , ,space,2000,2,5e764220adefaa1a931b1774,001,2021-08-19_16h31.26.561,natb3,2021.2.3,Win32,143.7401179,5e764220adefaa1a931b1774,611e07ecdcc96256ae8d5b80,611e792d741de5058deaf268,
,,,,,,,0,157,157,18,1,X, ,2,5,8,,2500,2.5,5e764220adefaa1a931b1774,001,2021-08-19_16h31.26.561,natb3,2021.2.3,Win32,143.7401179,5e764220adefaa1a931b1774,611e07ecdcc96256ae8d5b80,611e792d741de5058deaf268,
,,,,space,0.3836,,0,158,158,88,1,J, , , , ,space,2500,2.5,5e764220adefaa1a931b1774,001,2021-08-19_16h31.26.561,natb3,2021.2.3,Win32,143.7401179,5e764220adefaa1a931b1774,611e07ecdcc96256ae8d5b80,611e792d741de5058deaf268,
,,,,space,0.4886,,0,159,159,324,1,Q, , , , ,space,2000,2,5e764220adefaa1a931b1774,001,2021-08-19_16h31.26.561,natb3,2021.2.3,Win32,143.7401179,5e764220adefaa1a931b1774,611e07ecdcc96256ae8d5b80,611e792d741de5058deaf268,
,,,,space,0.7257,,0,160,160,208,1,B, , , , ,space,1500,1.5,5e764220adefaa1a931b1774,001,2021-08-19_16h31.26.561,natb3,2021.2.3,Win32,143.7401179,5e764220adefaa1a931b1774,611e07ecdcc96256ae8d5b80,611e792d741de5058deaf268,
,,,,space,0.5058,,0,161,161,156,1,P, , , , ,space,1500,1.5,5e764220adefaa1a931b1774,001,2021-08-19_16h31.26.561,natb3,2021.2.3,Win32,143.7401179,5e764220adefaa1a931b1774,611e07ecdcc96256ae8d5b80,611e792d741de5058deaf268,
,,,,,,,0,162,162,287,1,X, ,2, ,9,,2000,2,5e764220adefaa1a931b1774,001,2021-08-19_16h31.26.561,natb3,2021.2.3,Win32,143.7401179,5e764220adefaa1a931b1774,611e07ecdcc96256ae8d5b80,611e792d741de5058deaf268,
,,,,,,,0,163,163,141,1,X,1, ,4,6,,1500,1.5,5e764220adefaa1a931b1774,001,2021-08-19_16h31.26.561,natb3,2021.2.3,Win32,143.7401179,5e764220adefaa1a931b1774,611e07ecdcc96256ae8d5b80,611e792d741de5058deaf268,
,,,,space,0.5636,,0,164,164,52,1,F, , , , ,space,1500,1.5,5e764220adefaa1a931b1774,001,2021-08-19_16h31.26.561,natb3,2021.2.3,Win32,143.7401179,5e764220adefaa1a931b1774,611e07ecdcc96256ae8d5b80,611e792d741de5058deaf268,
,,,,space,0.4372,,0,165,165,309,1,H, , , , ,space,2500,2.5,5e764220adefaa1a931b1774,001,2021-08-19_16h31.26.561,natb3,2021.2.3,Win32,143.7401179,5e764220adefaa1a931b1774,611e07ecdcc96256ae8d5b80,611e792d741de5058deaf268,
,,,,space,0.4299,,0,166,166,209,1,N, , , , ,space,2000,2,5e764220adefaa1a931b1774,001,2021-08-19_16h31.26.561,natb3,2021.2.3,Win32,143.7401179,5e764220adefaa1a931b1774,611e07ecdcc96256ae8d5b80,611e792d741de5058deaf268,
,,,,space,0.3481,space,0,167,167,193,1,S, , , , ,space,2500,2.5,5e764220adefaa1a931b1774,001,2021-08-19_16h31.26.561,natb3,2021.2.3,Win32,143.7401179,5e764220adefaa1a931b1774,611e07ecdcc96256ae8d5b80,611e792d741de5058deaf268,90.3569
,,,,space,0.4487,,0,168,168,65,1,M, , , , ,space,1500,1.5,5e764220adefaa1a931b1774,001,2021-08-19_16h31.26.561,natb3,2021.2.3,Win32,143.7401179,5e764220adefaa1a931b1774,611e07ecdcc96256ae8d5b80,611e792d741de5058deaf268,
,,,,,,,0,169,169,129,1,X,2,3,5, ,,1500,1.5,5e764220adefaa1a931b1774,001,2021-08-19_16h31.26.561,natb3,2021.2.3,Win32,143.7401179,5e764220adefaa1a931b1774,611e07ecdcc96256ae8d5b80,611e792d741de5058deaf268,
,,,,space,0.441,,0,170,170,237,1,S, , , , ,space,1500,1.5,5e764220adefaa1a931b1774,001,2021-08-19_16h31.26.561,natb3,2021.2.3,Win32,143.7401179,5e764220adefaa1a931b1774,611e07ecdcc96256ae8d5b80,611e792d741de5058deaf268,
,,,,space,0.3665,,0,171,171,71,1,R, , , , ,space,2500,2.5,5e764220adefaa1a931b1774,001,2021-08-19_16h31.26.561,natb3,2021.2.3,Win32,143.7401179,5e764220adefaa1a931b1774,611e07ecdcc96256ae8d5b80,611e792d741de5058deaf268,
,,,,space,0.5044,,0,172,172,286,1,N, , , , ,space,1500,1.5,5e764220adefaa1a931b1774,001,2021-08-19_16h31.26.561,natb3,2021.2.3,Win32,143.7401179,5e764220adefaa1a931b1774,611e07ecdcc96256ae8d5b80,611e792d741de5058deaf268,
,,,,space,0.394,,0,173,173,254,1,M, , , , ,space,1500,1.5,5e764220adefaa1a931b1774,001,2021-08-19_16h31.26.561,natb3,2021.2.3,Win32,143.7401179,5e764220adefaa1a931b1774,611e07ecdcc96256ae8d5b80,611e792d741de5058deaf268,
,,,,space,0.3497,,0,174,174,292,1,E, , , , ,space,2000,2,5e764220adefaa1a931b1774,001,2021-08-19_16h31.26.561,natb3,2021.2.3,Win32,143.7401179,5e764220adefaa1a931b1774,611e07ecdcc96256ae8d5b80,611e792d741de5058deaf268,
,,,,space,0.305,,0,175,175,58,1,L, , , , ,space,2000,2,5e764220adefaa1a931b1774,001,2021-08-19_16h31.26.561,natb3,2021.2.3,Win32,143.7401179,5e764220adefaa1a931b1774,611e07ecdcc96256ae8d5b80,611e792d741de5058deaf268,
,,,,,,,0,176,176,122,1,X,1, , ,8,,1500,1.5,5e764220adefaa1a931b1774,001,2021-08-19_16h31.26.561,natb3,2021.2.3,Win32,143.7401179,5e764220adefaa1a931b1774,611e07ecdcc96256ae8d5b80,611e792d741de5058deaf268,
,,,,space,0.4135,,0,177,177,99,1,N, , , , ,space,2500,2.5,5e764220adefaa1a931b1774,001,2021-08-19_16h31.26.561,natb3,2021.2.3,Win32,143.7401179,5e764220adefaa1a931b1774,611e07ecdcc96256ae8d5b80,611e792d741de5058deaf268,
,,,,space,0.3179,,0,178,178,283,1,C, , , , ,space,1500,1.5,5e764220adefaa1a931b1774,001,2021-08-19_16h31.26.561,natb3,2021.2.3,Win32,143.7401179,5e764220adefaa1a931b1774,611e07ecdcc96256ae8d5b80,611e792d741de5058deaf268,
,,,,space,0.3536,,0,179,179,222,1,O, , , , ,space,2000,2,5e764220adefaa1a931b1774,001,2021-08-19_16h31.26.561,natb3,2021.2.3,Win32,143.7401179,5e764220adefaa1a931b1774,611e07ecdcc96256ae8d5b80,611e792d741de5058deaf268,
,,,,space,0.5131,,0,180,180,105,1,R, , , , ,space,2500,2.5,5e764220adefaa1a931b1774,001,2021-08-19_16h31.26.561,natb3,2021.2.3,Win32,143.7401179,5e764220adefaa1a931b1774,611e07ecdcc96256ae8d5b80,611e792d741de5058deaf268,
,,,,space,0.3789,,0,181,181,29,1,B, , , , ,space,1500,1.5,5e764220adefaa1a931b1774,001,2021-08-19_16h31.26.561,natb3,2021.2.3,Win32,143.7401179,5e764220adefaa1a931b1774,611e07ecdcc96256ae8d5b80,611e792d741de5058deaf268,
,,,,space,0.3259,,0,182,182,314,1,L, , , , ,space,1500,1.5,5e764220adefaa1a931b1774,001,2021-08-19_16h31.26.561,natb3,2021.2.3,Win32,143.7401179,5e764220adefaa1a931b1774,611e07ecdcc96256ae8d5b80,611e792d741de5058deaf268,
,,,,space,0.3458,,0,183,183,31,1,X, , , , ,,1500,1.5,5e764220adefaa1a931b1774,001,2021-08-19_16h31.26.561,natb3,2021.2.3,Win32,143.7401179,5e764220adefaa1a931b1774,611e07ecdcc96256ae8d5b80,611e792d741de5058deaf268,
,,,,space,0.4501,,0,184,184,185,1,Y, , , , ,space,2500,2.5,5e764220adefaa1a931b1774,001,2021-08-19_16h31.26.561,natb3,2021.2.3,Win32,143.7401179,5e764220adefaa1a931b1774,611e07ecdcc96256ae8d5b80,611e792d741de5058deaf268,
,,,,space,0.4594,,0,185,185,143,1,M, , , , ,space,2500,2.5,5e764220adefaa1a931b1774,001,2021-08-19_16h31.26.561,natb3,2021.2.3,Win32,143.7401179,5e764220adefaa1a931b1774,611e07ecdcc96256ae8d5b80,611e792d741de5058deaf268,
,,,,,,,0,186,186,118,1,X, , , , ,,2000,2,5e764220adefaa1a931b1774,001,2021-08-19_16h31.26.561,natb3,2021.2.3,Win32,143.7401179,5e764220adefaa1a931b1774,611e07ecdcc96256ae8d5b80,611e792d741de5058deaf268,
,,,,space,0.3637,,0,187,187,244,1,J, , , , ,space,1500,1.5,5e764220adefaa1a931b1774,001,2021-08-19_16h31.26.561,natb3,2021.2.3,Win32,143.7401179,5e764220adefaa1a931b1774,611e07ecdcc96256ae8d5b80,611e792d741de5058deaf268,
,,,,,,,0,188,188,329,1,X,3,4, ,2,,2500,2.5,5e764220adefaa1a931b1774,001,2021-08-19_16h31.26.561,natb3,2021.2.3,Win32,143.7401179,5e764220adefaa1a931b1774,611e07ecdcc96256ae8d5b80,611e792d741de5058deaf268,
,,,,space,0.4175,,0,189,189,240,1,F, , , , ,space,2500,2.5,5e764220adefaa1a931b1774,001,2021-08-19_16h31.26.561,natb3,2021.2.3,Win32,143.7401179,5e764220adefaa1a931b1774,611e07ecdcc96256ae8d5b80,611e792d741de5058deaf268,
,,,,space,0.3825,,0,190,190,205,1,C, , , , ,space,2000,2,5e764220adefaa1a931b1774,001,2021-08-19_16h31.26.561,natb3,2021.2.3,Win32,143.7401179,5e764220adefaa1a931b1774,611e07ecdcc96256ae8d5b80,611e792d741de5058deaf268,
,,,,space,0.3076,,0,191,191,161,1,F, , , , ,space,1500,1.5,5e764220adefaa1a931b1774,001,2021-08-19_16h31.26.561,natb3,2021.2.3,Win32,143.7401179,5e764220adefaa1a931b1774,611e07ecdcc96256ae8d5b80,611e792d741de5058deaf268,
,,,,space,0.3976,,0,192,192,272,1,D, , , , ,space,2000,2,5e764220adefaa1a931b1774,001,2021-08-19_16h31.26.561,natb3,2021.2.3,Win32,143.7401179,5e764220adefaa1a931b1774,611e07ecdcc96256ae8d5b80,611e792d741de5058deaf268,
,,,,space,0.5534,,0,193,193,8,1,U, , , , ,space,1500,1.5,5e764220adefaa1a931b1774,001,2021-08-19_16h31.26.561,natb3,2021.2.3,Win32,143.7401179,5e764220adefaa1a931b1774,611e07ecdcc96256ae8d5b80,611e792d741de5058deaf268,
,,,,space,0.5444,,0,194,194,5,1,T, , , , ,space,2000,2,5e764220adefaa1a931b1774,001,2021-08-19_16h31.26.561,natb3,2021.2.3,Win32,143.7401179,5e764220adefaa1a931b1774,611e07ecdcc96256ae8d5b80,611e792d741de5058deaf268,
,,,,space,0.4856,,0,195,195,219,1,Y, , , , ,space,2000,2,5e764220adefaa1a931b1774,001,2021-08-19_16h31.26.561,natb3,2021.2.3,Win32,143.7401179,5e764220adefaa1a931b1774,611e07ecdcc96256ae8d5b80,611e792d741de5058deaf268,
,,,,space,0.3624,,0,196,196,250,1,V, , , , ,space,2000,2,5e764220adefaa1a931b1774,001,2021-08-19_16h31.26.561,natb3,2021.2.3,Win32,143.7401179,5e764220adefaa1a931b1774,611e07ecdcc96256ae8d5b80,611e792d741de5058deaf268,
,,,,,,,0,197,197,116,1,X, , , , ,,2000,2,5e764220adefaa1a931b1774,001,2021-08-19_16h31.26.561,natb3,2021.2.3,Win32,143.7401179,5e764220adefaa1a931b1774,611e07ecdcc96256ae8d5b80,611e792d741de5058deaf268,
,,,,space,0.427,,0,198,198,260,1,R, , , , ,space,2000,2,5e764220adefaa1a931b1774,001,2021-08-19_16h31.26.561,natb3,2021.2.3,Win32,143.7401179,5e764220adefaa1a931b1774,611e07ecdcc96256ae8d5b80,611e792d741de5058deaf268,
,,,,space,0.5645,,0,199,199,298,1,I, , , , ,space,2000,2,5e764220adefaa1a931b1774,001,2021-08-19_16h31.26.561,natb3,2021.2.3,Win32,143.7401179,5e764220adefaa1a931b1774,611e07ecdcc96256ae8d5b80,611e792d741de5058deaf268,
,,,,,,,0,200,200,248,1,X, ,1,5, ,,1500,1.5,5e764220adefaa1a931b1774,001,2021-08-19_16h31.26.561,natb3,2021.2.3,Win32,143.7401179,5e764220adefaa1a931b1774,611e07ecdcc96256ae8d5b80,611e792d741de5058deaf268,
,,,,space,0.5495,,0,201,201,119,1,Y, , , , ,space,2500,2.5,5e764220adefaa1a931b1774,001,2021-08-19_16h31.26.561,natb3,2021.2.3,Win32,143.7401179,5e764220adefaa1a931b1774,611e07ecdcc96256ae8d5b80,611e792d741de5058deaf268,
,,,,,,,0,202,202,229,1,X,8, ,2,6,,2500,2.5,5e764220adefaa1a931b1774,001,2021-08-19_16h31.26.561,natb3,2021.2.3,Win32,143.7401179,5e764220adefaa1a931b1774,611e07ecdcc96256ae8d5b80,611e792d741de5058deaf268,
,,,,,,,0,203,203,78,1,X, , , , ,,2000,2,5e764220adefaa1a931b1774,001,2021-08-19_16h31.26.561,natb3,2021.2.3,Win32,143.7401179,5e764220adefaa1a931b1774,611e07ecdcc96256ae8d5b80,611e792d741de5058deaf268,
,,,,space,0.5109,,0,204,204,165,1,J, , , , ,space,2500,2.5,5e764220adefaa1a931b1774,001,2021-08-19_16h31.26.561,natb3,2021.2.3,Win32,143.7401179,5e764220adefaa1a931b1774,611e07ecdcc96256ae8d5b80,611e792d741de5058deaf268,
,,,,space,0.8543,,0,205,205,149,1,R, , , , ,space,2000,2,5e764220adefaa1a931b1774,001,2021-08-19_16h31.26.561,natb3,2021.2.3,Win32,143.7401179,5e764220adefaa1a931b1774,611e07ecdcc96256ae8d5b80,611e792d741de5058deaf268,
,,,,,,,0,206,206,236,1,X,3, ,4,7,,2500,2.5,5e764220adefaa1a931b1774,001,2021-08-19_16h31.26.561,natb3,2021.2.3,Win32,143.7401179,5e764220adefaa1a931b1774,611e07ecdcc96256ae8d5b80,611e792d741de5058deaf268,
,,,,space,0.5084,,0,207,207,257,1,W, , , , ,space,2000,2,5e764220adefaa1a931b1774,001,2021-08-19_16h31.26.561,natb3,2021.2.3,Win32,143.7401179,5e764220adefaa1a931b1774,611e07ecdcc96256ae8d5b80,611e792d741de5058deaf268,
,,,,space,0.6037,,0,208,208,10,1,O, , , , ,space,2000,2,5e764220adefaa1a931b1774,001,2021-08-19_16h31.26.561,natb3,2021.2.3,Win32,143.7401179,5e764220adefaa1a931b1774,611e07ecdcc96256ae8d5b80,611e792d741de5058deaf268,
,,,,space,0.4535,,0,209,209,221,1,I, , , , ,space,2500,2.5,5e764220adefaa1a931b1774,001,2021-08-19_16h31.26.561,natb3,2021.2.3,Win32,143.7401179,5e764220adefaa1a931b1774,611e07ecdcc96256ae8d5b80,611e792d741de5058deaf268,
,,,,,,,0,210,210,15,1,X, , , , ,,1500,1.5,5e764220adefaa1a931b1774,001,2021-08-19_16h31.26.561,natb3,2021.2.3,Win32,143.7401179,5e764220adefaa1a931b1774,611e07ecdcc96256ae8d5b80,611e792d741de5058deaf268,
,,,,space,0.5506,,0,211,211,57,1,K, , , , ,space,2500,2.5,5e764220adefaa1a931b1774,001,2021-08-19_16h31.26.561,natb3,2021.2.3,Win32,143.7401179,5e764220adefaa1a931b1774,611e07ecdcc96256ae8d5b80,611e792d741de5058deaf268,
,,,,space,0.3661,,0,212,212,290,1,W, , , , ,space,1500,1.5,5e764220adefaa1a931b1774,001,2021-08-19_16h31.26.561,natb3,2021.2.3,Win32,143.7401179,5e764220adefaa1a931b1774,611e07ecdcc96256ae8d5b80,611e792d741de5058deaf268,
,,,,,,,0,213,213,318,1,X, , , , ,,1500,1.5,5e764220adefaa1a931b1774,001,2021-08-19_16h31.26.561,natb3,2021.2.3,Win32,143.7401179,5e764220adefaa1a931b1774,611e07ecdcc96256ae8d5b80,611e792d741de5058deaf268,
,,,,,,,0,214,214,291,1,X, , , , ,,2000,2,5e764220adefaa1a931b1774,001,2021-08-19_16h31.26.561,natb3,2021.2.3,Win32,143.7401179,5e764220adefaa1a931b1774,611e07ecdcc96256ae8d5b80,611e792d741de5058deaf268,
,,,,,,,0,215,215,277,1,X,8,5, ,2,,2000,2,5e764220adefaa1a931b1774,001,2021-08-19_16h31.26.561,natb3,2021.2.3,Win32,143.7401179,5e764220adefaa1a931b1774,611e07ecdcc96256ae8d5b80,611e792d741de5058deaf268,
,,,,,,,0,216,216,145,1,X, , , , ,,2000,2,5e764220adefaa1a931b1774,001,2021-08-19_16h31.26.561,natb3,2021.2.3,Win32,143.7401179,5e764220adefaa1a931b1774,611e07ecdcc96256ae8d5b80,611e792d741de5058deaf268,
,,,,,,,0,217,217,96,1,X, , , , ,,1500,1.5,5e764220adefaa1a931b1774,001,2021-08-19_16h31.26.561,natb3,2021.2.3,Win32,143.7401179,5e764220adefaa1a931b1774,611e07ecdcc96256ae8d5b80,611e792d741de5058deaf268,
,,,,space,0.6181,,0,218,218,197,1,G, , , , ,space,2500,2.5,5e764220adefaa1a931b1774,001,2021-08-19_16h31.26.561,natb3,2021.2.3,Win32,143.7401179,5e764220adefaa1a931b1774,611e07ecdcc96256ae8d5b80,611e792d741de5058deaf268,
,,,,space,0.4221,,0,219,219,47,1,P, , , , ,space,2000,2,5e764220adefaa1a931b1774,001,2021-08-19_16h31.26.561,natb3,2021.2.3,Win32,143.7401179,5e764220adefaa1a931b1774,611e07ecdcc96256ae8d5b80,611e792d741de5058deaf268,
,,,,space,0.501,,0,220,220,126,1,A, , , , ,space,2500,2.5,5e764220adefaa1a931b1774,001,2021-08-19_16h31.26.561,natb3,2021.2.3,Win32,143.7401179,5e764220adefaa1a931b1774,611e07ecdcc96256ae8d5b80,611e792d741de5058deaf268,
,,,,space,0.477,,0,221,221,3,1,R, , , , ,space,2000,2,5e764220adefaa1a931b1774,001,2021-08-19_16h31.26.561,natb3,2021.2.3,Win32,143.7401179,5e764220adefaa1a931b1774,611e07ecdcc96256ae8d5b80,611e792d741de5058deaf268,
,,,,space,0.4404,,0,222,222,150,1,T, , , , ,space,2500,2.5,5e764220adefaa1a931b1774,001,2021-08-19_16h31.26.561,natb3,2021.2.3,Win32,143.7401179,5e764220adefaa1a931b1774,611e07ecdcc96256ae8d5b80,611e792d741de5058deaf268,
,,,,space,0.3227,,0,223,223,21,1,J, , , , ,space,1500,1.5,5e764220adefaa1a931b1774,001,2021-08-19_16h31.26.561,natb3,2021.2.3,Win32,143.7401179,5e764220adefaa1a931b1774,611e07ecdcc96256ae8d5b80,611e792d741de5058deaf268,
,,,,space,0.341,,0,224,224,104,1,E, , , , ,space,2000,2,5e764220adefaa1a931b1774,001,2021-08-19_16h31.26.561,natb3,2021.2.3,Win32,143.7401179,5e764220adefaa1a931b1774,611e07ecdcc96256ae8d5b80,611e792d741de5058deaf268,
,,,,,,,0,225,225,195,1,X, , , , ,,1500,1.5,5e764220adefaa1a931b1774,001,2021-08-19_16h31.26.561,natb3,2021.2.3,Win32,143.7401179,5e764220adefaa1a931b1774,611e07ecdcc96256ae8d5b80,611e792d741de5058deaf268,
,,,,space,0.3688,,0,226,226,28,1,V, , , , ,space,1500,1.5,5e764220adefaa1a931b1774,001,2021-08-19_16h31.26.561,natb3,2021.2.3,Win32,143.7401179,5e764220adefaa1a931b1774,611e07ecdcc96256ae8d5b80,611e792d741de5058deaf268,
,,,,space,0.3618,,0,227,227,269,1,A, , , , ,space,2500,2.5,5e764220adefaa1a931b1774,001,2021-08-19_16h31.26.561,natb3,2021.2.3,Win32,143.7401179,5e764220adefaa1a931b1774,611e07ecdcc96256ae8d5b80,611e792d741de5058deaf268,
,,,,space,0.3859,,0,228,228,80,1,A, , , , ,space,2000,2,5e764220adefaa1a931b1774,001,2021-08-19_16h31.26.561,natb3,2021.2.3,Win32,143.7401179,5e764220adefaa1a931b1774,611e07ecdcc96256ae8d5b80,611e792d741de5058deaf268,
,,,,space,0.349,,0,229,229,256,1,Q, , , , ,space,2000,2,5e764220adefaa1a931b1774,001,2021-08-19_16h31.26.561,natb3,2021.2.3,Win32,143.7401179,5e764220adefaa1a931b1774,611e07ecdcc96256ae8d5b80,611e792d741de5058deaf268,
,,,,,,,0,230,230,325,1,X, , , , ,,2500,2.5,5e764220adefaa1a931b1774,001,2021-08-19_16h31.26.561,natb3,2021.2.3,Win32,143.7401179,5e764220adefaa1a931b1774,611e07ecdcc96256ae8d5b80,611e792d741de5058deaf268,
,,,,space,0.3541,,0,231,231,226,1,R, , , , ,space,2000,2,5e764220adefaa1a931b1774,001,2021-08-19_16h31.26.561,natb3,2021.2.3,Win32,143.7401179,5e764220adefaa1a931b1774,611e07ecdcc96256ae8d5b80,611e792d741de5058deaf268,
,,,,,,,0,232,232,33,1,X, , , , ,,1500,1.5,5e764220adefaa1a931b1774,001,2021-08-19_16h31.26.561,natb3,2021.2.3,Win32,143.7401179,5e764220adefaa1a931b1774,611e07ecdcc96256ae8d5b80,611e792d741de5058deaf268,
,,,,space,0.43,,0,233,233,110,1,I, , , , ,space,1500,1.5,5e764220adefaa1a931b1774,001,2021-08-19_16h31.26.561,natb3,2021.2.3,Win32,143.7401179,5e764220adefaa1a931b1774,611e07ecdcc96256ae8d5b80,611e792d741de5058deaf268,
,,,,space,0.4739,,0,234,234,75,1,U, , , , ,space,1500,1.5,5e764220adefaa1a931b1774,001,2021-08-19_16h31.26.561,natb3,2021.2.3,Win32,143.7401179,5e764220adefaa1a931b1774,611e07ecdcc96256ae8d5b80,611e792d741de5058deaf268,
,,,,space,0.3859,,0,235,235,16,1,D, , , , ,space,1500,1.5,5e764220adefaa1a931b1774,001,2021-08-19_16h31.26.561,natb3,2021.2.3,Win32,143.7401179,5e764220adefaa1a931b1774,611e07ecdcc96256ae8d5b80,611e792d741de5058deaf268,
,,,,space,0.3715,,0,236,236,293,1,R, , , , ,space,2500,2.5,5e764220adefaa1a931b1774,001,2021-08-19_16h31.26.561,natb3,2021.2.3,Win32,143.7401179,5e764220adefaa1a931b1774,611e07ecdcc96256ae8d5b80,611e792d741de5058deaf268,
,,,,space,0.5275,,0,237,237,320,1,B, , , , ,space,1500,1.5,5e764220adefaa1a931b1774,001,2021-08-19_16h31.26.561,natb3,2021.2.3,Win32,143.7401179,5e764220adefaa1a931b1774,611e07ecdcc96256ae8d5b80,611e792d741de5058deaf268,
,,,,space,0.3668,,0,238,238,120,1,U, , , , ,space,1500,1.5,5e764220adefaa1a931b1774,001,2021-08-19_16h31.26.561,natb3,2021.2.3,Win32,143.7401179,5e764220adefaa1a931b1774,611e07ecdcc96256ae8d5b80,611e792d741de5058deaf268,
,,,,space,0.4612,,0,239,239,163,1,G, , , , ,space,2500,2.5,5e764220adefaa1a931b1774,001,2021-08-19_16h31.26.561,natb3,2021.2.3,Win32,143.7401179,5e764220adefaa1a931b1774,611e07ecdcc96256ae8d5b80,611e792d741de5058deaf268,
,,,,space,0.4247,,0,240,240,106,1,T, , , , ,space,1500,1.5,5e764220adefaa1a931b1774,001,2021-08-19_16h31.26.561,natb3,2021.2.3,Win32,143.7401179,5e764220adefaa1a931b1774,611e07ecdcc96256ae8d5b80,611e792d741de5058deaf268,
,,,,space,0.3424,,0,241,241,302,1,X, , , , ,,2000,2,5e764220adefaa1a931b1774,001,2021-08-19_16h31.26.561,natb3,2021.2.3,Win32,143.7401179,5e764220adefaa1a931b1774,611e07ecdcc96256ae8d5b80,611e792d741de5058deaf268,
,,,,,,,0,242,242,211,1,X, , , , ,,2500,2.5,5e764220adefaa1a931b1774,001,2021-08-19_16h31.26.561,natb3,2021.2.3,Win32,143.7401179,5e764220adefaa1a931b1774,611e07ecdcc96256ae8d5b80,611e792d741de5058deaf268,
,,,,space,0.4374,,0,243,243,178,1,Q, , , , ,space,1500,1.5,5e764220adefaa1a931b1774,001,2021-08-19_16h31.26.561,natb3,2021.2.3,Win32,143.7401179,5e764220adefaa1a931b1774,611e07ecdcc96256ae8d5b80,611e792d741de5058deaf268,
,,,,space,0.4494,,0,244,244,167,1,K, , , , ,space,1500,1.5,5e764220adefaa1a931b1774,001,2021-08-19_16h31.26.561,natb3,2021.2.3,Win32,143.7401179,5e764220adefaa1a931b1774,611e07ecdcc96256ae8d5b80,611e792d741de5058deaf268,
,,,,space,0.3549,,0,245,245,83,1,D, , , , ,space,2000,2,5e764220adefaa1a931b1774,001,2021-08-19_16h31.26.561,natb3,2021.2.3,Win32,143.7401179,5e764220adefaa1a931b1774,611e07ecdcc96256ae8d5b80,611e792d741de5058deaf268,
,,,,,,,0,246,246,200,1,X,7, ,5,3,,1500,1.5,5e764220adefaa1a931b1774,001,2021-08-19_16h31.26.561,natb3,2021.2.3,Win32,143.7401179,5e764220adefaa1a931b1774,611e07ecdcc96256ae8d5b80,611e792d741de5058deaf268,
,,,,space,0.4208,,0,247,247,86,1,G, , , , ,space,2000,2,5e764220adefaa1a931b1774,001,2021-08-19_16h31.26.561,natb3,2021.2.3,Win32,143.7401179,5e764220adefaa1a931b1774,611e07ecdcc96256ae8d5b80,611e792d741de5058deaf268,
,,,,space,0.4003,,0,248,248,323,1,M, , , , ,space,2500,2.5,5e764220adefaa1a931b1774,001,2021-08-19_16h31.26.561,natb3,2021.2.3,Win32,143.7401179,5e764220adefaa1a931b1774,611e07ecdcc96256ae8d5b80,611e792d741de5058deaf268,
,,,,,,,0,249,249,107,1,X,9,3, ,2,,2000,2,5e764220adefaa1a931b1774,001,2021-08-19_16h31.26.561,natb3,2021.2.3,Win32,143.7401179,5e764220adefaa1a931b1774,611e07ecdcc96256ae8d5b80,611e792d741de5058deaf268,
,,,,space,0.5118,,0,250,250,36,1,W, , , , ,space,2000,2,5e764220adefaa1a931b1774,001,2021-08-19_16h31.26.561,natb3,2021.2.3,Win32,143.7401179,5e764220adefaa1a931b1774,611e07ecdcc96256ae8d5b80,611e792d741de5058deaf268,
,,,,space,0.5342,,0,251,251,198,1,H, , , , ,space,2500,2.5,5e764220adefaa1a931b1774,001,2021-08-19_16h31.26.561,natb3,2021.2.3,Win32,143.7401179,5e764220adefaa1a931b1774,611e07ecdcc96256ae8d5b80,611e792d741de5058deaf268,
,,,,,,,0,252,252,263,1,X,4, ,6, ,,1500,1.5,5e764220adefaa1a931b1774,001,2021-08-19_16h31.26.561,natb3,2021.2.3,Win32,143.7401179,5e764220adefaa1a931b1774,611e07ecdcc96256ae8d5b80,611e792d741de5058deaf268,
,,,,space,0.4137,,0,253,253,232,1,O, , , , ,space,2500,2.5,5e764220adefaa1a931b1774,001,2021-08-19_16h31.26.561,natb3,2021.2.3,Win32,143.7401179,5e764220adefaa1a931b1774,611e07ecdcc96256ae8d5b80,611e792d741de5058deaf268,
,,,,space,0.4948,,0,254,254,22,1,K, , , , ,space,2000,2,5e764220adefaa1a931b1774,001,2021-08-19_16h31.26.561,natb3,2021.2.3,Win32,143.7401179,5e764220adefaa1a931b1774,611e07ecdcc96256ae8d5b80,611e792d741de5058deaf268,
,,,,space,0.4243,,0,255,255,173,1,V, , , , ,space,1500,1.5,5e764220adefaa1a931b1774,001,2021-08-19_16h31.26.561,natb3,2021.2.3,Win32,143.7401179,5e764220adefaa1a931b1774,611e07ecdcc96256ae8d5b80,611e792d741de5058deaf268,
,,,,space,0.4049,,0,256,256,220,1,U, , , , ,space,2500,2.5,5e764220adefaa1a931b1774,001,2021-08-19_16h31.26.561,natb3,2021.2.3,Win32,143.7401179,5e764220adefaa1a931b1774,611e07ecdcc96256ae8d5b80,611e792d741de5058deaf268,
,,,,space,0.3969,,0,257,257,225,1,E, , , , ,space,2000,2,5e764220adefaa1a931b1774,001,2021-08-19_16h31.26.561,natb3,2021.2.3,Win32,143.7401179,5e764220adefaa1a931b1774,611e07ecdcc96256ae8d5b80,611e792d741de5058deaf268,
,,,,space,0.3589,,0,258,258,289,1,Q, , , , ,space,2000,2,5e764220adefaa1a931b1774,001,2021-08-19_16h31.26.561,natb3,2021.2.3,Win32,143.7401179,5e764220adefaa1a931b1774,611e07ecdcc96256ae8d5b80,611e792d741de5058deaf268,
,,,,space,0.3437,,0,259,259,121,1,I, , , , ,space,2000,2,5e764220adefaa1a931b1774,001,2021-08-19_16h31.26.561,natb3,2021.2.3,Win32,143.7401179,5e764220adefaa1a931b1774,611e07ecdcc96256ae8d5b80,611e792d741de5058deaf268,
,,,,space,0.3326,,0,260,260,203,1,X, , , , ,,2500,2.5,5e764220adefaa1a931b1774,001,2021-08-19_16h31.26.561,natb3,2021.2.3,Win32,143.7401179,5e764220adefaa1a931b1774,611e07ecdcc96256ae8d5b80,611e792d741de5058deaf268,
,,,,,,,0,261,261,43,1,X, ,6, ,2,,2500,2.5,5e764220adefaa1a931b1774,001,2021-08-19_16h31.26.561,natb3,2021.2.3,Win32,143.7401179,5e764220adefaa1a931b1774,611e07ecdcc96256ae8d5b80,611e792d741de5058deaf268,
,,,,space,0.5577,,0,262,262,135,1,K, , , , ,space,1500,1.5,5e764220adefaa1a931b1774,001,2021-08-19_16h31.26.561,natb3,2021.2.3,Win32,143.7401179,5e764220adefaa1a931b1774,611e07ecdcc96256ae8d5b80,611e792d741de5058deaf268,
,,,,space,0.5216,,0,263,263,235,1,A, , , , ,space,1500,1.5,5e764220adefaa1a931b1774,001,2021-08-19_16h31.26.561,natb3,2021.2.3,Win32,143.7401179,5e764220adefaa1a931b1774,611e07ecdcc96256ae8d5b80,611e792d741de5058deaf268,
,,,,space,0.493,,0,264,264,103,1,W, , , , ,space,2000,2,5e764220adefaa1a931b1774,001,2021-08-19_16h31.26.561,natb3,2021.2.3,Win32,143.7401179,5e764220adefaa1a931b1774,611e07ecdcc96256ae8d5b80,611e792d741de5058deaf268,
,,,,space,0.4249,,0,265,265,108,1,Y, , , , ,space,2500,2.5,5e764220adefaa1a931b1774,001,2021-08-19_16h31.26.561,natb3,2021.2.3,Win32,143.7401179,5e764220adefaa1a931b1774,611e07ecdcc96256ae8d5b80,611e792d741de5058deaf268,
,,,,space,0.4304,,0,266,266,49,1,S, , , , ,space,1500,1.5,5e764220adefaa1a931b1774,001,2021-08-19_16h31.26.561,natb3,2021.2.3,Win32,143.7401179,5e764220adefaa1a931b1774,611e07ecdcc96256ae8d5b80,611e792d741de5058deaf268,
,,,,space,0.508,,0,267,267,223,1,Q, , , , ,space,2000,2,5e764220adefaa1a931b1774,001,2021-08-19_16h31.26.561,natb3,2021.2.3,Win32,143.7401179,5e764220adefaa1a931b1774,611e07ecdcc96256ae8d5b80,611e792d741de5058deaf268,
,,,,space,0.4843,,0,268,268,148,1,X, , , , ,,2000,2,5e764220adefaa1a931b1774,001,2021-08-19_16h31.26.561,natb3,2021.2.3,Win32,143.7401179,5e764220adefaa1a931b1774,611e07ecdcc96256ae8d5b80,611e792d741de5058deaf268,
,,,,space,0.4721,,0,269,269,284,1,V, , , , ,space,2500,2.5,5e764220adefaa1a931b1774,001,2021-08-19_16h31.26.561,natb3,2021.2.3,Win32,143.7401179,5e764220adefaa1a931b1774,611e07ecdcc96256ae8d5b80,611e792d741de5058deaf268,
,,,,space,0.5585,,0,270,270,101,1,Q, , , , ,space,2500,2.5,5e764220adefaa1a931b1774,001,2021-08-19_16h31.26.561,natb3,2021.2.3,Win32,143.7401179,5e764220adefaa1a931b1774,611e07ecdcc96256ae8d5b80,611e792d741de5058deaf268,
,,,,,,,0,271,271,12,1,X, , , , ,,1500,1.5,5e764220adefaa1a931b1774,001,2021-08-19_16h31.26.561,natb3,2021.2.3,Win32,143.7401179,5e764220adefaa1a931b1774,611e07ecdcc96256ae8d5b80,611e792d741de5058deaf268,
,,,,space,0.5037,,0,272,272,262,1,Y, , , , ,space,2500,2.5,5e764220adefaa1a931b1774,001,2021-08-19_16h31.26.561,natb3,2021.2.3,Win32,143.7401179,5e764220adefaa1a931b1774,611e07ecdcc96256ae8d5b80,611e792d741de5058deaf268,
,,,,space,0.4152,,0,273,273,139,1,V, , , , ,space,2000,2,5e764220adefaa1a931b1774,001,2021-08-19_16h31.26.561,natb3,2021.2.3,Win32,143.7401179,5e764220adefaa1a931b1774,611e07ecdcc96256ae8d5b80,611e792d741de5058deaf268,
,,,,,,,0,274,274,295,1,X,8,7,5, ,,2500,2.5,5e764220adefaa1a931b1774,001,2021-08-19_16h31.26.561,natb3,2021.2.3,Win32,143.7401179,5e764220adefaa1a931b1774,611e07ecdcc96256ae8d5b80,611e792d741de5058deaf268,
,,,,space,0.4145,,0,275,275,181,1,E, , , , ,space,1500,1.5,5e764220adefaa1a931b1774,001,2021-08-19_16h31.26.561,natb3,2021.2.3,Win32,143.7401179,5e764220adefaa1a931b1774,611e07ecdcc96256ae8d5b80,611e792d741de5058deaf268,
,,,,space,0.3844,,0,276,276,316,1,Z, , , , ,space,1500,1.5,5e764220adefaa1a931b1774,001,2021-08-19_16h31.26.561,natb3,2021.2.3,Win32,143.7401179,5e764220adefaa1a931b1774,611e07ecdcc96256ae8d5b80,611e792d741de5058deaf268,
,,,,space,0.4065,,0,277,277,312,1,K, , , , ,space,2000,2,5e764220adefaa1a931b1774,001,2021-08-19_16h31.26.561,natb3,2021.2.3,Win32,143.7401179,5e764220adefaa1a931b1774,611e07ecdcc96256ae8d5b80,611e792d741de5058deaf268,
,,,,space,0.4215,,0,278,278,306,1,D, , , , ,space,2000,2,5e764220adefaa1a931b1774,001,2021-08-19_16h31.26.561,natb3,2021.2.3,Win32,143.7401179,5e764220adefaa1a931b1774,611e07ecdcc96256ae8d5b80,611e792d741de5058deaf268,
,,,,space,0.3849,,0,279,279,92,1,Z, , , , ,space,1500,1.5,5e764220adefaa1a931b1774,001,2021-08-19_16h31.26.561,natb3,2021.2.3,Win32,143.7401179,5e764220adefaa1a931b1774,611e07ecdcc96256ae8d5b80,611e792d741de5058deaf268,
,,,,space,0.3371,,0,280,280,274,1,F, , , , ,space,2000,2,5e764220adefaa1a931b1774,001,2021-08-19_16h31.26.561,natb3,2021.2.3,Win32,143.7401179,5e764220adefaa1a931b1774,611e07ecdcc96256ae8d5b80,611e792d741de5058deaf268,
,,,,,,,0,281,281,82,1,X,4,6,1,7,,2000,2,5e764220adefaa1a931b1774,001,2021-08-19_16h31.26.561,natb3,2021.2.3,Win32,143.7401179,5e764220adefaa1a931b1774,611e07ecdcc96256ae8d5b80,611e792d741de5058deaf268,
,,,,,,,0,282,282,239,1,X, , , , ,,2000,2,5e764220adefaa1a931b1774,001,2021-08-19_16h31.26.561,natb3,2021.2.3,Win32,143.7401179,5e764220adefaa1a931b1774,611e07ecdcc96256ae8d5b80,611e792d741de5058deaf268,
,,,,,,,0,283,283,171,1,X, , , , ,,1500,1.5,5e764220adefaa1a931b1774,001,2021-08-19_16h31.26.561,natb3,2021.2.3,Win32,143.7401179,5e764220adefaa1a931b1774,611e07ecdcc96256ae8d5b80,611e792d741de5058deaf268,
,,,,space,0.3937,,0,284,284,202,1,L, , , , ,space,2500,2.5,5e764220adefaa1a931b1774,001,2021-08-19_16h31.26.561,natb3,2021.2.3,Win32,143.7401179,5e764220adefaa1a931b1774,611e07ecdcc96256ae8d5b80,611e792d741de5058deaf268,
,,,,,,,0,285,285,179,1,X, ,9, ,2,,1500,1.5,5e764220adefaa1a931b1774,001,2021-08-19_16h31.26.561,natb3,2021.2.3,Win32,143.7401179,5e764220adefaa1a931b1774,611e07ecdcc96256ae8d5b80,611e792d741de5058deaf268,
,,,,space,0.4127,,0,286,286,251,1,B, , , , ,space,1500,1.5,5e764220adefaa1a931b1774,001,2021-08-19_16h31.26.561,natb3,2021.2.3,Win32,143.7401179,5e764220adefaa1a931b1774,611e07ecdcc96256ae8d5b80,611e792d741de5058deaf268,
,,,,space,0.3469,,0,287,287,67,1,Q, , , , ,space,2000,2,5e764220adefaa1a931b1774,001,2021-08-19_16h31.26.561,natb3,2021.2.3,Win32,143.7401179,5e764220adefaa1a931b1774,611e07ecdcc96256ae8d5b80,611e792d741de5058deaf268,
,,,,space,0.3173,,0,288,288,301,1,P, , , , ,space,1500,1.5,5e764220adefaa1a931b1774,001,2021-08-19_16h31.26.561,natb3,2021.2.3,Win32,143.7401179,5e764220adefaa1a931b1774,611e07ecdcc96256ae8d5b80,611e792d741de5058deaf268,
,,,,space,0.3348,,0,289,289,37,1,E, , , , ,space,2500,2.5,5e764220adefaa1a931b1774,001,2021-08-19_16h31.26.561,natb3,2021.2.3,Win32,143.7401179,5e764220adefaa1a931b1774,611e07ecdcc96256ae8d5b80,611e792d741de5058deaf268,
,,,,,,,0,290,290,158,1,X, , , , ,,1500,1.5,5e764220adefaa1a931b1774,001,2021-08-19_16h31.26.561,natb3,2021.2.3,Win32,143.7401179,5e764220adefaa1a931b1774,611e07ecdcc96256ae8d5b80,611e792d741de5058deaf268,
,,,,space,0.3442,,0,291,291,50,1,D, , , , ,space,1500,1.5,5e764220adefaa1a931b1774,001,2021-08-19_16h31.26.561,natb3,2021.2.3,Win32,143.7401179,5e764220adefaa1a931b1774,611e07ecdcc96256ae8d5b80,611e792d741de5058deaf268,
,,,,space,0.4168,,0,292,292,134,1,J, , , , ,space,2000,2,5e764220adefaa1a931b1774,001,2021-08-19_16h31.26.561,natb3,2021.2.3,Win32,143.7401179,5e764220adefaa1a931b1774,611e07ecdcc96256ae8d5b80,611e792d741de5058deaf268,
,,,,,,,0,293,293,89,1,X,3, , , ,,2000,2,5e764220adefaa1a931b1774,001,2021-08-19_16h31.26.561,natb3,2021.2.3,Win32,143.7401179,5e764220adefaa1a931b1774,611e07ecdcc96256ae8d5b80,611e792d741de5058deaf268,
,,,,space,0.3621,,0,294,294,25,1,Z, , , , ,space,2500,2.5,5e764220adefaa1a931b1774,001,2021-08-19_16h31.26.561,natb3,2021.2.3,Win32,143.7401179,5e764220adefaa1a931b1774,611e07ecdcc96256ae8d5b80,611e792d741de5058deaf268,
,,,,,,,0,295,295,74,1,X, ,4,3,2,,1500,1.5,5e764220adefaa1a931b1774,001,2021-08-19_16h31.26.561,natb3,2021.2.3,Win32,143.7401179,5e764220adefaa1a931b1774,611e07ecdcc96256ae8d5b80,611e792d741de5058deaf268,
,,,,space,0.5018,,0,296,296,278,1,J, , , , ,space,2000,2,5e764220adefaa1a931b1774,001,2021-08-19_16h31.26.561,natb3,2021.2.3,Win32,143.7401179,5e764220adefaa1a931b1774,611e07ecdcc96256ae8d5b80,611e792d741de5058deaf268,
,,,,,,,0,297,297,207,1,X,9, ,2, ,,2500,2.5,5e764220adefaa1a931b1774,001,2021-08-19_16h31.26.561,natb3,2021.2.3,Win32,143.7401179,5e764220adefaa1a931b1774,611e07ecdcc96256ae8d5b80,611e792d741de5058deaf268,
,,,,space,0.4151,,0,298,298,2,1,E, , , , ,space,2500,2.5,5e764220adefaa1a931b1774,001,2021-08-19_16h31.26.561,natb3,2021.2.3,Win32,143.7401179,5e764220adefaa1a931b1774,611e07ecdcc96256ae8d5b80,611e792d741de5058deaf268,
,,,,space,0.3478,,0,299,299,127,1,S, , , , ,space,2500,2.5,5e764220adefaa1a931b1774,001,2021-08-19_16h31.26.561,natb3,2021.2.3,Win32,143.7401179,5e764220adefaa1a931b1774,611e07ecdcc96256ae8d5b80,611e792d741de5058deaf268,
,,,,,,,0,300,300,252,1,X,3, ,6,9,,2000,2,5e764220adefaa1a931b1774,001,2021-08-19_16h31.26.561,natb3,2021.2.3,Win32,143.7401179,5e764220adefaa1a931b1774,611e07ecdcc96256ae8d5b80,611e792d741de5058deaf268,
,,,,space,0.3938,,0,301,301,294,1,T, , , , ,space,2000,2,5e764220adefaa1a931b1774,001,2021-08-19_16h31.26.561,natb3,2021.2.3,Win32,143.7401179,5e764220adefaa1a931b1774,611e07ecdcc96256ae8d5b80,611e792d741de5058deaf268,
,,,,space,0.4045,,0,302,302,327,1,E, , , , ,space,1500,1.5,5e764220adefaa1a931b1774,001,2021-08-19_16h31.26.561,natb3,2021.2.3,Win32,143.7401179,5e764220adefaa1a931b1774,611e07ecdcc96256ae8d5b80,611e792d741de5058deaf268,
,,,,space,0.2997,,0,303,303,201,1,K, , , , ,space,1500,1.5,5e764220adefaa1a931b1774,001,2021-08-19_16h31.26.561,natb3,2021.2.3,Win32,143.7401179,5e764220adefaa1a931b1774,611e07ecdcc96256ae8d5b80,611e792d741de5058deaf268,
,,,,space,0.2856,,0,304,304,242,1,H, , , , ,space,2500,2.5,5e764220adefaa1a931b1774,001,2021-08-19_16h31.26.561,natb3,2021.2.3,Win32,143.7401179,5e764220adefaa1a931b1774,611e07ecdcc96256ae8d5b80,611e792d741de5058deaf268,
,,,,space,0.3382,,0,305,305,32,1,M, , , , ,space,1500,1.5,5e764220adefaa1a931b1774,001,2021-08-19_16h31.26.561,natb3,2021.2.3,Win32,143.7401179,5e764220adefaa1a931b1774,611e07ecdcc96256ae8d5b80,611e792d741de5058deaf268,
,,,,space,0.3174,,0,306,306,192,1,A, , , , ,space,2000,2,5e764220adefaa1a931b1774,001,2021-08-19_16h31.26.561,natb3,2021.2.3,Win32,143.7401179,5e764220adefaa1a931b1774,611e07ecdcc96256ae8d5b80,611e792d741de5058deaf268,
,,,,space,0.3136,,0,307,307,112,1,Q, , , , ,space,2500,2.5,5e764220adefaa1a931b1774,001,2021-08-19_16h31.26.561,natb3,2021.2.3,Win32,143.7401179,5e764220adefaa1a931b1774,611e07ecdcc96256ae8d5b80,611e792d741de5058deaf268,
,,,,space,0.2966,,0,308,308,0,1,Q, , , , ,space,1500,1.5,5e764220adefaa1a931b1774,001,2021-08-19_16h31.26.561,natb3,2021.2.3,Win32,143.7401179,5e764220adefaa1a931b1774,611e07ecdcc96256ae8d5b80,611e792d741de5058deaf268,
,,,,,,,0,309,309,182,1,X, , , , ,,1500,1.5,5e764220adefaa1a931b1774,001,2021-08-19_16h31.26.561,natb3,2021.2.3,Win32,143.7401179,5e764220adefaa1a931b1774,611e07ecdcc96256ae8d5b80,611e792d741de5058deaf268,
,,,,space,0.3828,,0,310,310,210,1,M, , , , ,space,1500,1.5,5e764220adefaa1a931b1774,001,2021-08-19_16h31.26.561,natb3,2021.2.3,Win32,143.7401179,5e764220adefaa1a931b1774,611e07ecdcc96256ae8d5b80,611e792d741de5058deaf268,
,,,,,,,0,311,311,39,1,X,6,2, , ,,1500,1.5,5e764220adefaa1a931b1774,001,2021-08-19_16h31.26.561,natb3,2021.2.3,Win32,143.7401179,5e764220adefaa1a931b1774,611e07ecdcc96256ae8d5b80,611e792d741de5058deaf268,
,,,,space,0.3446,,0,312,312,265,1,I, , , , ,space,2000,2,5e764220adefaa1a931b1774,001,2021-08-19_16h31.26.561,natb3,2021.2.3,Win32,143.7401179,5e764220adefaa1a931b1774,611e07ecdcc96256ae8d5b80,611e792d741de5058deaf268,
,,,,space,0.3539,,0,313,313,246,1,L, , , , ,space,2500,2.5,5e764220adefaa1a931b1774,001,2021-08-19_16h31.26.561,natb3,2021.2.3,Win32,143.7401179,5e764220adefaa1a931b1774,611e07ecdcc96256ae8d5b80,611e792d741de5058deaf268,
,,,,,,,0,314,314,299,1,X, , , , ,,2500,2.5,5e764220adefaa1a931b1774,001,2021-08-19_16h31.26.561,natb3,2021.2.3,Win32,143.7401179,5e764220adefaa1a931b1774,611e07ecdcc96256ae8d5b80,611e792d741de5058deaf268,
,,,,space,0.2733,,0,315,315,100,1,M, , , , ,space,2000,2,5e764220adefaa1a931b1774,001,2021-08-19_16h31.26.561,natb3,2021.2.3,Win32,143.7401179,5e764220adefaa1a931b1774,611e07ecdcc96256ae8d5b80,611e792d741de5058deaf268,
,,,,space,0.3264,,0,316,316,35,1,X, , , , ,,2500,2.5,5e764220adefaa1a931b1774,001,2021-08-19_16h31.26.561,natb3,2021.2.3,Win32,143.7401179,5e764220adefaa1a931b1774,611e07ecdcc96256ae8d5b80,611e792d741de5058deaf268,
,,,,space,0.368,,0,317,317,26,1,C, , , , ,space,2000,2,5e764220adefaa1a931b1774,001,2021-08-19_16h31.26.561,natb3,2021.2.3,Win32,143.7401179,5e764220adefaa1a931b1774,611e07ecdcc96256ae8d5b80,611e792d741de5058deaf268,
,,,,space,0.3581,,0,318,318,111,1,O, , , , ,space,2000,2,5e764220adefaa1a931b1774,001,2021-08-19_16h31.26.561,natb3,2021.2.3,Win32,143.7401179,5e764220adefaa1a931b1774,611e07ecdcc96256ae8d5b80,611e792d741de5058deaf268,
,,,,,,,0,319,319,175,1,X,7, ,4,2,,1500,1.5,5e764220adefaa1a931b1774,001,2021-08-19_16h31.26.561,natb3,2021.2.3,Win32,143.7401179,5e764220adefaa1a931b1774,611e07ecdcc96256ae8d5b80,611e792d741de5058deaf268,
,,,,space,0.4073,,0,320,320,174,1,B, , , , ,space,2500,2.5,5e764220adefaa1a931b1774,001,2021-08-19_16h31.26.561,natb3,2021.2.3,Win32,143.7401179,5e764220adefaa1a931b1774,611e07ecdcc96256ae8d5b80,611e792d741de5058deaf268,
,,,,space,0.4466,,0,321,321,109,1,U, , , , ,space,1500,1.5,5e764220adefaa1a931b1774,001,2021-08-19_16h31.26.561,natb3,2021.2.3,Win32,143.7401179,5e764220adefaa1a931b1774,611e07ecdcc96256ae8d5b80,611e792d741de5058deaf268,
,,,,space,0.3609,,0,322,322,1,1,W, , , , ,space,2000,2,5e764220adefaa1a931b1774,001,2021-08-19_16h31.26.561,natb3,2021.2.3,Win32,143.7401179,5e764220adefaa1a931b1774,611e07ecdcc96256ae8d5b80,611e792d741de5058deaf268,
,,,,space,0.3617,,0,323,323,194,1,D, , , , ,space,2000,2,5e764220adefaa1a931b1774,001,2021-08-19_16h31.26.561,natb3,2021.2.3,Win32,143.7401179,5e764220adefaa1a931b1774,611e07ecdcc96256ae8d5b80,611e792d741de5058deaf268,
,,,,space,0.3469,,0,324,324,176,1,N, , , , ,space,1500,1.5,5e764220adefaa1a931b1774,001,2021-08-19_16h31.26.561,natb3,2021.2.3,Win32,143.7401179,5e764220adefaa1a931b1774,611e07ecdcc96256ae8d5b80,611e792d741de5058deaf268,
,,,,space,0.4183,,0,325,325,41,1,Y, , , , ,space,2500,2.5,5e764220adefaa1a931b1774,001,2021-08-19_16h31.26.561,natb3,2021.2.3,Win32,143.7401179,5e764220adefaa1a931b1774,611e07ecdcc96256ae8d5b80,611e792d741de5058deaf268,
,,,,space,0.3701,,0,326,326,76,1,I, , , , ,space,2000,2,5e764220adefaa1a931b1774,001,2021-08-19_16h31.26.561,natb3,2021.2.3,Win32,143.7401179,5e764220adefaa1a931b1774,611e07ecdcc96256ae8d5b80,611e792d741de5058deaf268,
,,,,space,0.3546,,0,327,327,247,1,Z, , , , ,space,1500,1.5,5e764220adefaa1a931b1774,001,2021-08-19_16h31.26.561,natb3,2021.2.3,Win32,143.7401179,5e764220adefaa1a931b1774,611e07ecdcc96256ae8d5b80,611e792d741de5058deaf268,
,,,,space,0.4015,,0,328,328,61,1,C, , , , ,space,2000,2,5e764220adefaa1a931b1774,001,2021-08-19_16h31.26.561,natb3,2021.2.3,Win32,143.7401179,5e764220adefaa1a931b1774,611e07ecdcc96256ae8d5b80,611e792d741de5058deaf268,
,,,,space,0.3577,,0,329,329,275,1,G, , , , ,space,1500,1.5,5e764220adefaa1a931b1774,001,2021-08-19_16h31.26.561,natb3,2021.2.3,Win32,143.7401179,5e764220adefaa1a931b1774,611e07ecdcc96256ae8d5b80,611e792d741de5058deaf268,
,,,,space,0.377,,0,330,330,30,1,N, , , , ,space,2500,2.5,5e764220adefaa1a931b1774,001,2021-08-19_16h31.26.561,natb3,2021.2.3,Win32,143.7401179,5e764220adefaa1a931b1774,611e07ecdcc96256ae8d5b80,611e792d741de5058deaf268,
,,,,space,0.3281,,0,331,331,34,1,Q, , , , ,space,2500,2.5,5e764220adefaa1a931b1774,001,2021-08-19_16h31.26.561,natb3,2021.2.3,Win32,143.7401179,5e764220adefaa1a931b1774,611e07ecdcc96256ae8d5b80,611e792d741de5058deaf268,
,,,,space,0.3715,,0,332,332,140,1,B, , , , ,space,2500,2.5,5e764220adefaa1a931b1774,001,2021-08-19_16h31.26.561,natb3,2021.2.3,Win32,143.7401179,5e764220adefaa1a931b1774,611e07ecdcc96256ae8d5b80,611e792d741de5058deaf268,
,,,,,,,0,333,333,213,1,X, , , , ,,2500,2.5,5e764220adefaa1a931b1774,001,2021-08-19_16h31.26.561,natb3,2021.2.3,Win32,143.7401179,5e764220adefaa1a931b1774,611e07ecdcc96256ae8d5b80,611e792d741de5058deaf268,
,,,,,,,0,334,334,313,1,X, , , , ,,2500,2.5,5e764220adefaa1a931b1774,001,2021-08-19_16h31.26.561,natb3,2021.2.3,Win32,143.7401179,5e764220adefaa1a931b1774,611e07ecdcc96256ae8d5b80,611e792d741de5058deaf268,
,,,,,,,0,335,335,98,1,X, , , , ,,2500,2.5,5e764220adefaa1a931b1774,001,2021-08-19_16h31.26.561,natb3,2021.2.3,Win32,143.7401179,5e764220adefaa1a931b1774,611e07ecdcc96256ae8d5b80,611e792d741de5058deaf268,
