key_resp_2.keys,key_resp_2.rt,key_resp_3.keys,key_resp_3.rt,key_resp.keys,key_resp.rt,key_resp_4.keys,trials.thisRepN,trials.thisTrialN,trials.thisN,trials.thisIndex,trials.ran,stimulus,distractor1,distractor2,distractor3,distractor4,CorrAns,isi_duration,isi_dur_in_seconds,participant,session,date,expName,psychopyVersion,OS,frameRate,PROLIFIC_PID,STUDY_ID,SESSION_ID,key_resp_4.rt
return,21.9249,space,12.868,space,0.3461,,0,0,0,206,1,V, , , , ,space,2000,2,5e95d2226b866102a615981d,001,2021-08-19_16h40.17.957,natb3,2021.2.3,Win32,59.97720866,5e95d2226b866102a615981d,611e07ecdcc96256ae8d5b80,611e7c7457c055c509a1b80e,
,,,,space,0.3099,,0,1,1,33,1,X, , , , ,,1500,1.5,5e95d2226b866102a615981d,001,2021-08-19_16h40.17.957,natb3,2021.2.3,Win32,59.97720866,5e95d2226b866102a615981d,611e07ecdcc96256ae8d5b80,611e7c7457c055c509a1b80e,
,,,,space,0.4093,,0,2,2,234,1,P, , , , ,space,2000,2,5e95d2226b866102a615981d,001,2021-08-19_16h40.17.957,natb3,2021.2.3,Win32,59.97720866,5e95d2226b866102a615981d,611e07ecdcc96256ae8d5b80,611e7c7457c055c509a1b80e,
,,,,space,0.4952,,0,3,3,127,1,S, , , , ,space,2500,2.5,5e95d2226b866102a615981d,001,2021-08-19_16h40.17.957,natb3,2021.2.3,Win32,59.97720866,5e95d2226b866102a615981d,611e07ecdcc96256ae8d5b80,611e7c7457c055c509a1b80e,
,,,,space,0.3907,,0,4,4,131,1,G, , , , ,space,1500,1.5,5e95d2226b866102a615981d,001,2021-08-19_16h40.17.957,natb3,2021.2.3,Win32,59.97720866,5e95d2226b866102a615981d,611e07ecdcc96256ae8d5b80,611e7c7457c055c509a1b80e,
,,,,space,0.5934,,0,5,5,76,1,I, , , , ,space,2000,2,5e95d2226b866102a615981d,001,2021-08-19_16h40.17.957,natb3,2021.2.3,Win32,59.97720866,5e95d2226b866102a615981d,611e07ecdcc96256ae8d5b80,611e7c7457c055c509a1b80e,
,,,,space,0.6467,,0,6,6,154,1,I, , , , ,space,2500,2.5,5e95d2226b866102a615981d,001,2021-08-19_16h40.17.957,natb3,2021.2.3,Win32,59.97720866,5e95d2226b866102a615981d,611e07ecdcc96256ae8d5b80,611e7c7457c055c509a1b80e,
,,,,space,0.455,,0,7,7,47,1,P, , , , ,space,2000,2,5e95d2226b866102a615981d,001,2021-08-19_16h40.17.957,natb3,2021.2.3,Win32,59.97720866,5e95d2226b866102a615981d,611e07ecdcc96256ae8d5b80,611e7c7457c055c509a1b80e,
,,,,space,0.5285,,0,8,8,199,1,J, , , , ,space,2500,2.5,5e95d2226b866102a615981d,001,2021-08-19_16h40.17.957,natb3,2021.2.3,Win32,59.97720866,5e95d2226b866102a615981d,611e07ecdcc96256ae8d5b80,611e7c7457c055c509a1b80e,
,,,,space,0.4263,,0,9,9,169,1,L, , , , ,space,2500,2.5,5e95d2226b866102a615981d,001,2021-08-19_16h40.17.957,natb3,2021.2.3,Win32,59.97720866,5e95d2226b866102a615981d,611e07ecdcc96256ae8d5b80,611e7c7457c055c509a1b80e,
,,,,,,,0,10,10,182,1,X, , , , ,,1500,1.5,5e95d2226b866102a615981d,001,2021-08-19_16h40.17.957,natb3,2021.2.3,Win32,59.97720866,5e95d2226b866102a615981d,611e07ecdcc96256ae8d5b80,611e7c7457c055c509a1b80e,
,,,,space,0.4717,,0,11,11,176,1,N, , , , ,space,1500,1.5,5e95d2226b866102a615981d,001,2021-08-19_16h40.17.957,natb3,2021.2.3,Win32,59.97720866,5e95d2226b866102a615981d,611e07ecdcc96256ae8d5b80,611e7c7457c055c509a1b80e,
,,,,space,0.3753,,0,12,12,70,1,E, , , , ,space,2500,2.5,5e95d2226b866102a615981d,001,2021-08-19_16h40.17.957,natb3,2021.2.3,Win32,59.97720866,5e95d2226b866102a615981d,611e07ecdcc96256ae8d5b80,611e7c7457c055c509a1b80e,
,,,,space,0.3764,,0,13,13,16,1,D, , , , ,space,1500,1.5,5e95d2226b866102a615981d,001,2021-08-19_16h40.17.957,natb3,2021.2.3,Win32,59.97720866,5e95d2226b866102a615981d,611e07ecdcc96256ae8d5b80,611e7c7457c055c509a1b80e,
,,,,space,0.4295,,0,14,14,49,1,S, , , , ,space,1500,1.5,5e95d2226b866102a615981d,001,2021-08-19_16h40.17.957,natb3,2021.2.3,Win32,59.97720866,5e95d2226b866102a615981d,611e07ecdcc96256ae8d5b80,611e7c7457c055c509a1b80e,
,,,,space,0.5299,,0,15,15,197,1,G, , , , ,space,2500,2.5,5e95d2226b866102a615981d,001,2021-08-19_16h40.17.957,natb3,2021.2.3,Win32,59.97720866,5e95d2226b866102a615981d,611e07ecdcc96256ae8d5b80,611e7c7457c055c509a1b80e,
,,,,,,,0,16,16,255,1,X, , , , ,,1500,1.5,5e95d2226b866102a615981d,001,2021-08-19_16h40.17.957,natb3,2021.2.3,Win32,59.97720866,5e95d2226b866102a615981d,611e07ecdcc96256ae8d5b80,611e7c7457c055c509a1b80e,
,,,,space,0.3997,,0,17,17,14,1,S, , , , ,space,2500,2.5,5e95d2226b866102a615981d,001,2021-08-19_16h40.17.957,natb3,2021.2.3,Win32,59.97720866,5e95d2226b866102a615981d,611e07ecdcc96256ae8d5b80,611e7c7457c055c509a1b80e,
,,,,,,,0,18,18,4,1,X, , , , ,,2000,2,5e95d2226b866102a615981d,001,2021-08-19_16h40.17.957,natb3,2021.2.3,Win32,59.97720866,5e95d2226b866102a615981d,611e07ecdcc96256ae8d5b80,611e7c7457c055c509a1b80e,
,,,,,,,0,19,19,239,1,X, , , , ,,2000,2,5e95d2226b866102a615981d,001,2021-08-19_16h40.17.957,natb3,2021.2.3,Win32,59.97720866,5e95d2226b866102a615981d,611e07ecdcc96256ae8d5b80,611e7c7457c055c509a1b80e,
,,,,space,0.3936,,0,20,20,75,1,U, , , , ,space,1500,1.5,5e95d2226b866102a615981d,001,2021-08-19_16h40.17.957,natb3,2021.2.3,Win32,59.97720866,5e95d2226b866102a615981d,611e07ecdcc96256ae8d5b80,611e7c7457c055c509a1b80e,
,,,,,,,0,21,21,302,1,X, , , , ,,2000,2,5e95d2226b866102a615981d,001,2021-08-19_16h40.17.957,natb3,2021.2.3,Win32,59.97720866,5e95d2226b866102a615981d,611e07ecdcc96256ae8d5b80,611e7c7457c055c509a1b80e,
,,,,space,0.395,,0,22,22,28,1,V, , , , ,space,1500,1.5,5e95d2226b866102a615981d,001,2021-08-19_16h40.17.957,natb3,2021.2.3,Win32,59.97720866,5e95d2226b866102a615981d,611e07ecdcc96256ae8d5b80,611e7c7457c055c509a1b80e,
,,,,space,0.4513,,0,23,23,228,1,Y, , , , ,space,2000,2,5e95d2226b866102a615981d,001,2021-08-19_16h40.17.957,natb3,2021.2.3,Win32,59.97720866,5e95d2226b866102a615981d,611e07ecdcc96256ae8d5b80,611e7c7457c055c509a1b80e,
,,,,space,0.3776,,0,24,24,238,1,D, , , , ,space,1500,1.5,5e95d2226b866102a615981d,001,2021-08-19_16h40.17.957,natb3,2021.2.3,Win32,59.97720866,5e95d2226b866102a615981d,611e07ecdcc96256ae8d5b80,611e7c7457c055c509a1b80e,
,,,,space,0.4589,,0,25,25,144,1,Q, , , , ,space,2500,2.5,5e95d2226b866102a615981d,001,2021-08-19_16h40.17.957,natb3,2021.2.3,Win32,59.97720866,5e95d2226b866102a615981d,611e07ecdcc96256ae8d5b80,611e7c7457c055c509a1b80e,
,,,,space,0.4943,,0,26,26,55,1,H, , , , ,space,2500,2.5,5e95d2226b866102a615981d,001,2021-08-19_16h40.17.957,natb3,2021.2.3,Win32,59.97720866,5e95d2226b866102a615981d,611e07ecdcc96256ae8d5b80,611e7c7457c055c509a1b80e,
,,,,space,0.5297,,0,27,27,244,1,J, , , , ,space,1500,1.5,5e95d2226b866102a615981d,001,2021-08-19_16h40.17.957,natb3,2021.2.3,Win32,59.97720866,5e95d2226b866102a615981d,611e07ecdcc96256ae8d5b80,611e7c7457c055c509a1b80e,
,,,,space,0.5197,,0,28,28,61,1,C, , , , ,space,2000,2,5e95d2226b866102a615981d,001,2021-08-19_16h40.17.957,natb3,2021.2.3,Win32,59.97720866,5e95d2226b866102a615981d,611e07ecdcc96256ae8d5b80,611e7c7457c055c509a1b80e,
,,,,space,0.3452,,0,29,29,110,1,I, , , , ,space,1500,1.5,5e95d2226b866102a615981d,001,2021-08-19_16h40.17.957,natb3,2021.2.3,Win32,59.97720866,5e95d2226b866102a615981d,611e07ecdcc96256ae8d5b80,611e7c7457c055c509a1b80e,
,,,,space,0.4325,,0,30,30,286,1,N, , , , ,space,1500,1.5,5e95d2226b866102a615981d,001,2021-08-19_16h40.17.957,natb3,2021.2.3,Win32,59.97720866,5e95d2226b866102a615981d,611e07ecdcc96256ae8d5b80,611e7c7457c055c509a1b80e,
,,,,space,0.3809,,0,31,31,307,1,F, , , , ,space,2500,2.5,5e95d2226b866102a615981d,001,2021-08-19_16h40.17.957,natb3,2021.2.3,Win32,59.97720866,5e95d2226b866102a615981d,611e07ecdcc96256ae8d5b80,611e7c7457c055c509a1b80e,
,,,,space,0.4544,,0,32,32,71,1,R, , , , ,space,2500,2.5,5e95d2226b866102a615981d,001,2021-08-19_16h40.17.957,natb3,2021.2.3,Win32,59.97720866,5e95d2226b866102a615981d,611e07ecdcc96256ae8d5b80,611e7c7457c055c509a1b80e,
,,,,space,0.5014,,0,33,33,88,1,J, , , , ,space,2500,2.5,5e95d2226b866102a615981d,001,2021-08-19_16h40.17.957,natb3,2021.2.3,Win32,59.97720866,5e95d2226b866102a615981d,611e07ecdcc96256ae8d5b80,611e7c7457c055c509a1b80e,
,,,,space,0.4014,,0,34,34,34,1,Q, , , , ,space,2500,2.5,5e95d2226b866102a615981d,001,2021-08-19_16h40.17.957,natb3,2021.2.3,Win32,59.97720866,5e95d2226b866102a615981d,611e07ecdcc96256ae8d5b80,611e7c7457c055c509a1b80e,
,,,,space,0.4682,,0,35,35,10,1,O, , , , ,space,2000,2,5e95d2226b866102a615981d,001,2021-08-19_16h40.17.957,natb3,2021.2.3,Win32,59.97720866,5e95d2226b866102a615981d,611e07ecdcc96256ae8d5b80,611e7c7457c055c509a1b80e,
,,,,space,0.5511,,0,36,36,214,1,W, , , , ,space,2000,2,5e95d2226b866102a615981d,001,2021-08-19_16h40.17.957,natb3,2021.2.3,Win32,59.97720866,5e95d2226b866102a615981d,611e07ecdcc96256ae8d5b80,611e7c7457c055c509a1b80e,
,,,,space,0.426,,0,37,37,246,1,L, , , , ,space,2500,2.5,5e95d2226b866102a615981d,001,2021-08-19_16h40.17.957,natb3,2021.2.3,Win32,59.97720866,5e95d2226b866102a615981d,611e07ecdcc96256ae8d5b80,611e7c7457c055c509a1b80e,
,,,,space,0.3346,,0,38,38,36,1,W, , , , ,space,2000,2,5e95d2226b866102a615981d,001,2021-08-19_16h40.17.957,natb3,2021.2.3,Win32,59.97720866,5e95d2226b866102a615981d,611e07ecdcc96256ae8d5b80,611e7c7457c055c509a1b80e,
,,,,space,0.375,,0,39,39,190,1,P, , , , ,space,2000,2,5e95d2226b866102a615981d,001,2021-08-19_16h40.17.957,natb3,2021.2.3,Win32,59.97720866,5e95d2226b866102a615981d,611e07ecdcc96256ae8d5b80,611e7c7457c055c509a1b80e,
,,,,space,0.396,,0,40,40,137,1,C, , , , ,space,2500,2.5,5e95d2226b866102a615981d,001,2021-08-19_16h40.17.957,natb3,2021.2.3,Win32,59.97720866,5e95d2226b866102a615981d,611e07ecdcc96256ae8d5b80,611e7c7457c055c509a1b80e,
,,,,space,0.4461,,0,41,41,117,1,T, , , , ,space,2500,2.5,5e95d2226b866102a615981d,001,2021-08-19_16h40.17.957,natb3,2021.2.3,Win32,59.97720866,5e95d2226b866102a615981d,611e07ecdcc96256ae8d5b80,611e7c7457c055c509a1b80e,
,,,,space,0.379,,0,42,42,163,1,G, , , , ,space,2500,2.5,5e95d2226b866102a615981d,001,2021-08-19_16h40.17.957,natb3,2021.2.3,Win32,59.97720866,5e95d2226b866102a615981d,611e07ecdcc96256ae8d5b80,611e7c7457c055c509a1b80e,
,,,,space,0.3969,,0,43,43,296,1,Y, , , , ,space,2500,2.5,5e95d2226b866102a615981d,001,2021-08-19_16h40.17.957,natb3,2021.2.3,Win32,59.97720866,5e95d2226b866102a615981d,611e07ecdcc96256ae8d5b80,611e7c7457c055c509a1b80e,
,,,,space,0.5944,,0,44,44,139,1,V, , , , ,space,2000,2,5e95d2226b866102a615981d,001,2021-08-19_16h40.17.957,natb3,2021.2.3,Win32,59.97720866,5e95d2226b866102a615981d,611e07ecdcc96256ae8d5b80,611e7c7457c055c509a1b80e,
,,,,,,,0,45,45,187,1,X, ,3,7,4,,1500,1.5,5e95d2226b866102a615981d,001,2021-08-19_16h40.17.957,natb3,2021.2.3,Win32,59.97720866,5e95d2226b866102a615981d,611e07ecdcc96256ae8d5b80,611e7c7457c055c509a1b80e,
,,,,space,0.4935,,0,46,46,20,1,H, , , , ,space,1500,1.5,5e95d2226b866102a615981d,001,2021-08-19_16h40.17.957,natb3,2021.2.3,Win32,59.97720866,5e95d2226b866102a615981d,611e07ecdcc96256ae8d5b80,611e7c7457c055c509a1b80e,
,,,,space,0.5243,,0,47,47,267,1,P, , , , ,space,2000,2,5e95d2226b866102a615981d,001,2021-08-19_16h40.17.957,natb3,2021.2.3,Win32,59.97720866,5e95d2226b866102a615981d,611e07ecdcc96256ae8d5b80,611e7c7457c055c509a1b80e,
,,,,space,0.4177,,0,48,48,72,1,T, , , , ,space,1500,1.5,5e95d2226b866102a615981d,001,2021-08-19_16h40.17.957,natb3,2021.2.3,Win32,59.97720866,5e95d2226b866102a615981d,611e07ecdcc96256ae8d5b80,611e7c7457c055c509a1b80e,
,,,,space,0.4186,,0,49,49,130,1,F, , , , ,space,2000,2,5e95d2226b866102a615981d,001,2021-08-19_16h40.17.957,natb3,2021.2.3,Win32,59.97720866,5e95d2226b866102a615981d,611e07ecdcc96256ae8d5b80,611e7c7457c055c509a1b80e,
,,,,,,,0,50,50,213,1,X, , , , ,,2500,2.5,5e95d2226b866102a615981d,001,2021-08-19_16h40.17.957,natb3,2021.2.3,Win32,59.97720866,5e95d2226b866102a615981d,611e07ecdcc96256ae8d5b80,611e7c7457c055c509a1b80e,
,,,,space,0.3869,,0,51,51,284,1,V, , , , ,space,2500,2.5,5e95d2226b866102a615981d,001,2021-08-19_16h40.17.957,natb3,2021.2.3,Win32,59.97720866,5e95d2226b866102a615981d,611e07ecdcc96256ae8d5b80,611e7c7457c055c509a1b80e,
,,,,space,0.4145,,0,52,52,293,1,R, , , , ,space,2500,2.5,5e95d2226b866102a615981d,001,2021-08-19_16h40.17.957,natb3,2021.2.3,Win32,59.97720866,5e95d2226b866102a615981d,611e07ecdcc96256ae8d5b80,611e7c7457c055c509a1b80e,
,,,,space,0.3837,,0,53,53,86,1,G, , , , ,space,2000,2,5e95d2226b866102a615981d,001,2021-08-19_16h40.17.957,natb3,2021.2.3,Win32,59.97720866,5e95d2226b866102a615981d,611e07ecdcc96256ae8d5b80,611e7c7457c055c509a1b80e,
,,,,,,,0,54,54,268,1,X,6, ,3, ,,2500,2.5,5e95d2226b866102a615981d,001,2021-08-19_16h40.17.957,natb3,2021.2.3,Win32,59.97720866,5e95d2226b866102a615981d,611e07ecdcc96256ae8d5b80,611e7c7457c055c509a1b80e,
,,,,,,,0,55,55,195,1,X, , , , ,,1500,1.5,5e95d2226b866102a615981d,001,2021-08-19_16h40.17.957,natb3,2021.2.3,Win32,59.97720866,5e95d2226b866102a615981d,611e07ecdcc96256ae8d5b80,611e7c7457c055c509a1b80e,
,,,,space,0.4454,,0,56,56,115,1,R, , , , ,space,1500,1.5,5e95d2226b866102a615981d,001,2021-08-19_16h40.17.957,natb3,2021.2.3,Win32,59.97720866,5e95d2226b866102a615981d,611e07ecdcc96256ae8d5b80,611e7c7457c055c509a1b80e,
,,,,space,0.3663,,0,57,57,240,1,F, , , , ,space,2500,2.5,5e95d2226b866102a615981d,001,2021-08-19_16h40.17.957,natb3,2021.2.3,Win32,59.97720866,5e95d2226b866102a615981d,611e07ecdcc96256ae8d5b80,611e7c7457c055c509a1b80e,
,,,,,,,0,58,58,43,1,X, ,6, ,2,,2500,2.5,5e95d2226b866102a615981d,001,2021-08-19_16h40.17.957,natb3,2021.2.3,Win32,59.97720866,5e95d2226b866102a615981d,611e07ecdcc96256ae8d5b80,611e7c7457c055c509a1b80e,
,,,,,,,0,59,59,191,1,X,1, ,3,4,,2500,2.5,5e95d2226b866102a615981d,001,2021-08-19_16h40.17.957,natb3,2021.2.3,Win32,59.97720866,5e95d2226b866102a615981d,611e07ecdcc96256ae8d5b80,611e7c7457c055c509a1b80e,
,,,,space,0.4092,,0,60,60,217,1,T, , , , ,space,2500,2.5,5e95d2226b866102a615981d,001,2021-08-19_16h40.17.957,natb3,2021.2.3,Win32,59.97720866,5e95d2226b866102a615981d,611e07ecdcc96256ae8d5b80,611e7c7457c055c509a1b80e,
,,,,space,0.4945,,0,61,61,11,1,P, , , , ,space,2500,2.5,5e95d2226b866102a615981d,001,2021-08-19_16h40.17.957,natb3,2021.2.3,Win32,59.97720866,5e95d2226b866102a615981d,611e07ecdcc96256ae8d5b80,611e7c7457c055c509a1b80e,
,,,,space,0.3433,,0,62,62,97,1,B, , , , ,space,2500,2.5,5e95d2226b866102a615981d,001,2021-08-19_16h40.17.957,natb3,2021.2.3,Win32,59.97720866,5e95d2226b866102a615981d,611e07ecdcc96256ae8d5b80,611e7c7457c055c509a1b80e,
,,,,space,0.3848,,0,63,63,103,1,W, , , , ,space,2000,2,5e95d2226b866102a615981d,001,2021-08-19_16h40.17.957,natb3,2021.2.3,Win32,59.97720866,5e95d2226b866102a615981d,611e07ecdcc96256ae8d5b80,611e7c7457c055c509a1b80e,
,,,,space,0.4016,,0,64,64,45,1,O, , , , ,space,2000,2,5e95d2226b866102a615981d,001,2021-08-19_16h40.17.957,natb3,2021.2.3,Win32,59.97720866,5e95d2226b866102a615981d,611e07ecdcc96256ae8d5b80,611e7c7457c055c509a1b80e,
,,,,,,,0,65,65,27,1,X,5, ,1,3,,1500,1.5,5e95d2226b866102a615981d,001,2021-08-19_16h40.17.957,natb3,2021.2.3,Win32,59.97720866,5e95d2226b866102a615981d,611e07ecdcc96256ae8d5b80,611e7c7457c055c509a1b80e,
,,,,space,0.644,,0,66,66,316,1,Z, , , , ,space,1500,1.5,5e95d2226b866102a615981d,001,2021-08-19_16h40.17.957,natb3,2021.2.3,Win32,59.97720866,5e95d2226b866102a615981d,611e07ecdcc96256ae8d5b80,611e7c7457c055c509a1b80e,
,,,,space,0.4095,,0,67,67,223,1,Q, , , , ,space,2000,2,5e95d2226b866102a615981d,001,2021-08-19_16h40.17.957,natb3,2021.2.3,Win32,59.97720866,5e95d2226b866102a615981d,611e07ecdcc96256ae8d5b80,611e7c7457c055c509a1b80e,
,,,,space,0.3955,,0,68,68,17,1,F, , , , ,space,2500,2.5,5e95d2226b866102a615981d,001,2021-08-19_16h40.17.957,natb3,2021.2.3,Win32,59.97720866,5e95d2226b866102a615981d,611e07ecdcc96256ae8d5b80,611e7c7457c055c509a1b80e,
,,,,space,0.3807,,0,69,69,119,1,Y, , , , ,space,2500,2.5,5e95d2226b866102a615981d,001,2021-08-19_16h40.17.957,natb3,2021.2.3,Win32,59.97720866,5e95d2226b866102a615981d,611e07ecdcc96256ae8d5b80,611e7c7457c055c509a1b80e,
,,,,,,,0,70,70,145,1,X, , , , ,,2000,2,5e95d2226b866102a615981d,001,2021-08-19_16h40.17.957,natb3,2021.2.3,Win32,59.97720866,5e95d2226b866102a615981d,611e07ecdcc96256ae8d5b80,611e7c7457c055c509a1b80e,
,,,,space,0.4817,,0,71,71,274,1,F, , , , ,space,2000,2,5e95d2226b866102a615981d,001,2021-08-19_16h40.17.957,natb3,2021.2.3,Win32,59.97720866,5e95d2226b866102a615981d,611e07ecdcc96256ae8d5b80,611e7c7457c055c509a1b80e,
,,,,space,0.4449,,0,72,72,77,1,O, , , , ,space,2000,2,5e95d2226b866102a615981d,001,2021-08-19_16h40.17.957,natb3,2021.2.3,Win32,59.97720866,5e95d2226b866102a615981d,611e07ecdcc96256ae8d5b80,611e7c7457c055c509a1b80e,
,,,,space,0.4636,,0,73,73,165,1,J, , , , ,space,2500,2.5,5e95d2226b866102a615981d,001,2021-08-19_16h40.17.957,natb3,2021.2.3,Win32,59.97720866,5e95d2226b866102a615981d,611e07ecdcc96256ae8d5b80,611e7c7457c055c509a1b80e,
,,,,space,0.5133,,0,74,74,184,1,T, , , , ,space,2000,2,5e95d2226b866102a615981d,001,2021-08-19_16h40.17.957,natb3,2021.2.3,Win32,59.97720866,5e95d2226b866102a615981d,611e07ecdcc96256ae8d5b80,611e7c7457c055c509a1b80e,
,,,,space,0.4479,,0,75,75,319,1,V, , , , ,space,2000,2,5e95d2226b866102a615981d,001,2021-08-19_16h40.17.957,natb3,2021.2.3,Win32,59.97720866,5e95d2226b866102a615981d,611e07ecdcc96256ae8d5b80,611e7c7457c055c509a1b80e,
,,,,space,0.5806,,0,76,76,275,1,G, , , , ,space,1500,1.5,5e95d2226b866102a615981d,001,2021-08-19_16h40.17.957,natb3,2021.2.3,Win32,59.97720866,5e95d2226b866102a615981d,611e07ecdcc96256ae8d5b80,611e7c7457c055c509a1b80e,
,,,,space,0.4272,,0,77,77,280,1,L, , , , ,space,1500,1.5,5e95d2226b866102a615981d,001,2021-08-19_16h40.17.957,natb3,2021.2.3,Win32,59.97720866,5e95d2226b866102a615981d,611e07ecdcc96256ae8d5b80,611e7c7457c055c509a1b80e,
,,,,,,,0,78,78,211,1,X, , , , ,,2500,2.5,5e95d2226b866102a615981d,001,2021-08-19_16h40.17.957,natb3,2021.2.3,Win32,59.97720866,5e95d2226b866102a615981d,611e07ecdcc96256ae8d5b80,611e7c7457c055c509a1b80e,
,,,,space,0.4308,,0,79,79,333,1,I, , , , ,space,1500,1.5,5e95d2226b866102a615981d,001,2021-08-19_16h40.17.957,natb3,2021.2.3,Win32,59.97720866,5e95d2226b866102a615981d,611e07ecdcc96256ae8d5b80,611e7c7457c055c509a1b80e,
,,,,space,0.4311,,0,80,80,276,1,H, , , , ,space,2000,2,5e95d2226b866102a615981d,001,2021-08-19_16h40.17.957,natb3,2021.2.3,Win32,59.97720866,5e95d2226b866102a615981d,611e07ecdcc96256ae8d5b80,611e7c7457c055c509a1b80e,
,,,,,,,0,81,81,259,1,X,8, , ,3,,2500,2.5,5e95d2226b866102a615981d,001,2021-08-19_16h40.17.957,natb3,2021.2.3,Win32,59.97720866,5e95d2226b866102a615981d,611e07ecdcc96256ae8d5b80,611e7c7457c055c509a1b80e,
,,,,space,0.516,,0,82,82,279,1,K, , , , ,space,2500,2.5,5e95d2226b866102a615981d,001,2021-08-19_16h40.17.957,natb3,2021.2.3,Win32,59.97720866,5e95d2226b866102a615981d,611e07ecdcc96256ae8d5b80,611e7c7457c055c509a1b80e,
,,,,space,0.5092,,0,83,83,13,1,A, , , , ,space,2000,2,5e95d2226b866102a615981d,001,2021-08-19_16h40.17.957,natb3,2021.2.3,Win32,59.97720866,5e95d2226b866102a615981d,611e07ecdcc96256ae8d5b80,611e7c7457c055c509a1b80e,
,,,,space,0.5485,,0,84,84,230,1,U, , , , ,space,1500,1.5,5e95d2226b866102a615981d,001,2021-08-19_16h40.17.957,natb3,2021.2.3,Win32,59.97720866,5e95d2226b866102a615981d,611e07ecdcc96256ae8d5b80,611e7c7457c055c509a1b80e,
,,,,space,0.4917,,0,85,85,185,1,Y, , , , ,space,2500,2.5,5e95d2226b866102a615981d,001,2021-08-19_16h40.17.957,natb3,2021.2.3,Win32,59.97720866,5e95d2226b866102a615981d,611e07ecdcc96256ae8d5b80,611e7c7457c055c509a1b80e,
,,,,space,0.5294,,0,86,86,67,1,Q, , , , ,space,2000,2,5e95d2226b866102a615981d,001,2021-08-19_16h40.17.957,natb3,2021.2.3,Win32,59.97720866,5e95d2226b866102a615981d,611e07ecdcc96256ae8d5b80,611e7c7457c055c509a1b80e,
,,,,space,0.4484,,0,87,87,222,1,O, , , , ,space,2000,2,5e95d2226b866102a615981d,001,2021-08-19_16h40.17.957,natb3,2021.2.3,Win32,59.97720866,5e95d2226b866102a615981d,611e07ecdcc96256ae8d5b80,611e7c7457c055c509a1b80e,
,,,,space,0.4127,,0,88,88,150,1,T, , , , ,space,2500,2.5,5e95d2226b866102a615981d,001,2021-08-19_16h40.17.957,natb3,2021.2.3,Win32,59.97720866,5e95d2226b866102a615981d,611e07ecdcc96256ae8d5b80,611e7c7457c055c509a1b80e,
,,,,space,0.4133,,0,89,89,29,1,B, , , , ,space,1500,1.5,5e95d2226b866102a615981d,001,2021-08-19_16h40.17.957,natb3,2021.2.3,Win32,59.97720866,5e95d2226b866102a615981d,611e07ecdcc96256ae8d5b80,611e7c7457c055c509a1b80e,
,,,,space,0.4845,,0,90,90,301,1,P, , , , ,space,1500,1.5,5e95d2226b866102a615981d,001,2021-08-19_16h40.17.957,natb3,2021.2.3,Win32,59.97720866,5e95d2226b866102a615981d,611e07ecdcc96256ae8d5b80,611e7c7457c055c509a1b80e,
,,,,space,0.3795,,0,91,91,149,1,R, , , , ,space,2000,2,5e95d2226b866102a615981d,001,2021-08-19_16h40.17.957,natb3,2021.2.3,Win32,59.97720866,5e95d2226b866102a615981d,611e07ecdcc96256ae8d5b80,611e7c7457c055c509a1b80e,
,,,,,,,0,92,92,282,1,X, , , , ,,2500,2.5,5e95d2226b866102a615981d,001,2021-08-19_16h40.17.957,natb3,2021.2.3,Win32,59.97720866,5e95d2226b866102a615981d,611e07ecdcc96256ae8d5b80,611e7c7457c055c509a1b80e,
,,,,space,0.4459,,0,93,93,225,1,E, , , , ,space,2000,2,5e95d2226b866102a615981d,001,2021-08-19_16h40.17.957,natb3,2021.2.3,Win32,59.97720866,5e95d2226b866102a615981d,611e07ecdcc96256ae8d5b80,611e7c7457c055c509a1b80e,
,,,,space,0.4796,,0,94,94,180,1,W, , , , ,space,2000,2,5e95d2226b866102a615981d,001,2021-08-19_16h40.17.957,natb3,2021.2.3,Win32,59.97720866,5e95d2226b866102a615981d,611e07ecdcc96256ae8d5b80,611e7c7457c055c509a1b80e,
,,,,space,0.7839,,0,95,95,264,1,U, , , , ,space,2000,2,5e95d2226b866102a615981d,001,2021-08-19_16h40.17.957,natb3,2021.2.3,Win32,59.97720866,5e95d2226b866102a615981d,611e07ecdcc96256ae8d5b80,611e7c7457c055c509a1b80e,
,,,,space,0.8599,,0,96,96,281,1,Z, , , , ,space,1500,1.5,5e95d2226b866102a615981d,001,2021-08-19_16h40.17.957,natb3,2021.2.3,Win32,59.97720866,5e95d2226b866102a615981d,611e07ecdcc96256ae8d5b80,611e7c7457c055c509a1b80e,
,,,,space,0.4161,,0,97,97,142,1,N, , , , ,space,2500,2.5,5e95d2226b866102a615981d,001,2021-08-19_16h40.17.957,natb3,2021.2.3,Win32,59.97720866,5e95d2226b866102a615981d,611e07ecdcc96256ae8d5b80,611e7c7457c055c509a1b80e,
,,,,space,0.4456,,0,98,98,151,1,Y, , , , ,space,2500,2.5,5e95d2226b866102a615981d,001,2021-08-19_16h40.17.957,natb3,2021.2.3,Win32,59.97720866,5e95d2226b866102a615981d,611e07ecdcc96256ae8d5b80,611e7c7457c055c509a1b80e,
,,,,space,0.5283,,0,99,99,260,1,R, , , , ,space,2000,2,5e95d2226b866102a615981d,001,2021-08-19_16h40.17.957,natb3,2021.2.3,Win32,59.97720866,5e95d2226b866102a615981d,611e07ecdcc96256ae8d5b80,611e7c7457c055c509a1b80e,
,,,,space,0.5013,,0,100,100,310,1,J, , , , ,space,2500,2.5,5e95d2226b866102a615981d,001,2021-08-19_16h40.17.957,natb3,2021.2.3,Win32,59.97720866,5e95d2226b866102a615981d,611e07ecdcc96256ae8d5b80,611e7c7457c055c509a1b80e,
,,,,,,,0,101,101,46,1,X, , , , ,,2000,2,5e95d2226b866102a615981d,001,2021-08-19_16h40.17.957,natb3,2021.2.3,Win32,59.97720866,5e95d2226b866102a615981d,611e07ecdcc96256ae8d5b80,611e7c7457c055c509a1b80e,
,,,,space,0.3375,,0,102,102,194,1,D, , , , ,space,2000,2,5e95d2226b866102a615981d,001,2021-08-19_16h40.17.957,natb3,2021.2.3,Win32,59.97720866,5e95d2226b866102a615981d,611e07ecdcc96256ae8d5b80,611e7c7457c055c509a1b80e,
,,,,,,,0,103,103,89,1,X,3, , , ,,2000,2,5e95d2226b866102a615981d,001,2021-08-19_16h40.17.957,natb3,2021.2.3,Win32,59.97720866,5e95d2226b866102a615981d,611e07ecdcc96256ae8d5b80,611e7c7457c055c509a1b80e,
,,,,,,,0,104,104,315,1,X, , , , ,,2500,2.5,5e95d2226b866102a615981d,001,2021-08-19_16h40.17.957,natb3,2021.2.3,Win32,59.97720866,5e95d2226b866102a615981d,611e07ecdcc96256ae8d5b80,611e7c7457c055c509a1b80e,
,,,,space,0.3472,,0,105,105,120,1,U, , , , ,space,1500,1.5,5e95d2226b866102a615981d,001,2021-08-19_16h40.17.957,natb3,2021.2.3,Win32,59.97720866,5e95d2226b866102a615981d,611e07ecdcc96256ae8d5b80,611e7c7457c055c509a1b80e,
,,,,,,,0,106,106,322,1,X, , ,1,6,,2000,2,5e95d2226b866102a615981d,001,2021-08-19_16h40.17.957,natb3,2021.2.3,Win32,59.97720866,5e95d2226b866102a615981d,611e07ecdcc96256ae8d5b80,611e7c7457c055c509a1b80e,
,,,,space,0.4136,,0,107,107,79,1,P, , , , ,space,2000,2,5e95d2226b866102a615981d,001,2021-08-19_16h40.17.957,natb3,2021.2.3,Win32,59.97720866,5e95d2226b866102a615981d,611e07ecdcc96256ae8d5b80,611e7c7457c055c509a1b80e,
,,,,,,,0,108,108,200,1,X,7, ,5,3,,1500,1.5,5e95d2226b866102a615981d,001,2021-08-19_16h40.17.957,natb3,2021.2.3,Win32,59.97720866,5e95d2226b866102a615981d,611e07ecdcc96256ae8d5b80,611e7c7457c055c509a1b80e,
,,,,space,0.3654,,0,109,109,157,1,A, , , , ,space,2500,2.5,5e95d2226b866102a615981d,001,2021-08-19_16h40.17.957,natb3,2021.2.3,Win32,59.97720866,5e95d2226b866102a615981d,611e07ecdcc96256ae8d5b80,611e7c7457c055c509a1b80e,
,,,,space,0.8383,,0,110,110,204,1,Z, , , , ,space,2000,2,5e95d2226b866102a615981d,001,2021-08-19_16h40.17.957,natb3,2021.2.3,Win32,59.97720866,5e95d2226b866102a615981d,611e07ecdcc96256ae8d5b80,611e7c7457c055c509a1b80e,
,,,,space,0.4193,,0,111,111,91,1,L, , , , ,space,2000,2,5e95d2226b866102a615981d,001,2021-08-19_16h40.17.957,natb3,2021.2.3,Win32,59.97720866,5e95d2226b866102a615981d,611e07ecdcc96256ae8d5b80,611e7c7457c055c509a1b80e,
,,,,space,0.525,,0,112,112,21,1,J, , , , ,space,1500,1.5,5e95d2226b866102a615981d,001,2021-08-19_16h40.17.957,natb3,2021.2.3,Win32,59.97720866,5e95d2226b866102a615981d,611e07ecdcc96256ae8d5b80,611e7c7457c055c509a1b80e,
,,,,,,,0,113,113,291,1,X, , , , ,,2000,2,5e95d2226b866102a615981d,001,2021-08-19_16h40.17.957,natb3,2021.2.3,Win32,59.97720866,5e95d2226b866102a615981d,611e07ecdcc96256ae8d5b80,611e7c7457c055c509a1b80e,
,,,,space,0.4955,,0,114,114,167,1,K, , , , ,space,1500,1.5,5e95d2226b866102a615981d,001,2021-08-19_16h40.17.957,natb3,2021.2.3,Win32,59.97720866,5e95d2226b866102a615981d,611e07ecdcc96256ae8d5b80,611e7c7457c055c509a1b80e,
,,,,space,0.4138,,0,115,115,290,1,W, , , , ,space,1500,1.5,5e95d2226b866102a615981d,001,2021-08-19_16h40.17.957,natb3,2021.2.3,Win32,59.97720866,5e95d2226b866102a615981d,611e07ecdcc96256ae8d5b80,611e7c7457c055c509a1b80e,
,,,,,,,0,116,116,122,1,X,1, , ,8,,1500,1.5,5e95d2226b866102a615981d,001,2021-08-19_16h40.17.957,natb3,2021.2.3,Win32,59.97720866,5e95d2226b866102a615981d,611e07ecdcc96256ae8d5b80,611e7c7457c055c509a1b80e,
,,,,space,0.4405,,0,117,117,265,1,I, , , , ,space,2000,2,5e95d2226b866102a615981d,001,2021-08-19_16h40.17.957,natb3,2021.2.3,Win32,59.97720866,5e95d2226b866102a615981d,611e07ecdcc96256ae8d5b80,611e7c7457c055c509a1b80e,
,,,,space,0.4023,,0,118,118,136,1,Z, , , , ,space,2500,2.5,5e95d2226b866102a615981d,001,2021-08-19_16h40.17.957,natb3,2021.2.3,Win32,59.97720866,5e95d2226b866102a615981d,611e07ecdcc96256ae8d5b80,611e7c7457c055c509a1b80e,
,,,,space,0.4518,,0,119,119,266,1,O, , , , ,space,1500,1.5,5e95d2226b866102a615981d,001,2021-08-19_16h40.17.957,natb3,2021.2.3,Win32,59.97720866,5e95d2226b866102a615981d,611e07ecdcc96256ae8d5b80,611e7c7457c055c509a1b80e,
,,,,space,0.4086,,0,120,120,83,1,D, , , , ,space,2000,2,5e95d2226b866102a615981d,001,2021-08-19_16h40.17.957,natb3,2021.2.3,Win32,59.97720866,5e95d2226b866102a615981d,611e07ecdcc96256ae8d5b80,611e7c7457c055c509a1b80e,
,,,,space,0.4886,,0,121,121,48,1,A, , , , ,space,2500,2.5,5e95d2226b866102a615981d,001,2021-08-19_16h40.17.957,natb3,2021.2.3,Win32,59.97720866,5e95d2226b866102a615981d,611e07ecdcc96256ae8d5b80,611e7c7457c055c509a1b80e,
,,,,space,0.5615,,0,122,122,113,1,W, , , , ,space,2500,2.5,5e95d2226b866102a615981d,001,2021-08-19_16h40.17.957,natb3,2021.2.3,Win32,59.97720866,5e95d2226b866102a615981d,611e07ecdcc96256ae8d5b80,611e7c7457c055c509a1b80e,
,,,,space,0.4468,,0,123,123,56,1,J, , , , ,space,1500,1.5,5e95d2226b866102a615981d,001,2021-08-19_16h40.17.957,natb3,2021.2.3,Win32,59.97720866,5e95d2226b866102a615981d,611e07ecdcc96256ae8d5b80,611e7c7457c055c509a1b80e,
,,,,,,,0,124,124,138,1,X,8,5, ,3,,2000,2,5e95d2226b866102a615981d,001,2021-08-19_16h40.17.957,natb3,2021.2.3,Win32,59.97720866,5e95d2226b866102a615981d,611e07ecdcc96256ae8d5b80,611e7c7457c055c509a1b80e,
,,,,space,0.4391,,0,125,125,177,1,M, , , , ,space,2500,2.5,5e95d2226b866102a615981d,001,2021-08-19_16h40.17.957,natb3,2021.2.3,Win32,59.97720866,5e95d2226b866102a615981d,611e07ecdcc96256ae8d5b80,611e7c7457c055c509a1b80e,
,,,,space,0.3937,,0,126,126,140,1,B, , , , ,space,2500,2.5,5e95d2226b866102a615981d,001,2021-08-19_16h40.17.957,natb3,2021.2.3,Win32,59.97720866,5e95d2226b866102a615981d,611e07ecdcc96256ae8d5b80,611e7c7457c055c509a1b80e,
,,,,space,0.4486,,0,127,127,57,1,K, , , , ,space,2500,2.5,5e95d2226b866102a615981d,001,2021-08-19_16h40.17.957,natb3,2021.2.3,Win32,59.97720866,5e95d2226b866102a615981d,611e07ecdcc96256ae8d5b80,611e7c7457c055c509a1b80e,
,,,,,,,0,128,128,305,1,X, , , , ,,1500,1.5,5e95d2226b866102a615981d,001,2021-08-19_16h40.17.957,natb3,2021.2.3,Win32,59.97720866,5e95d2226b866102a615981d,611e07ecdcc96256ae8d5b80,611e7c7457c055c509a1b80e,
,,,,space,0.397,,0,129,129,26,1,C, , , , ,space,2000,2,5e95d2226b866102a615981d,001,2021-08-19_16h40.17.957,natb3,2021.2.3,Win32,59.97720866,5e95d2226b866102a615981d,611e07ecdcc96256ae8d5b80,611e7c7457c055c509a1b80e,
,,,,space,0.3947,,0,130,130,2,1,E, , , , ,space,2500,2.5,5e95d2226b866102a615981d,001,2021-08-19_16h40.17.957,natb3,2021.2.3,Win32,59.97720866,5e95d2226b866102a615981d,611e07ecdcc96256ae8d5b80,611e7c7457c055c509a1b80e,
,,,,space,0.4178,,0,131,131,40,1,T, , , , ,space,1500,1.5,5e95d2226b866102a615981d,001,2021-08-19_16h40.17.957,natb3,2021.2.3,Win32,59.97720866,5e95d2226b866102a615981d,611e07ecdcc96256ae8d5b80,611e7c7457c055c509a1b80e,
,,,,space,0.3872,,0,132,132,5,1,T, , , , ,space,2000,2,5e95d2226b866102a615981d,001,2021-08-19_16h40.17.957,natb3,2021.2.3,Win32,59.97720866,5e95d2226b866102a615981d,611e07ecdcc96256ae8d5b80,611e7c7457c055c509a1b80e,
,,,,,,,0,133,133,168,1,X, , , , ,,2500,2.5,5e95d2226b866102a615981d,001,2021-08-19_16h40.17.957,natb3,2021.2.3,Win32,59.97720866,5e95d2226b866102a615981d,611e07ecdcc96256ae8d5b80,611e7c7457c055c509a1b80e,
,,,,space,0.3961,,0,134,134,134,1,J, , , , ,space,2000,2,5e95d2226b866102a615981d,001,2021-08-19_16h40.17.957,natb3,2021.2.3,Win32,59.97720866,5e95d2226b866102a615981d,611e07ecdcc96256ae8d5b80,611e7c7457c055c509a1b80e,
,,,,space,0.4534,,0,135,135,173,1,V, , , , ,space,1500,1.5,5e95d2226b866102a615981d,001,2021-08-19_16h40.17.957,natb3,2021.2.3,Win32,59.97720866,5e95d2226b866102a615981d,611e07ecdcc96256ae8d5b80,611e7c7457c055c509a1b80e,
,,,,space,0.478,,0,136,136,320,1,B, , , , ,space,1500,1.5,5e95d2226b866102a615981d,001,2021-08-19_16h40.17.957,natb3,2021.2.3,Win32,59.97720866,5e95d2226b866102a615981d,611e07ecdcc96256ae8d5b80,611e7c7457c055c509a1b80e,
,,,,,,,0,137,137,175,1,X,7, ,4,2,,1500,1.5,5e95d2226b866102a615981d,001,2021-08-19_16h40.17.957,natb3,2021.2.3,Win32,59.97720866,5e95d2226b866102a615981d,611e07ecdcc96256ae8d5b80,611e7c7457c055c509a1b80e,
,,,,space,0.4414,,0,138,138,300,1,O, , , , ,space,2500,2.5,5e95d2226b866102a615981d,001,2021-08-19_16h40.17.957,natb3,2021.2.3,Win32,59.97720866,5e95d2226b866102a615981d,611e07ecdcc96256ae8d5b80,611e7c7457c055c509a1b80e,
,,,,space,0.498,,0,139,139,80,1,A, , , , ,space,2000,2,5e95d2226b866102a615981d,001,2021-08-19_16h40.17.957,natb3,2021.2.3,Win32,59.97720866,5e95d2226b866102a615981d,611e07ecdcc96256ae8d5b80,611e7c7457c055c509a1b80e,
,,,,space,0.4481,,0,140,140,124,1,P, , , , ,space,2000,2,5e95d2226b866102a615981d,001,2021-08-19_16h40.17.957,natb3,2021.2.3,Win32,59.97720866,5e95d2226b866102a615981d,611e07ecdcc96256ae8d5b80,611e7c7457c055c509a1b80e,
,,,,space,0.4343,,0,141,141,220,1,U, , , , ,space,2500,2.5,5e95d2226b866102a615981d,001,2021-08-19_16h40.17.957,natb3,2021.2.3,Win32,59.97720866,5e95d2226b866102a615981d,611e07ecdcc96256ae8d5b80,611e7c7457c055c509a1b80e,
,,,,,,,0,142,142,325,1,X, , , , ,,2500,2.5,5e95d2226b866102a615981d,001,2021-08-19_16h40.17.957,natb3,2021.2.3,Win32,59.97720866,5e95d2226b866102a615981d,611e07ecdcc96256ae8d5b80,611e7c7457c055c509a1b80e,
,,,,,,,0,143,143,141,1,X,1, ,4,6,,1500,1.5,5e95d2226b866102a615981d,001,2021-08-19_16h40.17.957,natb3,2021.2.3,Win32,59.97720866,5e95d2226b866102a615981d,611e07ecdcc96256ae8d5b80,611e7c7457c055c509a1b80e,
,,,,space,0.4131,,0,144,144,327,1,E, , , , ,space,1500,1.5,5e95d2226b866102a615981d,001,2021-08-19_16h40.17.957,natb3,2021.2.3,Win32,59.97720866,5e95d2226b866102a615981d,611e07ecdcc96256ae8d5b80,611e7c7457c055c509a1b80e,
,,,,space,0.3973,,0,145,145,205,1,C, , , , ,space,2000,2,5e95d2226b866102a615981d,001,2021-08-19_16h40.17.957,natb3,2021.2.3,Win32,59.97720866,5e95d2226b866102a615981d,611e07ecdcc96256ae8d5b80,611e7c7457c055c509a1b80e,
,,,,,,,0,146,146,60,1,X,7,3,5, ,,1500,1.5,5e95d2226b866102a615981d,001,2021-08-19_16h40.17.957,natb3,2021.2.3,Win32,59.97720866,5e95d2226b866102a615981d,611e07ecdcc96256ae8d5b80,611e7c7457c055c509a1b80e,
,,,,space,0.444,,0,147,147,334,1,O, , , , ,space,1500,1.5,5e95d2226b866102a615981d,001,2021-08-19_16h40.17.957,natb3,2021.2.3,Win32,59.97720866,5e95d2226b866102a615981d,611e07ecdcc96256ae8d5b80,611e7c7457c055c509a1b80e,
,,,,space,0.3428,,0,148,148,174,1,B, , , , ,space,2500,2.5,5e95d2226b866102a615981d,001,2021-08-19_16h40.17.957,natb3,2021.2.3,Win32,59.97720866,5e95d2226b866102a615981d,611e07ecdcc96256ae8d5b80,611e7c7457c055c509a1b80e,
,,,,space,0.4151,,0,149,149,242,1,H, , , , ,space,2500,2.5,5e95d2226b866102a615981d,001,2021-08-19_16h40.17.957,natb3,2021.2.3,Win32,59.97720866,5e95d2226b866102a615981d,611e07ecdcc96256ae8d5b80,611e7c7457c055c509a1b80e,
,,,,space,0.4085,,0,150,150,164,1,H, , , , ,space,2500,2.5,5e95d2226b866102a615981d,001,2021-08-19_16h40.17.957,natb3,2021.2.3,Win32,59.97720866,5e95d2226b866102a615981d,611e07ecdcc96256ae8d5b80,611e7c7457c055c509a1b80e,
,,,,space,0.4508,,0,151,151,52,1,F, , , , ,space,1500,1.5,5e95d2226b866102a615981d,001,2021-08-19_16h40.17.957,natb3,2021.2.3,Win32,59.97720866,5e95d2226b866102a615981d,611e07ecdcc96256ae8d5b80,611e7c7457c055c509a1b80e,
,,,,space,0.4352,,0,152,152,106,1,T, , , , ,space,1500,1.5,5e95d2226b866102a615981d,001,2021-08-19_16h40.17.957,natb3,2021.2.3,Win32,59.97720866,5e95d2226b866102a615981d,611e07ecdcc96256ae8d5b80,611e7c7457c055c509a1b80e,
,,,,space,0.4935,,0,153,153,112,1,Q, , , , ,space,2500,2.5,5e95d2226b866102a615981d,001,2021-08-19_16h40.17.957,natb3,2021.2.3,Win32,59.97720866,5e95d2226b866102a615981d,611e07ecdcc96256ae8d5b80,611e7c7457c055c509a1b80e,
,,,,space,0.4472,,0,154,154,261,1,T, , , , ,space,2000,2,5e95d2226b866102a615981d,001,2021-08-19_16h40.17.957,natb3,2021.2.3,Win32,59.97720866,5e95d2226b866102a615981d,611e07ecdcc96256ae8d5b80,611e7c7457c055c509a1b80e,
,,,,,,,0,155,155,107,1,X,9,3, ,2,,2000,2,5e95d2226b866102a615981d,001,2021-08-19_16h40.17.957,natb3,2021.2.3,Win32,59.97720866,5e95d2226b866102a615981d,611e07ecdcc96256ae8d5b80,611e7c7457c055c509a1b80e,
,,,,space,0.3953,,0,156,156,58,1,L, , , , ,space,2000,2,5e95d2226b866102a615981d,001,2021-08-19_16h40.17.957,natb3,2021.2.3,Win32,59.97720866,5e95d2226b866102a615981d,611e07ecdcc96256ae8d5b80,611e7c7457c055c509a1b80e,
,,,,space,0.6842,,0,157,157,25,1,Z, , , , ,space,2500,2.5,5e95d2226b866102a615981d,001,2021-08-19_16h40.17.957,natb3,2021.2.3,Win32,59.97720866,5e95d2226b866102a615981d,611e07ecdcc96256ae8d5b80,611e7c7457c055c509a1b80e,
,,,,space,0.4428,,0,158,158,192,1,A, , , , ,space,2000,2,5e95d2226b866102a615981d,001,2021-08-19_16h40.17.957,natb3,2021.2.3,Win32,59.97720866,5e95d2226b866102a615981d,611e07ecdcc96256ae8d5b80,611e7c7457c055c509a1b80e,
,,,,,,,0,159,159,171,1,X, , , , ,,1500,1.5,5e95d2226b866102a615981d,001,2021-08-19_16h40.17.957,natb3,2021.2.3,Win32,59.97720866,5e95d2226b866102a615981d,611e07ecdcc96256ae8d5b80,611e7c7457c055c509a1b80e,
,,,,,,,0,160,160,271,1,X, , , , ,,2500,2.5,5e95d2226b866102a615981d,001,2021-08-19_16h40.17.957,natb3,2021.2.3,Win32,59.97720866,5e95d2226b866102a615981d,611e07ecdcc96256ae8d5b80,611e7c7457c055c509a1b80e,
,,,,,,,0,161,161,82,1,X,4,6,1,7,,2000,2,5e95d2226b866102a615981d,001,2021-08-19_16h40.17.957,natb3,2021.2.3,Win32,59.97720866,5e95d2226b866102a615981d,611e07ecdcc96256ae8d5b80,611e7c7457c055c509a1b80e,
,,,,,,,0,162,162,252,1,X,3, ,6,9,,2000,2,5e95d2226b866102a615981d,001,2021-08-19_16h40.17.957,natb3,2021.2.3,Win32,59.97720866,5e95d2226b866102a615981d,611e07ecdcc96256ae8d5b80,611e7c7457c055c509a1b80e,
,,,,,,,0,163,163,162,1,X,1,6, ,2,,1500,1.5,5e95d2226b866102a615981d,001,2021-08-19_16h40.17.957,natb3,2021.2.3,Win32,59.97720866,5e95d2226b866102a615981d,611e07ecdcc96256ae8d5b80,611e7c7457c055c509a1b80e,
,,,,space,0.3975,,0,164,164,198,1,H, , , , ,space,2500,2.5,5e95d2226b866102a615981d,001,2021-08-19_16h40.17.957,natb3,2021.2.3,Win32,59.97720866,5e95d2226b866102a615981d,611e07ecdcc96256ae8d5b80,611e7c7457c055c509a1b80e,
,,,,space,0.3902,,0,165,165,3,1,R, , , , ,space,2000,2,5e95d2226b866102a615981d,001,2021-08-19_16h40.17.957,natb3,2021.2.3,Win32,59.97720866,5e95d2226b866102a615981d,611e07ecdcc96256ae8d5b80,611e7c7457c055c509a1b80e,
,,,,,,,0,166,166,66,1,X, ,4,7, ,,2000,2,5e95d2226b866102a615981d,001,2021-08-19_16h40.17.957,natb3,2021.2.3,Win32,59.97720866,5e95d2226b866102a615981d,611e07ecdcc96256ae8d5b80,611e7c7457c055c509a1b80e,
,,,,space,0.4385,space,0,167,167,94,1,C, , , , ,space,2000,2,5e95d2226b866102a615981d,001,2021-08-19_16h40.17.957,natb3,2021.2.3,Win32,59.97720866,5e95d2226b866102a615981d,611e07ecdcc96256ae8d5b80,611e7c7457c055c509a1b80e,15.249
,,,,,,,0,168,168,236,1,X,3, ,4,7,,2500,2.5,5e95d2226b866102a615981d,001,2021-08-19_16h40.17.957,natb3,2021.2.3,Win32,59.97720866,5e95d2226b866102a615981d,611e07ecdcc96256ae8d5b80,611e7c7457c055c509a1b80e,
,,,,,,,0,169,169,39,1,X,6,2, , ,,1500,1.5,5e95d2226b866102a615981d,001,2021-08-19_16h40.17.957,natb3,2021.2.3,Win32,59.97720866,5e95d2226b866102a615981d,611e07ecdcc96256ae8d5b80,611e7c7457c055c509a1b80e,
,,,,,,,0,170,170,287,1,X, ,2, ,9,,2000,2,5e95d2226b866102a615981d,001,2021-08-19_16h40.17.957,natb3,2021.2.3,Win32,59.97720866,5e95d2226b866102a615981d,611e07ecdcc96256ae8d5b80,611e7c7457c055c509a1b80e,
,,,,,,,0,171,171,148,1,X, , , , ,,2000,2,5e95d2226b866102a615981d,001,2021-08-19_16h40.17.957,natb3,2021.2.3,Win32,59.97720866,5e95d2226b866102a615981d,611e07ecdcc96256ae8d5b80,611e7c7457c055c509a1b80e,
,,,,space,0.4158,,0,172,172,314,1,L, , , , ,space,1500,1.5,5e95d2226b866102a615981d,001,2021-08-19_16h40.17.957,natb3,2021.2.3,Win32,59.97720866,5e95d2226b866102a615981d,611e07ecdcc96256ae8d5b80,611e7c7457c055c509a1b80e,
,,,,space,0.4906,,0,173,173,24,1,L, , , , ,space,2500,2.5,5e95d2226b866102a615981d,001,2021-08-19_16h40.17.957,natb3,2021.2.3,Win32,59.97720866,5e95d2226b866102a615981d,611e07ecdcc96256ae8d5b80,611e7c7457c055c509a1b80e,
,,,,space,0.4933,,0,174,174,188,1,I, , , , ,space,2500,2.5,5e95d2226b866102a615981d,001,2021-08-19_16h40.17.957,natb3,2021.2.3,Win32,59.97720866,5e95d2226b866102a615981d,611e07ecdcc96256ae8d5b80,611e7c7457c055c509a1b80e,
,,,,space,0.4178,,0,175,175,1,1,W, , , , ,space,2000,2,5e95d2226b866102a615981d,001,2021-08-19_16h40.17.957,natb3,2021.2.3,Win32,59.97720866,5e95d2226b866102a615981d,611e07ecdcc96256ae8d5b80,611e7c7457c055c509a1b80e,
,,,,space,0.4343,,0,176,176,181,1,E, , , , ,space,1500,1.5,5e95d2226b866102a615981d,001,2021-08-19_16h40.17.957,natb3,2021.2.3,Win32,59.97720866,5e95d2226b866102a615981d,611e07ecdcc96256ae8d5b80,611e7c7457c055c509a1b80e,
,,,,space,0.4547,,0,177,177,101,1,Q, , , , ,space,2500,2.5,5e95d2226b866102a615981d,001,2021-08-19_16h40.17.957,natb3,2021.2.3,Win32,59.97720866,5e95d2226b866102a615981d,611e07ecdcc96256ae8d5b80,611e7c7457c055c509a1b80e,
,,,,space,0.4142,,0,178,178,189,1,O, , , , ,space,1500,1.5,5e95d2226b866102a615981d,001,2021-08-19_16h40.17.957,natb3,2021.2.3,Win32,59.97720866,5e95d2226b866102a615981d,611e07ecdcc96256ae8d5b80,611e7c7457c055c509a1b80e,
,,,,space,0.3961,,0,179,179,226,1,R, , , , ,space,2000,2,5e95d2226b866102a615981d,001,2021-08-19_16h40.17.957,natb3,2021.2.3,Win32,59.97720866,5e95d2226b866102a615981d,611e07ecdcc96256ae8d5b80,611e7c7457c055c509a1b80e,
,,,,,,,0,180,180,129,1,X,2,3,5, ,,1500,1.5,5e95d2226b866102a615981d,001,2021-08-19_16h40.17.957,natb3,2021.2.3,Win32,59.97720866,5e95d2226b866102a615981d,611e07ecdcc96256ae8d5b80,611e7c7457c055c509a1b80e,
,,,,space,0.4591,,0,181,181,309,1,H, , , , ,space,2500,2.5,5e95d2226b866102a615981d,001,2021-08-19_16h40.17.957,natb3,2021.2.3,Win32,59.97720866,5e95d2226b866102a615981d,611e07ecdcc96256ae8d5b80,611e7c7457c055c509a1b80e,
,,,,space,0.441,,0,182,182,111,1,O, , , , ,space,2000,2,5e95d2226b866102a615981d,001,2021-08-19_16h40.17.957,natb3,2021.2.3,Win32,59.97720866,5e95d2226b866102a615981d,611e07ecdcc96256ae8d5b80,611e7c7457c055c509a1b80e,
,,,,space,0.8217,,0,183,183,335,1,P,,,,,space,1500,1.5,5e95d2226b866102a615981d,001,2021-08-19_16h40.17.957,natb3,2021.2.3,Win32,59.97720866,5e95d2226b866102a615981d,611e07ecdcc96256ae8d5b80,611e7c7457c055c509a1b80e,
,,,,,,,0,184,184,166,1,X, , , , ,,2000,2,5e95d2226b866102a615981d,001,2021-08-19_16h40.17.957,natb3,2021.2.3,Win32,59.97720866,5e95d2226b866102a615981d,611e07ecdcc96256ae8d5b80,611e7c7457c055c509a1b80e,
,,,,space,0.4805,,0,185,185,30,1,N, , , , ,space,2500,2.5,5e95d2226b866102a615981d,001,2021-08-19_16h40.17.957,natb3,2021.2.3,Win32,59.97720866,5e95d2226b866102a615981d,611e07ecdcc96256ae8d5b80,611e7c7457c055c509a1b80e,
,,,,space,0.4474,,0,186,186,251,1,B, , , , ,space,1500,1.5,5e95d2226b866102a615981d,001,2021-08-19_16h40.17.957,natb3,2021.2.3,Win32,59.97720866,5e95d2226b866102a615981d,611e07ecdcc96256ae8d5b80,611e7c7457c055c509a1b80e,
,,,,space,0.3669,,0,187,187,12,1,X, , , , ,,1500,1.5,5e95d2226b866102a615981d,001,2021-08-19_16h40.17.957,natb3,2021.2.3,Win32,59.97720866,5e95d2226b866102a615981d,611e07ecdcc96256ae8d5b80,611e7c7457c055c509a1b80e,
,,,,space,0.4671,,0,188,188,308,1,G, , , , ,space,1500,1.5,5e95d2226b866102a615981d,001,2021-08-19_16h40.17.957,natb3,2021.2.3,Win32,59.97720866,5e95d2226b866102a615981d,611e07ecdcc96256ae8d5b80,611e7c7457c055c509a1b80e,
,,,,space,0.4171,,0,189,189,0,1,Q, , , , ,space,1500,1.5,5e95d2226b866102a615981d,001,2021-08-19_16h40.17.957,natb3,2021.2.3,Win32,59.97720866,5e95d2226b866102a615981d,611e07ecdcc96256ae8d5b80,611e7c7457c055c509a1b80e,
,,,,space,0.5125,,0,190,190,161,1,F, , , , ,space,1500,1.5,5e95d2226b866102a615981d,001,2021-08-19_16h40.17.957,natb3,2021.2.3,Win32,59.97720866,5e95d2226b866102a615981d,611e07ecdcc96256ae8d5b80,611e7c7457c055c509a1b80e,
,,,,,,,0,191,191,218,1,X,1,3, ,8,,1500,1.5,5e95d2226b866102a615981d,001,2021-08-19_16h40.17.957,natb3,2021.2.3,Win32,59.97720866,5e95d2226b866102a615981d,611e07ecdcc96256ae8d5b80,611e7c7457c055c509a1b80e,
,,,,space,0.5109,,0,192,192,156,1,P, , , , ,space,1500,1.5,5e95d2226b866102a615981d,001,2021-08-19_16h40.17.957,natb3,2021.2.3,Win32,59.97720866,5e95d2226b866102a615981d,611e07ecdcc96256ae8d5b80,611e7c7457c055c509a1b80e,
,,,,space,0.4972,,0,193,193,121,1,I, , , , ,space,2000,2,5e95d2226b866102a615981d,001,2021-08-19_16h40.17.957,natb3,2021.2.3,Win32,59.97720866,5e95d2226b866102a615981d,611e07ecdcc96256ae8d5b80,611e7c7457c055c509a1b80e,
,,,,,,,0,194,194,78,1,X, , , , ,,2000,2,5e95d2226b866102a615981d,001,2021-08-19_16h40.17.957,natb3,2021.2.3,Win32,59.97720866,5e95d2226b866102a615981d,611e07ecdcc96256ae8d5b80,611e7c7457c055c509a1b80e,
,,,,space,0.3531,,0,195,195,123,1,O, , , , ,space,1500,1.5,5e95d2226b866102a615981d,001,2021-08-19_16h40.17.957,natb3,2021.2.3,Win32,59.97720866,5e95d2226b866102a615981d,611e07ecdcc96256ae8d5b80,611e7c7457c055c509a1b80e,
,,,,space,0.5039,,0,196,196,9,1,I, , , , ,space,1500,1.5,5e95d2226b866102a615981d,001,2021-08-19_16h40.17.957,natb3,2021.2.3,Win32,59.97720866,5e95d2226b866102a615981d,611e07ecdcc96256ae8d5b80,611e7c7457c055c509a1b80e,
,,,,space,0.3979,,0,197,197,160,1,D, , , , ,space,1500,1.5,5e95d2226b866102a615981d,001,2021-08-19_16h40.17.957,natb3,2021.2.3,Win32,59.97720866,5e95d2226b866102a615981d,611e07ecdcc96256ae8d5b80,611e7c7457c055c509a1b80e,
,,,,,,,0,198,198,203,1,X, , , , ,,2500,2.5,5e95d2226b866102a615981d,001,2021-08-19_16h40.17.957,natb3,2021.2.3,Win32,59.97720866,5e95d2226b866102a615981d,611e07ecdcc96256ae8d5b80,611e7c7457c055c509a1b80e,
,,,,space,0.4802,,0,199,199,262,1,Y, , , , ,space,2500,2.5,5e95d2226b866102a615981d,001,2021-08-19_16h40.17.957,natb3,2021.2.3,Win32,59.97720866,5e95d2226b866102a615981d,611e07ecdcc96256ae8d5b80,611e7c7457c055c509a1b80e,
,,,,,,,0,200,200,35,1,X, , , , ,,2500,2.5,5e95d2226b866102a615981d,001,2021-08-19_16h40.17.957,natb3,2021.2.3,Win32,59.97720866,5e95d2226b866102a615981d,611e07ecdcc96256ae8d5b80,611e7c7457c055c509a1b80e,
,,,,space,0.4651,,0,201,201,221,1,I, , , , ,space,2500,2.5,5e95d2226b866102a615981d,001,2021-08-19_16h40.17.957,natb3,2021.2.3,Win32,59.97720866,5e95d2226b866102a615981d,611e07ecdcc96256ae8d5b80,611e7c7457c055c509a1b80e,
,,,,space,0.4423,,0,202,202,146,1,W, , , , ,space,1500,1.5,5e95d2226b866102a615981d,001,2021-08-19_16h40.17.957,natb3,2021.2.3,Win32,59.97720866,5e95d2226b866102a615981d,611e07ecdcc96256ae8d5b80,611e7c7457c055c509a1b80e,
,,,,space,0.4195,,0,203,203,294,1,T, , , , ,space,2000,2,5e95d2226b866102a615981d,001,2021-08-19_16h40.17.957,natb3,2021.2.3,Win32,59.97720866,5e95d2226b866102a615981d,611e07ecdcc96256ae8d5b80,611e7c7457c055c509a1b80e,
,,,,,,,0,204,204,84,1,X, , , , ,,2000,2,5e95d2226b866102a615981d,001,2021-08-19_16h40.17.957,natb3,2021.2.3,Win32,59.97720866,5e95d2226b866102a615981d,611e07ecdcc96256ae8d5b80,611e7c7457c055c509a1b80e,
,,,,space,0.4137,,0,205,205,323,1,M, , , , ,space,2500,2.5,5e95d2226b866102a615981d,001,2021-08-19_16h40.17.957,natb3,2021.2.3,Win32,59.97720866,5e95d2226b866102a615981d,611e07ecdcc96256ae8d5b80,611e7c7457c055c509a1b80e,
,,,,,,,0,206,206,93,1,X,5, ,7, ,,2500,2.5,5e95d2226b866102a615981d,001,2021-08-19_16h40.17.957,natb3,2021.2.3,Win32,59.97720866,5e95d2226b866102a615981d,611e07ecdcc96256ae8d5b80,611e7c7457c055c509a1b80e,
,,,,space,0.4365,,0,207,207,19,1,G, , , , ,space,1500,1.5,5e95d2226b866102a615981d,001,2021-08-19_16h40.17.957,natb3,2021.2.3,Win32,59.97720866,5e95d2226b866102a615981d,611e07ecdcc96256ae8d5b80,611e7c7457c055c509a1b80e,
,,,,space,0.3633,,0,208,208,63,1,B, , , , ,space,2000,2,5e95d2226b866102a615981d,001,2021-08-19_16h40.17.957,natb3,2021.2.3,Win32,59.97720866,5e95d2226b866102a615981d,611e07ecdcc96256ae8d5b80,611e7c7457c055c509a1b80e,
,,,,space,0.5802,,0,209,209,170,1,Z, , , , ,space,2000,2,5e95d2226b866102a615981d,001,2021-08-19_16h40.17.957,natb3,2021.2.3,Win32,59.97720866,5e95d2226b866102a615981d,611e07ecdcc96256ae8d5b80,611e7c7457c055c509a1b80e,
,,,,space,0.4038,,0,210,210,202,1,L, , , , ,space,2500,2.5,5e95d2226b866102a615981d,001,2021-08-19_16h40.17.957,natb3,2021.2.3,Win32,59.97720866,5e95d2226b866102a615981d,611e07ecdcc96256ae8d5b80,611e7c7457c055c509a1b80e,
,,,,,,,0,211,211,23,1,X,1, ,5, ,,2000,2,5e95d2226b866102a615981d,001,2021-08-19_16h40.17.957,natb3,2021.2.3,Win32,59.97720866,5e95d2226b866102a615981d,611e07ecdcc96256ae8d5b80,611e7c7457c055c509a1b80e,
,,,,,,,0,212,212,133,1,X, ,4, ,6,,2500,2.5,5e95d2226b866102a615981d,001,2021-08-19_16h40.17.957,natb3,2021.2.3,Win32,59.97720866,5e95d2226b866102a615981d,611e07ecdcc96256ae8d5b80,611e7c7457c055c509a1b80e,
,,,,space,0.4351,,0,213,213,109,1,U, , , , ,space,1500,1.5,5e95d2226b866102a615981d,001,2021-08-19_16h40.17.957,natb3,2021.2.3,Win32,59.97720866,5e95d2226b866102a615981d,611e07ecdcc96256ae8d5b80,611e7c7457c055c509a1b80e,
,,,,,,,0,214,214,98,1,X, , , , ,,2500,2.5,5e95d2226b866102a615981d,001,2021-08-19_16h40.17.957,natb3,2021.2.3,Win32,59.97720866,5e95d2226b866102a615981d,611e07ecdcc96256ae8d5b80,611e7c7457c055c509a1b80e,
,,,,space,0.4402,,0,215,215,306,1,D, , , , ,space,2000,2,5e95d2226b866102a615981d,001,2021-08-19_16h40.17.957,natb3,2021.2.3,Win32,59.97720866,5e95d2226b866102a615981d,611e07ecdcc96256ae8d5b80,611e7c7457c055c509a1b80e,
,,,,,,,0,216,216,69,1,X, , , , ,,1500,1.5,5e95d2226b866102a615981d,001,2021-08-19_16h40.17.957,natb3,2021.2.3,Win32,59.97720866,5e95d2226b866102a615981d,611e07ecdcc96256ae8d5b80,611e7c7457c055c509a1b80e,
,,,,,,,0,217,217,313,1,X, , , , ,,2500,2.5,5e95d2226b866102a615981d,001,2021-08-19_16h40.17.957,natb3,2021.2.3,Win32,59.97720866,5e95d2226b866102a615981d,611e07ecdcc96256ae8d5b80,611e7c7457c055c509a1b80e,
,,,,,,,0,218,218,74,1,X, ,4,3,2,,1500,1.5,5e95d2226b866102a615981d,001,2021-08-19_16h40.17.957,natb3,2021.2.3,Win32,59.97720866,5e95d2226b866102a615981d,611e07ecdcc96256ae8d5b80,611e7c7457c055c509a1b80e,
,,,,space,0.5858,,0,219,219,92,1,Z, , , , ,space,1500,1.5,5e95d2226b866102a615981d,001,2021-08-19_16h40.17.957,natb3,2021.2.3,Win32,59.97720866,5e95d2226b866102a615981d,611e07ecdcc96256ae8d5b80,611e7c7457c055c509a1b80e,
,,,,,,,0,220,220,299,1,X, , , , ,,2500,2.5,5e95d2226b866102a615981d,001,2021-08-19_16h40.17.957,natb3,2021.2.3,Win32,59.97720866,5e95d2226b866102a615981d,611e07ecdcc96256ae8d5b80,611e7c7457c055c509a1b80e,
,,,,space,0.3959,,0,221,221,237,1,S, , , , ,space,1500,1.5,5e95d2226b866102a615981d,001,2021-08-19_16h40.17.957,natb3,2021.2.3,Win32,59.97720866,5e95d2226b866102a615981d,611e07ecdcc96256ae8d5b80,611e7c7457c055c509a1b80e,
,,,,space,0.4739,,0,222,222,44,1,I, , , , ,space,2500,2.5,5e95d2226b866102a615981d,001,2021-08-19_16h40.17.957,natb3,2021.2.3,Win32,59.97720866,5e95d2226b866102a615981d,611e07ecdcc96256ae8d5b80,611e7c7457c055c509a1b80e,
,,,,space,0.4375,,0,223,223,209,1,N, , , , ,space,2000,2,5e95d2226b866102a615981d,001,2021-08-19_16h40.17.957,natb3,2021.2.3,Win32,59.97720866,5e95d2226b866102a615981d,611e07ecdcc96256ae8d5b80,611e7c7457c055c509a1b80e,
,,,,space,0.4125,,0,224,224,332,1,U, , , , ,space,2000,2,5e95d2226b866102a615981d,001,2021-08-19_16h40.17.957,natb3,2021.2.3,Win32,59.97720866,5e95d2226b866102a615981d,611e07ecdcc96256ae8d5b80,611e7c7457c055c509a1b80e,
,,,,space,0.4638,,0,225,225,298,1,I, , , , ,space,2000,2,5e95d2226b866102a615981d,001,2021-08-19_16h40.17.957,natb3,2021.2.3,Win32,59.97720866,5e95d2226b866102a615981d,611e07ecdcc96256ae8d5b80,611e7c7457c055c509a1b80e,
,,,,space,0.4137,,0,226,226,312,1,K, , , , ,space,2000,2,5e95d2226b866102a615981d,001,2021-08-19_16h40.17.957,natb3,2021.2.3,Win32,59.97720866,5e95d2226b866102a615981d,611e07ecdcc96256ae8d5b80,611e7c7457c055c509a1b80e,
,,,,space,0.4528,,0,227,227,249,1,C, , , , ,space,2000,2,5e95d2226b866102a615981d,001,2021-08-19_16h40.17.957,natb3,2021.2.3,Win32,59.97720866,5e95d2226b866102a615981d,611e07ecdcc96256ae8d5b80,611e7c7457c055c509a1b80e,
,,,,space,0.4641,,0,228,228,50,1,D, , , , ,space,1500,1.5,5e95d2226b866102a615981d,001,2021-08-19_16h40.17.957,natb3,2021.2.3,Win32,59.97720866,5e95d2226b866102a615981d,611e07ecdcc96256ae8d5b80,611e7c7457c055c509a1b80e,
,,,,space,0.3827,,0,229,229,241,1,G, , , , ,space,2500,2.5,5e95d2226b866102a615981d,001,2021-08-19_16h40.17.957,natb3,2021.2.3,Win32,59.97720866,5e95d2226b866102a615981d,611e07ecdcc96256ae8d5b80,611e7c7457c055c509a1b80e,
,,,,space,0.3951,,0,230,230,6,1,Y, , , , ,space,2500,2.5,5e95d2226b866102a615981d,001,2021-08-19_16h40.17.957,natb3,2021.2.3,Win32,59.97720866,5e95d2226b866102a615981d,611e07ecdcc96256ae8d5b80,611e7c7457c055c509a1b80e,
,,,,,,,0,231,231,7,1,X, , , , ,,1500,1.5,5e95d2226b866102a615981d,001,2021-08-19_16h40.17.957,natb3,2021.2.3,Win32,59.97720866,5e95d2226b866102a615981d,611e07ecdcc96256ae8d5b80,611e7c7457c055c509a1b80e,
,,,,space,0.3958,,0,232,232,38,1,R, , , , ,space,2500,2.5,5e95d2226b866102a615981d,001,2021-08-19_16h40.17.957,natb3,2021.2.3,Win32,59.97720866,5e95d2226b866102a615981d,611e07ecdcc96256ae8d5b80,611e7c7457c055c509a1b80e,
,,,,,,,0,233,233,18,1,X, ,2,5,8,,2500,2.5,5e95d2226b866102a615981d,001,2021-08-19_16h40.17.957,natb3,2021.2.3,Win32,59.97720866,5e95d2226b866102a615981d,611e07ecdcc96256ae8d5b80,611e7c7457c055c509a1b80e,
,,,,space,0.448,,0,234,234,108,1,Y, , , , ,space,2500,2.5,5e95d2226b866102a615981d,001,2021-08-19_16h40.17.957,natb3,2021.2.3,Win32,59.97720866,5e95d2226b866102a615981d,611e07ecdcc96256ae8d5b80,611e7c7457c055c509a1b80e,
,,,,,,,0,235,235,263,1,X,4, ,6, ,,1500,1.5,5e95d2226b866102a615981d,001,2021-08-19_16h40.17.957,natb3,2021.2.3,Win32,59.97720866,5e95d2226b866102a615981d,611e07ecdcc96256ae8d5b80,611e7c7457c055c509a1b80e,
,,,,space,0.464,,0,236,236,283,1,C, , , , ,space,1500,1.5,5e95d2226b866102a615981d,001,2021-08-19_16h40.17.957,natb3,2021.2.3,Win32,59.97720866,5e95d2226b866102a615981d,611e07ecdcc96256ae8d5b80,611e7c7457c055c509a1b80e,
,,,,space,0.4815,,0,237,237,128,1,D, , , , ,space,2500,2.5,5e95d2226b866102a615981d,001,2021-08-19_16h40.17.957,natb3,2021.2.3,Win32,59.97720866,5e95d2226b866102a615981d,611e07ecdcc96256ae8d5b80,611e7c7457c055c509a1b80e,
,,,,space,0.4715,,0,238,238,62,1,V, , , , ,space,1500,1.5,5e95d2226b866102a615981d,001,2021-08-19_16h40.17.957,natb3,2021.2.3,Win32,59.97720866,5e95d2226b866102a615981d,611e07ecdcc96256ae8d5b80,611e7c7457c055c509a1b80e,
,,,,,,,0,239,239,125,1,X, , , , ,,2000,2,5e95d2226b866102a615981d,001,2021-08-19_16h40.17.957,natb3,2021.2.3,Win32,59.97720866,5e95d2226b866102a615981d,611e07ecdcc96256ae8d5b80,611e7c7457c055c509a1b80e,
,,,,space,0.4285,,0,240,240,272,1,D, , , , ,space,2000,2,5e95d2226b866102a615981d,001,2021-08-19_16h40.17.957,natb3,2021.2.3,Win32,59.97720866,5e95d2226b866102a615981d,611e07ecdcc96256ae8d5b80,611e7c7457c055c509a1b80e,
,,,,space,0.6127,,0,241,241,135,1,K, , , , ,space,1500,1.5,5e95d2226b866102a615981d,001,2021-08-19_16h40.17.957,natb3,2021.2.3,Win32,59.97720866,5e95d2226b866102a615981d,611e07ecdcc96256ae8d5b80,611e7c7457c055c509a1b80e,
,,,,space,0.4671,,0,242,242,73,1,Y, , , , ,space,2000,2,5e95d2226b866102a615981d,001,2021-08-19_16h40.17.957,natb3,2021.2.3,Win32,59.97720866,5e95d2226b866102a615981d,611e07ecdcc96256ae8d5b80,611e7c7457c055c509a1b80e,
,,,,space,0.4129,,0,243,243,65,1,M, , , , ,space,1500,1.5,5e95d2226b866102a615981d,001,2021-08-19_16h40.17.957,natb3,2021.2.3,Win32,59.97720866,5e95d2226b866102a615981d,611e07ecdcc96256ae8d5b80,611e7c7457c055c509a1b80e,
,,,,space,0.4303,,0,244,244,219,1,Y, , , , ,space,2000,2,5e95d2226b866102a615981d,001,2021-08-19_16h40.17.957,natb3,2021.2.3,Win32,59.97720866,5e95d2226b866102a615981d,611e07ecdcc96256ae8d5b80,611e7c7457c055c509a1b80e,
,,,,,,,0,245,245,207,1,X,9, ,2, ,,2500,2.5,5e95d2226b866102a615981d,001,2021-08-19_16h40.17.957,natb3,2021.2.3,Win32,59.97720866,5e95d2226b866102a615981d,611e07ecdcc96256ae8d5b80,611e7c7457c055c509a1b80e,
,,,,space,0.4866,,0,246,246,183,1,R, , , , ,space,1500,1.5,5e95d2226b866102a615981d,001,2021-08-19_16h40.17.957,natb3,2021.2.3,Win32,59.97720866,5e95d2226b866102a615981d,611e07ecdcc96256ae8d5b80,611e7c7457c055c509a1b80e,
,,,,,,,0,247,247,118,1,X, , , , ,,2000,2,5e95d2226b866102a615981d,001,2021-08-19_16h40.17.957,natb3,2021.2.3,Win32,59.97720866,5e95d2226b866102a615981d,611e07ecdcc96256ae8d5b80,611e7c7457c055c509a1b80e,
,,,,space,0.4328,,0,248,248,186,1,U, , , , ,space,2500,2.5,5e95d2226b866102a615981d,001,2021-08-19_16h40.17.957,natb3,2021.2.3,Win32,59.97720866,5e95d2226b866102a615981d,611e07ecdcc96256ae8d5b80,611e7c7457c055c509a1b80e,
,,,,,,,0,249,249,54,1,X, , , , ,,2000,2,5e95d2226b866102a615981d,001,2021-08-19_16h40.17.957,natb3,2021.2.3,Win32,59.97720866,5e95d2226b866102a615981d,611e07ecdcc96256ae8d5b80,611e7c7457c055c509a1b80e,
,,,,space,0.395,,0,250,250,105,1,R, , , , ,space,2500,2.5,5e95d2226b866102a615981d,001,2021-08-19_16h40.17.957,natb3,2021.2.3,Win32,59.97720866,5e95d2226b866102a615981d,611e07ecdcc96256ae8d5b80,611e7c7457c055c509a1b80e,
,,,,space,0.4987,,0,251,251,64,1,N, , , , ,space,2000,2,5e95d2226b866102a615981d,001,2021-08-19_16h40.17.957,natb3,2021.2.3,Win32,59.97720866,5e95d2226b866102a615981d,611e07ecdcc96256ae8d5b80,611e7c7457c055c509a1b80e,
,,,,space,0.3797,,0,252,252,317,1,C, , , , ,space,2000,2,5e95d2226b866102a615981d,001,2021-08-19_16h40.17.957,natb3,2021.2.3,Win32,59.97720866,5e95d2226b866102a615981d,611e07ecdcc96256ae8d5b80,611e7c7457c055c509a1b80e,
,,,,space,0.4134,,0,253,253,324,1,Q, , , , ,space,2000,2,5e95d2226b866102a615981d,001,2021-08-19_16h40.17.957,natb3,2021.2.3,Win32,59.97720866,5e95d2226b866102a615981d,611e07ecdcc96256ae8d5b80,611e7c7457c055c509a1b80e,
,,,,space,0.5008,,0,254,254,289,1,Q, , , , ,space,2000,2,5e95d2226b866102a615981d,001,2021-08-19_16h40.17.957,natb3,2021.2.3,Win32,59.97720866,5e95d2226b866102a615981d,611e07ecdcc96256ae8d5b80,611e7c7457c055c509a1b80e,
,,,,space,0.5648,,0,255,255,210,1,M, , , , ,space,1500,1.5,5e95d2226b866102a615981d,001,2021-08-19_16h40.17.957,natb3,2021.2.3,Win32,59.97720866,5e95d2226b866102a615981d,611e07ecdcc96256ae8d5b80,611e7c7457c055c509a1b80e,
,,,,space,0.4165,,0,256,256,155,1,O, , , , ,space,1500,1.5,5e95d2226b866102a615981d,001,2021-08-19_16h40.17.957,natb3,2021.2.3,Win32,59.97720866,5e95d2226b866102a615981d,611e07ecdcc96256ae8d5b80,611e7c7457c055c509a1b80e,
,,,,space,0.3812,,0,257,257,126,1,A, , , , ,space,2500,2.5,5e95d2226b866102a615981d,001,2021-08-19_16h40.17.957,natb3,2021.2.3,Win32,59.97720866,5e95d2226b866102a615981d,611e07ecdcc96256ae8d5b80,611e7c7457c055c509a1b80e,
,,,,space,0.3784,,0,258,258,132,1,H, , , , ,space,2500,2.5,5e95d2226b866102a615981d,001,2021-08-19_16h40.17.957,natb3,2021.2.3,Win32,59.97720866,5e95d2226b866102a615981d,611e07ecdcc96256ae8d5b80,611e7c7457c055c509a1b80e,
,,,,,,,0,259,259,158,1,X, , , , ,,1500,1.5,5e95d2226b866102a615981d,001,2021-08-19_16h40.17.957,natb3,2021.2.3,Win32,59.97720866,5e95d2226b866102a615981d,611e07ecdcc96256ae8d5b80,611e7c7457c055c509a1b80e,
,,,,space,0.4617,,0,260,260,270,1,S, , , , ,space,1500,1.5,5e95d2226b866102a615981d,001,2021-08-19_16h40.17.957,natb3,2021.2.3,Win32,59.97720866,5e95d2226b866102a615981d,611e07ecdcc96256ae8d5b80,611e7c7457c055c509a1b80e,
,,,,,,,0,261,261,229,1,X,8, ,2,6,,2500,2.5,5e95d2226b866102a615981d,001,2021-08-19_16h40.17.957,natb3,2021.2.3,Win32,59.97720866,5e95d2226b866102a615981d,611e07ecdcc96256ae8d5b80,611e7c7457c055c509a1b80e,
,,,,space,0.5817,,0,262,262,95,1,V, , , , ,space,1500,1.5,5e95d2226b866102a615981d,001,2021-08-19_16h40.17.957,natb3,2021.2.3,Win32,59.97720866,5e95d2226b866102a615981d,611e07ecdcc96256ae8d5b80,611e7c7457c055c509a1b80e,
,,,,space,0.4758,,0,263,263,254,1,M, , , , ,space,1500,1.5,5e95d2226b866102a615981d,001,2021-08-19_16h40.17.957,natb3,2021.2.3,Win32,59.97720866,5e95d2226b866102a615981d,611e07ecdcc96256ae8d5b80,611e7c7457c055c509a1b80e,
,,,,space,0.4194,,0,264,264,41,1,Y, , , , ,space,2500,2.5,5e95d2226b866102a615981d,001,2021-08-19_16h40.17.957,natb3,2021.2.3,Win32,59.97720866,5e95d2226b866102a615981d,611e07ecdcc96256ae8d5b80,611e7c7457c055c509a1b80e,
,,,,,,,0,265,265,273,1,X, , , , ,,2000,2,5e95d2226b866102a615981d,001,2021-08-19_16h40.17.957,natb3,2021.2.3,Win32,59.97720866,5e95d2226b866102a615981d,611e07ecdcc96256ae8d5b80,611e7c7457c055c509a1b80e,
,,,,space,0.4519,,0,266,266,216,1,R, , , , ,space,1500,1.5,5e95d2226b866102a615981d,001,2021-08-19_16h40.17.957,natb3,2021.2.3,Win32,59.97720866,5e95d2226b866102a615981d,611e07ecdcc96256ae8d5b80,611e7c7457c055c509a1b80e,
,,,,space,0.534,,0,267,267,245,1,K, , , , ,space,2000,2,5e95d2226b866102a615981d,001,2021-08-19_16h40.17.957,natb3,2021.2.3,Win32,59.97720866,5e95d2226b866102a615981d,611e07ecdcc96256ae8d5b80,611e7c7457c055c509a1b80e,
,,,,space,0.435,,0,268,268,68,1,W, , , , ,space,2500,2.5,5e95d2226b866102a615981d,001,2021-08-19_16h40.17.957,natb3,2021.2.3,Win32,59.97720866,5e95d2226b866102a615981d,611e07ecdcc96256ae8d5b80,611e7c7457c055c509a1b80e,
,,,,space,0.4491,,0,269,269,326,1,W, , , , ,space,2000,2,5e95d2226b866102a615981d,001,2021-08-19_16h40.17.957,natb3,2021.2.3,Win32,59.97720866,5e95d2226b866102a615981d,611e07ecdcc96256ae8d5b80,611e7c7457c055c509a1b80e,
,,,,space,0.4052,,0,270,270,215,1,E, , , , ,space,2500,2.5,5e95d2226b866102a615981d,001,2021-08-19_16h40.17.957,natb3,2021.2.3,Win32,59.97720866,5e95d2226b866102a615981d,611e07ecdcc96256ae8d5b80,611e7c7457c055c509a1b80e,
,,,,,,,0,271,271,116,1,X, , , , ,,2000,2,5e95d2226b866102a615981d,001,2021-08-19_16h40.17.957,natb3,2021.2.3,Win32,59.97720866,5e95d2226b866102a615981d,611e07ecdcc96256ae8d5b80,611e7c7457c055c509a1b80e,
,,,,space,0.6137,,0,272,272,247,1,Z, , , , ,space,1500,1.5,5e95d2226b866102a615981d,001,2021-08-19_16h40.17.957,natb3,2021.2.3,Win32,59.97720866,5e95d2226b866102a615981d,611e07ecdcc96256ae8d5b80,611e7c7457c055c509a1b80e,
,,,,space,0.4879,,0,273,273,178,1,Q, , , , ,space,1500,1.5,5e95d2226b866102a615981d,001,2021-08-19_16h40.17.957,natb3,2021.2.3,Win32,59.97720866,5e95d2226b866102a615981d,611e07ecdcc96256ae8d5b80,611e7c7457c055c509a1b80e,
,,,,space,0.3955,,0,274,274,278,1,J, , , , ,space,2000,2,5e95d2226b866102a615981d,001,2021-08-19_16h40.17.957,natb3,2021.2.3,Win32,59.97720866,5e95d2226b866102a615981d,611e07ecdcc96256ae8d5b80,611e7c7457c055c509a1b80e,
,,,,space,0.4295,,0,275,275,321,1,N, , , , ,space,2000,2,5e95d2226b866102a615981d,001,2021-08-19_16h40.17.957,natb3,2021.2.3,Win32,59.97720866,5e95d2226b866102a615981d,611e07ecdcc96256ae8d5b80,611e7c7457c055c509a1b80e,
,,,,space,0.4598,,0,276,276,257,1,W, , , , ,space,2000,2,5e95d2226b866102a615981d,001,2021-08-19_16h40.17.957,natb3,2021.2.3,Win32,59.97720866,5e95d2226b866102a615981d,611e07ecdcc96256ae8d5b80,611e7c7457c055c509a1b80e,
,,,,space,0.4243,,0,277,277,114,1,E, , , , ,space,2000,2,5e95d2226b866102a615981d,001,2021-08-19_16h40.17.957,natb3,2021.2.3,Win32,59.97720866,5e95d2226b866102a615981d,611e07ecdcc96256ae8d5b80,611e7c7457c055c509a1b80e,
,,,,space,0.4691,,0,278,278,193,1,S, , , , ,space,2500,2.5,5e95d2226b866102a615981d,001,2021-08-19_16h40.17.957,natb3,2021.2.3,Win32,59.97720866,5e95d2226b866102a615981d,611e07ecdcc96256ae8d5b80,611e7c7457c055c509a1b80e,
,,,,space,0.5512,,0,279,279,8,1,U, , , , ,space,1500,1.5,5e95d2226b866102a615981d,001,2021-08-19_16h40.17.957,natb3,2021.2.3,Win32,59.97720866,5e95d2226b866102a615981d,611e07ecdcc96256ae8d5b80,611e7c7457c055c509a1b80e,
,,,,,,,0,280,280,96,1,X, , , , ,,1500,1.5,5e95d2226b866102a615981d,001,2021-08-19_16h40.17.957,natb3,2021.2.3,Win32,59.97720866,5e95d2226b866102a615981d,611e07ecdcc96256ae8d5b80,611e7c7457c055c509a1b80e,
,,,,,,,0,281,281,277,1,X,8,5, ,2,,2000,2,5e95d2226b866102a615981d,001,2021-08-19_16h40.17.957,natb3,2021.2.3,Win32,59.97720866,5e95d2226b866102a615981d,611e07ecdcc96256ae8d5b80,611e7c7457c055c509a1b80e,
,,,,,,,0,282,282,295,1,X,8,7,5, ,,2500,2.5,5e95d2226b866102a615981d,001,2021-08-19_16h40.17.957,natb3,2021.2.3,Win32,59.97720866,5e95d2226b866102a615981d,611e07ecdcc96256ae8d5b80,611e7c7457c055c509a1b80e,
,,,,,,,0,283,283,31,1,X, , , , ,,1500,1.5,5e95d2226b866102a615981d,001,2021-08-19_16h40.17.957,natb3,2021.2.3,Win32,59.97720866,5e95d2226b866102a615981d,611e07ecdcc96256ae8d5b80,611e7c7457c055c509a1b80e,
,,,,space,0.4174,,0,284,284,100,1,M, , , , ,space,2000,2,5e95d2226b866102a615981d,001,2021-08-19_16h40.17.957,natb3,2021.2.3,Win32,59.97720866,5e95d2226b866102a615981d,611e07ecdcc96256ae8d5b80,611e7c7457c055c509a1b80e,
,,,,space,0.5177,,0,285,285,152,1,U, , , , ,space,2000,2,5e95d2226b866102a615981d,001,2021-08-19_16h40.17.957,natb3,2021.2.3,Win32,59.97720866,5e95d2226b866102a615981d,611e07ecdcc96256ae8d5b80,611e7c7457c055c509a1b80e,
,,,,space,0.4677,,0,286,286,285,1,B, , , , ,space,1500,1.5,5e95d2226b866102a615981d,001,2021-08-19_16h40.17.957,natb3,2021.2.3,Win32,59.97720866,5e95d2226b866102a615981d,611e07ecdcc96256ae8d5b80,611e7c7457c055c509a1b80e,
,,,,,,,0,287,287,51,1,X,7,5,8, ,,1500,1.5,5e95d2226b866102a615981d,001,2021-08-19_16h40.17.957,natb3,2021.2.3,Win32,59.97720866,5e95d2226b866102a615981d,611e07ecdcc96256ae8d5b80,611e7c7457c055c509a1b80e,
,,,,space,0.4312,,0,288,288,32,1,M, , , , ,space,1500,1.5,5e95d2226b866102a615981d,001,2021-08-19_16h40.17.957,natb3,2021.2.3,Win32,59.97720866,5e95d2226b866102a615981d,611e07ecdcc96256ae8d5b80,611e7c7457c055c509a1b80e,
,,,,space,0.4699,,0,289,289,85,1,F, , , , ,space,2500,2.5,5e95d2226b866102a615981d,001,2021-08-19_16h40.17.957,natb3,2021.2.3,Win32,59.97720866,5e95d2226b866102a615981d,611e07ecdcc96256ae8d5b80,611e7c7457c055c509a1b80e,
,,,,space,0.4008,,0,290,290,269,1,A, , , , ,space,2500,2.5,5e95d2226b866102a615981d,001,2021-08-19_16h40.17.957,natb3,2021.2.3,Win32,59.97720866,5e95d2226b866102a615981d,611e07ecdcc96256ae8d5b80,611e7c7457c055c509a1b80e,
,,,,space,0.4176,,0,291,291,253,1,N, , , , ,space,2500,2.5,5e95d2226b866102a615981d,001,2021-08-19_16h40.17.957,natb3,2021.2.3,Win32,59.97720866,5e95d2226b866102a615981d,611e07ecdcc96256ae8d5b80,611e7c7457c055c509a1b80e,
,,,,space,0.4344,,0,292,292,53,1,G, , , , ,space,2500,2.5,5e95d2226b866102a615981d,001,2021-08-19_16h40.17.957,natb3,2021.2.3,Win32,59.97720866,5e95d2226b866102a615981d,611e07ecdcc96256ae8d5b80,611e7c7457c055c509a1b80e,
,,,,,,,0,293,293,102,1,X, ,6, , ,,1500,1.5,5e95d2226b866102a615981d,001,2021-08-19_16h40.17.957,natb3,2021.2.3,Win32,59.97720866,5e95d2226b866102a615981d,611e07ecdcc96256ae8d5b80,611e7c7457c055c509a1b80e,
,,,,,,,0,294,294,153,1,X,4,7, ,6,,2000,2,5e95d2226b866102a615981d,001,2021-08-19_16h40.17.957,natb3,2021.2.3,Win32,59.97720866,5e95d2226b866102a615981d,611e07ecdcc96256ae8d5b80,611e7c7457c055c509a1b80e,
,,,,space,0.4319,,0,295,295,292,1,E, , , , ,space,2000,2,5e95d2226b866102a615981d,001,2021-08-19_16h40.17.957,natb3,2021.2.3,Win32,59.97720866,5e95d2226b866102a615981d,611e07ecdcc96256ae8d5b80,611e7c7457c055c509a1b80e,
,,,,space,0.4591,,0,296,296,201,1,K, , , , ,space,1500,1.5,5e95d2226b866102a615981d,001,2021-08-19_16h40.17.957,natb3,2021.2.3,Win32,59.97720866,5e95d2226b866102a615981d,611e07ecdcc96256ae8d5b80,611e7c7457c055c509a1b80e,
,,,,space,0.4248,,0,297,297,231,1,I, , , , ,space,2500,2.5,5e95d2226b866102a615981d,001,2021-08-19_16h40.17.957,natb3,2021.2.3,Win32,59.97720866,5e95d2226b866102a615981d,611e07ecdcc96256ae8d5b80,611e7c7457c055c509a1b80e,
,,,,,,,0,298,298,233,1,X, ,2, ,5,,1500,1.5,5e95d2226b866102a615981d,001,2021-08-19_16h40.17.957,natb3,2021.2.3,Win32,59.97720866,5e95d2226b866102a615981d,611e07ecdcc96256ae8d5b80,611e7c7457c055c509a1b80e,
,,,,space,0.377,,0,299,299,99,1,N, , , , ,space,2500,2.5,5e95d2226b866102a615981d,001,2021-08-19_16h40.17.957,natb3,2021.2.3,Win32,59.97720866,5e95d2226b866102a615981d,611e07ecdcc96256ae8d5b80,611e7c7457c055c509a1b80e,
,,,,space,0.4337,,0,300,300,331,1,Y, , , , ,space,2500,2.5,5e95d2226b866102a615981d,001,2021-08-19_16h40.17.957,natb3,2021.2.3,Win32,59.97720866,5e95d2226b866102a615981d,611e07ecdcc96256ae8d5b80,611e7c7457c055c509a1b80e,
,,,,space,0.3812,,0,301,301,288,1,M, , , , ,space,1500,1.5,5e95d2226b866102a615981d,001,2021-08-19_16h40.17.957,natb3,2021.2.3,Win32,59.97720866,5e95d2226b866102a615981d,611e07ecdcc96256ae8d5b80,611e7c7457c055c509a1b80e,
,,,,space,0.386,,0,302,302,81,1,S, , , , ,space,2000,2,5e95d2226b866102a615981d,001,2021-08-19_16h40.17.957,natb3,2021.2.3,Win32,59.97720866,5e95d2226b866102a615981d,611e07ecdcc96256ae8d5b80,611e7c7457c055c509a1b80e,
,,,,space,0.3626,,0,303,303,147,1,E, , , , ,space,2000,2,5e95d2226b866102a615981d,001,2021-08-19_16h40.17.957,natb3,2021.2.3,Win32,59.97720866,5e95d2226b866102a615981d,611e07ecdcc96256ae8d5b80,611e7c7457c055c509a1b80e,
,,,,space,0.3868,,0,304,304,297,1,U, , , , ,space,2000,2,5e95d2226b866102a615981d,001,2021-08-19_16h40.17.957,natb3,2021.2.3,Win32,59.97720866,5e95d2226b866102a615981d,611e07ecdcc96256ae8d5b80,611e7c7457c055c509a1b80e,
,,,,space,0.4008,,0,305,305,227,1,T, , , , ,space,1500,1.5,5e95d2226b866102a615981d,001,2021-08-19_16h40.17.957,natb3,2021.2.3,Win32,59.97720866,5e95d2226b866102a615981d,611e07ecdcc96256ae8d5b80,611e7c7457c055c509a1b80e,
,,,,,,,0,306,306,179,1,X, ,9, ,2,,1500,1.5,5e95d2226b866102a615981d,001,2021-08-19_16h40.17.957,natb3,2021.2.3,Win32,59.97720866,5e95d2226b866102a615981d,611e07ecdcc96256ae8d5b80,611e7c7457c055c509a1b80e,
,,,,,,,0,307,307,15,1,X, , , , ,,1500,1.5,5e95d2226b866102a615981d,001,2021-08-19_16h40.17.957,natb3,2021.2.3,Win32,59.97720866,5e95d2226b866102a615981d,611e07ecdcc96256ae8d5b80,611e7c7457c055c509a1b80e,
,,,,space,0.5476,,0,308,308,232,1,O, , , , ,space,2500,2.5,5e95d2226b866102a615981d,001,2021-08-19_16h40.17.957,natb3,2021.2.3,Win32,59.97720866,5e95d2226b866102a615981d,611e07ecdcc96256ae8d5b80,611e7c7457c055c509a1b80e,
,,,,space,0.4018,,0,309,309,304,1,S, , , , ,space,2000,2,5e95d2226b866102a615981d,001,2021-08-19_16h40.17.957,natb3,2021.2.3,Win32,59.97720866,5e95d2226b866102a615981d,611e07ecdcc96256ae8d5b80,611e7c7457c055c509a1b80e,
,,,,space,0.3597,,0,310,310,143,1,M, , , , ,space,2500,2.5,5e95d2226b866102a615981d,001,2021-08-19_16h40.17.957,natb3,2021.2.3,Win32,59.97720866,5e95d2226b866102a615981d,611e07ecdcc96256ae8d5b80,611e7c7457c055c509a1b80e,
,,,,,,,0,311,311,311,1,X,1,2,7,3,,2500,2.5,5e95d2226b866102a615981d,001,2021-08-19_16h40.17.957,natb3,2021.2.3,Win32,59.97720866,5e95d2226b866102a615981d,611e07ecdcc96256ae8d5b80,611e7c7457c055c509a1b80e,
,,,,space,0.4628,,0,312,312,303,1,A, , , , ,space,2000,2,5e95d2226b866102a615981d,001,2021-08-19_16h40.17.957,natb3,2021.2.3,Win32,59.97720866,5e95d2226b866102a615981d,611e07ecdcc96256ae8d5b80,611e7c7457c055c509a1b80e,
,,,,space,0.338,,0,313,313,330,1,T, , , , ,space,2500,2.5,5e95d2226b866102a615981d,001,2021-08-19_16h40.17.957,natb3,2021.2.3,Win32,59.97720866,5e95d2226b866102a615981d,611e07ecdcc96256ae8d5b80,611e7c7457c055c509a1b80e,
,,,,space,0.5178,,0,314,314,256,1,Q, , , , ,space,2000,2,5e95d2226b866102a615981d,001,2021-08-19_16h40.17.957,natb3,2021.2.3,Win32,59.97720866,5e95d2226b866102a615981d,611e07ecdcc96256ae8d5b80,611e7c7457c055c509a1b80e,
,,,,space,0.3592,,0,315,315,37,1,E, , , , ,space,2500,2.5,5e95d2226b866102a615981d,001,2021-08-19_16h40.17.957,natb3,2021.2.3,Win32,59.97720866,5e95d2226b866102a615981d,611e07ecdcc96256ae8d5b80,611e7c7457c055c509a1b80e,
,,,,space,0.3908,,0,316,316,208,1,B, , , , ,space,1500,1.5,5e95d2226b866102a615981d,001,2021-08-19_16h40.17.957,natb3,2021.2.3,Win32,59.97720866,5e95d2226b866102a615981d,611e07ecdcc96256ae8d5b80,611e7c7457c055c509a1b80e,
,,,,space,0.4012,,0,317,317,104,1,E, , , , ,space,2000,2,5e95d2226b866102a615981d,001,2021-08-19_16h40.17.957,natb3,2021.2.3,Win32,59.97720866,5e95d2226b866102a615981d,611e07ecdcc96256ae8d5b80,611e7c7457c055c509a1b80e,
,,,,space,0.4299,,0,318,318,258,1,E, , , , ,space,1500,1.5,5e95d2226b866102a615981d,001,2021-08-19_16h40.17.957,natb3,2021.2.3,Win32,59.97720866,5e95d2226b866102a615981d,611e07ecdcc96256ae8d5b80,611e7c7457c055c509a1b80e,
,,,,space,0.3718,,0,319,319,90,1,K, , , , ,space,2000,2,5e95d2226b866102a615981d,001,2021-08-19_16h40.17.957,natb3,2021.2.3,Win32,59.97720866,5e95d2226b866102a615981d,611e07ecdcc96256ae8d5b80,611e7c7457c055c509a1b80e,
,,,,space,0.3843,,0,320,320,159,1,S, , , , ,space,2500,2.5,5e95d2226b866102a615981d,001,2021-08-19_16h40.17.957,natb3,2021.2.3,Win32,59.97720866,5e95d2226b866102a615981d,611e07ecdcc96256ae8d5b80,611e7c7457c055c509a1b80e,
,,,,,,,0,321,321,318,1,X, , , , ,,1500,1.5,5e95d2226b866102a615981d,001,2021-08-19_16h40.17.957,natb3,2021.2.3,Win32,59.97720866,5e95d2226b866102a615981d,611e07ecdcc96256ae8d5b80,611e7c7457c055c509a1b80e,
,,,,,,,0,322,322,329,1,X,3,4, ,2,,2500,2.5,5e95d2226b866102a615981d,001,2021-08-19_16h40.17.957,natb3,2021.2.3,Win32,59.97720866,5e95d2226b866102a615981d,611e07ecdcc96256ae8d5b80,611e7c7457c055c509a1b80e,
,,,,space,0.4922,,0,323,323,87,1,H, , , , ,space,1500,1.5,5e95d2226b866102a615981d,001,2021-08-19_16h40.17.957,natb3,2021.2.3,Win32,59.97720866,5e95d2226b866102a615981d,611e07ecdcc96256ae8d5b80,611e7c7457c055c509a1b80e,
,,,,space,0.4145,,0,324,324,212,1,Q, , , , ,space,2500,2.5,5e95d2226b866102a615981d,001,2021-08-19_16h40.17.957,natb3,2021.2.3,Win32,59.97720866,5e95d2226b866102a615981d,611e07ecdcc96256ae8d5b80,611e7c7457c055c509a1b80e,
,,,,space,0.6088,,0,325,325,42,1,U, , , , ,space,1500,1.5,5e95d2226b866102a615981d,001,2021-08-19_16h40.17.957,natb3,2021.2.3,Win32,59.97720866,5e95d2226b866102a615981d,611e07ecdcc96256ae8d5b80,611e7c7457c055c509a1b80e,
,,,,space,0.4569,,0,326,326,250,1,V, , , , ,space,2000,2,5e95d2226b866102a615981d,001,2021-08-19_16h40.17.957,natb3,2021.2.3,Win32,59.97720866,5e95d2226b866102a615981d,611e07ecdcc96256ae8d5b80,611e7c7457c055c509a1b80e,
,,,,,,,0,327,327,248,1,X, ,1,5, ,,1500,1.5,5e95d2226b866102a615981d,001,2021-08-19_16h40.17.957,natb3,2021.2.3,Win32,59.97720866,5e95d2226b866102a615981d,611e07ecdcc96256ae8d5b80,611e7c7457c055c509a1b80e,
,,,,space,0.4054,,0,328,328,22,1,K, , , , ,space,2000,2,5e95d2226b866102a615981d,001,2021-08-19_16h40.17.957,natb3,2021.2.3,Win32,59.97720866,5e95d2226b866102a615981d,611e07ecdcc96256ae8d5b80,611e7c7457c055c509a1b80e,
,,,,space,0.4552,,0,329,329,59,1,Z, , , , ,space,2000,2,5e95d2226b866102a615981d,001,2021-08-19_16h40.17.957,natb3,2021.2.3,Win32,59.97720866,5e95d2226b866102a615981d,611e07ecdcc96256ae8d5b80,611e7c7457c055c509a1b80e,
,,,,,,,0,330,330,243,1,X, , , , ,,2500,2.5,5e95d2226b866102a615981d,001,2021-08-19_16h40.17.957,natb3,2021.2.3,Win32,59.97720866,5e95d2226b866102a615981d,611e07ecdcc96256ae8d5b80,611e7c7457c055c509a1b80e,
,,,,space,0.3712,,0,331,331,224,1,W, , , , ,space,1500,1.5,5e95d2226b866102a615981d,001,2021-08-19_16h40.17.957,natb3,2021.2.3,Win32,59.97720866,5e95d2226b866102a615981d,611e07ecdcc96256ae8d5b80,611e7c7457c055c509a1b80e,
,,,,space,0.7633,,0,332,332,328,1,R, , , , ,space,1500,1.5,5e95d2226b866102a615981d,001,2021-08-19_16h40.17.957,natb3,2021.2.3,Win32,59.97720866,5e95d2226b866102a615981d,611e07ecdcc96256ae8d5b80,611e7c7457c055c509a1b80e,
,,,,space,0.4963,,0,333,333,172,1,C, , , , ,space,1500,1.5,5e95d2226b866102a615981d,001,2021-08-19_16h40.17.957,natb3,2021.2.3,Win32,59.97720866,5e95d2226b866102a615981d,611e07ecdcc96256ae8d5b80,611e7c7457c055c509a1b80e,
,,,,space,0.4144,,0,334,334,235,1,A, , , , ,space,1500,1.5,5e95d2226b866102a615981d,001,2021-08-19_16h40.17.957,natb3,2021.2.3,Win32,59.97720866,5e95d2226b866102a615981d,611e07ecdcc96256ae8d5b80,611e7c7457c055c509a1b80e,
,,,,space,0.4475,,0,335,335,196,1,F, , , , ,space,1500,1.5,5e95d2226b866102a615981d,001,2021-08-19_16h40.17.957,natb3,2021.2.3,Win32,59.97720866,5e95d2226b866102a615981d,611e07ecdcc96256ae8d5b80,611e7c7457c055c509a1b80e,
