key_resp_2.keys,key_resp_2.rt,key_resp_3.keys,key_resp_3.rt,key_resp.keys,key_resp.rt,key_resp_4.keys,trials.thisRepN,trials.thisTrialN,trials.thisN,trials.thisIndex,trials.ran,stimulus,distractor1,distractor2,distractor3,distractor4,CorrAns,isi_duration,isi_dur_in_seconds,participant,session,date,expName,psychopyVersion,OS,frameRate,PROLIFIC_PID,STUDY_ID,SESSION_ID,key_resp_4.rt
return,30.09,space,12.845,space,0.633,,0,0,0,288,1,M, , , , ,space,1500,1.5,5ebba48f7e02a0174ea835a9,001,2021-08-19_16h30.20.318,natb3,2021.2.3,Win32,60.0240096,5ebba48f7e02a0174ea835a9,611e07ecdcc96256ae8d5b80,611e78f86ad5fd0a2282fd39,
,,,,space,0.434,,0,1,1,185,1,Y, , , , ,space,2500,2.5,5ebba48f7e02a0174ea835a9,001,2021-08-19_16h30.20.318,natb3,2021.2.3,Win32,60.0240096,5ebba48f7e02a0174ea835a9,611e07ecdcc96256ae8d5b80,611e78f86ad5fd0a2282fd39,
,,,,space,0.351,,0,2,2,163,1,G, , , , ,space,2500,2.5,5ebba48f7e02a0174ea835a9,001,2021-08-19_16h30.20.318,natb3,2021.2.3,Win32,60.0240096,5ebba48f7e02a0174ea835a9,611e07ecdcc96256ae8d5b80,611e78f86ad5fd0a2282fd39,
,,,,space,0.45,,0,3,3,62,1,V, , , , ,space,1500,1.5,5ebba48f7e02a0174ea835a9,001,2021-08-19_16h30.20.318,natb3,2021.2.3,Win32,60.0240096,5ebba48f7e02a0174ea835a9,611e07ecdcc96256ae8d5b80,611e78f86ad5fd0a2282fd39,
,,,,space,0.452,,0,4,4,201,1,K, , , , ,space,1500,1.5,5ebba48f7e02a0174ea835a9,001,2021-08-19_16h30.20.318,natb3,2021.2.3,Win32,60.0240096,5ebba48f7e02a0174ea835a9,611e07ecdcc96256ae8d5b80,611e78f86ad5fd0a2282fd39,
,,,,space,0.433,,0,5,5,180,1,W, , , , ,space,2000,2,5ebba48f7e02a0174ea835a9,001,2021-08-19_16h30.20.318,natb3,2021.2.3,Win32,60.0240096,5ebba48f7e02a0174ea835a9,611e07ecdcc96256ae8d5b80,611e78f86ad5fd0a2282fd39,
,,,,space,0.433,,0,6,6,83,1,D, , , , ,space,2000,2,5ebba48f7e02a0174ea835a9,001,2021-08-19_16h30.20.318,natb3,2021.2.3,Win32,60.0240096,5ebba48f7e02a0174ea835a9,611e07ecdcc96256ae8d5b80,611e78f86ad5fd0a2282fd39,
,,,,space,0.484,,0,7,7,321,1,N, , , , ,space,2000,2,5ebba48f7e02a0174ea835a9,001,2021-08-19_16h30.20.318,natb3,2021.2.3,Win32,60.0240096,5ebba48f7e02a0174ea835a9,611e07ecdcc96256ae8d5b80,611e78f86ad5fd0a2282fd39,
,,,,space,0.399,,0,8,8,29,1,B, , , , ,space,1500,1.5,5ebba48f7e02a0174ea835a9,001,2021-08-19_16h30.20.318,natb3,2021.2.3,Win32,60.0240096,5ebba48f7e02a0174ea835a9,611e07ecdcc96256ae8d5b80,611e78f86ad5fd0a2282fd39,
,,,,space,0.334,,0,9,9,9,1,I, , , , ,space,1500,1.5,5ebba48f7e02a0174ea835a9,001,2021-08-19_16h30.20.318,natb3,2021.2.3,Win32,60.0240096,5ebba48f7e02a0174ea835a9,611e07ecdcc96256ae8d5b80,611e78f86ad5fd0a2282fd39,
,,,,space,0.333,,0,10,10,170,1,Z, , , , ,space,2000,2,5ebba48f7e02a0174ea835a9,001,2021-08-19_16h30.20.318,natb3,2021.2.3,Win32,60.0240096,5ebba48f7e02a0174ea835a9,611e07ecdcc96256ae8d5b80,611e78f86ad5fd0a2282fd39,
,,,,space,0.384,,0,11,11,45,1,O, , , , ,space,2000,2,5ebba48f7e02a0174ea835a9,001,2021-08-19_16h30.20.318,natb3,2021.2.3,Win32,60.0240096,5ebba48f7e02a0174ea835a9,611e07ecdcc96256ae8d5b80,611e78f86ad5fd0a2282fd39,
,,,,space,0.566,,0,12,12,260,1,R, , , , ,space,2000,2,5ebba48f7e02a0174ea835a9,001,2021-08-19_16h30.20.318,natb3,2021.2.3,Win32,60.0240096,5ebba48f7e02a0174ea835a9,611e07ecdcc96256ae8d5b80,611e78f86ad5fd0a2282fd39,
,,,,,,,0,13,13,200,1,X,7, ,5,3,,1500,1.5,5ebba48f7e02a0174ea835a9,001,2021-08-19_16h30.20.318,natb3,2021.2.3,Win32,60.0240096,5ebba48f7e02a0174ea835a9,611e07ecdcc96256ae8d5b80,611e78f86ad5fd0a2282fd39,
,,,,space,0.51,,0,14,14,22,1,K, , , , ,space,2000,2,5ebba48f7e02a0174ea835a9,001,2021-08-19_16h30.20.318,natb3,2021.2.3,Win32,60.0240096,5ebba48f7e02a0174ea835a9,611e07ecdcc96256ae8d5b80,611e78f86ad5fd0a2282fd39,
,,,,space,0.334,,0,15,15,115,1,R, , , , ,space,1500,1.5,5ebba48f7e02a0174ea835a9,001,2021-08-19_16h30.20.318,natb3,2021.2.3,Win32,60.0240096,5ebba48f7e02a0174ea835a9,611e07ecdcc96256ae8d5b80,611e78f86ad5fd0a2282fd39,
,,,,space,0.336,,0,16,16,52,1,F, , , , ,space,1500,1.5,5ebba48f7e02a0174ea835a9,001,2021-08-19_16h30.20.318,natb3,2021.2.3,Win32,60.0240096,5ebba48f7e02a0174ea835a9,611e07ecdcc96256ae8d5b80,611e78f86ad5fd0a2282fd39,
,,,,space,0.484,,0,17,17,134,1,J, , , , ,space,2000,2,5ebba48f7e02a0174ea835a9,001,2021-08-19_16h30.20.318,natb3,2021.2.3,Win32,60.0240096,5ebba48f7e02a0174ea835a9,611e07ecdcc96256ae8d5b80,611e78f86ad5fd0a2282fd39,
,,,,space,0.368,,0,18,18,105,1,R, , , , ,space,2500,2.5,5ebba48f7e02a0174ea835a9,001,2021-08-19_16h30.20.318,natb3,2021.2.3,Win32,60.0240096,5ebba48f7e02a0174ea835a9,611e07ecdcc96256ae8d5b80,611e78f86ad5fd0a2282fd39,
,,,,space,0.348,,0,19,19,28,1,V, , , , ,space,1500,1.5,5ebba48f7e02a0174ea835a9,001,2021-08-19_16h30.20.318,natb3,2021.2.3,Win32,60.0240096,5ebba48f7e02a0174ea835a9,611e07ecdcc96256ae8d5b80,611e78f86ad5fd0a2282fd39,
,,,,space,0.419,,0,20,20,182,1,X, , , , ,,1500,1.5,5ebba48f7e02a0174ea835a9,001,2021-08-19_16h30.20.318,natb3,2021.2.3,Win32,60.0240096,5ebba48f7e02a0174ea835a9,611e07ecdcc96256ae8d5b80,611e78f86ad5fd0a2282fd39,
,,,,space,0.617,,0,21,21,172,1,C, , , , ,space,1500,1.5,5ebba48f7e02a0174ea835a9,001,2021-08-19_16h30.20.318,natb3,2021.2.3,Win32,60.0240096,5ebba48f7e02a0174ea835a9,611e07ecdcc96256ae8d5b80,611e78f86ad5fd0a2282fd39,
,,,,space,0.47,,0,22,22,204,1,Z, , , , ,space,2000,2,5ebba48f7e02a0174ea835a9,001,2021-08-19_16h30.20.318,natb3,2021.2.3,Win32,60.0240096,5ebba48f7e02a0174ea835a9,611e07ecdcc96256ae8d5b80,611e78f86ad5fd0a2282fd39,
,,,,space,0.482,,0,23,23,308,1,G, , , , ,space,1500,1.5,5ebba48f7e02a0174ea835a9,001,2021-08-19_16h30.20.318,natb3,2021.2.3,Win32,60.0240096,5ebba48f7e02a0174ea835a9,611e07ecdcc96256ae8d5b80,611e78f86ad5fd0a2282fd39,
,,,,,,,0,24,24,318,1,X, , , , ,,1500,1.5,5ebba48f7e02a0174ea835a9,001,2021-08-19_16h30.20.318,natb3,2021.2.3,Win32,60.0240096,5ebba48f7e02a0174ea835a9,611e07ecdcc96256ae8d5b80,611e78f86ad5fd0a2282fd39,
,,,,,,,0,25,25,335,1,P,,,,,space,1500,1.5,5ebba48f7e02a0174ea835a9,001,2021-08-19_16h30.20.318,natb3,2021.2.3,Win32,60.0240096,5ebba48f7e02a0174ea835a9,611e07ecdcc96256ae8d5b80,611e78f86ad5fd0a2282fd39,
,,,,space,0.755,,0,26,26,169,1,L, , , , ,space,2500,2.5,5ebba48f7e02a0174ea835a9,001,2021-08-19_16h30.20.318,natb3,2021.2.3,Win32,60.0240096,5ebba48f7e02a0174ea835a9,611e07ecdcc96256ae8d5b80,611e78f86ad5fd0a2282fd39,
,,,,space,0.466,,0,27,27,283,1,C, , , , ,space,1500,1.5,5ebba48f7e02a0174ea835a9,001,2021-08-19_16h30.20.318,natb3,2021.2.3,Win32,60.0240096,5ebba48f7e02a0174ea835a9,611e07ecdcc96256ae8d5b80,611e78f86ad5fd0a2282fd39,
,,,,space,0.415,,0,28,28,323,1,M, , , , ,space,2500,2.5,5ebba48f7e02a0174ea835a9,001,2021-08-19_16h30.20.318,natb3,2021.2.3,Win32,60.0240096,5ebba48f7e02a0174ea835a9,611e07ecdcc96256ae8d5b80,611e78f86ad5fd0a2282fd39,
,,,,space,0.502,,0,29,29,167,1,K, , , , ,space,1500,1.5,5ebba48f7e02a0174ea835a9,001,2021-08-19_16h30.20.318,natb3,2021.2.3,Win32,60.0240096,5ebba48f7e02a0174ea835a9,611e07ecdcc96256ae8d5b80,611e78f86ad5fd0a2282fd39,
,,,,,,,0,30,30,74,1,X, ,4,3,2,,1500,1.5,5ebba48f7e02a0174ea835a9,001,2021-08-19_16h30.20.318,natb3,2021.2.3,Win32,60.0240096,5ebba48f7e02a0174ea835a9,611e07ecdcc96256ae8d5b80,611e78f86ad5fd0a2282fd39,
,,,,space,0.597,,0,31,31,103,1,W, , , , ,space,2000,2,5ebba48f7e02a0174ea835a9,001,2021-08-19_16h30.20.318,natb3,2021.2.3,Win32,60.0240096,5ebba48f7e02a0174ea835a9,611e07ecdcc96256ae8d5b80,611e78f86ad5fd0a2282fd39,
,,,,,,,0,32,32,187,1,X, ,3,7,4,,1500,1.5,5ebba48f7e02a0174ea835a9,001,2021-08-19_16h30.20.318,natb3,2021.2.3,Win32,60.0240096,5ebba48f7e02a0174ea835a9,611e07ecdcc96256ae8d5b80,611e78f86ad5fd0a2282fd39,
,,,,,,,0,33,33,116,1,X, , , , ,,2000,2,5ebba48f7e02a0174ea835a9,001,2021-08-19_16h30.20.318,natb3,2021.2.3,Win32,60.0240096,5ebba48f7e02a0174ea835a9,611e07ecdcc96256ae8d5b80,611e78f86ad5fd0a2282fd39,
,,,,space,0.516,,0,34,34,331,1,Y, , , , ,space,2500,2.5,5ebba48f7e02a0174ea835a9,001,2021-08-19_16h30.20.318,natb3,2021.2.3,Win32,60.0240096,5ebba48f7e02a0174ea835a9,611e07ecdcc96256ae8d5b80,611e78f86ad5fd0a2282fd39,
,,,,space,0.417,,0,35,35,114,1,E, , , , ,space,2000,2,5ebba48f7e02a0174ea835a9,001,2021-08-19_16h30.20.318,natb3,2021.2.3,Win32,60.0240096,5ebba48f7e02a0174ea835a9,611e07ecdcc96256ae8d5b80,611e78f86ad5fd0a2282fd39,
,,,,space,0.551,,0,36,36,36,1,W, , , , ,space,2000,2,5ebba48f7e02a0174ea835a9,001,2021-08-19_16h30.20.318,natb3,2021.2.3,Win32,60.0240096,5ebba48f7e02a0174ea835a9,611e07ecdcc96256ae8d5b80,611e78f86ad5fd0a2282fd39,
,,,,,,,0,37,37,213,1,X, , , , ,,2500,2.5,5ebba48f7e02a0174ea835a9,001,2021-08-19_16h30.20.318,natb3,2021.2.3,Win32,60.0240096,5ebba48f7e02a0174ea835a9,611e07ecdcc96256ae8d5b80,611e78f86ad5fd0a2282fd39,
,,,,space,0.401,,0,38,38,176,1,N, , , , ,space,1500,1.5,5ebba48f7e02a0174ea835a9,001,2021-08-19_16h30.20.318,natb3,2021.2.3,Win32,60.0240096,5ebba48f7e02a0174ea835a9,611e07ecdcc96256ae8d5b80,611e78f86ad5fd0a2282fd39,
,,,,space,0.504,,0,39,39,3,1,R, , , , ,space,2000,2,5ebba48f7e02a0174ea835a9,001,2021-08-19_16h30.20.318,natb3,2021.2.3,Win32,60.0240096,5ebba48f7e02a0174ea835a9,611e07ecdcc96256ae8d5b80,611e78f86ad5fd0a2282fd39,
,,,,,,,0,40,40,107,1,X,9,3, ,2,,2000,2,5ebba48f7e02a0174ea835a9,001,2021-08-19_16h30.20.318,natb3,2021.2.3,Win32,60.0240096,5ebba48f7e02a0174ea835a9,611e07ecdcc96256ae8d5b80,611e78f86ad5fd0a2282fd39,
,,,,,,,0,41,41,305,1,X, , , , ,,1500,1.5,5ebba48f7e02a0174ea835a9,001,2021-08-19_16h30.20.318,natb3,2021.2.3,Win32,60.0240096,5ebba48f7e02a0174ea835a9,611e07ecdcc96256ae8d5b80,611e78f86ad5fd0a2282fd39,
,,,,space,0.352,,0,42,42,50,1,D, , , , ,space,1500,1.5,5ebba48f7e02a0174ea835a9,001,2021-08-19_16h30.20.318,natb3,2021.2.3,Win32,60.0240096,5ebba48f7e02a0174ea835a9,611e07ecdcc96256ae8d5b80,611e78f86ad5fd0a2282fd39,
,,,,,,,0,43,43,39,1,X,6,2, , ,,1500,1.5,5ebba48f7e02a0174ea835a9,001,2021-08-19_16h30.20.318,natb3,2021.2.3,Win32,60.0240096,5ebba48f7e02a0174ea835a9,611e07ecdcc96256ae8d5b80,611e78f86ad5fd0a2282fd39,
,,,,space,0.498,,0,44,44,223,1,Q, , , , ,space,2000,2,5ebba48f7e02a0174ea835a9,001,2021-08-19_16h30.20.318,natb3,2021.2.3,Win32,60.0240096,5ebba48f7e02a0174ea835a9,611e07ecdcc96256ae8d5b80,611e78f86ad5fd0a2282fd39,
,,,,space,0.401,,0,45,45,80,1,A, , , , ,space,2000,2,5ebba48f7e02a0174ea835a9,001,2021-08-19_16h30.20.318,natb3,2021.2.3,Win32,60.0240096,5ebba48f7e02a0174ea835a9,611e07ecdcc96256ae8d5b80,611e78f86ad5fd0a2282fd39,
,,,,,,,0,46,46,96,1,X, , , , ,,1500,1.5,5ebba48f7e02a0174ea835a9,001,2021-08-19_16h30.20.318,natb3,2021.2.3,Win32,60.0240096,5ebba48f7e02a0174ea835a9,611e07ecdcc96256ae8d5b80,611e78f86ad5fd0a2282fd39,
,,,,space,0.47,,0,47,47,250,1,V, , , , ,space,2000,2,5ebba48f7e02a0174ea835a9,001,2021-08-19_16h30.20.318,natb3,2021.2.3,Win32,60.0240096,5ebba48f7e02a0174ea835a9,611e07ecdcc96256ae8d5b80,611e78f86ad5fd0a2282fd39,
,,,,space,0.4,,0,48,48,117,1,T, , , , ,space,2500,2.5,5ebba48f7e02a0174ea835a9,001,2021-08-19_16h30.20.318,natb3,2021.2.3,Win32,60.0240096,5ebba48f7e02a0174ea835a9,611e07ecdcc96256ae8d5b80,611e78f86ad5fd0a2282fd39,
,,,,space,0.356,,0,49,49,94,1,C, , , , ,space,2000,2,5ebba48f7e02a0174ea835a9,001,2021-08-19_16h30.20.318,natb3,2021.2.3,Win32,60.0240096,5ebba48f7e02a0174ea835a9,611e07ecdcc96256ae8d5b80,611e78f86ad5fd0a2282fd39,
,,,,space,0.433,,0,50,50,30,1,N, , , , ,space,2500,2.5,5ebba48f7e02a0174ea835a9,001,2021-08-19_16h30.20.318,natb3,2021.2.3,Win32,60.0240096,5ebba48f7e02a0174ea835a9,611e07ecdcc96256ae8d5b80,611e78f86ad5fd0a2282fd39,
,,,,space,0.433,,0,51,51,150,1,T, , , , ,space,2500,2.5,5ebba48f7e02a0174ea835a9,001,2021-08-19_16h30.20.318,natb3,2021.2.3,Win32,60.0240096,5ebba48f7e02a0174ea835a9,611e07ecdcc96256ae8d5b80,611e78f86ad5fd0a2282fd39,
,,,,space,0.4,,0,52,52,78,1,X, , , , ,,2000,2,5ebba48f7e02a0174ea835a9,001,2021-08-19_16h30.20.318,natb3,2021.2.3,Win32,60.0240096,5ebba48f7e02a0174ea835a9,611e07ecdcc96256ae8d5b80,611e78f86ad5fd0a2282fd39,
,,,,,,,0,53,53,166,1,X, , , , ,,2000,2,5ebba48f7e02a0174ea835a9,001,2021-08-19_16h30.20.318,natb3,2021.2.3,Win32,60.0240096,5ebba48f7e02a0174ea835a9,611e07ecdcc96256ae8d5b80,611e78f86ad5fd0a2282fd39,
,,,,,,,0,54,54,23,1,X,1, ,5, ,,2000,2,5ebba48f7e02a0174ea835a9,001,2021-08-19_16h30.20.318,natb3,2021.2.3,Win32,60.0240096,5ebba48f7e02a0174ea835a9,611e07ecdcc96256ae8d5b80,611e78f86ad5fd0a2282fd39,
,,,,space,0.544,,0,55,55,95,1,V, , , , ,space,1500,1.5,5ebba48f7e02a0174ea835a9,001,2021-08-19_16h30.20.318,natb3,2021.2.3,Win32,60.0240096,5ebba48f7e02a0174ea835a9,611e07ecdcc96256ae8d5b80,611e78f86ad5fd0a2282fd39,
,,,,,,,0,56,56,43,1,X, ,6, ,2,,2500,2.5,5ebba48f7e02a0174ea835a9,001,2021-08-19_16h30.20.318,natb3,2021.2.3,Win32,60.0240096,5ebba48f7e02a0174ea835a9,611e07ecdcc96256ae8d5b80,611e78f86ad5fd0a2282fd39,
,,,,space,0.93,,0,57,57,333,1,I, , , , ,space,1500,1.5,5ebba48f7e02a0174ea835a9,001,2021-08-19_16h30.20.318,natb3,2021.2.3,Win32,60.0240096,5ebba48f7e02a0174ea835a9,611e07ecdcc96256ae8d5b80,611e78f86ad5fd0a2282fd39,
,,,,,,,0,58,58,299,1,X, , , , ,,2500,2.5,5ebba48f7e02a0174ea835a9,001,2021-08-19_16h30.20.318,natb3,2021.2.3,Win32,60.0240096,5ebba48f7e02a0174ea835a9,611e07ecdcc96256ae8d5b80,611e78f86ad5fd0a2282fd39,
,,,,space,0.5,,0,59,59,67,1,Q, , , , ,space,2000,2,5ebba48f7e02a0174ea835a9,001,2021-08-19_16h30.20.318,natb3,2021.2.3,Win32,60.0240096,5ebba48f7e02a0174ea835a9,611e07ecdcc96256ae8d5b80,611e78f86ad5fd0a2282fd39,
,,,,,,,0,60,60,282,1,X, , , , ,,2500,2.5,5ebba48f7e02a0174ea835a9,001,2021-08-19_16h30.20.318,natb3,2021.2.3,Win32,60.0240096,5ebba48f7e02a0174ea835a9,611e07ecdcc96256ae8d5b80,611e78f86ad5fd0a2282fd39,
,,,,space,0.486,,0,61,61,244,1,J, , , , ,space,1500,1.5,5ebba48f7e02a0174ea835a9,001,2021-08-19_16h30.20.318,natb3,2021.2.3,Win32,60.0240096,5ebba48f7e02a0174ea835a9,611e07ecdcc96256ae8d5b80,611e78f86ad5fd0a2282fd39,
,,,,space,0.583,,0,62,62,274,1,F, , , , ,space,2000,2,5ebba48f7e02a0174ea835a9,001,2021-08-19_16h30.20.318,natb3,2021.2.3,Win32,60.0240096,5ebba48f7e02a0174ea835a9,611e07ecdcc96256ae8d5b80,611e78f86ad5fd0a2282fd39,
,,,,,,,0,63,63,54,1,X, , , , ,,2000,2,5ebba48f7e02a0174ea835a9,001,2021-08-19_16h30.20.318,natb3,2021.2.3,Win32,60.0240096,5ebba48f7e02a0174ea835a9,611e07ecdcc96256ae8d5b80,611e78f86ad5fd0a2282fd39,
,,,,space,0.598,,0,64,64,144,1,Q, , , , ,space,2500,2.5,5ebba48f7e02a0174ea835a9,001,2021-08-19_16h30.20.318,natb3,2021.2.3,Win32,60.0240096,5ebba48f7e02a0174ea835a9,611e07ecdcc96256ae8d5b80,611e78f86ad5fd0a2282fd39,
,,,,,,,0,65,65,239,1,X, , , , ,,2000,2,5ebba48f7e02a0174ea835a9,001,2021-08-19_16h30.20.318,natb3,2021.2.3,Win32,60.0240096,5ebba48f7e02a0174ea835a9,611e07ecdcc96256ae8d5b80,611e78f86ad5fd0a2282fd39,
,,,,,,,0,66,66,168,1,X, , , , ,,2500,2.5,5ebba48f7e02a0174ea835a9,001,2021-08-19_16h30.20.318,natb3,2021.2.3,Win32,60.0240096,5ebba48f7e02a0174ea835a9,611e07ecdcc96256ae8d5b80,611e78f86ad5fd0a2282fd39,
,,,,space,0.467,,0,67,67,327,1,E, , , , ,space,1500,1.5,5ebba48f7e02a0174ea835a9,001,2021-08-19_16h30.20.318,natb3,2021.2.3,Win32,60.0240096,5ebba48f7e02a0174ea835a9,611e07ecdcc96256ae8d5b80,611e78f86ad5fd0a2282fd39,
,,,,space,0.5,,0,68,68,85,1,F, , , , ,space,2500,2.5,5ebba48f7e02a0174ea835a9,001,2021-08-19_16h30.20.318,natb3,2021.2.3,Win32,60.0240096,5ebba48f7e02a0174ea835a9,611e07ecdcc96256ae8d5b80,611e78f86ad5fd0a2282fd39,
,,,,space,0.599,,0,69,69,220,1,U, , , , ,space,2500,2.5,5ebba48f7e02a0174ea835a9,001,2021-08-19_16h30.20.318,natb3,2021.2.3,Win32,60.0240096,5ebba48f7e02a0174ea835a9,611e07ecdcc96256ae8d5b80,611e78f86ad5fd0a2282fd39,
,,,,space,0.499,,0,70,70,135,1,K, , , , ,space,1500,1.5,5ebba48f7e02a0174ea835a9,001,2021-08-19_16h30.20.318,natb3,2021.2.3,Win32,60.0240096,5ebba48f7e02a0174ea835a9,611e07ecdcc96256ae8d5b80,611e78f86ad5fd0a2282fd39,
,,,,space,0.471,,0,71,71,240,1,F, , , , ,space,2500,2.5,5ebba48f7e02a0174ea835a9,001,2021-08-19_16h30.20.318,natb3,2021.2.3,Win32,60.0240096,5ebba48f7e02a0174ea835a9,611e07ecdcc96256ae8d5b80,611e78f86ad5fd0a2282fd39,
,,,,space,0.633,,0,72,72,304,1,S, , , , ,space,2000,2,5ebba48f7e02a0174ea835a9,001,2021-08-19_16h30.20.318,natb3,2021.2.3,Win32,60.0240096,5ebba48f7e02a0174ea835a9,611e07ecdcc96256ae8d5b80,611e78f86ad5fd0a2282fd39,
,,,,space,0.633,,0,73,73,174,1,B, , , , ,space,2500,2.5,5ebba48f7e02a0174ea835a9,001,2021-08-19_16h30.20.318,natb3,2021.2.3,Win32,60.0240096,5ebba48f7e02a0174ea835a9,611e07ecdcc96256ae8d5b80,611e78f86ad5fd0a2282fd39,
,,,,space,0.587,,0,74,74,63,1,B, , , , ,space,2000,2,5ebba48f7e02a0174ea835a9,001,2021-08-19_16h30.20.318,natb3,2021.2.3,Win32,60.0240096,5ebba48f7e02a0174ea835a9,611e07ecdcc96256ae8d5b80,611e78f86ad5fd0a2282fd39,
,,,,,,,0,75,75,51,1,X,7,5,8, ,,1500,1.5,5ebba48f7e02a0174ea835a9,001,2021-08-19_16h30.20.318,natb3,2021.2.3,Win32,60.0240096,5ebba48f7e02a0174ea835a9,611e07ecdcc96256ae8d5b80,611e78f86ad5fd0a2282fd39,
,,,,space,0.478,,0,76,76,294,1,T, , , , ,space,2000,2,5ebba48f7e02a0174ea835a9,001,2021-08-19_16h30.20.318,natb3,2021.2.3,Win32,60.0240096,5ebba48f7e02a0174ea835a9,611e07ecdcc96256ae8d5b80,611e78f86ad5fd0a2282fd39,
,,,,,,,0,77,77,129,1,X,2,3,5, ,,1500,1.5,5ebba48f7e02a0174ea835a9,001,2021-08-19_16h30.20.318,natb3,2021.2.3,Win32,60.0240096,5ebba48f7e02a0174ea835a9,611e07ecdcc96256ae8d5b80,611e78f86ad5fd0a2282fd39,
,,,,space,0.461,,0,78,78,222,1,O, , , , ,space,2000,2,5ebba48f7e02a0174ea835a9,001,2021-08-19_16h30.20.318,natb3,2021.2.3,Win32,60.0240096,5ebba48f7e02a0174ea835a9,611e07ecdcc96256ae8d5b80,611e78f86ad5fd0a2282fd39,
,,,,space,0.533,,0,79,79,197,1,G, , , , ,space,2500,2.5,5ebba48f7e02a0174ea835a9,001,2021-08-19_16h30.20.318,natb3,2021.2.3,Win32,60.0240096,5ebba48f7e02a0174ea835a9,611e07ecdcc96256ae8d5b80,611e78f86ad5fd0a2282fd39,
,,,,,,,0,80,80,66,1,X, ,4,7, ,,2000,2,5ebba48f7e02a0174ea835a9,001,2021-08-19_16h30.20.318,natb3,2021.2.3,Win32,60.0240096,5ebba48f7e02a0174ea835a9,611e07ecdcc96256ae8d5b80,611e78f86ad5fd0a2282fd39,
,,,,space,0.595,,0,81,81,132,1,H, , , , ,space,2500,2.5,5ebba48f7e02a0174ea835a9,001,2021-08-19_16h30.20.318,natb3,2021.2.3,Win32,60.0240096,5ebba48f7e02a0174ea835a9,611e07ecdcc96256ae8d5b80,611e78f86ad5fd0a2282fd39,
,,,,space,0.536,,0,82,82,328,1,R, , , , ,space,1500,1.5,5ebba48f7e02a0174ea835a9,001,2021-08-19_16h30.20.318,natb3,2021.2.3,Win32,60.0240096,5ebba48f7e02a0174ea835a9,611e07ecdcc96256ae8d5b80,611e78f86ad5fd0a2282fd39,
,,,,,,,0,83,83,27,1,X,5, ,1,3,,1500,1.5,5ebba48f7e02a0174ea835a9,001,2021-08-19_16h30.20.318,natb3,2021.2.3,Win32,60.0240096,5ebba48f7e02a0174ea835a9,611e07ecdcc96256ae8d5b80,611e78f86ad5fd0a2282fd39,
,,,,space,0.528,,0,84,84,123,1,O, , , , ,space,1500,1.5,5ebba48f7e02a0174ea835a9,001,2021-08-19_16h30.20.318,natb3,2021.2.3,Win32,60.0240096,5ebba48f7e02a0174ea835a9,611e07ecdcc96256ae8d5b80,611e78f86ad5fd0a2282fd39,
,,,,,,,0,85,85,141,1,X,1, ,4,6,,1500,1.5,5ebba48f7e02a0174ea835a9,001,2021-08-19_16h30.20.318,natb3,2021.2.3,Win32,60.0240096,5ebba48f7e02a0174ea835a9,611e07ecdcc96256ae8d5b80,611e78f86ad5fd0a2282fd39,
,,,,,,,0,86,86,153,1,X,4,7, ,6,,2000,2,5ebba48f7e02a0174ea835a9,001,2021-08-19_16h30.20.318,natb3,2021.2.3,Win32,60.0240096,5ebba48f7e02a0174ea835a9,611e07ecdcc96256ae8d5b80,611e78f86ad5fd0a2282fd39,
,,,,,,,0,87,87,279,1,K, , , , ,space,2500,2.5,5ebba48f7e02a0174ea835a9,001,2021-08-19_16h30.20.318,natb3,2021.2.3,Win32,60.0240096,5ebba48f7e02a0174ea835a9,611e07ecdcc96256ae8d5b80,611e78f86ad5fd0a2282fd39,
,,,,space,0.601,,0,88,88,119,1,Y, , , , ,space,2500,2.5,5ebba48f7e02a0174ea835a9,001,2021-08-19_16h30.20.318,natb3,2021.2.3,Win32,60.0240096,5ebba48f7e02a0174ea835a9,611e07ecdcc96256ae8d5b80,611e78f86ad5fd0a2282fd39,
,,,,space,0.712,,0,89,89,143,1,M, , , , ,space,2500,2.5,5ebba48f7e02a0174ea835a9,001,2021-08-19_16h30.20.318,natb3,2021.2.3,Win32,60.0240096,5ebba48f7e02a0174ea835a9,611e07ecdcc96256ae8d5b80,611e78f86ad5fd0a2282fd39,
,,,,space,0.616,,0,90,90,2,1,E, , , , ,space,2500,2.5,5ebba48f7e02a0174ea835a9,001,2021-08-19_16h30.20.318,natb3,2021.2.3,Win32,60.0240096,5ebba48f7e02a0174ea835a9,611e07ecdcc96256ae8d5b80,611e78f86ad5fd0a2282fd39,
,,,,space,0.466,,0,91,91,301,1,P, , , , ,space,1500,1.5,5ebba48f7e02a0174ea835a9,001,2021-08-19_16h30.20.318,natb3,2021.2.3,Win32,60.0240096,5ebba48f7e02a0174ea835a9,611e07ecdcc96256ae8d5b80,611e78f86ad5fd0a2282fd39,
,,,,space,0.384,,0,92,92,285,1,B, , , , ,space,1500,1.5,5ebba48f7e02a0174ea835a9,001,2021-08-19_16h30.20.318,natb3,2021.2.3,Win32,60.0240096,5ebba48f7e02a0174ea835a9,611e07ecdcc96256ae8d5b80,611e78f86ad5fd0a2282fd39,
,,,,space,0.434,,0,93,93,212,1,Q, , , , ,space,2500,2.5,5ebba48f7e02a0174ea835a9,001,2021-08-19_16h30.20.318,natb3,2021.2.3,Win32,60.0240096,5ebba48f7e02a0174ea835a9,611e07ecdcc96256ae8d5b80,611e78f86ad5fd0a2282fd39,
,,,,space,0.483,,0,94,94,104,1,E, , , , ,space,2000,2,5ebba48f7e02a0174ea835a9,001,2021-08-19_16h30.20.318,natb3,2021.2.3,Win32,60.0240096,5ebba48f7e02a0174ea835a9,611e07ecdcc96256ae8d5b80,611e78f86ad5fd0a2282fd39,
,,,,space,0.456,,0,95,95,229,1,X,8, ,2,6,,2500,2.5,5ebba48f7e02a0174ea835a9,001,2021-08-19_16h30.20.318,natb3,2021.2.3,Win32,60.0240096,5ebba48f7e02a0174ea835a9,611e07ecdcc96256ae8d5b80,611e78f86ad5fd0a2282fd39,
,,,,,,,0,96,96,287,1,X, ,2, ,9,,2000,2,5ebba48f7e02a0174ea835a9,001,2021-08-19_16h30.20.318,natb3,2021.2.3,Win32,60.0240096,5ebba48f7e02a0174ea835a9,611e07ecdcc96256ae8d5b80,611e78f86ad5fd0a2282fd39,
,,,,space,0.513,,0,97,97,256,1,Q, , , , ,space,2000,2,5ebba48f7e02a0174ea835a9,001,2021-08-19_16h30.20.318,natb3,2021.2.3,Win32,60.0240096,5ebba48f7e02a0174ea835a9,611e07ecdcc96256ae8d5b80,611e78f86ad5fd0a2282fd39,
,,,,space,0.635,,0,98,98,101,1,Q, , , , ,space,2500,2.5,5ebba48f7e02a0174ea835a9,001,2021-08-19_16h30.20.318,natb3,2021.2.3,Win32,60.0240096,5ebba48f7e02a0174ea835a9,611e07ecdcc96256ae8d5b80,611e78f86ad5fd0a2282fd39,
,,,,space,0.517,,0,99,99,194,1,D, , , , ,space,2000,2,5ebba48f7e02a0174ea835a9,001,2021-08-19_16h30.20.318,natb3,2021.2.3,Win32,60.0240096,5ebba48f7e02a0174ea835a9,611e07ecdcc96256ae8d5b80,611e78f86ad5fd0a2282fd39,
,,,,space,0.667,,0,100,100,5,1,T, , , , ,space,2000,2,5ebba48f7e02a0174ea835a9,001,2021-08-19_16h30.20.318,natb3,2021.2.3,Win32,60.0240096,5ebba48f7e02a0174ea835a9,611e07ecdcc96256ae8d5b80,611e78f86ad5fd0a2282fd39,
,,,,space,0.518,,0,101,101,88,1,J, , , , ,space,2500,2.5,5ebba48f7e02a0174ea835a9,001,2021-08-19_16h30.20.318,natb3,2021.2.3,Win32,60.0240096,5ebba48f7e02a0174ea835a9,611e07ecdcc96256ae8d5b80,611e78f86ad5fd0a2282fd39,
,,,,,,,0,102,102,190,1,P, , , , ,space,2000,2,5ebba48f7e02a0174ea835a9,001,2021-08-19_16h30.20.318,natb3,2021.2.3,Win32,60.0240096,5ebba48f7e02a0174ea835a9,611e07ecdcc96256ae8d5b80,611e78f86ad5fd0a2282fd39,
,,,,space,0.367,,0,103,103,177,1,M, , , , ,space,2500,2.5,5ebba48f7e02a0174ea835a9,001,2021-08-19_16h30.20.318,natb3,2021.2.3,Win32,60.0240096,5ebba48f7e02a0174ea835a9,611e07ecdcc96256ae8d5b80,611e78f86ad5fd0a2282fd39,
,,,,,,,0,104,104,203,1,X, , , , ,,2500,2.5,5ebba48f7e02a0174ea835a9,001,2021-08-19_16h30.20.318,natb3,2021.2.3,Win32,60.0240096,5ebba48f7e02a0174ea835a9,611e07ecdcc96256ae8d5b80,611e78f86ad5fd0a2282fd39,
,,,,,,,0,105,105,93,1,X,5, ,7, ,,2500,2.5,5ebba48f7e02a0174ea835a9,001,2021-08-19_16h30.20.318,natb3,2021.2.3,Win32,60.0240096,5ebba48f7e02a0174ea835a9,611e07ecdcc96256ae8d5b80,611e78f86ad5fd0a2282fd39,
,,,,space,0.516,,0,106,106,221,1,I, , , , ,space,2500,2.5,5ebba48f7e02a0174ea835a9,001,2021-08-19_16h30.20.318,natb3,2021.2.3,Win32,60.0240096,5ebba48f7e02a0174ea835a9,611e07ecdcc96256ae8d5b80,611e78f86ad5fd0a2282fd39,
,,,,space,0.45,,0,107,107,208,1,B, , , , ,space,1500,1.5,5ebba48f7e02a0174ea835a9,001,2021-08-19_16h30.20.318,natb3,2021.2.3,Win32,60.0240096,5ebba48f7e02a0174ea835a9,611e07ecdcc96256ae8d5b80,611e78f86ad5fd0a2282fd39,
,,,,space,0.5,,0,108,108,87,1,H, , , , ,space,1500,1.5,5ebba48f7e02a0174ea835a9,001,2021-08-19_16h30.20.318,natb3,2021.2.3,Win32,60.0240096,5ebba48f7e02a0174ea835a9,611e07ecdcc96256ae8d5b80,611e78f86ad5fd0a2282fd39,
,,,,space,0.396,,0,109,109,6,1,Y, , , , ,space,2500,2.5,5ebba48f7e02a0174ea835a9,001,2021-08-19_16h30.20.318,natb3,2021.2.3,Win32,60.0240096,5ebba48f7e02a0174ea835a9,611e07ecdcc96256ae8d5b80,611e78f86ad5fd0a2282fd39,
,,,,space,0.399,,0,110,110,122,1,X,1, , ,8,,1500,1.5,5ebba48f7e02a0174ea835a9,001,2021-08-19_16h30.20.318,natb3,2021.2.3,Win32,60.0240096,5ebba48f7e02a0174ea835a9,611e07ecdcc96256ae8d5b80,611e78f86ad5fd0a2282fd39,
,,,,space,0.652,,0,111,111,326,1,W, , , , ,space,2000,2,5ebba48f7e02a0174ea835a9,001,2021-08-19_16h30.20.318,natb3,2021.2.3,Win32,60.0240096,5ebba48f7e02a0174ea835a9,611e07ecdcc96256ae8d5b80,611e78f86ad5fd0a2282fd39,
,,,,,,,0,112,112,243,1,X, , , , ,,2500,2.5,5ebba48f7e02a0174ea835a9,001,2021-08-19_16h30.20.318,natb3,2021.2.3,Win32,60.0240096,5ebba48f7e02a0174ea835a9,611e07ecdcc96256ae8d5b80,611e78f86ad5fd0a2282fd39,
,,,,space,0.533,,0,113,113,235,1,A, , , , ,space,1500,1.5,5ebba48f7e02a0174ea835a9,001,2021-08-19_16h30.20.318,natb3,2021.2.3,Win32,60.0240096,5ebba48f7e02a0174ea835a9,611e07ecdcc96256ae8d5b80,611e78f86ad5fd0a2282fd39,
,,,,space,0.435,,0,114,114,108,1,Y, , , , ,space,2500,2.5,5ebba48f7e02a0174ea835a9,001,2021-08-19_16h30.20.318,natb3,2021.2.3,Win32,60.0240096,5ebba48f7e02a0174ea835a9,611e07ecdcc96256ae8d5b80,611e78f86ad5fd0a2282fd39,
,,,,space,0.506,,0,115,115,247,1,Z, , , , ,space,1500,1.5,5ebba48f7e02a0174ea835a9,001,2021-08-19_16h30.20.318,natb3,2021.2.3,Win32,60.0240096,5ebba48f7e02a0174ea835a9,611e07ecdcc96256ae8d5b80,611e78f86ad5fd0a2282fd39,
,,,,space,0.583,,0,116,116,77,1,O, , , , ,space,2000,2,5ebba48f7e02a0174ea835a9,001,2021-08-19_16h30.20.318,natb3,2021.2.3,Win32,60.0240096,5ebba48f7e02a0174ea835a9,611e07ecdcc96256ae8d5b80,611e78f86ad5fd0a2282fd39,
,,,,space,0.434,,0,117,117,149,1,R, , , , ,space,2000,2,5ebba48f7e02a0174ea835a9,001,2021-08-19_16h30.20.318,natb3,2021.2.3,Win32,60.0240096,5ebba48f7e02a0174ea835a9,611e07ecdcc96256ae8d5b80,611e78f86ad5fd0a2282fd39,
,,,,space,0.4,,0,118,118,130,1,F, , , , ,space,2000,2,5ebba48f7e02a0174ea835a9,001,2021-08-19_16h30.20.318,natb3,2021.2.3,Win32,60.0240096,5ebba48f7e02a0174ea835a9,611e07ecdcc96256ae8d5b80,611e78f86ad5fd0a2282fd39,
,,,,space,0.536,,0,119,119,99,1,N, , , , ,space,2500,2.5,5ebba48f7e02a0174ea835a9,001,2021-08-19_16h30.20.318,natb3,2021.2.3,Win32,60.0240096,5ebba48f7e02a0174ea835a9,611e07ecdcc96256ae8d5b80,611e78f86ad5fd0a2282fd39,
,,,,space,0.419,,0,120,120,215,1,E, , , , ,space,2500,2.5,5ebba48f7e02a0174ea835a9,001,2021-08-19_16h30.20.318,natb3,2021.2.3,Win32,60.0240096,5ebba48f7e02a0174ea835a9,611e07ecdcc96256ae8d5b80,611e78f86ad5fd0a2282fd39,
,,,,space,0.449,,0,121,121,89,1,X,3, , , ,,2000,2,5ebba48f7e02a0174ea835a9,001,2021-08-19_16h30.20.318,natb3,2021.2.3,Win32,60.0240096,5ebba48f7e02a0174ea835a9,611e07ecdcc96256ae8d5b80,611e78f86ad5fd0a2282fd39,
,,,,space,0.581,,0,122,122,136,1,Z, , , , ,space,2500,2.5,5ebba48f7e02a0174ea835a9,001,2021-08-19_16h30.20.318,natb3,2021.2.3,Win32,60.0240096,5ebba48f7e02a0174ea835a9,611e07ecdcc96256ae8d5b80,611e78f86ad5fd0a2282fd39,
,,,,space,0.567,,0,123,123,309,1,H, , , , ,space,2500,2.5,5ebba48f7e02a0174ea835a9,001,2021-08-19_16h30.20.318,natb3,2021.2.3,Win32,60.0240096,5ebba48f7e02a0174ea835a9,611e07ecdcc96256ae8d5b80,611e78f86ad5fd0a2282fd39,
,,,,space,0.549,,0,124,124,111,1,O, , , , ,space,2000,2,5ebba48f7e02a0174ea835a9,001,2021-08-19_16h30.20.318,natb3,2021.2.3,Win32,60.0240096,5ebba48f7e02a0174ea835a9,611e07ecdcc96256ae8d5b80,611e78f86ad5fd0a2282fd39,
,,,,space,0.572,,0,125,125,286,1,N, , , , ,space,1500,1.5,5ebba48f7e02a0174ea835a9,001,2021-08-19_16h30.20.318,natb3,2021.2.3,Win32,60.0240096,5ebba48f7e02a0174ea835a9,611e07ecdcc96256ae8d5b80,611e78f86ad5fd0a2282fd39,
,,,,space,0.517,,0,126,126,332,1,U, , , , ,space,2000,2,5ebba48f7e02a0174ea835a9,001,2021-08-19_16h30.20.318,natb3,2021.2.3,Win32,60.0240096,5ebba48f7e02a0174ea835a9,611e07ecdcc96256ae8d5b80,611e78f86ad5fd0a2282fd39,
,,,,,,,0,127,127,311,1,X,1,2,7,3,,2500,2.5,5ebba48f7e02a0174ea835a9,001,2021-08-19_16h30.20.318,natb3,2021.2.3,Win32,60.0240096,5ebba48f7e02a0174ea835a9,611e07ecdcc96256ae8d5b80,611e78f86ad5fd0a2282fd39,
,,,,space,0.529,,0,128,128,186,1,U, , , , ,space,2500,2.5,5ebba48f7e02a0174ea835a9,001,2021-08-19_16h30.20.318,natb3,2021.2.3,Win32,60.0240096,5ebba48f7e02a0174ea835a9,611e07ecdcc96256ae8d5b80,611e78f86ad5fd0a2282fd39,
,,,,space,0.432,,0,129,129,34,1,Q, , , , ,space,2500,2.5,5ebba48f7e02a0174ea835a9,001,2021-08-19_16h30.20.318,natb3,2021.2.3,Win32,60.0240096,5ebba48f7e02a0174ea835a9,611e07ecdcc96256ae8d5b80,611e78f86ad5fd0a2282fd39,
,,,,space,0.501,,0,130,130,188,1,I, , , , ,space,2500,2.5,5ebba48f7e02a0174ea835a9,001,2021-08-19_16h30.20.318,natb3,2021.2.3,Win32,60.0240096,5ebba48f7e02a0174ea835a9,611e07ecdcc96256ae8d5b80,611e78f86ad5fd0a2282fd39,
,,,,space,0.582,,0,131,131,147,1,E, , , , ,space,2000,2,5ebba48f7e02a0174ea835a9,001,2021-08-19_16h30.20.318,natb3,2021.2.3,Win32,60.0240096,5ebba48f7e02a0174ea835a9,611e07ecdcc96256ae8d5b80,611e78f86ad5fd0a2282fd39,
,,,,space,0.501,,0,132,132,160,1,D, , , , ,space,1500,1.5,5ebba48f7e02a0174ea835a9,001,2021-08-19_16h30.20.318,natb3,2021.2.3,Win32,60.0240096,5ebba48f7e02a0174ea835a9,611e07ecdcc96256ae8d5b80,611e78f86ad5fd0a2282fd39,
,,,,space,0.401,,0,133,133,59,1,Z, , , , ,space,2000,2,5ebba48f7e02a0174ea835a9,001,2021-08-19_16h30.20.318,natb3,2021.2.3,Win32,60.0240096,5ebba48f7e02a0174ea835a9,611e07ecdcc96256ae8d5b80,611e78f86ad5fd0a2282fd39,
,,,,space,0.462,,0,134,134,18,1,X, ,2,5,8,,2500,2.5,5ebba48f7e02a0174ea835a9,001,2021-08-19_16h30.20.318,natb3,2021.2.3,Win32,60.0240096,5ebba48f7e02a0174ea835a9,611e07ecdcc96256ae8d5b80,611e78f86ad5fd0a2282fd39,
,,,,,,,0,135,135,280,1,L, , , , ,space,1500,1.5,5ebba48f7e02a0174ea835a9,001,2021-08-19_16h30.20.318,natb3,2021.2.3,Win32,60.0240096,5ebba48f7e02a0174ea835a9,611e07ecdcc96256ae8d5b80,611e78f86ad5fd0a2282fd39,
,,,,space,0.366,,0,136,136,90,1,K, , , , ,space,2000,2,5ebba48f7e02a0174ea835a9,001,2021-08-19_16h30.20.318,natb3,2021.2.3,Win32,60.0240096,5ebba48f7e02a0174ea835a9,611e07ecdcc96256ae8d5b80,611e78f86ad5fd0a2282fd39,
,,,,space,0.414,,0,137,137,281,1,Z, , , , ,space,1500,1.5,5ebba48f7e02a0174ea835a9,001,2021-08-19_16h30.20.318,natb3,2021.2.3,Win32,60.0240096,5ebba48f7e02a0174ea835a9,611e07ecdcc96256ae8d5b80,611e78f86ad5fd0a2282fd39,
,,,,space,0.499,,0,138,138,154,1,I, , , , ,space,2500,2.5,5ebba48f7e02a0174ea835a9,001,2021-08-19_16h30.20.318,natb3,2021.2.3,Win32,60.0240096,5ebba48f7e02a0174ea835a9,611e07ecdcc96256ae8d5b80,611e78f86ad5fd0a2282fd39,
,,,,space,0.398,,0,139,139,49,1,S, , , , ,space,1500,1.5,5ebba48f7e02a0174ea835a9,001,2021-08-19_16h30.20.318,natb3,2021.2.3,Win32,60.0240096,5ebba48f7e02a0174ea835a9,611e07ecdcc96256ae8d5b80,611e78f86ad5fd0a2282fd39,
,,,,space,0.766,,0,140,140,17,1,F, , , , ,space,2500,2.5,5ebba48f7e02a0174ea835a9,001,2021-08-19_16h30.20.318,natb3,2021.2.3,Win32,60.0240096,5ebba48f7e02a0174ea835a9,611e07ecdcc96256ae8d5b80,611e78f86ad5fd0a2282fd39,
,,,,space,0.416,,0,141,141,253,1,N, , , , ,space,2500,2.5,5ebba48f7e02a0174ea835a9,001,2021-08-19_16h30.20.318,natb3,2021.2.3,Win32,60.0240096,5ebba48f7e02a0174ea835a9,611e07ecdcc96256ae8d5b80,611e78f86ad5fd0a2282fd39,
,,,,space,0.416,,0,142,142,42,1,U, , , , ,space,1500,1.5,5ebba48f7e02a0174ea835a9,001,2021-08-19_16h30.20.318,natb3,2021.2.3,Win32,60.0240096,5ebba48f7e02a0174ea835a9,611e07ecdcc96256ae8d5b80,611e78f86ad5fd0a2282fd39,
,,,,space,0.367,,0,143,143,26,1,C, , , , ,space,2000,2,5ebba48f7e02a0174ea835a9,001,2021-08-19_16h30.20.318,natb3,2021.2.3,Win32,60.0240096,5ebba48f7e02a0174ea835a9,611e07ecdcc96256ae8d5b80,611e78f86ad5fd0a2282fd39,
,,,,space,0.501,,0,144,144,206,1,V, , , , ,space,2000,2,5ebba48f7e02a0174ea835a9,001,2021-08-19_16h30.20.318,natb3,2021.2.3,Win32,60.0240096,5ebba48f7e02a0174ea835a9,611e07ecdcc96256ae8d5b80,611e78f86ad5fd0a2282fd39,
,,,,space,0.466,,0,145,145,44,1,I, , , , ,space,2500,2.5,5ebba48f7e02a0174ea835a9,001,2021-08-19_16h30.20.318,natb3,2021.2.3,Win32,60.0240096,5ebba48f7e02a0174ea835a9,611e07ecdcc96256ae8d5b80,611e78f86ad5fd0a2282fd39,
,,,,space,0.365,,0,146,146,16,1,D, , , , ,space,1500,1.5,5ebba48f7e02a0174ea835a9,001,2021-08-19_16h30.20.318,natb3,2021.2.3,Win32,60.0240096,5ebba48f7e02a0174ea835a9,611e07ecdcc96256ae8d5b80,611e78f86ad5fd0a2282fd39,
,,,,space,0.432,,0,147,147,14,1,S, , , , ,space,2500,2.5,5ebba48f7e02a0174ea835a9,001,2021-08-19_16h30.20.318,natb3,2021.2.3,Win32,60.0240096,5ebba48f7e02a0174ea835a9,611e07ecdcc96256ae8d5b80,611e78f86ad5fd0a2282fd39,
,,,,space,0.483,,0,148,148,56,1,J, , , , ,space,1500,1.5,5ebba48f7e02a0174ea835a9,001,2021-08-19_16h30.20.318,natb3,2021.2.3,Win32,60.0240096,5ebba48f7e02a0174ea835a9,611e07ecdcc96256ae8d5b80,611e78f86ad5fd0a2282fd39,
,,,,space,0.418,,0,149,149,131,1,G, , , , ,space,1500,1.5,5ebba48f7e02a0174ea835a9,001,2021-08-19_16h30.20.318,natb3,2021.2.3,Win32,60.0240096,5ebba48f7e02a0174ea835a9,611e07ecdcc96256ae8d5b80,611e78f86ad5fd0a2282fd39,
,,,,space,0.399,,0,150,150,249,1,C, , , , ,space,2000,2,5ebba48f7e02a0174ea835a9,001,2021-08-19_16h30.20.318,natb3,2021.2.3,Win32,60.0240096,5ebba48f7e02a0174ea835a9,611e07ecdcc96256ae8d5b80,611e78f86ad5fd0a2282fd39,
,,,,space,0.351,,0,151,151,320,1,B, , , , ,space,1500,1.5,5ebba48f7e02a0174ea835a9,001,2021-08-19_16h30.20.318,natb3,2021.2.3,Win32,60.0240096,5ebba48f7e02a0174ea835a9,611e07ecdcc96256ae8d5b80,611e78f86ad5fd0a2282fd39,
,,,,space,0.365,,0,152,152,303,1,A, , , , ,space,2000,2,5ebba48f7e02a0174ea835a9,001,2021-08-19_16h30.20.318,natb3,2021.2.3,Win32,60.0240096,5ebba48f7e02a0174ea835a9,611e07ecdcc96256ae8d5b80,611e78f86ad5fd0a2282fd39,
,,,,space,0.35,,0,153,153,195,1,X, , , , ,,1500,1.5,5ebba48f7e02a0174ea835a9,001,2021-08-19_16h30.20.318,natb3,2021.2.3,Win32,60.0240096,5ebba48f7e02a0174ea835a9,611e07ecdcc96256ae8d5b80,611e78f86ad5fd0a2282fd39,
,,,,space,0.385,,0,154,154,137,1,C, , , , ,space,2500,2.5,5ebba48f7e02a0174ea835a9,001,2021-08-19_16h30.20.318,natb3,2021.2.3,Win32,60.0240096,5ebba48f7e02a0174ea835a9,611e07ecdcc96256ae8d5b80,611e78f86ad5fd0a2282fd39,
,,,,,,,0,155,155,291,1,X, , , , ,,2000,2,5ebba48f7e02a0174ea835a9,001,2021-08-19_16h30.20.318,natb3,2021.2.3,Win32,60.0240096,5ebba48f7e02a0174ea835a9,611e07ecdcc96256ae8d5b80,611e78f86ad5fd0a2282fd39,
,,,,,,,0,156,156,263,1,X,4, ,6, ,,1500,1.5,5ebba48f7e02a0174ea835a9,001,2021-08-19_16h30.20.318,natb3,2021.2.3,Win32,60.0240096,5ebba48f7e02a0174ea835a9,611e07ecdcc96256ae8d5b80,611e78f86ad5fd0a2282fd39,
,,,,space,0.446,,0,157,157,165,1,J, , , , ,space,2500,2.5,5ebba48f7e02a0174ea835a9,001,2021-08-19_16h30.20.318,natb3,2021.2.3,Win32,60.0240096,5ebba48f7e02a0174ea835a9,611e07ecdcc96256ae8d5b80,611e78f86ad5fd0a2282fd39,
,,,,space,0.483,,0,158,158,64,1,N, , , , ,space,2000,2,5ebba48f7e02a0174ea835a9,001,2021-08-19_16h30.20.318,natb3,2021.2.3,Win32,60.0240096,5ebba48f7e02a0174ea835a9,611e07ecdcc96256ae8d5b80,611e78f86ad5fd0a2282fd39,
,,,,,,,0,159,159,118,1,X, , , , ,,2000,2,5ebba48f7e02a0174ea835a9,001,2021-08-19_16h30.20.318,natb3,2021.2.3,Win32,60.0240096,5ebba48f7e02a0174ea835a9,611e07ecdcc96256ae8d5b80,611e78f86ad5fd0a2282fd39,
,,,,space,0.417,,0,160,160,297,1,U, , , , ,space,2000,2,5ebba48f7e02a0174ea835a9,001,2021-08-19_16h30.20.318,natb3,2021.2.3,Win32,60.0240096,5ebba48f7e02a0174ea835a9,611e07ecdcc96256ae8d5b80,611e78f86ad5fd0a2282fd39,
,,,,space,0.517,,0,161,161,124,1,P, , , , ,space,2000,2,5ebba48f7e02a0174ea835a9,001,2021-08-19_16h30.20.318,natb3,2021.2.3,Win32,60.0240096,5ebba48f7e02a0174ea835a9,611e07ecdcc96256ae8d5b80,611e78f86ad5fd0a2282fd39,
,,,,space,0.599,,0,162,162,100,1,M, , , , ,space,2000,2,5ebba48f7e02a0174ea835a9,001,2021-08-19_16h30.20.318,natb3,2021.2.3,Win32,60.0240096,5ebba48f7e02a0174ea835a9,611e07ecdcc96256ae8d5b80,611e78f86ad5fd0a2282fd39,
,,,,space,0.487,,0,163,163,41,1,Y, , , , ,space,2500,2.5,5ebba48f7e02a0174ea835a9,001,2021-08-19_16h30.20.318,natb3,2021.2.3,Win32,60.0240096,5ebba48f7e02a0174ea835a9,611e07ecdcc96256ae8d5b80,611e78f86ad5fd0a2282fd39,
,,,,,,,0,164,164,12,1,X, , , , ,,1500,1.5,5ebba48f7e02a0174ea835a9,001,2021-08-19_16h30.20.318,natb3,2021.2.3,Win32,60.0240096,5ebba48f7e02a0174ea835a9,611e07ecdcc96256ae8d5b80,611e78f86ad5fd0a2282fd39,
,,,,space,0.421,,0,165,165,1,1,W, , , , ,space,2000,2,5ebba48f7e02a0174ea835a9,001,2021-08-19_16h30.20.318,natb3,2021.2.3,Win32,60.0240096,5ebba48f7e02a0174ea835a9,611e07ecdcc96256ae8d5b80,611e78f86ad5fd0a2282fd39,
,,,,space,0.482,,0,166,166,0,1,Q, , , , ,space,1500,1.5,5ebba48f7e02a0174ea835a9,001,2021-08-19_16h30.20.318,natb3,2021.2.3,Win32,60.0240096,5ebba48f7e02a0174ea835a9,611e07ecdcc96256ae8d5b80,611e78f86ad5fd0a2282fd39,
,,,,space,0.518,space,0,167,167,173,1,V, , , , ,space,1500,1.5,5ebba48f7e02a0174ea835a9,001,2021-08-19_16h30.20.318,natb3,2021.2.3,Win32,60.0240096,5ebba48f7e02a0174ea835a9,611e07ecdcc96256ae8d5b80,611e78f86ad5fd0a2282fd39,8.105
,,,,space,0.536,,0,168,168,38,1,R, , , , ,space,2500,2.5,5ebba48f7e02a0174ea835a9,001,2021-08-19_16h30.20.318,natb3,2021.2.3,Win32,60.0240096,5ebba48f7e02a0174ea835a9,611e07ecdcc96256ae8d5b80,611e78f86ad5fd0a2282fd39,
,,,,space,0.505,,0,169,169,210,1,M, , , , ,space,1500,1.5,5ebba48f7e02a0174ea835a9,001,2021-08-19_16h30.20.318,natb3,2021.2.3,Win32,60.0240096,5ebba48f7e02a0174ea835a9,611e07ecdcc96256ae8d5b80,611e78f86ad5fd0a2282fd39,
,,,,space,0.387,,0,170,170,98,1,X, , , , ,,2500,2.5,5ebba48f7e02a0174ea835a9,001,2021-08-19_16h30.20.318,natb3,2021.2.3,Win32,60.0240096,5ebba48f7e02a0174ea835a9,611e07ecdcc96256ae8d5b80,611e78f86ad5fd0a2282fd39,
,,,,space,0.499,,0,171,171,189,1,O, , , , ,space,1500,1.5,5ebba48f7e02a0174ea835a9,001,2021-08-19_16h30.20.318,natb3,2021.2.3,Win32,60.0240096,5ebba48f7e02a0174ea835a9,611e07ecdcc96256ae8d5b80,611e78f86ad5fd0a2282fd39,
,,,,,,,0,172,172,319,1,V, , , , ,space,2000,2,5ebba48f7e02a0174ea835a9,001,2021-08-19_16h30.20.318,natb3,2021.2.3,Win32,60.0240096,5ebba48f7e02a0174ea835a9,611e07ecdcc96256ae8d5b80,611e78f86ad5fd0a2282fd39,
,,,,space,0.667,,0,173,173,290,1,W, , , , ,space,1500,1.5,5ebba48f7e02a0174ea835a9,001,2021-08-19_16h30.20.318,natb3,2021.2.3,Win32,60.0240096,5ebba48f7e02a0174ea835a9,611e07ecdcc96256ae8d5b80,611e78f86ad5fd0a2282fd39,
,,,,space,0.417,,0,174,174,75,1,U, , , , ,space,1500,1.5,5ebba48f7e02a0174ea835a9,001,2021-08-19_16h30.20.318,natb3,2021.2.3,Win32,60.0240096,5ebba48f7e02a0174ea835a9,611e07ecdcc96256ae8d5b80,611e78f86ad5fd0a2282fd39,
,,,,space,0.502,,0,175,175,110,1,I, , , , ,space,1500,1.5,5ebba48f7e02a0174ea835a9,001,2021-08-19_16h30.20.318,natb3,2021.2.3,Win32,60.0240096,5ebba48f7e02a0174ea835a9,611e07ecdcc96256ae8d5b80,611e78f86ad5fd0a2282fd39,
,,,,,,,0,176,176,15,1,X, , , , ,,1500,1.5,5ebba48f7e02a0174ea835a9,001,2021-08-19_16h30.20.318,natb3,2021.2.3,Win32,60.0240096,5ebba48f7e02a0174ea835a9,611e07ecdcc96256ae8d5b80,611e78f86ad5fd0a2282fd39,
,,,,space,0.487,,0,177,177,293,1,R, , , , ,space,2500,2.5,5ebba48f7e02a0174ea835a9,001,2021-08-19_16h30.20.318,natb3,2021.2.3,Win32,60.0240096,5ebba48f7e02a0174ea835a9,611e07ecdcc96256ae8d5b80,611e78f86ad5fd0a2282fd39,
,,,,,,,0,178,178,268,1,X,6, ,3, ,,2500,2.5,5ebba48f7e02a0174ea835a9,001,2021-08-19_16h30.20.318,natb3,2021.2.3,Win32,60.0240096,5ebba48f7e02a0174ea835a9,611e07ecdcc96256ae8d5b80,611e78f86ad5fd0a2282fd39,
,,,,space,0.66,,0,179,179,314,1,L, , , , ,space,1500,1.5,5ebba48f7e02a0174ea835a9,001,2021-08-19_16h30.20.318,natb3,2021.2.3,Win32,60.0240096,5ebba48f7e02a0174ea835a9,611e07ecdcc96256ae8d5b80,611e78f86ad5fd0a2282fd39,
,,,,,,,0,180,180,60,1,X,7,3,5, ,,1500,1.5,5ebba48f7e02a0174ea835a9,001,2021-08-19_16h30.20.318,natb3,2021.2.3,Win32,60.0240096,5ebba48f7e02a0174ea835a9,611e07ecdcc96256ae8d5b80,611e78f86ad5fd0a2282fd39,
,,,,space,0.426,,0,181,181,142,1,N, , , , ,space,2500,2.5,5ebba48f7e02a0174ea835a9,001,2021-08-19_16h30.20.318,natb3,2021.2.3,Win32,60.0240096,5ebba48f7e02a0174ea835a9,611e07ecdcc96256ae8d5b80,611e78f86ad5fd0a2282fd39,
,,,,space,0.45,,0,182,182,289,1,Q, , , , ,space,2000,2,5ebba48f7e02a0174ea835a9,001,2021-08-19_16h30.20.318,natb3,2021.2.3,Win32,60.0240096,5ebba48f7e02a0174ea835a9,611e07ecdcc96256ae8d5b80,611e78f86ad5fd0a2282fd39,
,,,,space,0.482,,0,183,183,209,1,N, , , , ,space,2000,2,5ebba48f7e02a0174ea835a9,001,2021-08-19_16h30.20.318,natb3,2021.2.3,Win32,60.0240096,5ebba48f7e02a0174ea835a9,611e07ecdcc96256ae8d5b80,611e78f86ad5fd0a2282fd39,
,,,,space,0.467,,0,184,184,284,1,V, , , , ,space,2500,2.5,5ebba48f7e02a0174ea835a9,001,2021-08-19_16h30.20.318,natb3,2021.2.3,Win32,60.0240096,5ebba48f7e02a0174ea835a9,611e07ecdcc96256ae8d5b80,611e78f86ad5fd0a2282fd39,
,,,,space,0.534,,0,185,185,161,1,F, , , , ,space,1500,1.5,5ebba48f7e02a0174ea835a9,001,2021-08-19_16h30.20.318,natb3,2021.2.3,Win32,60.0240096,5ebba48f7e02a0174ea835a9,611e07ecdcc96256ae8d5b80,611e78f86ad5fd0a2282fd39,
,,,,,,,0,186,186,211,1,X, , , , ,,2500,2.5,5ebba48f7e02a0174ea835a9,001,2021-08-19_16h30.20.318,natb3,2021.2.3,Win32,60.0240096,5ebba48f7e02a0174ea835a9,611e07ecdcc96256ae8d5b80,611e78f86ad5fd0a2282fd39,
,,,,space,0.4,,0,187,187,121,1,I, , , , ,space,2000,2,5ebba48f7e02a0174ea835a9,001,2021-08-19_16h30.20.318,natb3,2021.2.3,Win32,60.0240096,5ebba48f7e02a0174ea835a9,611e07ecdcc96256ae8d5b80,611e78f86ad5fd0a2282fd39,
,,,,space,0.484,,0,188,188,265,1,I, , , , ,space,2000,2,5ebba48f7e02a0174ea835a9,001,2021-08-19_16h30.20.318,natb3,2021.2.3,Win32,60.0240096,5ebba48f7e02a0174ea835a9,611e07ecdcc96256ae8d5b80,611e78f86ad5fd0a2282fd39,
,,,,space,0.437,,0,189,189,241,1,G, , , , ,space,2500,2.5,5ebba48f7e02a0174ea835a9,001,2021-08-19_16h30.20.318,natb3,2021.2.3,Win32,60.0240096,5ebba48f7e02a0174ea835a9,611e07ecdcc96256ae8d5b80,611e78f86ad5fd0a2282fd39,
,,,,,,,0,190,190,252,1,X,3, ,6,9,,2000,2,5ebba48f7e02a0174ea835a9,001,2021-08-19_16h30.20.318,natb3,2021.2.3,Win32,60.0240096,5ebba48f7e02a0174ea835a9,611e07ecdcc96256ae8d5b80,611e78f86ad5fd0a2282fd39,
,,,,,,,0,191,191,148,1,X, , , , ,,2000,2,5ebba48f7e02a0174ea835a9,001,2021-08-19_16h30.20.318,natb3,2021.2.3,Win32,60.0240096,5ebba48f7e02a0174ea835a9,611e07ecdcc96256ae8d5b80,611e78f86ad5fd0a2282fd39,
,,,,,,,0,192,192,271,1,X, , , , ,,2500,2.5,5ebba48f7e02a0174ea835a9,001,2021-08-19_16h30.20.318,natb3,2021.2.3,Win32,60.0240096,5ebba48f7e02a0174ea835a9,611e07ecdcc96256ae8d5b80,611e78f86ad5fd0a2282fd39,
,,,,space,0.536,,0,193,193,120,1,U, , , , ,space,1500,1.5,5ebba48f7e02a0174ea835a9,001,2021-08-19_16h30.20.318,natb3,2021.2.3,Win32,60.0240096,5ebba48f7e02a0174ea835a9,611e07ecdcc96256ae8d5b80,611e78f86ad5fd0a2282fd39,
,,,,space,0.718,,0,194,194,8,1,U, , , , ,space,1500,1.5,5ebba48f7e02a0174ea835a9,001,2021-08-19_16h30.20.318,natb3,2021.2.3,Win32,60.0240096,5ebba48f7e02a0174ea835a9,611e07ecdcc96256ae8d5b80,611e78f86ad5fd0a2282fd39,
,,,,space,0.783,,0,195,195,312,1,K, , , , ,space,2000,2,5ebba48f7e02a0174ea835a9,001,2021-08-19_16h30.20.318,natb3,2021.2.3,Win32,60.0240096,5ebba48f7e02a0174ea835a9,611e07ecdcc96256ae8d5b80,611e78f86ad5fd0a2282fd39,
,,,,space,0.45,,0,196,196,13,1,A, , , , ,space,2000,2,5ebba48f7e02a0174ea835a9,001,2021-08-19_16h30.20.318,natb3,2021.2.3,Win32,60.0240096,5ebba48f7e02a0174ea835a9,611e07ecdcc96256ae8d5b80,611e78f86ad5fd0a2282fd39,
,,,,space,0.501,,0,197,197,330,1,T, , , , ,space,2500,2.5,5ebba48f7e02a0174ea835a9,001,2021-08-19_16h30.20.318,natb3,2021.2.3,Win32,60.0240096,5ebba48f7e02a0174ea835a9,611e07ecdcc96256ae8d5b80,611e78f86ad5fd0a2282fd39,
,,,,space,0.416,,0,198,198,24,1,L, , , , ,space,2500,2.5,5ebba48f7e02a0174ea835a9,001,2021-08-19_16h30.20.318,natb3,2021.2.3,Win32,60.0240096,5ebba48f7e02a0174ea835a9,611e07ecdcc96256ae8d5b80,611e78f86ad5fd0a2282fd39,
,,,,,,,0,199,199,35,1,X, , , , ,,2500,2.5,5ebba48f7e02a0174ea835a9,001,2021-08-19_16h30.20.318,natb3,2021.2.3,Win32,60.0240096,5ebba48f7e02a0174ea835a9,611e07ecdcc96256ae8d5b80,611e78f86ad5fd0a2282fd39,
,,,,space,0.399,,0,200,200,126,1,A, , , , ,space,2500,2.5,5ebba48f7e02a0174ea835a9,001,2021-08-19_16h30.20.318,natb3,2021.2.3,Win32,60.0240096,5ebba48f7e02a0174ea835a9,611e07ecdcc96256ae8d5b80,611e78f86ad5fd0a2282fd39,
,,,,space,0.386,,0,201,201,214,1,W, , , , ,space,2000,2,5ebba48f7e02a0174ea835a9,001,2021-08-19_16h30.20.318,natb3,2021.2.3,Win32,60.0240096,5ebba48f7e02a0174ea835a9,611e07ecdcc96256ae8d5b80,611e78f86ad5fd0a2282fd39,
,,,,space,0.502,,0,202,202,193,1,S, , , , ,space,2500,2.5,5ebba48f7e02a0174ea835a9,001,2021-08-19_16h30.20.318,natb3,2021.2.3,Win32,60.0240096,5ebba48f7e02a0174ea835a9,611e07ecdcc96256ae8d5b80,611e78f86ad5fd0a2282fd39,
,,,,space,0.471,,0,203,203,302,1,X, , , , ,,2000,2,5ebba48f7e02a0174ea835a9,001,2021-08-19_16h30.20.318,natb3,2021.2.3,Win32,60.0240096,5ebba48f7e02a0174ea835a9,611e07ecdcc96256ae8d5b80,611e78f86ad5fd0a2282fd39,
,,,,space,0.534,,0,204,204,217,1,T, , , , ,space,2500,2.5,5ebba48f7e02a0174ea835a9,001,2021-08-19_16h30.20.318,natb3,2021.2.3,Win32,60.0240096,5ebba48f7e02a0174ea835a9,611e07ecdcc96256ae8d5b80,611e78f86ad5fd0a2282fd39,
,,,,space,0.354,,0,205,205,269,1,A, , , , ,space,2500,2.5,5ebba48f7e02a0174ea835a9,001,2021-08-19_16h30.20.318,natb3,2021.2.3,Win32,60.0240096,5ebba48f7e02a0174ea835a9,611e07ecdcc96256ae8d5b80,611e78f86ad5fd0a2282fd39,
,,,,space,0.384,,0,206,206,306,1,D, , , , ,space,2000,2,5ebba48f7e02a0174ea835a9,001,2021-08-19_16h30.20.318,natb3,2021.2.3,Win32,60.0240096,5ebba48f7e02a0174ea835a9,611e07ecdcc96256ae8d5b80,611e78f86ad5fd0a2282fd39,
,,,,space,0.496,,0,207,207,251,1,B, , , , ,space,1500,1.5,5ebba48f7e02a0174ea835a9,001,2021-08-19_16h30.20.318,natb3,2021.2.3,Win32,60.0240096,5ebba48f7e02a0174ea835a9,611e07ecdcc96256ae8d5b80,611e78f86ad5fd0a2282fd39,
,,,,space,0.548,,0,208,208,246,1,L, , , , ,space,2500,2.5,5ebba48f7e02a0174ea835a9,001,2021-08-19_16h30.20.318,natb3,2021.2.3,Win32,60.0240096,5ebba48f7e02a0174ea835a9,611e07ecdcc96256ae8d5b80,611e78f86ad5fd0a2282fd39,
,,,,space,0.6,,0,209,209,205,1,C, , , , ,space,2000,2,5ebba48f7e02a0174ea835a9,001,2021-08-19_16h30.20.318,natb3,2021.2.3,Win32,60.0240096,5ebba48f7e02a0174ea835a9,611e07ecdcc96256ae8d5b80,611e78f86ad5fd0a2282fd39,
,,,,,,,0,210,210,133,1,X, ,4, ,6,,2500,2.5,5ebba48f7e02a0174ea835a9,001,2021-08-19_16h30.20.318,natb3,2021.2.3,Win32,60.0240096,5ebba48f7e02a0174ea835a9,611e07ecdcc96256ae8d5b80,611e78f86ad5fd0a2282fd39,
,,,,,,,0,211,211,248,1,X, ,1,5, ,,1500,1.5,5ebba48f7e02a0174ea835a9,001,2021-08-19_16h30.20.318,natb3,2021.2.3,Win32,60.0240096,5ebba48f7e02a0174ea835a9,611e07ecdcc96256ae8d5b80,611e78f86ad5fd0a2282fd39,
,,,,space,0.467,,0,212,212,53,1,G, , , , ,space,2500,2.5,5ebba48f7e02a0174ea835a9,001,2021-08-19_16h30.20.318,natb3,2021.2.3,Win32,60.0240096,5ebba48f7e02a0174ea835a9,611e07ecdcc96256ae8d5b80,611e78f86ad5fd0a2282fd39,
,,,,space,0.436,,0,213,213,72,1,T, , , , ,space,1500,1.5,5ebba48f7e02a0174ea835a9,001,2021-08-19_16h30.20.318,natb3,2021.2.3,Win32,60.0240096,5ebba48f7e02a0174ea835a9,611e07ecdcc96256ae8d5b80,611e78f86ad5fd0a2282fd39,
,,,,,,,0,214,214,162,1,X,1,6, ,2,,1500,1.5,5ebba48f7e02a0174ea835a9,001,2021-08-19_16h30.20.318,natb3,2021.2.3,Win32,60.0240096,5ebba48f7e02a0174ea835a9,611e07ecdcc96256ae8d5b80,611e78f86ad5fd0a2282fd39,
,,,,space,0.478,,0,215,215,79,1,P, , , , ,space,2000,2,5ebba48f7e02a0174ea835a9,001,2021-08-19_16h30.20.318,natb3,2021.2.3,Win32,60.0240096,5ebba48f7e02a0174ea835a9,611e07ecdcc96256ae8d5b80,611e78f86ad5fd0a2282fd39,
,,,,space,0.65,,0,216,216,57,1,K, , , , ,space,2500,2.5,5ebba48f7e02a0174ea835a9,001,2021-08-19_16h30.20.318,natb3,2021.2.3,Win32,60.0240096,5ebba48f7e02a0174ea835a9,611e07ecdcc96256ae8d5b80,611e78f86ad5fd0a2282fd39,
,,,,,,,0,217,217,233,1,X, ,2, ,5,,1500,1.5,5ebba48f7e02a0174ea835a9,001,2021-08-19_16h30.20.318,natb3,2021.2.3,Win32,60.0240096,5ebba48f7e02a0174ea835a9,611e07ecdcc96256ae8d5b80,611e78f86ad5fd0a2282fd39,
,,,,space,0.513,,0,218,218,86,1,G, , , , ,space,2000,2,5ebba48f7e02a0174ea835a9,001,2021-08-19_16h30.20.318,natb3,2021.2.3,Win32,60.0240096,5ebba48f7e02a0174ea835a9,611e07ecdcc96256ae8d5b80,611e78f86ad5fd0a2282fd39,
,,,,space,0.434,,0,219,219,316,1,Z, , , , ,space,1500,1.5,5ebba48f7e02a0174ea835a9,001,2021-08-19_16h30.20.318,natb3,2021.2.3,Win32,60.0240096,5ebba48f7e02a0174ea835a9,611e07ecdcc96256ae8d5b80,611e78f86ad5fd0a2282fd39,
,,,,space,0.705,,0,220,220,224,1,W, , , , ,space,1500,1.5,5ebba48f7e02a0174ea835a9,001,2021-08-19_16h30.20.318,natb3,2021.2.3,Win32,60.0240096,5ebba48f7e02a0174ea835a9,611e07ecdcc96256ae8d5b80,611e78f86ad5fd0a2282fd39,
,,,,space,0.468,,0,221,221,81,1,S, , , , ,space,2000,2,5ebba48f7e02a0174ea835a9,001,2021-08-19_16h30.20.318,natb3,2021.2.3,Win32,60.0240096,5ebba48f7e02a0174ea835a9,611e07ecdcc96256ae8d5b80,611e78f86ad5fd0a2282fd39,
,,,,space,0.467,,0,222,222,25,1,Z, , , , ,space,2500,2.5,5ebba48f7e02a0174ea835a9,001,2021-08-19_16h30.20.318,natb3,2021.2.3,Win32,60.0240096,5ebba48f7e02a0174ea835a9,611e07ecdcc96256ae8d5b80,611e78f86ad5fd0a2282fd39,
,,,,space,0.517,,0,223,223,267,1,P, , , , ,space,2000,2,5ebba48f7e02a0174ea835a9,001,2021-08-19_16h30.20.318,natb3,2021.2.3,Win32,60.0240096,5ebba48f7e02a0174ea835a9,611e07ecdcc96256ae8d5b80,611e78f86ad5fd0a2282fd39,
,,,,space,0.599,,0,224,224,65,1,M, , , , ,space,1500,1.5,5ebba48f7e02a0174ea835a9,001,2021-08-19_16h30.20.318,natb3,2021.2.3,Win32,60.0240096,5ebba48f7e02a0174ea835a9,611e07ecdcc96256ae8d5b80,611e78f86ad5fd0a2282fd39,
,,,,,,,0,225,225,207,1,X,9, ,2, ,,2500,2.5,5ebba48f7e02a0174ea835a9,001,2021-08-19_16h30.20.318,natb3,2021.2.3,Win32,60.0240096,5ebba48f7e02a0174ea835a9,611e07ecdcc96256ae8d5b80,611e78f86ad5fd0a2282fd39,
,,,,,,,0,226,226,31,1,X, , , , ,,1500,1.5,5ebba48f7e02a0174ea835a9,001,2021-08-19_16h30.20.318,natb3,2021.2.3,Win32,60.0240096,5ebba48f7e02a0174ea835a9,611e07ecdcc96256ae8d5b80,611e78f86ad5fd0a2282fd39,
,,,,space,0.584,,0,227,227,245,1,K, , , , ,space,2000,2,5ebba48f7e02a0174ea835a9,001,2021-08-19_16h30.20.318,natb3,2021.2.3,Win32,60.0240096,5ebba48f7e02a0174ea835a9,611e07ecdcc96256ae8d5b80,611e78f86ad5fd0a2282fd39,
,,,,,,,0,228,228,313,1,X, , , , ,,2500,2.5,5ebba48f7e02a0174ea835a9,001,2021-08-19_16h30.20.318,natb3,2021.2.3,Win32,60.0240096,5ebba48f7e02a0174ea835a9,611e07ecdcc96256ae8d5b80,611e78f86ad5fd0a2282fd39,
,,,,space,0.502,,0,229,229,128,1,D, , , , ,space,2500,2.5,5ebba48f7e02a0174ea835a9,001,2021-08-19_16h30.20.318,natb3,2021.2.3,Win32,60.0240096,5ebba48f7e02a0174ea835a9,611e07ecdcc96256ae8d5b80,611e78f86ad5fd0a2282fd39,
,,,,space,0.466,,0,230,230,196,1,F, , , , ,space,1500,1.5,5ebba48f7e02a0174ea835a9,001,2021-08-19_16h30.20.318,natb3,2021.2.3,Win32,60.0240096,5ebba48f7e02a0174ea835a9,611e07ecdcc96256ae8d5b80,611e78f86ad5fd0a2282fd39,
,,,,space,0.483,,0,231,231,234,1,P, , , , ,space,2000,2,5ebba48f7e02a0174ea835a9,001,2021-08-19_16h30.20.318,natb3,2021.2.3,Win32,60.0240096,5ebba48f7e02a0174ea835a9,611e07ecdcc96256ae8d5b80,611e78f86ad5fd0a2282fd39,
,,,,space,0.518,,0,232,232,216,1,R, , , , ,space,1500,1.5,5ebba48f7e02a0174ea835a9,001,2021-08-19_16h30.20.318,natb3,2021.2.3,Win32,60.0240096,5ebba48f7e02a0174ea835a9,611e07ecdcc96256ae8d5b80,611e78f86ad5fd0a2282fd39,
,,,,space,0.484,,0,233,233,11,1,P, , , , ,space,2500,2.5,5ebba48f7e02a0174ea835a9,001,2021-08-19_16h30.20.318,natb3,2021.2.3,Win32,60.0240096,5ebba48f7e02a0174ea835a9,611e07ecdcc96256ae8d5b80,611e78f86ad5fd0a2282fd39,
,,,,,,,0,234,234,218,1,X,1,3, ,8,,1500,1.5,5ebba48f7e02a0174ea835a9,001,2021-08-19_16h30.20.318,natb3,2021.2.3,Win32,60.0240096,5ebba48f7e02a0174ea835a9,611e07ecdcc96256ae8d5b80,611e78f86ad5fd0a2282fd39,
,,,,space,0.546,,0,235,235,157,1,A, , , , ,space,2500,2.5,5ebba48f7e02a0174ea835a9,001,2021-08-19_16h30.20.318,natb3,2021.2.3,Win32,60.0240096,5ebba48f7e02a0174ea835a9,611e07ecdcc96256ae8d5b80,611e78f86ad5fd0a2282fd39,
,,,,space,0.552,,0,236,236,254,1,M, , , , ,space,1500,1.5,5ebba48f7e02a0174ea835a9,001,2021-08-19_16h30.20.318,natb3,2021.2.3,Win32,60.0240096,5ebba48f7e02a0174ea835a9,611e07ecdcc96256ae8d5b80,611e78f86ad5fd0a2282fd39,
,,,,space,0.533,,0,237,237,199,1,J, , , , ,space,2500,2.5,5ebba48f7e02a0174ea835a9,001,2021-08-19_16h30.20.318,natb3,2021.2.3,Win32,60.0240096,5ebba48f7e02a0174ea835a9,611e07ecdcc96256ae8d5b80,611e78f86ad5fd0a2282fd39,
,,,,space,0.552,,0,238,238,152,1,U, , , , ,space,2000,2,5ebba48f7e02a0174ea835a9,001,2021-08-19_16h30.20.318,natb3,2021.2.3,Win32,60.0240096,5ebba48f7e02a0174ea835a9,611e07ecdcc96256ae8d5b80,611e78f86ad5fd0a2282fd39,
,,,,,,,0,239,239,255,1,X, , , , ,,1500,1.5,5ebba48f7e02a0174ea835a9,001,2021-08-19_16h30.20.318,natb3,2021.2.3,Win32,60.0240096,5ebba48f7e02a0174ea835a9,611e07ecdcc96256ae8d5b80,611e78f86ad5fd0a2282fd39,
,,,,,,,0,240,240,171,1,X, , , , ,,1500,1.5,5ebba48f7e02a0174ea835a9,001,2021-08-19_16h30.20.318,natb3,2021.2.3,Win32,60.0240096,5ebba48f7e02a0174ea835a9,611e07ecdcc96256ae8d5b80,611e78f86ad5fd0a2282fd39,
,,,,space,0.505,,0,241,241,112,1,Q, , , , ,space,2500,2.5,5ebba48f7e02a0174ea835a9,001,2021-08-19_16h30.20.318,natb3,2021.2.3,Win32,60.0240096,5ebba48f7e02a0174ea835a9,611e07ecdcc96256ae8d5b80,611e78f86ad5fd0a2282fd39,
,,,,space,0.483,,0,242,242,270,1,S, , , , ,space,1500,1.5,5ebba48f7e02a0174ea835a9,001,2021-08-19_16h30.20.318,natb3,2021.2.3,Win32,60.0240096,5ebba48f7e02a0174ea835a9,611e07ecdcc96256ae8d5b80,611e78f86ad5fd0a2282fd39,
,,,,space,0.518,,0,243,243,91,1,L, , , , ,space,2000,2,5ebba48f7e02a0174ea835a9,001,2021-08-19_16h30.20.318,natb3,2021.2.3,Win32,60.0240096,5ebba48f7e02a0174ea835a9,611e07ecdcc96256ae8d5b80,611e78f86ad5fd0a2282fd39,
,,,,space,0.517,,0,244,244,276,1,H, , , , ,space,2000,2,5ebba48f7e02a0174ea835a9,001,2021-08-19_16h30.20.318,natb3,2021.2.3,Win32,60.0240096,5ebba48f7e02a0174ea835a9,611e07ecdcc96256ae8d5b80,611e78f86ad5fd0a2282fd39,
,,,,space,0.454,,0,245,245,55,1,H, , , , ,space,2500,2.5,5ebba48f7e02a0174ea835a9,001,2021-08-19_16h30.20.318,natb3,2021.2.3,Win32,60.0240096,5ebba48f7e02a0174ea835a9,611e07ecdcc96256ae8d5b80,611e78f86ad5fd0a2282fd39,
,,,,,,,0,246,246,236,1,X,3, ,4,7,,2500,2.5,5ebba48f7e02a0174ea835a9,001,2021-08-19_16h30.20.318,natb3,2021.2.3,Win32,60.0240096,5ebba48f7e02a0174ea835a9,611e07ecdcc96256ae8d5b80,611e78f86ad5fd0a2282fd39,
,,,,space,0.564,,0,247,247,109,1,U, , , , ,space,1500,1.5,5ebba48f7e02a0174ea835a9,001,2021-08-19_16h30.20.318,natb3,2021.2.3,Win32,60.0240096,5ebba48f7e02a0174ea835a9,611e07ecdcc96256ae8d5b80,611e78f86ad5fd0a2282fd39,
,,,,space,0.383,,0,248,248,261,1,T, , , , ,space,2000,2,5ebba48f7e02a0174ea835a9,001,2021-08-19_16h30.20.318,natb3,2021.2.3,Win32,60.0240096,5ebba48f7e02a0174ea835a9,611e07ecdcc96256ae8d5b80,611e78f86ad5fd0a2282fd39,
,,,,space,0.386,,0,249,249,106,1,T, , , , ,space,1500,1.5,5ebba48f7e02a0174ea835a9,001,2021-08-19_16h30.20.318,natb3,2021.2.3,Win32,60.0240096,5ebba48f7e02a0174ea835a9,611e07ecdcc96256ae8d5b80,611e78f86ad5fd0a2282fd39,
,,,,space,0.586,,0,250,250,40,1,T, , , , ,space,1500,1.5,5ebba48f7e02a0174ea835a9,001,2021-08-19_16h30.20.318,natb3,2021.2.3,Win32,60.0240096,5ebba48f7e02a0174ea835a9,611e07ecdcc96256ae8d5b80,611e78f86ad5fd0a2282fd39,
,,,,space,0.501,,0,251,251,21,1,J, , , , ,space,1500,1.5,5ebba48f7e02a0174ea835a9,001,2021-08-19_16h30.20.318,natb3,2021.2.3,Win32,60.0240096,5ebba48f7e02a0174ea835a9,611e07ecdcc96256ae8d5b80,611e78f86ad5fd0a2282fd39,
,,,,,,,0,252,252,325,1,X, , , , ,,2500,2.5,5ebba48f7e02a0174ea835a9,001,2021-08-19_16h30.20.318,natb3,2021.2.3,Win32,60.0240096,5ebba48f7e02a0174ea835a9,611e07ecdcc96256ae8d5b80,611e78f86ad5fd0a2282fd39,
,,,,space,0.38,,0,253,253,295,1,X,8,7,5, ,,2500,2.5,5ebba48f7e02a0174ea835a9,001,2021-08-19_16h30.20.318,natb3,2021.2.3,Win32,60.0240096,5ebba48f7e02a0174ea835a9,611e07ecdcc96256ae8d5b80,611e78f86ad5fd0a2282fd39,
,,,,space,0.57,,0,254,254,219,1,Y, , , , ,space,2000,2,5ebba48f7e02a0174ea835a9,001,2021-08-19_16h30.20.318,natb3,2021.2.3,Win32,60.0240096,5ebba48f7e02a0174ea835a9,611e07ecdcc96256ae8d5b80,611e78f86ad5fd0a2282fd39,
,,,,,,,0,255,255,175,1,X,7, ,4,2,,1500,1.5,5ebba48f7e02a0174ea835a9,001,2021-08-19_16h30.20.318,natb3,2021.2.3,Win32,60.0240096,5ebba48f7e02a0174ea835a9,611e07ecdcc96256ae8d5b80,611e78f86ad5fd0a2282fd39,
,,,,space,0.463,,0,256,256,10,1,O, , , , ,space,2000,2,5ebba48f7e02a0174ea835a9,001,2021-08-19_16h30.20.318,natb3,2021.2.3,Win32,60.0240096,5ebba48f7e02a0174ea835a9,611e07ecdcc96256ae8d5b80,611e78f86ad5fd0a2282fd39,
,,,,space,0.567,,0,257,257,181,1,E, , , , ,space,1500,1.5,5ebba48f7e02a0174ea835a9,001,2021-08-19_16h30.20.318,natb3,2021.2.3,Win32,60.0240096,5ebba48f7e02a0174ea835a9,611e07ecdcc96256ae8d5b80,611e78f86ad5fd0a2282fd39,
,,,,space,0.665,,0,258,258,300,1,O, , , , ,space,2500,2.5,5ebba48f7e02a0174ea835a9,001,2021-08-19_16h30.20.318,natb3,2021.2.3,Win32,60.0240096,5ebba48f7e02a0174ea835a9,611e07ecdcc96256ae8d5b80,611e78f86ad5fd0a2282fd39,
,,,,space,0.533,,0,259,259,298,1,I, , , , ,space,2000,2,5ebba48f7e02a0174ea835a9,001,2021-08-19_16h30.20.318,natb3,2021.2.3,Win32,60.0240096,5ebba48f7e02a0174ea835a9,611e07ecdcc96256ae8d5b80,611e78f86ad5fd0a2282fd39,
,,,,space,0.467,,0,260,260,228,1,Y, , , , ,space,2000,2,5ebba48f7e02a0174ea835a9,001,2021-08-19_16h30.20.318,natb3,2021.2.3,Win32,60.0240096,5ebba48f7e02a0174ea835a9,611e07ecdcc96256ae8d5b80,611e78f86ad5fd0a2282fd39,
,,,,space,0.55,,0,261,261,334,1,O, , , , ,space,1500,1.5,5ebba48f7e02a0174ea835a9,001,2021-08-19_16h30.20.318,natb3,2021.2.3,Win32,60.0240096,5ebba48f7e02a0174ea835a9,611e07ecdcc96256ae8d5b80,611e78f86ad5fd0a2282fd39,
,,,,,,,0,262,262,69,1,X, , , , ,,1500,1.5,5ebba48f7e02a0174ea835a9,001,2021-08-19_16h30.20.318,natb3,2021.2.3,Win32,60.0240096,5ebba48f7e02a0174ea835a9,611e07ecdcc96256ae8d5b80,611e78f86ad5fd0a2282fd39,
,,,,space,0.499,,0,263,263,278,1,J, , , , ,space,2000,2,5ebba48f7e02a0174ea835a9,001,2021-08-19_16h30.20.318,natb3,2021.2.3,Win32,60.0240096,5ebba48f7e02a0174ea835a9,611e07ecdcc96256ae8d5b80,611e78f86ad5fd0a2282fd39,
,,,,space,0.633,,0,264,264,155,1,O, , , , ,space,1500,1.5,5ebba48f7e02a0174ea835a9,001,2021-08-19_16h30.20.318,natb3,2021.2.3,Win32,60.0240096,5ebba48f7e02a0174ea835a9,611e07ecdcc96256ae8d5b80,611e78f86ad5fd0a2282fd39,
,,,,space,0.52,,0,265,265,292,1,E, , , , ,space,2000,2,5ebba48f7e02a0174ea835a9,001,2021-08-19_16h30.20.318,natb3,2021.2.3,Win32,60.0240096,5ebba48f7e02a0174ea835a9,611e07ecdcc96256ae8d5b80,611e78f86ad5fd0a2282fd39,
,,,,space,0.467,,0,266,266,97,1,B, , , , ,space,2500,2.5,5ebba48f7e02a0174ea835a9,001,2021-08-19_16h30.20.318,natb3,2021.2.3,Win32,60.0240096,5ebba48f7e02a0174ea835a9,611e07ecdcc96256ae8d5b80,611e78f86ad5fd0a2282fd39,
,,,,,,,0,267,267,329,1,X,3,4, ,2,,2500,2.5,5ebba48f7e02a0174ea835a9,001,2021-08-19_16h30.20.318,natb3,2021.2.3,Win32,60.0240096,5ebba48f7e02a0174ea835a9,611e07ecdcc96256ae8d5b80,611e78f86ad5fd0a2282fd39,
,,,,space,0.545,,0,268,268,266,1,O, , , , ,space,1500,1.5,5ebba48f7e02a0174ea835a9,001,2021-08-19_16h30.20.318,natb3,2021.2.3,Win32,60.0240096,5ebba48f7e02a0174ea835a9,611e07ecdcc96256ae8d5b80,611e78f86ad5fd0a2282fd39,
,,,,space,0.467,,0,269,269,184,1,T, , , , ,space,2000,2,5ebba48f7e02a0174ea835a9,001,2021-08-19_16h30.20.318,natb3,2021.2.3,Win32,60.0240096,5ebba48f7e02a0174ea835a9,611e07ecdcc96256ae8d5b80,611e78f86ad5fd0a2282fd39,
,,,,space,0.616,,0,270,270,258,1,E, , , , ,space,1500,1.5,5ebba48f7e02a0174ea835a9,001,2021-08-19_16h30.20.318,natb3,2021.2.3,Win32,60.0240096,5ebba48f7e02a0174ea835a9,611e07ecdcc96256ae8d5b80,611e78f86ad5fd0a2282fd39,
,,,,space,0.417,,0,271,271,192,1,A, , , , ,space,2000,2,5ebba48f7e02a0174ea835a9,001,2021-08-19_16h30.20.318,natb3,2021.2.3,Win32,60.0240096,5ebba48f7e02a0174ea835a9,611e07ecdcc96256ae8d5b80,611e78f86ad5fd0a2282fd39,
,,,,space,0.378,,0,272,272,179,1,X, ,9, ,2,,1500,1.5,5ebba48f7e02a0174ea835a9,001,2021-08-19_16h30.20.318,natb3,2021.2.3,Win32,60.0240096,5ebba48f7e02a0174ea835a9,611e07ecdcc96256ae8d5b80,611e78f86ad5fd0a2282fd39,
,,,,space,0.397,,0,273,273,232,1,O, , , , ,space,2500,2.5,5ebba48f7e02a0174ea835a9,001,2021-08-19_16h30.20.318,natb3,2021.2.3,Win32,60.0240096,5ebba48f7e02a0174ea835a9,611e07ecdcc96256ae8d5b80,611e78f86ad5fd0a2282fd39,
,,,,space,0.55,,0,274,274,127,1,S, , , , ,space,2500,2.5,5ebba48f7e02a0174ea835a9,001,2021-08-19_16h30.20.318,natb3,2021.2.3,Win32,60.0240096,5ebba48f7e02a0174ea835a9,611e07ecdcc96256ae8d5b80,611e78f86ad5fd0a2282fd39,
,,,,space,0.433,,0,275,275,61,1,C, , , , ,space,2000,2,5ebba48f7e02a0174ea835a9,001,2021-08-19_16h30.20.318,natb3,2021.2.3,Win32,60.0240096,5ebba48f7e02a0174ea835a9,611e07ecdcc96256ae8d5b80,611e78f86ad5fd0a2282fd39,
,,,,,,,0,276,276,322,1,X, , ,1,6,,2000,2,5ebba48f7e02a0174ea835a9,001,2021-08-19_16h30.20.318,natb3,2021.2.3,Win32,60.0240096,5ebba48f7e02a0174ea835a9,611e07ecdcc96256ae8d5b80,611e78f86ad5fd0a2282fd39,
,,,,space,0.449,,0,277,277,37,1,E, , , , ,space,2500,2.5,5ebba48f7e02a0174ea835a9,001,2021-08-19_16h30.20.318,natb3,2021.2.3,Win32,60.0240096,5ebba48f7e02a0174ea835a9,611e07ecdcc96256ae8d5b80,611e78f86ad5fd0a2282fd39,
,,,,space,0.667,,0,278,278,307,1,F, , , , ,space,2500,2.5,5ebba48f7e02a0174ea835a9,001,2021-08-19_16h30.20.318,natb3,2021.2.3,Win32,60.0240096,5ebba48f7e02a0174ea835a9,611e07ecdcc96256ae8d5b80,611e78f86ad5fd0a2282fd39,
,,,,space,0.618,,0,279,279,226,1,R, , , , ,space,2000,2,5ebba48f7e02a0174ea835a9,001,2021-08-19_16h30.20.318,natb3,2021.2.3,Win32,60.0240096,5ebba48f7e02a0174ea835a9,611e07ecdcc96256ae8d5b80,611e78f86ad5fd0a2282fd39,
,,,,space,0.45,,0,280,280,198,1,H, , , , ,space,2500,2.5,5ebba48f7e02a0174ea835a9,001,2021-08-19_16h30.20.318,natb3,2021.2.3,Win32,60.0240096,5ebba48f7e02a0174ea835a9,611e07ecdcc96256ae8d5b80,611e78f86ad5fd0a2282fd39,
,,,,space,0.517,,0,281,281,151,1,Y, , , , ,space,2500,2.5,5ebba48f7e02a0174ea835a9,001,2021-08-19_16h30.20.318,natb3,2021.2.3,Win32,60.0240096,5ebba48f7e02a0174ea835a9,611e07ecdcc96256ae8d5b80,611e78f86ad5fd0a2282fd39,
,,,,space,0.451,,0,282,282,272,1,D, , , , ,space,2000,2,5ebba48f7e02a0174ea835a9,001,2021-08-19_16h30.20.318,natb3,2021.2.3,Win32,60.0240096,5ebba48f7e02a0174ea835a9,611e07ecdcc96256ae8d5b80,611e78f86ad5fd0a2282fd39,
,,,,space,0.501,,0,283,283,73,1,Y, , , , ,space,2000,2,5ebba48f7e02a0174ea835a9,001,2021-08-19_16h30.20.318,natb3,2021.2.3,Win32,60.0240096,5ebba48f7e02a0174ea835a9,611e07ecdcc96256ae8d5b80,611e78f86ad5fd0a2282fd39,
,,,,space,0.411,,0,284,284,273,1,X, , , , ,,2000,2,5ebba48f7e02a0174ea835a9,001,2021-08-19_16h30.20.318,natb3,2021.2.3,Win32,60.0240096,5ebba48f7e02a0174ea835a9,611e07ecdcc96256ae8d5b80,611e78f86ad5fd0a2282fd39,
,,,,space,0.501,,0,285,285,202,1,L, , , , ,space,2500,2.5,5ebba48f7e02a0174ea835a9,001,2021-08-19_16h30.20.318,natb3,2021.2.3,Win32,60.0240096,5ebba48f7e02a0174ea835a9,611e07ecdcc96256ae8d5b80,611e78f86ad5fd0a2282fd39,
,,,,,,,0,286,286,7,1,X, , , , ,,1500,1.5,5ebba48f7e02a0174ea835a9,001,2021-08-19_16h30.20.318,natb3,2021.2.3,Win32,60.0240096,5ebba48f7e02a0174ea835a9,611e07ecdcc96256ae8d5b80,611e78f86ad5fd0a2282fd39,
,,,,space,0.485,,0,287,287,262,1,Y, , , , ,space,2500,2.5,5ebba48f7e02a0174ea835a9,001,2021-08-19_16h30.20.318,natb3,2021.2.3,Win32,60.0240096,5ebba48f7e02a0174ea835a9,611e07ecdcc96256ae8d5b80,611e78f86ad5fd0a2282fd39,
,,,,space,0.451,,0,288,288,48,1,A, , , , ,space,2500,2.5,5ebba48f7e02a0174ea835a9,001,2021-08-19_16h30.20.318,natb3,2021.2.3,Win32,60.0240096,5ebba48f7e02a0174ea835a9,611e07ecdcc96256ae8d5b80,611e78f86ad5fd0a2282fd39,
,,,,space,0.6,,0,289,289,58,1,L, , , , ,space,2000,2,5ebba48f7e02a0174ea835a9,001,2021-08-19_16h30.20.318,natb3,2021.2.3,Win32,60.0240096,5ebba48f7e02a0174ea835a9,611e07ecdcc96256ae8d5b80,611e78f86ad5fd0a2282fd39,
,,,,space,0.6,,0,290,290,139,1,V, , , , ,space,2000,2,5ebba48f7e02a0174ea835a9,001,2021-08-19_16h30.20.318,natb3,2021.2.3,Win32,60.0240096,5ebba48f7e02a0174ea835a9,611e07ecdcc96256ae8d5b80,611e78f86ad5fd0a2282fd39,
,,,,,,,0,291,291,125,1,X, , , , ,,2000,2,5ebba48f7e02a0174ea835a9,001,2021-08-19_16h30.20.318,natb3,2021.2.3,Win32,60.0240096,5ebba48f7e02a0174ea835a9,611e07ecdcc96256ae8d5b80,611e78f86ad5fd0a2282fd39,
,,,,space,0.566,,0,292,292,264,1,U, , , , ,space,2000,2,5ebba48f7e02a0174ea835a9,001,2021-08-19_16h30.20.318,natb3,2021.2.3,Win32,60.0240096,5ebba48f7e02a0174ea835a9,611e07ecdcc96256ae8d5b80,611e78f86ad5fd0a2282fd39,
,,,,space,0.568,,0,293,293,47,1,P, , , , ,space,2000,2,5ebba48f7e02a0174ea835a9,001,2021-08-19_16h30.20.318,natb3,2021.2.3,Win32,60.0240096,5ebba48f7e02a0174ea835a9,611e07ecdcc96256ae8d5b80,611e78f86ad5fd0a2282fd39,
,,,,space,0.534,,0,294,294,76,1,I, , , , ,space,2000,2,5ebba48f7e02a0174ea835a9,001,2021-08-19_16h30.20.318,natb3,2021.2.3,Win32,60.0240096,5ebba48f7e02a0174ea835a9,611e07ecdcc96256ae8d5b80,611e78f86ad5fd0a2282fd39,
,,,,space,0.467,,0,295,295,164,1,H, , , , ,space,2500,2.5,5ebba48f7e02a0174ea835a9,001,2021-08-19_16h30.20.318,natb3,2021.2.3,Win32,60.0240096,5ebba48f7e02a0174ea835a9,611e07ecdcc96256ae8d5b80,611e78f86ad5fd0a2282fd39,
,,,,space,0.604,,0,296,296,178,1,Q, , , , ,space,1500,1.5,5ebba48f7e02a0174ea835a9,001,2021-08-19_16h30.20.318,natb3,2021.2.3,Win32,60.0240096,5ebba48f7e02a0174ea835a9,611e07ecdcc96256ae8d5b80,611e78f86ad5fd0a2282fd39,
,,,,,,,0,297,297,145,1,X, , , , ,,2000,2,5ebba48f7e02a0174ea835a9,001,2021-08-19_16h30.20.318,natb3,2021.2.3,Win32,60.0240096,5ebba48f7e02a0174ea835a9,611e07ecdcc96256ae8d5b80,611e78f86ad5fd0a2282fd39,
,,,,,,,0,298,298,158,1,X, , , , ,,1500,1.5,5ebba48f7e02a0174ea835a9,001,2021-08-19_16h30.20.318,natb3,2021.2.3,Win32,60.0240096,5ebba48f7e02a0174ea835a9,611e07ecdcc96256ae8d5b80,611e78f86ad5fd0a2282fd39,
,,,,space,0.503,,0,299,299,20,1,H, , , , ,space,1500,1.5,5ebba48f7e02a0174ea835a9,001,2021-08-19_16h30.20.318,natb3,2021.2.3,Win32,60.0240096,5ebba48f7e02a0174ea835a9,611e07ecdcc96256ae8d5b80,611e78f86ad5fd0a2282fd39,
,,,,space,0.477,,0,300,300,296,1,Y, , , , ,space,2500,2.5,5ebba48f7e02a0174ea835a9,001,2021-08-19_16h30.20.318,natb3,2021.2.3,Win32,60.0240096,5ebba48f7e02a0174ea835a9,611e07ecdcc96256ae8d5b80,611e78f86ad5fd0a2282fd39,
,,,,space,0.485,,0,301,301,231,1,I, , , , ,space,2500,2.5,5ebba48f7e02a0174ea835a9,001,2021-08-19_16h30.20.318,natb3,2021.2.3,Win32,60.0240096,5ebba48f7e02a0174ea835a9,611e07ecdcc96256ae8d5b80,611e78f86ad5fd0a2282fd39,
,,,,space,0.551,,0,302,302,70,1,E, , , , ,space,2500,2.5,5ebba48f7e02a0174ea835a9,001,2021-08-19_16h30.20.318,natb3,2021.2.3,Win32,60.0240096,5ebba48f7e02a0174ea835a9,611e07ecdcc96256ae8d5b80,611e78f86ad5fd0a2282fd39,
,,,,,,,0,303,303,259,1,X,8, , ,3,,2500,2.5,5ebba48f7e02a0174ea835a9,001,2021-08-19_16h30.20.318,natb3,2021.2.3,Win32,60.0240096,5ebba48f7e02a0174ea835a9,611e07ecdcc96256ae8d5b80,611e78f86ad5fd0a2282fd39,
,,,,space,0.532,,0,304,304,275,1,G, , , , ,space,1500,1.5,5ebba48f7e02a0174ea835a9,001,2021-08-19_16h30.20.318,natb3,2021.2.3,Win32,60.0240096,5ebba48f7e02a0174ea835a9,611e07ecdcc96256ae8d5b80,611e78f86ad5fd0a2282fd39,
,,,,,,,0,305,305,277,1,X,8,5, ,2,,2000,2,5ebba48f7e02a0174ea835a9,001,2021-08-19_16h30.20.318,natb3,2021.2.3,Win32,60.0240096,5ebba48f7e02a0174ea835a9,611e07ecdcc96256ae8d5b80,611e78f86ad5fd0a2282fd39,
,,,,space,0.364,,0,306,306,4,1,X, , , , ,,2000,2,5ebba48f7e02a0174ea835a9,001,2021-08-19_16h30.20.318,natb3,2021.2.3,Win32,60.0240096,5ebba48f7e02a0174ea835a9,611e07ecdcc96256ae8d5b80,611e78f86ad5fd0a2282fd39,
,,,,space,0.516,,0,307,307,71,1,R, , , , ,space,2500,2.5,5ebba48f7e02a0174ea835a9,001,2021-08-19_16h30.20.318,natb3,2021.2.3,Win32,60.0240096,5ebba48f7e02a0174ea835a9,611e07ecdcc96256ae8d5b80,611e78f86ad5fd0a2282fd39,
,,,,,,,0,308,308,191,1,X,1, ,3,4,,2500,2.5,5ebba48f7e02a0174ea835a9,001,2021-08-19_16h30.20.318,natb3,2021.2.3,Win32,60.0240096,5ebba48f7e02a0174ea835a9,611e07ecdcc96256ae8d5b80,611e78f86ad5fd0a2282fd39,
,,,,,,,0,309,309,82,1,X,4,6,1,7,,2000,2,5ebba48f7e02a0174ea835a9,001,2021-08-19_16h30.20.318,natb3,2021.2.3,Win32,60.0240096,5ebba48f7e02a0174ea835a9,611e07ecdcc96256ae8d5b80,611e78f86ad5fd0a2282fd39,
,,,,space,0.722,,0,310,310,227,1,T, , , , ,space,1500,1.5,5ebba48f7e02a0174ea835a9,001,2021-08-19_16h30.20.318,natb3,2021.2.3,Win32,60.0240096,5ebba48f7e02a0174ea835a9,611e07ecdcc96256ae8d5b80,611e78f86ad5fd0a2282fd39,
,,,,,,,0,311,311,84,1,X, , , , ,,2000,2,5ebba48f7e02a0174ea835a9,001,2021-08-19_16h30.20.318,natb3,2021.2.3,Win32,60.0240096,5ebba48f7e02a0174ea835a9,611e07ecdcc96256ae8d5b80,611e78f86ad5fd0a2282fd39,
,,,,space,0.549,,0,312,312,238,1,D, , , , ,space,1500,1.5,5ebba48f7e02a0174ea835a9,001,2021-08-19_16h30.20.318,natb3,2021.2.3,Win32,60.0240096,5ebba48f7e02a0174ea835a9,611e07ecdcc96256ae8d5b80,611e78f86ad5fd0a2282fd39,
,,,,space,0.687,,0,313,313,225,1,E, , , , ,space,2000,2,5ebba48f7e02a0174ea835a9,001,2021-08-19_16h30.20.318,natb3,2021.2.3,Win32,60.0240096,5ebba48f7e02a0174ea835a9,611e07ecdcc96256ae8d5b80,611e78f86ad5fd0a2282fd39,
,,,,space,0.472,,0,314,314,230,1,U, , , , ,space,1500,1.5,5ebba48f7e02a0174ea835a9,001,2021-08-19_16h30.20.318,natb3,2021.2.3,Win32,60.0240096,5ebba48f7e02a0174ea835a9,611e07ecdcc96256ae8d5b80,611e78f86ad5fd0a2282fd39,
,,,,,,,0,315,315,138,1,X,8,5, ,3,,2000,2,5ebba48f7e02a0174ea835a9,001,2021-08-19_16h30.20.318,natb3,2021.2.3,Win32,60.0240096,5ebba48f7e02a0174ea835a9,611e07ecdcc96256ae8d5b80,611e78f86ad5fd0a2282fd39,
,,,,space,0.523,,0,316,316,183,1,R, , , , ,space,1500,1.5,5ebba48f7e02a0174ea835a9,001,2021-08-19_16h30.20.318,natb3,2021.2.3,Win32,60.0240096,5ebba48f7e02a0174ea835a9,611e07ecdcc96256ae8d5b80,611e78f86ad5fd0a2282fd39,
,,,,space,0.499,,0,317,317,140,1,B, , , , ,space,2500,2.5,5ebba48f7e02a0174ea835a9,001,2021-08-19_16h30.20.318,natb3,2021.2.3,Win32,60.0240096,5ebba48f7e02a0174ea835a9,611e07ecdcc96256ae8d5b80,611e78f86ad5fd0a2282fd39,
,,,,space,0.501,,0,318,318,113,1,W, , , , ,space,2500,2.5,5ebba48f7e02a0174ea835a9,001,2021-08-19_16h30.20.318,natb3,2021.2.3,Win32,60.0240096,5ebba48f7e02a0174ea835a9,611e07ecdcc96256ae8d5b80,611e78f86ad5fd0a2282fd39,
,,,,,,,0,319,319,33,1,X, , , , ,,1500,1.5,5ebba48f7e02a0174ea835a9,001,2021-08-19_16h30.20.318,natb3,2021.2.3,Win32,60.0240096,5ebba48f7e02a0174ea835a9,611e07ecdcc96256ae8d5b80,611e78f86ad5fd0a2282fd39,
,,,,,,,0,320,320,315,1,X, , , , ,,2500,2.5,5ebba48f7e02a0174ea835a9,001,2021-08-19_16h30.20.318,natb3,2021.2.3,Win32,60.0240096,5ebba48f7e02a0174ea835a9,611e07ecdcc96256ae8d5b80,611e78f86ad5fd0a2282fd39,
,,,,space,0.366,,0,321,321,146,1,W, , , , ,space,1500,1.5,5ebba48f7e02a0174ea835a9,001,2021-08-19_16h30.20.318,natb3,2021.2.3,Win32,60.0240096,5ebba48f7e02a0174ea835a9,611e07ecdcc96256ae8d5b80,611e78f86ad5fd0a2282fd39,
,,,,space,0.514,,0,322,322,242,1,H, , , , ,space,2500,2.5,5ebba48f7e02a0174ea835a9,001,2021-08-19_16h30.20.318,natb3,2021.2.3,Win32,60.0240096,5ebba48f7e02a0174ea835a9,611e07ecdcc96256ae8d5b80,611e78f86ad5fd0a2282fd39,
,,,,space,0.452,,0,323,323,159,1,S, , , , ,space,2500,2.5,5ebba48f7e02a0174ea835a9,001,2021-08-19_16h30.20.318,natb3,2021.2.3,Win32,60.0240096,5ebba48f7e02a0174ea835a9,611e07ecdcc96256ae8d5b80,611e78f86ad5fd0a2282fd39,
,,,,space,0.532,,0,324,324,156,1,P, , , , ,space,1500,1.5,5ebba48f7e02a0174ea835a9,001,2021-08-19_16h30.20.318,natb3,2021.2.3,Win32,60.0240096,5ebba48f7e02a0174ea835a9,611e07ecdcc96256ae8d5b80,611e78f86ad5fd0a2282fd39,
,,,,space,0.451,,0,325,325,92,1,Z, , , , ,space,1500,1.5,5ebba48f7e02a0174ea835a9,001,2021-08-19_16h30.20.318,natb3,2021.2.3,Win32,60.0240096,5ebba48f7e02a0174ea835a9,611e07ecdcc96256ae8d5b80,611e78f86ad5fd0a2282fd39,
,,,,space,0.435,,0,326,326,324,1,Q, , , , ,space,2000,2,5ebba48f7e02a0174ea835a9,001,2021-08-19_16h30.20.318,natb3,2021.2.3,Win32,60.0240096,5ebba48f7e02a0174ea835a9,611e07ecdcc96256ae8d5b80,611e78f86ad5fd0a2282fd39,
,,,,space,0.383,,0,327,327,32,1,M, , , , ,space,1500,1.5,5ebba48f7e02a0174ea835a9,001,2021-08-19_16h30.20.318,natb3,2021.2.3,Win32,60.0240096,5ebba48f7e02a0174ea835a9,611e07ecdcc96256ae8d5b80,611e78f86ad5fd0a2282fd39,
,,,,space,0.399,,0,328,328,310,1,J, , , , ,space,2500,2.5,5ebba48f7e02a0174ea835a9,001,2021-08-19_16h30.20.318,natb3,2021.2.3,Win32,60.0240096,5ebba48f7e02a0174ea835a9,611e07ecdcc96256ae8d5b80,611e78f86ad5fd0a2282fd39,
,,,,space,0.433,,0,329,329,68,1,W, , , , ,space,2500,2.5,5ebba48f7e02a0174ea835a9,001,2021-08-19_16h30.20.318,natb3,2021.2.3,Win32,60.0240096,5ebba48f7e02a0174ea835a9,611e07ecdcc96256ae8d5b80,611e78f86ad5fd0a2282fd39,
,,,,space,0.516,,0,330,330,19,1,G, , , , ,space,1500,1.5,5ebba48f7e02a0174ea835a9,001,2021-08-19_16h30.20.318,natb3,2021.2.3,Win32,60.0240096,5ebba48f7e02a0174ea835a9,611e07ecdcc96256ae8d5b80,611e78f86ad5fd0a2282fd39,
,,,,space,0.435,,0,331,331,257,1,W, , , , ,space,2000,2,5ebba48f7e02a0174ea835a9,001,2021-08-19_16h30.20.318,natb3,2021.2.3,Win32,60.0240096,5ebba48f7e02a0174ea835a9,611e07ecdcc96256ae8d5b80,611e78f86ad5fd0a2282fd39,
,,,,space,0.419,,0,332,332,237,1,S, , , , ,space,1500,1.5,5ebba48f7e02a0174ea835a9,001,2021-08-19_16h30.20.318,natb3,2021.2.3,Win32,60.0240096,5ebba48f7e02a0174ea835a9,611e07ecdcc96256ae8d5b80,611e78f86ad5fd0a2282fd39,
,,,,space,0.503,,0,333,333,317,1,C, , , , ,space,2000,2,5ebba48f7e02a0174ea835a9,001,2021-08-19_16h30.20.318,natb3,2021.2.3,Win32,60.0240096,5ebba48f7e02a0174ea835a9,611e07ecdcc96256ae8d5b80,611e78f86ad5fd0a2282fd39,
,,,,space,0.455,,0,334,334,46,1,X, , , , ,,2000,2,5ebba48f7e02a0174ea835a9,001,2021-08-19_16h30.20.318,natb3,2021.2.3,Win32,60.0240096,5ebba48f7e02a0174ea835a9,611e07ecdcc96256ae8d5b80,611e78f86ad5fd0a2282fd39,
,,,,,,,0,335,335,102,1,X, ,6, , ,,1500,1.5,5ebba48f7e02a0174ea835a9,001,2021-08-19_16h30.20.318,natb3,2021.2.3,Win32,60.0240096,5ebba48f7e02a0174ea835a9,611e07ecdcc96256ae8d5b80,611e78f86ad5fd0a2282fd39,
