key_resp_2.keys,key_resp_2.rt,key_resp_3.keys,key_resp_3.rt,key_resp.keys,key_resp_4.keys,trials.thisRepN,trials.thisTrialN,trials.thisN,trials.thisIndex,trials.ran,stimulus,distractor1,distractor2,distractor3,distractor4,CorrAns,isi_duration,isi_dur_in_seconds,participant,session,date,expName,psychopyVersion,OS,frameRate,PROLIFIC_PID,STUDY_ID,SESSION_ID,key_resp.rt,key_resp_4.rt
return,14.378,space,11.7141,,,0,0,0,227,1,T, , , , ,space,1500,1.5,5ec123a045a53653acfa0d25,001,2021-08-19_16h28.01.235,natb3,2021.2.3,Win32,30.00840235,5ec123a045a53653acfa0d25,611e07ecdcc96256ae8d5b80,611e7864f214b20873d67f67,,
,,,,space,,0,1,1,270,1,S, , , , ,space,1500,1.5,5ec123a045a53653acfa0d25,001,2021-08-19_16h28.01.235,natb3,2021.2.3,Win32,30.00840235,5ec123a045a53653acfa0d25,611e07ecdcc96256ae8d5b80,611e7864f214b20873d67f67,0.4805,
,,,,space,,0,2,2,89,1,X,3, , , ,,2000,2,5ec123a045a53653acfa0d25,001,2021-08-19_16h28.01.235,natb3,2021.2.3,Win32,30.00840235,5ec123a045a53653acfa0d25,611e07ecdcc96256ae8d5b80,611e7864f214b20873d67f67,0.4509,
,,,,space,,0,3,3,281,1,Z, , , , ,space,1500,1.5,5ec123a045a53653acfa0d25,001,2021-08-19_16h28.01.235,natb3,2021.2.3,Win32,30.00840235,5ec123a045a53653acfa0d25,611e07ecdcc96256ae8d5b80,611e7864f214b20873d67f67,0.6905,
,,,,space,,0,4,4,159,1,S, , , , ,space,2500,2.5,5ec123a045a53653acfa0d25,001,2021-08-19_16h28.01.235,natb3,2021.2.3,Win32,30.00840235,5ec123a045a53653acfa0d25,611e07ecdcc96256ae8d5b80,611e7864f214b20873d67f67,0.572,
,,,,space,,0,5,5,124,1,P, , , , ,space,2000,2,5ec123a045a53653acfa0d25,001,2021-08-19_16h28.01.235,natb3,2021.2.3,Win32,30.00840235,5ec123a045a53653acfa0d25,611e07ecdcc96256ae8d5b80,611e7864f214b20873d67f67,0.6908,
,,,,space,,0,6,6,190,1,P, , , , ,space,2000,2,5ec123a045a53653acfa0d25,001,2021-08-19_16h28.01.235,natb3,2021.2.3,Win32,30.00840235,5ec123a045a53653acfa0d25,611e07ecdcc96256ae8d5b80,611e7864f214b20873d67f67,0.6951,
,,,,space,,0,7,7,45,1,O, , , , ,space,2000,2,5ec123a045a53653acfa0d25,001,2021-08-19_16h28.01.235,natb3,2021.2.3,Win32,30.00840235,5ec123a045a53653acfa0d25,611e07ecdcc96256ae8d5b80,611e7864f214b20873d67f67,0.7512,
,,,,,,0,8,8,107,1,X,9,3, ,2,,2000,2,5ec123a045a53653acfa0d25,001,2021-08-19_16h28.01.235,natb3,2021.2.3,Win32,30.00840235,5ec123a045a53653acfa0d25,611e07ecdcc96256ae8d5b80,611e7864f214b20873d67f67,,
,,,,space,,0,9,9,150,1,T, , , , ,space,2500,2.5,5ec123a045a53653acfa0d25,001,2021-08-19_16h28.01.235,natb3,2021.2.3,Win32,30.00840235,5ec123a045a53653acfa0d25,611e07ecdcc96256ae8d5b80,611e7864f214b20873d67f67,0.6566,
,,,,space,,0,10,10,177,1,M, , , , ,space,2500,2.5,5ec123a045a53653acfa0d25,001,2021-08-19_16h28.01.235,natb3,2021.2.3,Win32,30.00840235,5ec123a045a53653acfa0d25,611e07ecdcc96256ae8d5b80,611e7864f214b20873d67f67,0.7209,
,,,,space,,0,11,11,198,1,H, , , , ,space,2500,2.5,5ec123a045a53653acfa0d25,001,2021-08-19_16h28.01.235,natb3,2021.2.3,Win32,30.00840235,5ec123a045a53653acfa0d25,611e07ecdcc96256ae8d5b80,611e7864f214b20873d67f67,0.7192,
,,,,space,,0,12,12,136,1,Z, , , , ,space,2500,2.5,5ec123a045a53653acfa0d25,001,2021-08-19_16h28.01.235,natb3,2021.2.3,Win32,30.00840235,5ec123a045a53653acfa0d25,611e07ecdcc96256ae8d5b80,611e7864f214b20873d67f67,0.6882,
,,,,,,0,13,13,33,1,X, , , , ,,1500,1.5,5ec123a045a53653acfa0d25,001,2021-08-19_16h28.01.235,natb3,2021.2.3,Win32,30.00840235,5ec123a045a53653acfa0d25,611e07ecdcc96256ae8d5b80,611e7864f214b20873d67f67,,
,,,,space,,0,14,14,290,1,W, , , , ,space,1500,1.5,5ec123a045a53653acfa0d25,001,2021-08-19_16h28.01.235,natb3,2021.2.3,Win32,30.00840235,5ec123a045a53653acfa0d25,611e07ecdcc96256ae8d5b80,611e7864f214b20873d67f67,0.5997,
,,,,space,,0,15,15,316,1,Z, , , , ,space,1500,1.5,5ec123a045a53653acfa0d25,001,2021-08-19_16h28.01.235,natb3,2021.2.3,Win32,30.00840235,5ec123a045a53653acfa0d25,611e07ecdcc96256ae8d5b80,611e7864f214b20873d67f67,0.5956,
,,,,,,0,16,16,180,1,W, , , , ,space,2000,2,5ec123a045a53653acfa0d25,001,2021-08-19_16h28.01.235,natb3,2021.2.3,Win32,30.00840235,5ec123a045a53653acfa0d25,611e07ecdcc96256ae8d5b80,611e7864f214b20873d67f67,,
,,,,,,0,17,17,200,1,X,7, ,5,3,,1500,1.5,5ec123a045a53653acfa0d25,001,2021-08-19_16h28.01.235,natb3,2021.2.3,Win32,30.00840235,5ec123a045a53653acfa0d25,611e07ecdcc96256ae8d5b80,611e7864f214b20873d67f67,,
,,,,space,,0,18,18,65,1,M, , , , ,space,1500,1.5,5ec123a045a53653acfa0d25,001,2021-08-19_16h28.01.235,natb3,2021.2.3,Win32,30.00840235,5ec123a045a53653acfa0d25,611e07ecdcc96256ae8d5b80,611e7864f214b20873d67f67,0.6007,
,,,,,,0,19,19,114,1,E, , , , ,space,2000,2,5ec123a045a53653acfa0d25,001,2021-08-19_16h28.01.235,natb3,2021.2.3,Win32,30.00840235,5ec123a045a53653acfa0d25,611e07ecdcc96256ae8d5b80,611e7864f214b20873d67f67,,
,,,,,,0,20,20,230,1,U, , , , ,space,1500,1.5,5ec123a045a53653acfa0d25,001,2021-08-19_16h28.01.235,natb3,2021.2.3,Win32,30.00840235,5ec123a045a53653acfa0d25,611e07ecdcc96256ae8d5b80,611e7864f214b20873d67f67,,
,,,,space,,0,21,21,167,1,K, , , , ,space,1500,1.5,5ec123a045a53653acfa0d25,001,2021-08-19_16h28.01.235,natb3,2021.2.3,Win32,30.00840235,5ec123a045a53653acfa0d25,611e07ecdcc96256ae8d5b80,611e7864f214b20873d67f67,0.6015,
,,,,space,,0,22,22,250,1,V, , , , ,space,2000,2,5ec123a045a53653acfa0d25,001,2021-08-19_16h28.01.235,natb3,2021.2.3,Win32,30.00840235,5ec123a045a53653acfa0d25,611e07ecdcc96256ae8d5b80,611e7864f214b20873d67f67,0.4839,
,,,,space,,0,23,23,156,1,P, , , , ,space,1500,1.5,5ec123a045a53653acfa0d25,001,2021-08-19_16h28.01.235,natb3,2021.2.3,Win32,30.00840235,5ec123a045a53653acfa0d25,611e07ecdcc96256ae8d5b80,611e7864f214b20873d67f67,0.4817,
,,,,,,0,24,24,145,1,X, , , , ,,2000,2,5ec123a045a53653acfa0d25,001,2021-08-19_16h28.01.235,natb3,2021.2.3,Win32,30.00840235,5ec123a045a53653acfa0d25,611e07ecdcc96256ae8d5b80,611e7864f214b20873d67f67,,
,,,,space,,0,25,25,52,1,F, , , , ,space,1500,1.5,5ec123a045a53653acfa0d25,001,2021-08-19_16h28.01.235,natb3,2021.2.3,Win32,30.00840235,5ec123a045a53653acfa0d25,611e07ecdcc96256ae8d5b80,611e7864f214b20873d67f67,0.4485,
,,,,space,,0,26,26,284,1,V, , , , ,space,2500,2.5,5ec123a045a53653acfa0d25,001,2021-08-19_16h28.01.235,natb3,2021.2.3,Win32,30.00840235,5ec123a045a53653acfa0d25,611e07ecdcc96256ae8d5b80,611e7864f214b20873d67f67,0.5982,
,,,,,,0,27,27,271,1,X, , , , ,,2500,2.5,5ec123a045a53653acfa0d25,001,2021-08-19_16h28.01.235,natb3,2021.2.3,Win32,30.00840235,5ec123a045a53653acfa0d25,611e07ecdcc96256ae8d5b80,611e7864f214b20873d67f67,,
,,,,space,,0,28,28,214,1,W, , , , ,space,2000,2,5ec123a045a53653acfa0d25,001,2021-08-19_16h28.01.235,natb3,2021.2.3,Win32,30.00840235,5ec123a045a53653acfa0d25,611e07ecdcc96256ae8d5b80,611e7864f214b20873d67f67,0.4789,
,,,,space,,0,29,29,205,1,C, , , , ,space,2000,2,5ec123a045a53653acfa0d25,001,2021-08-19_16h28.01.235,natb3,2021.2.3,Win32,30.00840235,5ec123a045a53653acfa0d25,611e07ecdcc96256ae8d5b80,611e7864f214b20873d67f67,0.448,
,,,,space,,0,30,30,83,1,D, , , , ,space,2000,2,5ec123a045a53653acfa0d25,001,2021-08-19_16h28.01.235,natb3,2021.2.3,Win32,30.00840235,5ec123a045a53653acfa0d25,611e07ecdcc96256ae8d5b80,611e7864f214b20873d67f67,0.4783,
,,,,space,,0,31,31,147,1,E, , , , ,space,2000,2,5ec123a045a53653acfa0d25,001,2021-08-19_16h28.01.235,natb3,2021.2.3,Win32,30.00840235,5ec123a045a53653acfa0d25,611e07ecdcc96256ae8d5b80,611e7864f214b20873d67f67,0.5359,
,,,,space,,0,32,32,80,1,A, , , , ,space,2000,2,5ec123a045a53653acfa0d25,001,2021-08-19_16h28.01.235,natb3,2021.2.3,Win32,30.00840235,5ec123a045a53653acfa0d25,611e07ecdcc96256ae8d5b80,611e7864f214b20873d67f67,0.5084,
,,,,,,0,33,33,116,1,X, , , , ,,2000,2,5ec123a045a53653acfa0d25,001,2021-08-19_16h28.01.235,natb3,2021.2.3,Win32,30.00840235,5ec123a045a53653acfa0d25,611e07ecdcc96256ae8d5b80,611e7864f214b20873d67f67,,
,,,,space,,0,34,34,304,1,S, , , , ,space,2000,2,5ec123a045a53653acfa0d25,001,2021-08-19_16h28.01.235,natb3,2021.2.3,Win32,30.00840235,5ec123a045a53653acfa0d25,611e07ecdcc96256ae8d5b80,611e7864f214b20873d67f67,0.4763,
,,,,space,,0,35,35,253,1,N, , , , ,space,2500,2.5,5ec123a045a53653acfa0d25,001,2021-08-19_16h28.01.235,natb3,2021.2.3,Win32,30.00840235,5ec123a045a53653acfa0d25,611e07ecdcc96256ae8d5b80,611e7864f214b20873d67f67,0.5697,
,,,,space,,0,36,36,202,1,L, , , , ,space,2500,2.5,5ec123a045a53653acfa0d25,001,2021-08-19_16h28.01.235,natb3,2021.2.3,Win32,30.00840235,5ec123a045a53653acfa0d25,611e07ecdcc96256ae8d5b80,611e7864f214b20873d67f67,0.3889,
,,,,space,,0,37,37,110,1,I, , , , ,space,1500,1.5,5ec123a045a53653acfa0d25,001,2021-08-19_16h28.01.235,natb3,2021.2.3,Win32,30.00840235,5ec123a045a53653acfa0d25,611e07ecdcc96256ae8d5b80,611e7864f214b20873d67f67,0.5379,
,,,,space,,0,38,38,314,1,L, , , , ,space,1500,1.5,5ec123a045a53653acfa0d25,001,2021-08-19_16h28.01.235,natb3,2021.2.3,Win32,30.00840235,5ec123a045a53653acfa0d25,611e07ecdcc96256ae8d5b80,611e7864f214b20873d67f67,0.5732,
,,,,space,,0,39,39,67,1,Q, , , , ,space,2000,2,5ec123a045a53653acfa0d25,001,2021-08-19_16h28.01.235,natb3,2021.2.3,Win32,30.00840235,5ec123a045a53653acfa0d25,611e07ecdcc96256ae8d5b80,611e7864f214b20873d67f67,0.5091,
,,,,space,,0,40,40,235,1,A, , , , ,space,1500,1.5,5ec123a045a53653acfa0d25,001,2021-08-19_16h28.01.235,natb3,2021.2.3,Win32,30.00840235,5ec123a045a53653acfa0d25,611e07ecdcc96256ae8d5b80,611e7864f214b20873d67f67,0.6317,
,,,,,,0,41,41,295,1,X,8,7,5, ,,2500,2.5,5ec123a045a53653acfa0d25,001,2021-08-19_16h28.01.235,natb3,2021.2.3,Win32,30.00840235,5ec123a045a53653acfa0d25,611e07ecdcc96256ae8d5b80,611e7864f214b20873d67f67,,
,,,,,,0,42,42,39,1,X,6,2, , ,,1500,1.5,5ec123a045a53653acfa0d25,001,2021-08-19_16h28.01.235,natb3,2021.2.3,Win32,30.00840235,5ec123a045a53653acfa0d25,611e07ecdcc96256ae8d5b80,611e7864f214b20873d67f67,,
,,,,,,0,43,43,318,1,X, , , , ,,1500,1.5,5ec123a045a53653acfa0d25,001,2021-08-19_16h28.01.235,natb3,2021.2.3,Win32,30.00840235,5ec123a045a53653acfa0d25,611e07ecdcc96256ae8d5b80,611e7864f214b20873d67f67,,
,,,,space,,0,44,44,164,1,H, , , , ,space,2500,2.5,5ec123a045a53653acfa0d25,001,2021-08-19_16h28.01.235,natb3,2021.2.3,Win32,30.00840235,5ec123a045a53653acfa0d25,611e07ecdcc96256ae8d5b80,611e7864f214b20873d67f67,0.54,
,,,,space,,0,45,45,265,1,I, , , , ,space,2000,2,5ec123a045a53653acfa0d25,001,2021-08-19_16h28.01.235,natb3,2021.2.3,Win32,30.00840235,5ec123a045a53653acfa0d25,611e07ecdcc96256ae8d5b80,611e7864f214b20873d67f67,0.5104,
,,,,space,,0,46,46,276,1,H, , , , ,space,2000,2,5ec123a045a53653acfa0d25,001,2021-08-19_16h28.01.235,natb3,2021.2.3,Win32,30.00840235,5ec123a045a53653acfa0d25,611e07ecdcc96256ae8d5b80,611e7864f214b20873d67f67,0.5665,
,,,,space,,0,47,47,28,1,V, , , , ,space,1500,1.5,5ec123a045a53653acfa0d25,001,2021-08-19_16h28.01.235,natb3,2021.2.3,Win32,30.00840235,5ec123a045a53653acfa0d25,611e07ecdcc96256ae8d5b80,611e7864f214b20873d67f67,0.4779,
,,,,space,,0,48,48,327,1,E, , , , ,space,1500,1.5,5ec123a045a53653acfa0d25,001,2021-08-19_16h28.01.235,natb3,2021.2.3,Win32,30.00840235,5ec123a045a53653acfa0d25,611e07ecdcc96256ae8d5b80,611e7864f214b20873d67f67,0.7152,
,,,,,,0,49,49,78,1,X, , , , ,,2000,2,5ec123a045a53653acfa0d25,001,2021-08-19_16h28.01.235,natb3,2021.2.3,Win32,30.00840235,5ec123a045a53653acfa0d25,611e07ecdcc96256ae8d5b80,611e7864f214b20873d67f67,,
,,,,space,,0,50,50,22,1,K, , , , ,space,2000,2,5ec123a045a53653acfa0d25,001,2021-08-19_16h28.01.235,natb3,2021.2.3,Win32,30.00840235,5ec123a045a53653acfa0d25,611e07ecdcc96256ae8d5b80,611e7864f214b20873d67f67,0.6905,
,,,,,,0,51,51,162,1,X,1,6, ,2,,1500,1.5,5ec123a045a53653acfa0d25,001,2021-08-19_16h28.01.235,natb3,2021.2.3,Win32,30.00840235,5ec123a045a53653acfa0d25,611e07ecdcc96256ae8d5b80,611e7864f214b20873d67f67,,
,,,,,,0,52,52,313,1,X, , , , ,,2500,2.5,5ec123a045a53653acfa0d25,001,2021-08-19_16h28.01.235,natb3,2021.2.3,Win32,30.00840235,5ec123a045a53653acfa0d25,611e07ecdcc96256ae8d5b80,611e7864f214b20873d67f67,,
,,,,space,,0,53,53,108,1,Y, , , , ,space,2500,2.5,5ec123a045a53653acfa0d25,001,2021-08-19_16h28.01.235,natb3,2021.2.3,Win32,30.00840235,5ec123a045a53653acfa0d25,611e07ecdcc96256ae8d5b80,611e7864f214b20873d67f67,0.7195,
,,,,space,,0,54,54,76,1,I, , , , ,space,2000,2,5ec123a045a53653acfa0d25,001,2021-08-19_16h28.01.235,natb3,2021.2.3,Win32,30.00840235,5ec123a045a53653acfa0d25,611e07ecdcc96256ae8d5b80,611e7864f214b20873d67f67,0.7758,
,,,,space,,0,55,55,309,1,H, , , , ,space,2500,2.5,5ec123a045a53653acfa0d25,001,2021-08-19_16h28.01.235,natb3,2021.2.3,Win32,30.00840235,5ec123a045a53653acfa0d25,611e07ecdcc96256ae8d5b80,611e7864f214b20873d67f67,0.4475,
,,,,,,0,56,56,175,1,X,7, ,4,2,,1500,1.5,5ec123a045a53653acfa0d25,001,2021-08-19_16h28.01.235,natb3,2021.2.3,Win32,30.00840235,5ec123a045a53653acfa0d25,611e07ecdcc96256ae8d5b80,611e7864f214b20873d67f67,,
,,,,space,,0,57,57,320,1,B, , , , ,space,1500,1.5,5ec123a045a53653acfa0d25,001,2021-08-19_16h28.01.235,natb3,2021.2.3,Win32,30.00840235,5ec123a045a53653acfa0d25,611e07ecdcc96256ae8d5b80,611e7864f214b20873d67f67,0.5684,
,,,,space,,0,58,58,8,1,U, , , , ,space,1500,1.5,5ec123a045a53653acfa0d25,001,2021-08-19_16h28.01.235,natb3,2021.2.3,Win32,30.00840235,5ec123a045a53653acfa0d25,611e07ecdcc96256ae8d5b80,611e7864f214b20873d67f67,0.8981,
,,,,space,,0,59,59,32,1,M, , , , ,space,1500,1.5,5ec123a045a53653acfa0d25,001,2021-08-19_16h28.01.235,natb3,2021.2.3,Win32,30.00840235,5ec123a045a53653acfa0d25,611e07ecdcc96256ae8d5b80,611e7864f214b20873d67f67,0.8705,
,,,,space,,0,60,60,119,1,Y, , , , ,space,2500,2.5,5ec123a045a53653acfa0d25,001,2021-08-19_16h28.01.235,natb3,2021.2.3,Win32,30.00840235,5ec123a045a53653acfa0d25,611e07ecdcc96256ae8d5b80,611e7864f214b20873d67f67,0.5341,
,,,,,,0,61,61,329,1,X,3,4, ,2,,2500,2.5,5ec123a045a53653acfa0d25,001,2021-08-19_16h28.01.235,natb3,2021.2.3,Win32,30.00840235,5ec123a045a53653acfa0d25,611e07ecdcc96256ae8d5b80,611e7864f214b20873d67f67,,
,,,,,,0,62,62,93,1,X,5, ,7, ,,2500,2.5,5ec123a045a53653acfa0d25,001,2021-08-19_16h28.01.235,natb3,2021.2.3,Win32,30.00840235,5ec123a045a53653acfa0d25,611e07ecdcc96256ae8d5b80,611e7864f214b20873d67f67,,
,,,,space,,0,63,63,196,1,F, , , , ,space,1500,1.5,5ec123a045a53653acfa0d25,001,2021-08-19_16h28.01.235,natb3,2021.2.3,Win32,30.00840235,5ec123a045a53653acfa0d25,611e07ecdcc96256ae8d5b80,611e7864f214b20873d67f67,0.6272,
,,,,space,,0,64,64,48,1,A, , , , ,space,2500,2.5,5ec123a045a53653acfa0d25,001,2021-08-19_16h28.01.235,natb3,2021.2.3,Win32,30.00840235,5ec123a045a53653acfa0d25,611e07ecdcc96256ae8d5b80,611e7864f214b20873d67f67,0.6309,
,,,,,,0,65,65,252,1,X,3, ,6,9,,2000,2,5ec123a045a53653acfa0d25,001,2021-08-19_16h28.01.235,natb3,2021.2.3,Win32,30.00840235,5ec123a045a53653acfa0d25,611e07ecdcc96256ae8d5b80,611e7864f214b20873d67f67,,
,,,,space,,0,66,66,101,1,Q, , , , ,space,2500,2.5,5ec123a045a53653acfa0d25,001,2021-08-19_16h28.01.235,natb3,2021.2.3,Win32,30.00840235,5ec123a045a53653acfa0d25,611e07ecdcc96256ae8d5b80,611e7864f214b20873d67f67,0.6892,
,,,,space,,0,67,67,37,1,E, , , , ,space,2500,2.5,5ec123a045a53653acfa0d25,001,2021-08-19_16h28.01.235,natb3,2021.2.3,Win32,30.00840235,5ec123a045a53653acfa0d25,611e07ecdcc96256ae8d5b80,611e7864f214b20873d67f67,0.5983,
,,,,space,,0,68,68,326,1,W, , , , ,space,2000,2,5ec123a045a53653acfa0d25,001,2021-08-19_16h28.01.235,natb3,2021.2.3,Win32,30.00840235,5ec123a045a53653acfa0d25,611e07ecdcc96256ae8d5b80,611e7864f214b20873d67f67,0.4476,
,,,,space,,0,69,69,30,1,N, , , , ,space,2500,2.5,5ec123a045a53653acfa0d25,001,2021-08-19_16h28.01.235,natb3,2021.2.3,Win32,30.00840235,5ec123a045a53653acfa0d25,611e07ecdcc96256ae8d5b80,611e7864f214b20873d67f67,0.5109,
,,,,space,,0,70,70,170,1,Z, , , , ,space,2000,2,5ec123a045a53653acfa0d25,001,2021-08-19_16h28.01.235,natb3,2021.2.3,Win32,30.00840235,5ec123a045a53653acfa0d25,611e07ecdcc96256ae8d5b80,611e7864f214b20873d67f67,0.5406,
,,,,space,,0,71,71,241,1,G, , , , ,space,2500,2.5,5ec123a045a53653acfa0d25,001,2021-08-19_16h28.01.235,natb3,2021.2.3,Win32,30.00840235,5ec123a045a53653acfa0d25,611e07ecdcc96256ae8d5b80,611e7864f214b20873d67f67,0.4791,
,,,,space,,0,72,72,182,1,X, , , , ,,1500,1.5,5ec123a045a53653acfa0d25,001,2021-08-19_16h28.01.235,natb3,2021.2.3,Win32,30.00840235,5ec123a045a53653acfa0d25,611e07ecdcc96256ae8d5b80,611e7864f214b20873d67f67,0.5658,
,,,,space,,0,73,73,111,1,O, , , , ,space,2000,2,5ec123a045a53653acfa0d25,001,2021-08-19_16h28.01.235,natb3,2021.2.3,Win32,30.00840235,5ec123a045a53653acfa0d25,611e07ecdcc96256ae8d5b80,611e7864f214b20873d67f67,0.7192,
,,,,space,,0,74,74,46,1,X, , , , ,,2000,2,5ec123a045a53653acfa0d25,001,2021-08-19_16h28.01.235,natb3,2021.2.3,Win32,30.00840235,5ec123a045a53653acfa0d25,611e07ecdcc96256ae8d5b80,611e7864f214b20873d67f67,0.417,
,,,,space,,0,75,75,331,1,Y, , , , ,space,2500,2.5,5ec123a045a53653acfa0d25,001,2021-08-19_16h28.01.235,natb3,2021.2.3,Win32,30.00840235,5ec123a045a53653acfa0d25,611e07ecdcc96256ae8d5b80,611e7864f214b20873d67f67,0.7761,
,,,,space,,0,76,76,128,1,D, , , , ,space,2500,2.5,5ec123a045a53653acfa0d25,001,2021-08-19_16h28.01.235,natb3,2021.2.3,Win32,30.00840235,5ec123a045a53653acfa0d25,611e07ecdcc96256ae8d5b80,611e7864f214b20873d67f67,0.7179,
,,,,space,,0,77,77,286,1,N, , , , ,space,1500,1.5,5ec123a045a53653acfa0d25,001,2021-08-19_16h28.01.235,natb3,2021.2.3,Win32,30.00840235,5ec123a045a53653acfa0d25,611e07ecdcc96256ae8d5b80,611e7864f214b20873d67f67,0.7134,
,,,,space,,0,78,78,26,1,C, , , , ,space,2000,2,5ec123a045a53653acfa0d25,001,2021-08-19_16h28.01.235,natb3,2021.2.3,Win32,30.00840235,5ec123a045a53653acfa0d25,611e07ecdcc96256ae8d5b80,611e7864f214b20873d67f67,0.656,
,,,,,,0,79,79,18,1,X, ,2,5,8,,2500,2.5,5ec123a045a53653acfa0d25,001,2021-08-19_16h28.01.235,natb3,2021.2.3,Win32,30.00840235,5ec123a045a53653acfa0d25,611e07ecdcc96256ae8d5b80,611e7864f214b20873d67f67,,
,,,,,,0,80,80,233,1,X, ,2, ,5,,1500,1.5,5ec123a045a53653acfa0d25,001,2021-08-19_16h28.01.235,natb3,2021.2.3,Win32,30.00840235,5ec123a045a53653acfa0d25,611e07ecdcc96256ae8d5b80,611e7864f214b20873d67f67,,
,,,,,,0,81,81,74,1,X, ,4,3,2,,1500,1.5,5ec123a045a53653acfa0d25,001,2021-08-19_16h28.01.235,natb3,2021.2.3,Win32,30.00840235,5ec123a045a53653acfa0d25,611e07ecdcc96256ae8d5b80,611e7864f214b20873d67f67,,
,,,,,,0,82,82,171,1,X, , , , ,,1500,1.5,5ec123a045a53653acfa0d25,001,2021-08-19_16h28.01.235,natb3,2021.2.3,Win32,30.00840235,5ec123a045a53653acfa0d25,611e07ecdcc96256ae8d5b80,611e7864f214b20873d67f67,,
,,,,space,,0,83,83,246,1,L, , , , ,space,2500,2.5,5ec123a045a53653acfa0d25,001,2021-08-19_16h28.01.235,natb3,2021.2.3,Win32,30.00840235,5ec123a045a53653acfa0d25,611e07ecdcc96256ae8d5b80,611e7864f214b20873d67f67,0.7184,
,,,,space,,0,84,84,226,1,R, , , , ,space,2000,2,5ec123a045a53653acfa0d25,001,2021-08-19_16h28.01.235,natb3,2021.2.3,Win32,30.00840235,5ec123a045a53653acfa0d25,611e07ecdcc96256ae8d5b80,611e7864f214b20873d67f67,0.6856,
,,,,space,,0,85,85,137,1,C, , , , ,space,2500,2.5,5ec123a045a53653acfa0d25,001,2021-08-19_16h28.01.235,natb3,2021.2.3,Win32,30.00840235,5ec123a045a53653acfa0d25,611e07ecdcc96256ae8d5b80,611e7864f214b20873d67f67,0.5693,
,,,,,,0,86,86,229,1,X,8, ,2,6,,2500,2.5,5ec123a045a53653acfa0d25,001,2021-08-19_16h28.01.235,natb3,2021.2.3,Win32,30.00840235,5ec123a045a53653acfa0d25,611e07ecdcc96256ae8d5b80,611e7864f214b20873d67f67,,
,,,,space,,0,87,87,6,1,Y, , , , ,space,2500,2.5,5ec123a045a53653acfa0d25,001,2021-08-19_16h28.01.235,natb3,2021.2.3,Win32,30.00840235,5ec123a045a53653acfa0d25,611e07ecdcc96256ae8d5b80,611e7864f214b20873d67f67,0.6578,
,,,,space,,0,88,88,57,1,K, , , , ,space,2500,2.5,5ec123a045a53653acfa0d25,001,2021-08-19_16h28.01.235,natb3,2021.2.3,Win32,30.00840235,5ec123a045a53653acfa0d25,611e07ecdcc96256ae8d5b80,611e7864f214b20873d67f67,0.7495,
,,,,space,,0,89,89,123,1,O, , , , ,space,1500,1.5,5ec123a045a53653acfa0d25,001,2021-08-19_16h28.01.235,natb3,2021.2.3,Win32,30.00840235,5ec123a045a53653acfa0d25,611e07ecdcc96256ae8d5b80,611e7864f214b20873d67f67,0.7199,
,,,,space,,0,90,90,72,1,T, , , , ,space,1500,1.5,5ec123a045a53653acfa0d25,001,2021-08-19_16h28.01.235,natb3,2021.2.3,Win32,30.00840235,5ec123a045a53653acfa0d25,611e07ecdcc96256ae8d5b80,611e7864f214b20873d67f67,0.7209,
,,,,space,,0,91,91,285,1,B, , , , ,space,1500,1.5,5ec123a045a53653acfa0d25,001,2021-08-19_16h28.01.235,natb3,2021.2.3,Win32,30.00840235,5ec123a045a53653acfa0d25,611e07ecdcc96256ae8d5b80,611e7864f214b20873d67f67,0.9015,
,,,,space,,0,92,92,92,1,Z, , , , ,space,1500,1.5,5ec123a045a53653acfa0d25,001,2021-08-19_16h28.01.235,natb3,2021.2.3,Win32,30.00840235,5ec123a045a53653acfa0d25,611e07ecdcc96256ae8d5b80,611e7864f214b20873d67f67,0.9021,
,,,,space,,0,93,93,140,1,B, , , , ,space,2500,2.5,5ec123a045a53653acfa0d25,001,2021-08-19_16h28.01.235,natb3,2021.2.3,Win32,30.00840235,5ec123a045a53653acfa0d25,611e07ecdcc96256ae8d5b80,611e7864f214b20873d67f67,0.5363,
,,,,,,0,94,94,129,1,X,2,3,5, ,,1500,1.5,5ec123a045a53653acfa0d25,001,2021-08-19_16h28.01.235,natb3,2021.2.3,Win32,30.00840235,5ec123a045a53653acfa0d25,611e07ecdcc96256ae8d5b80,611e7864f214b20873d67f67,,
,,,,space,,0,95,95,99,1,N, , , , ,space,2500,2.5,5ec123a045a53653acfa0d25,001,2021-08-19_16h28.01.235,natb3,2021.2.3,Win32,30.00840235,5ec123a045a53653acfa0d25,611e07ecdcc96256ae8d5b80,611e7864f214b20873d67f67,0.5043,
,,,,space,,0,96,96,47,1,P, , , , ,space,2000,2,5ec123a045a53653acfa0d25,001,2021-08-19_16h28.01.235,natb3,2021.2.3,Win32,30.00840235,5ec123a045a53653acfa0d25,611e07ecdcc96256ae8d5b80,611e7864f214b20873d67f67,0.66,
,,,,,,0,97,97,268,1,X,6, ,3, ,,2500,2.5,5ec123a045a53653acfa0d25,001,2021-08-19_16h28.01.235,natb3,2021.2.3,Win32,30.00840235,5ec123a045a53653acfa0d25,611e07ecdcc96256ae8d5b80,611e7864f214b20873d67f67,,
,,,,space,,0,98,98,332,1,U, , , , ,space,2000,2,5ec123a045a53653acfa0d25,001,2021-08-19_16h28.01.235,natb3,2021.2.3,Win32,30.00840235,5ec123a045a53653acfa0d25,611e07ecdcc96256ae8d5b80,611e7864f214b20873d67f67,0.6603,
,,,,space,,0,99,99,146,1,W, , , , ,space,1500,1.5,5ec123a045a53653acfa0d25,001,2021-08-19_16h28.01.235,natb3,2021.2.3,Win32,30.00840235,5ec123a045a53653acfa0d25,611e07ecdcc96256ae8d5b80,611e7864f214b20873d67f67,0.5972,
,,,,,,0,100,100,82,1,X,4,6,1,7,,2000,2,5ec123a045a53653acfa0d25,001,2021-08-19_16h28.01.235,natb3,2021.2.3,Win32,30.00840235,5ec123a045a53653acfa0d25,611e07ecdcc96256ae8d5b80,611e7864f214b20873d67f67,,
,,,,space,,0,101,101,3,1,R, , , , ,space,2000,2,5ec123a045a53653acfa0d25,001,2021-08-19_16h28.01.235,natb3,2021.2.3,Win32,30.00840235,5ec123a045a53653acfa0d25,611e07ecdcc96256ae8d5b80,611e7864f214b20873d67f67,0.5343,
,,,,,,0,102,102,195,1,X, , , , ,,1500,1.5,5ec123a045a53653acfa0d25,001,2021-08-19_16h28.01.235,natb3,2021.2.3,Win32,30.00840235,5ec123a045a53653acfa0d25,611e07ecdcc96256ae8d5b80,611e7864f214b20873d67f67,,
,,,,,,0,103,103,15,1,X, , , , ,,1500,1.5,5ec123a045a53653acfa0d25,001,2021-08-19_16h28.01.235,natb3,2021.2.3,Win32,30.00840235,5ec123a045a53653acfa0d25,611e07ecdcc96256ae8d5b80,611e7864f214b20873d67f67,,
,,,,space,,0,104,104,185,1,Y, , , , ,space,2500,2.5,5ec123a045a53653acfa0d25,001,2021-08-19_16h28.01.235,natb3,2021.2.3,Win32,30.00840235,5ec123a045a53653acfa0d25,611e07ecdcc96256ae8d5b80,611e7864f214b20873d67f67,0.5951,
,,,,,,0,105,105,122,1,X,1, , ,8,,1500,1.5,5ec123a045a53653acfa0d25,001,2021-08-19_16h28.01.235,natb3,2021.2.3,Win32,30.00840235,5ec123a045a53653acfa0d25,611e07ecdcc96256ae8d5b80,611e7864f214b20873d67f67,,
,,,,,,0,106,106,14,1,S, , , , ,space,2500,2.5,5ec123a045a53653acfa0d25,001,2021-08-19_16h28.01.235,natb3,2021.2.3,Win32,30.00840235,5ec123a045a53653acfa0d25,611e07ecdcc96256ae8d5b80,611e7864f214b20873d67f67,,
,,,,space,,0,107,107,19,1,G, , , , ,space,1500,1.5,5ec123a045a53653acfa0d25,001,2021-08-19_16h28.01.235,natb3,2021.2.3,Win32,30.00840235,5ec123a045a53653acfa0d25,611e07ecdcc96256ae8d5b80,611e7864f214b20873d67f67,0.5388,
,,,,,,0,108,108,125,1,X, , , , ,,2000,2,5ec123a045a53653acfa0d25,001,2021-08-19_16h28.01.235,natb3,2021.2.3,Win32,30.00840235,5ec123a045a53653acfa0d25,611e07ecdcc96256ae8d5b80,611e7864f214b20873d67f67,,
,,,,space,,0,109,109,212,1,Q, , , , ,space,2500,2.5,5ec123a045a53653acfa0d25,001,2021-08-19_16h28.01.235,natb3,2021.2.3,Win32,30.00840235,5ec123a045a53653acfa0d25,611e07ecdcc96256ae8d5b80,611e7864f214b20873d67f67,0.4167,
,,,,,,0,110,110,273,1,X, , , , ,,2000,2,5ec123a045a53653acfa0d25,001,2021-08-19_16h28.01.235,natb3,2021.2.3,Win32,30.00840235,5ec123a045a53653acfa0d25,611e07ecdcc96256ae8d5b80,611e7864f214b20873d67f67,,
,,,,space,,0,111,111,29,1,B, , , , ,space,1500,1.5,5ec123a045a53653acfa0d25,001,2021-08-19_16h28.01.235,natb3,2021.2.3,Win32,30.00840235,5ec123a045a53653acfa0d25,611e07ecdcc96256ae8d5b80,611e7864f214b20873d67f67,0.4781,
,,,,space,,0,112,112,222,1,O, , , , ,space,2000,2,5ec123a045a53653acfa0d25,001,2021-08-19_16h28.01.235,natb3,2021.2.3,Win32,30.00840235,5ec123a045a53653acfa0d25,611e07ecdcc96256ae8d5b80,611e7864f214b20873d67f67,0.7217,
,,,,space,,0,113,113,24,1,L, , , , ,space,2500,2.5,5ec123a045a53653acfa0d25,001,2021-08-19_16h28.01.235,natb3,2021.2.3,Win32,30.00840235,5ec123a045a53653acfa0d25,611e07ecdcc96256ae8d5b80,611e7864f214b20873d67f67,0.7164,
,,,,,,0,114,114,325,1,X, , , , ,,2500,2.5,5ec123a045a53653acfa0d25,001,2021-08-19_16h28.01.235,natb3,2021.2.3,Win32,30.00840235,5ec123a045a53653acfa0d25,611e07ecdcc96256ae8d5b80,611e7864f214b20873d67f67,,
,,,,space,,0,115,115,50,1,D, , , , ,space,1500,1.5,5ec123a045a53653acfa0d25,001,2021-08-19_16h28.01.235,natb3,2021.2.3,Win32,30.00840235,5ec123a045a53653acfa0d25,611e07ecdcc96256ae8d5b80,611e7864f214b20873d67f67,0.6913,
,,,,space,,0,116,116,75,1,U, , , , ,space,1500,1.5,5ec123a045a53653acfa0d25,001,2021-08-19_16h28.01.235,natb3,2021.2.3,Win32,30.00840235,5ec123a045a53653acfa0d25,611e07ecdcc96256ae8d5b80,611e7864f214b20873d67f67,0.6885,
,,,,space,,0,117,117,197,1,G, , , , ,space,2500,2.5,5ec123a045a53653acfa0d25,001,2021-08-19_16h28.01.235,natb3,2021.2.3,Win32,30.00840235,5ec123a045a53653acfa0d25,611e07ecdcc96256ae8d5b80,611e7864f214b20873d67f67,0.929,
,,,,space,,0,118,118,38,1,R, , , , ,space,2500,2.5,5ec123a045a53653acfa0d25,001,2021-08-19_16h28.01.235,natb3,2021.2.3,Win32,30.00840235,5ec123a045a53653acfa0d25,611e07ecdcc96256ae8d5b80,611e7864f214b20873d67f67,0.8413,
,,,,space,,0,119,119,215,1,E, , , , ,space,2500,2.5,5ec123a045a53653acfa0d25,001,2021-08-19_16h28.01.235,natb3,2021.2.3,Win32,30.00840235,5ec123a045a53653acfa0d25,611e07ecdcc96256ae8d5b80,611e7864f214b20873d67f67,0.656,
,,,,space,,0,120,120,254,1,M, , , , ,space,1500,1.5,5ec123a045a53653acfa0d25,001,2021-08-19_16h28.01.235,natb3,2021.2.3,Win32,30.00840235,5ec123a045a53653acfa0d25,611e07ecdcc96256ae8d5b80,611e7864f214b20873d67f67,0.6004,
,,,,,,0,121,121,263,1,X,4, ,6, ,,1500,1.5,5ec123a045a53653acfa0d25,001,2021-08-19_16h28.01.235,natb3,2021.2.3,Win32,30.00840235,5ec123a045a53653acfa0d25,611e07ecdcc96256ae8d5b80,611e7864f214b20873d67f67,,
,,,,space,,0,122,122,323,1,M, , , , ,space,2500,2.5,5ec123a045a53653acfa0d25,001,2021-08-19_16h28.01.235,natb3,2021.2.3,Win32,30.00840235,5ec123a045a53653acfa0d25,611e07ecdcc96256ae8d5b80,611e7864f214b20873d67f67,0.4519,
,,,,space,,0,123,123,84,1,X, , , , ,,2000,2,5ec123a045a53653acfa0d25,001,2021-08-19_16h28.01.235,natb3,2021.2.3,Win32,30.00840235,5ec123a045a53653acfa0d25,611e07ecdcc96256ae8d5b80,611e7864f214b20873d67f67,0.5442,
,,,,space,,0,124,124,334,1,O, , , , ,space,1500,1.5,5ec123a045a53653acfa0d25,001,2021-08-19_16h28.01.235,natb3,2021.2.3,Win32,30.00840235,5ec123a045a53653acfa0d25,611e07ecdcc96256ae8d5b80,611e7864f214b20873d67f67,0.9028,
,,,,space,,0,125,125,86,1,G, , , , ,space,2000,2,5ec123a045a53653acfa0d25,001,2021-08-19_16h28.01.235,natb3,2021.2.3,Win32,30.00840235,5ec123a045a53653acfa0d25,611e07ecdcc96256ae8d5b80,611e7864f214b20873d67f67,0.8978,
,,,,space,,0,126,126,63,1,B, , , , ,space,2000,2,5ec123a045a53653acfa0d25,001,2021-08-19_16h28.01.235,natb3,2021.2.3,Win32,30.00840235,5ec123a045a53653acfa0d25,611e07ecdcc96256ae8d5b80,611e7864f214b20873d67f67,0.6563,
,,,,space,,0,127,127,55,1,H, , , , ,space,2500,2.5,5ec123a045a53653acfa0d25,001,2021-08-19_16h28.01.235,natb3,2021.2.3,Win32,30.00840235,5ec123a045a53653acfa0d25,611e07ecdcc96256ae8d5b80,611e7864f214b20873d67f67,0.7533,
,,,,space,,0,128,128,242,1,H, , , , ,space,2500,2.5,5ec123a045a53653acfa0d25,001,2021-08-19_16h28.01.235,natb3,2021.2.3,Win32,30.00840235,5ec123a045a53653acfa0d25,611e07ecdcc96256ae8d5b80,611e7864f214b20873d67f67,0.632,
,,,,space,,0,129,129,247,1,Z, , , , ,space,1500,1.5,5ec123a045a53653acfa0d25,001,2021-08-19_16h28.01.235,natb3,2021.2.3,Win32,30.00840235,5ec123a045a53653acfa0d25,611e07ecdcc96256ae8d5b80,611e7864f214b20873d67f67,0.9264,
,,,,space,,0,130,130,300,1,O, , , , ,space,2500,2.5,5ec123a045a53653acfa0d25,001,2021-08-19_16h28.01.235,natb3,2021.2.3,Win32,30.00840235,5ec123a045a53653acfa0d25,611e07ecdcc96256ae8d5b80,611e7864f214b20873d67f67,0.7454,
,,,,,,0,131,131,4,1,X, , , , ,,2000,2,5ec123a045a53653acfa0d25,001,2021-08-19_16h28.01.235,natb3,2021.2.3,Win32,30.00840235,5ec123a045a53653acfa0d25,611e07ecdcc96256ae8d5b80,611e7864f214b20873d67f67,,
,,,,,,0,132,132,259,1,X,8, , ,3,,2500,2.5,5ec123a045a53653acfa0d25,001,2021-08-19_16h28.01.235,natb3,2021.2.3,Win32,30.00840235,5ec123a045a53653acfa0d25,611e07ecdcc96256ae8d5b80,611e7864f214b20873d67f67,,
,,,,,,0,133,133,12,1,X, , , , ,,1500,1.5,5ec123a045a53653acfa0d25,001,2021-08-19_16h28.01.235,natb3,2021.2.3,Win32,30.00840235,5ec123a045a53653acfa0d25,611e07ecdcc96256ae8d5b80,611e7864f214b20873d67f67,,
,,,,space,,0,134,134,312,1,K, , , , ,space,2000,2,5ec123a045a53653acfa0d25,001,2021-08-19_16h28.01.235,natb3,2021.2.3,Win32,30.00840235,5ec123a045a53653acfa0d25,611e07ecdcc96256ae8d5b80,611e7864f214b20873d67f67,0.7214,
,,,,space,,0,135,135,20,1,H, , , , ,space,1500,1.5,5ec123a045a53653acfa0d25,001,2021-08-19_16h28.01.235,natb3,2021.2.3,Win32,30.00840235,5ec123a045a53653acfa0d25,611e07ecdcc96256ae8d5b80,611e7864f214b20873d67f67,0.8063,
,,,,space,,0,136,136,240,1,F, , , , ,space,2500,2.5,5ec123a045a53653acfa0d25,001,2021-08-19_16h28.01.235,natb3,2021.2.3,Win32,30.00840235,5ec123a045a53653acfa0d25,611e07ecdcc96256ae8d5b80,611e7864f214b20873d67f67,0.5942,
,,,,,,0,137,137,148,1,X, , , , ,,2000,2,5ec123a045a53653acfa0d25,001,2021-08-19_16h28.01.235,natb3,2021.2.3,Win32,30.00840235,5ec123a045a53653acfa0d25,611e07ecdcc96256ae8d5b80,611e7864f214b20873d67f67,,
,,,,space,,0,138,138,219,1,Y, , , , ,space,2000,2,5ec123a045a53653acfa0d25,001,2021-08-19_16h28.01.235,natb3,2021.2.3,Win32,30.00840235,5ec123a045a53653acfa0d25,611e07ecdcc96256ae8d5b80,611e7864f214b20873d67f67,0.6299,
,,,,space,,0,139,139,199,1,J, , , , ,space,2500,2.5,5ec123a045a53653acfa0d25,001,2021-08-19_16h28.01.235,natb3,2021.2.3,Win32,30.00840235,5ec123a045a53653acfa0d25,611e07ecdcc96256ae8d5b80,611e7864f214b20873d67f67,0.6282,
,,,,,,0,140,140,25,1,Z, , , , ,space,2500,2.5,5ec123a045a53653acfa0d25,001,2021-08-19_16h28.01.235,natb3,2021.2.3,Win32,30.00840235,5ec123a045a53653acfa0d25,611e07ecdcc96256ae8d5b80,611e7864f214b20873d67f67,,
,,,,space,,0,141,141,94,1,C, , , , ,space,2000,2,5ec123a045a53653acfa0d25,001,2021-08-19_16h28.01.235,natb3,2021.2.3,Win32,30.00840235,5ec123a045a53653acfa0d25,611e07ecdcc96256ae8d5b80,611e7864f214b20873d67f67,0.6887,
,,,,space,,0,142,142,130,1,F, , , , ,space,2000,2,5ec123a045a53653acfa0d25,001,2021-08-19_16h28.01.235,natb3,2021.2.3,Win32,30.00840235,5ec123a045a53653acfa0d25,611e07ecdcc96256ae8d5b80,611e7864f214b20873d67f67,0.7155,
,,,,space,,0,143,143,224,1,W, , , , ,space,1500,1.5,5ec123a045a53653acfa0d25,001,2021-08-19_16h28.01.235,natb3,2021.2.3,Win32,30.00840235,5ec123a045a53653acfa0d25,611e07ecdcc96256ae8d5b80,611e7864f214b20873d67f67,0.7143,
,,,,space,,0,144,144,149,1,R, , , , ,space,2000,2,5ec123a045a53653acfa0d25,001,2021-08-19_16h28.01.235,natb3,2021.2.3,Win32,30.00840235,5ec123a045a53653acfa0d25,611e07ecdcc96256ae8d5b80,611e7864f214b20873d67f67,0.9611,
,,,,space,,0,145,145,278,1,J, , , , ,space,2000,2,5ec123a045a53653acfa0d25,001,2021-08-19_16h28.01.235,natb3,2021.2.3,Win32,30.00840235,5ec123a045a53653acfa0d25,611e07ecdcc96256ae8d5b80,611e7864f214b20873d67f67,0.9594,
,,,,space,,0,146,146,95,1,V, , , , ,space,1500,1.5,5ec123a045a53653acfa0d25,001,2021-08-19_16h28.01.235,natb3,2021.2.3,Win32,30.00840235,5ec123a045a53653acfa0d25,611e07ecdcc96256ae8d5b80,611e7864f214b20873d67f67,0.8057,
,,,,,,0,147,147,311,1,X,1,2,7,3,,2500,2.5,5ec123a045a53653acfa0d25,001,2021-08-19_16h28.01.235,natb3,2021.2.3,Win32,30.00840235,5ec123a045a53653acfa0d25,611e07ecdcc96256ae8d5b80,611e7864f214b20873d67f67,,
,,,,space,,0,148,148,274,1,F, , , , ,space,2000,2,5ec123a045a53653acfa0d25,001,2021-08-19_16h28.01.235,natb3,2021.2.3,Win32,30.00840235,5ec123a045a53653acfa0d25,611e07ecdcc96256ae8d5b80,611e7864f214b20873d67f67,0.9275,
,,,,space,,0,149,149,40,1,T, , , , ,space,1500,1.5,5ec123a045a53653acfa0d25,001,2021-08-19_16h28.01.235,natb3,2021.2.3,Win32,30.00840235,5ec123a045a53653acfa0d25,611e07ecdcc96256ae8d5b80,611e7864f214b20873d67f67,0.5957,
,,,,,,0,150,150,87,1,H, , , , ,space,1500,1.5,5ec123a045a53653acfa0d25,001,2021-08-19_16h28.01.235,natb3,2021.2.3,Win32,30.00840235,5ec123a045a53653acfa0d25,611e07ecdcc96256ae8d5b80,611e7864f214b20873d67f67,,
,,,,space,,0,151,151,165,1,J, , , , ,space,2500,2.5,5ec123a045a53653acfa0d25,001,2021-08-19_16h28.01.235,natb3,2021.2.3,Win32,30.00840235,5ec123a045a53653acfa0d25,611e07ecdcc96256ae8d5b80,611e7864f214b20873d67f67,0.6903,
,,,,space,,0,152,152,42,1,U, , , , ,space,1500,1.5,5ec123a045a53653acfa0d25,001,2021-08-19_16h28.01.235,natb3,2021.2.3,Win32,30.00840235,5ec123a045a53653acfa0d25,611e07ecdcc96256ae8d5b80,611e7864f214b20873d67f67,0.5692,
,,,,space,,0,153,153,303,1,A, , , , ,space,2000,2,5ec123a045a53653acfa0d25,001,2021-08-19_16h28.01.235,natb3,2021.2.3,Win32,30.00840235,5ec123a045a53653acfa0d25,611e07ecdcc96256ae8d5b80,611e7864f214b20873d67f67,0.6569,
,,,,space,,0,154,154,85,1,F, , , , ,space,2500,2.5,5ec123a045a53653acfa0d25,001,2021-08-19_16h28.01.235,natb3,2021.2.3,Win32,30.00840235,5ec123a045a53653acfa0d25,611e07ecdcc96256ae8d5b80,611e7864f214b20873d67f67,0.5075,
,,,,space,,0,155,155,139,1,V, , , , ,space,2000,2,5ec123a045a53653acfa0d25,001,2021-08-19_16h28.01.235,natb3,2021.2.3,Win32,30.00840235,5ec123a045a53653acfa0d25,611e07ecdcc96256ae8d5b80,611e7864f214b20873d67f67,0.658,
,,,,space,,0,156,156,144,1,Q, , , , ,space,2500,2.5,5ec123a045a53653acfa0d25,001,2021-08-19_16h28.01.235,natb3,2021.2.3,Win32,30.00840235,5ec123a045a53653acfa0d25,611e07ecdcc96256ae8d5b80,611e7864f214b20873d67f67,0.7468,
,,,,space,,0,157,157,154,1,I, , , , ,space,2500,2.5,5ec123a045a53653acfa0d25,001,2021-08-19_16h28.01.235,natb3,2021.2.3,Win32,30.00840235,5ec123a045a53653acfa0d25,611e07ecdcc96256ae8d5b80,611e7864f214b20873d67f67,0.7477,
,,,,,,0,158,158,239,1,X, , , , ,,2000,2,5ec123a045a53653acfa0d25,001,2021-08-19_16h28.01.235,natb3,2021.2.3,Win32,30.00840235,5ec123a045a53653acfa0d25,611e07ecdcc96256ae8d5b80,611e7864f214b20873d67f67,,
,,,,,,0,159,159,305,1,X, , , , ,,1500,1.5,5ec123a045a53653acfa0d25,001,2021-08-19_16h28.01.235,natb3,2021.2.3,Win32,30.00840235,5ec123a045a53653acfa0d25,611e07ecdcc96256ae8d5b80,611e7864f214b20873d67f67,,
,,,,,,0,160,160,54,1,X, , , , ,,2000,2,5ec123a045a53653acfa0d25,001,2021-08-19_16h28.01.235,natb3,2021.2.3,Win32,30.00840235,5ec123a045a53653acfa0d25,611e07ecdcc96256ae8d5b80,611e7864f214b20873d67f67,,
,,,,space,,0,161,161,73,1,Y, , , , ,space,2000,2,5ec123a045a53653acfa0d25,001,2021-08-19_16h28.01.235,natb3,2021.2.3,Win32,30.00840235,5ec123a045a53653acfa0d25,611e07ecdcc96256ae8d5b80,611e7864f214b20873d67f67,0.7117,
,,,,space,,0,162,162,64,1,N, , , , ,space,2000,2,5ec123a045a53653acfa0d25,001,2021-08-19_16h28.01.235,natb3,2021.2.3,Win32,30.00840235,5ec123a045a53653acfa0d25,611e07ecdcc96256ae8d5b80,611e7864f214b20873d67f67,0.8974,
,,,,,,0,163,163,288,1,M, , , , ,space,1500,1.5,5ec123a045a53653acfa0d25,001,2021-08-19_16h28.01.235,natb3,2021.2.3,Win32,30.00840235,5ec123a045a53653acfa0d25,611e07ecdcc96256ae8d5b80,611e7864f214b20873d67f67,,
,,,,,,0,164,164,191,1,X,1, ,3,4,,2500,2.5,5ec123a045a53653acfa0d25,001,2021-08-19_16h28.01.235,natb3,2021.2.3,Win32,30.00840235,5ec123a045a53653acfa0d25,611e07ecdcc96256ae8d5b80,611e7864f214b20873d67f67,,
,,,,,,0,165,165,118,1,X, , , , ,,2000,2,5ec123a045a53653acfa0d25,001,2021-08-19_16h28.01.235,natb3,2021.2.3,Win32,30.00840235,5ec123a045a53653acfa0d25,611e07ecdcc96256ae8d5b80,611e7864f214b20873d67f67,,
,,,,space,,0,166,166,1,1,W, , , , ,space,2000,2,5ec123a045a53653acfa0d25,001,2021-08-19_16h28.01.235,natb3,2021.2.3,Win32,30.00840235,5ec123a045a53653acfa0d25,611e07ecdcc96256ae8d5b80,611e7864f214b20873d67f67,0.7178,
,,,,space,space,0,167,167,135,1,K, , , , ,space,1500,1.5,5ec123a045a53653acfa0d25,001,2021-08-19_16h28.01.235,natb3,2021.2.3,Win32,30.00840235,5ec123a045a53653acfa0d25,611e07ecdcc96256ae8d5b80,611e7864f214b20873d67f67,0.7514,14.4663
,,,,,,0,168,168,218,1,X,1,3, ,8,,1500,1.5,5ec123a045a53653acfa0d25,001,2021-08-19_16h28.01.235,natb3,2021.2.3,Win32,30.00840235,5ec123a045a53653acfa0d25,611e07ecdcc96256ae8d5b80,611e7864f214b20873d67f67,,
,,,,space,,0,169,169,5,1,T, , , , ,space,2000,2,5ec123a045a53653acfa0d25,001,2021-08-19_16h28.01.235,natb3,2021.2.3,Win32,30.00840235,5ec123a045a53653acfa0d25,611e07ecdcc96256ae8d5b80,611e7864f214b20873d67f67,0.5973,
,,,,space,,0,170,170,267,1,P, , , , ,space,2000,2,5ec123a045a53653acfa0d25,001,2021-08-19_16h28.01.235,natb3,2021.2.3,Win32,30.00840235,5ec123a045a53653acfa0d25,611e07ecdcc96256ae8d5b80,611e7864f214b20873d67f67,0.6288,
,,,,space,,0,171,171,184,1,T, , , , ,space,2000,2,5ec123a045a53653acfa0d25,001,2021-08-19_16h28.01.235,natb3,2021.2.3,Win32,30.00840235,5ec123a045a53653acfa0d25,611e07ecdcc96256ae8d5b80,611e7864f214b20873d67f67,0.7466,
,,,,space,,0,172,172,289,1,Q, , , , ,space,2000,2,5ec123a045a53653acfa0d25,001,2021-08-19_16h28.01.235,natb3,2021.2.3,Win32,30.00840235,5ec123a045a53653acfa0d25,611e07ecdcc96256ae8d5b80,611e7864f214b20873d67f67,0.4822,
,,,,,,0,173,173,102,1,X, ,6, , ,,1500,1.5,5ec123a045a53653acfa0d25,001,2021-08-19_16h28.01.235,natb3,2021.2.3,Win32,30.00840235,5ec123a045a53653acfa0d25,611e07ecdcc96256ae8d5b80,611e7864f214b20873d67f67,,
,,,,space,,0,174,174,193,1,S, , , , ,space,2500,2.5,5ec123a045a53653acfa0d25,001,2021-08-19_16h28.01.235,natb3,2021.2.3,Win32,30.00840235,5ec123a045a53653acfa0d25,611e07ecdcc96256ae8d5b80,611e7864f214b20873d67f67,0.5656,
,,,,space,,0,175,175,216,1,R, , , , ,space,1500,1.5,5ec123a045a53653acfa0d25,001,2021-08-19_16h28.01.235,natb3,2021.2.3,Win32,30.00840235,5ec123a045a53653acfa0d25,611e07ecdcc96256ae8d5b80,611e7864f214b20873d67f67,0.6004,
,,,,space,,0,176,176,328,1,R, , , , ,space,1500,1.5,5ec123a045a53653acfa0d25,001,2021-08-19_16h28.01.235,natb3,2021.2.3,Win32,30.00840235,5ec123a045a53653acfa0d25,611e07ecdcc96256ae8d5b80,611e7864f214b20873d67f67,0.5397,
,,,,space,,0,177,177,279,1,K, , , , ,space,2500,2.5,5ec123a045a53653acfa0d25,001,2021-08-19_16h28.01.235,natb3,2021.2.3,Win32,30.00840235,5ec123a045a53653acfa0d25,611e07ecdcc96256ae8d5b80,611e7864f214b20873d67f67,0.6282,
,,,,space,,0,178,178,209,1,N, , , , ,space,2000,2,5ec123a045a53653acfa0d25,001,2021-08-19_16h28.01.235,natb3,2021.2.3,Win32,30.00840235,5ec123a045a53653acfa0d25,611e07ecdcc96256ae8d5b80,611e7864f214b20873d67f67,0.507,
,,,,space,,0,179,179,151,1,Y, , , , ,space,2500,2.5,5ec123a045a53653acfa0d25,001,2021-08-19_16h28.01.235,natb3,2021.2.3,Win32,30.00840235,5ec123a045a53653acfa0d25,611e07ecdcc96256ae8d5b80,611e7864f214b20873d67f67,0.5705,
,,,,space,,0,180,180,173,1,V, , , , ,space,1500,1.5,5ec123a045a53653acfa0d25,001,2021-08-19_16h28.01.235,natb3,2021.2.3,Win32,30.00840235,5ec123a045a53653acfa0d25,611e07ecdcc96256ae8d5b80,611e7864f214b20873d67f67,0.6304,
,,,,space,,0,181,181,160,1,D, , , , ,space,1500,1.5,5ec123a045a53653acfa0d25,001,2021-08-19_16h28.01.235,natb3,2021.2.3,Win32,30.00840235,5ec123a045a53653acfa0d25,611e07ecdcc96256ae8d5b80,611e7864f214b20873d67f67,0.5693,
,,,,,,0,182,182,287,1,X, ,2, ,9,,2000,2,5ec123a045a53653acfa0d25,001,2021-08-19_16h28.01.235,natb3,2021.2.3,Win32,30.00840235,5ec123a045a53653acfa0d25,611e07ecdcc96256ae8d5b80,611e7864f214b20873d67f67,,
,,,,space,,0,183,183,251,1,B, , , , ,space,1500,1.5,5ec123a045a53653acfa0d25,001,2021-08-19_16h28.01.235,natb3,2021.2.3,Win32,30.00840235,5ec123a045a53653acfa0d25,611e07ecdcc96256ae8d5b80,611e7864f214b20873d67f67,0.7481,
,,,,space,,0,184,184,244,1,J, , , , ,space,1500,1.5,5ec123a045a53653acfa0d25,001,2021-08-19_16h28.01.235,natb3,2021.2.3,Win32,30.00840235,5ec123a045a53653acfa0d25,611e07ecdcc96256ae8d5b80,611e7864f214b20873d67f67,0.6295,
,,,,space,,0,185,185,134,1,J, , , , ,space,2000,2,5ec123a045a53653acfa0d25,001,2021-08-19_16h28.01.235,natb3,2021.2.3,Win32,30.00840235,5ec123a045a53653acfa0d25,611e07ecdcc96256ae8d5b80,611e7864f214b20873d67f67,0.5405,
,,,,space,,0,186,186,169,1,L, , , , ,space,2500,2.5,5ec123a045a53653acfa0d25,001,2021-08-19_16h28.01.235,natb3,2021.2.3,Win32,30.00840235,5ec123a045a53653acfa0d25,611e07ecdcc96256ae8d5b80,611e7864f214b20873d67f67,0.5108,
,,,,space,,0,187,187,319,1,V, , , , ,space,2000,2,5ec123a045a53653acfa0d25,001,2021-08-19_16h28.01.235,natb3,2021.2.3,Win32,30.00840235,5ec123a045a53653acfa0d25,611e07ecdcc96256ae8d5b80,611e7864f214b20873d67f67,0.5041,
,,,,space,,0,188,188,109,1,U, , , , ,space,1500,1.5,5ec123a045a53653acfa0d25,001,2021-08-19_16h28.01.235,natb3,2021.2.3,Win32,30.00840235,5ec123a045a53653acfa0d25,611e07ecdcc96256ae8d5b80,611e7864f214b20873d67f67,0.4782,
,,,,,,0,189,189,166,1,X, , , , ,,2000,2,5ec123a045a53653acfa0d25,001,2021-08-19_16h28.01.235,natb3,2021.2.3,Win32,30.00840235,5ec123a045a53653acfa0d25,611e07ecdcc96256ae8d5b80,611e7864f214b20873d67f67,,
,,,,space,,0,190,190,71,1,R, , , , ,space,2500,2.5,5ec123a045a53653acfa0d25,001,2021-08-19_16h28.01.235,natb3,2021.2.3,Win32,30.00840235,5ec123a045a53653acfa0d25,611e07ecdcc96256ae8d5b80,611e7864f214b20873d67f67,0.4208,
,,,,space,,0,191,191,310,1,J, , , , ,space,2500,2.5,5ec123a045a53653acfa0d25,001,2021-08-19_16h28.01.235,natb3,2021.2.3,Win32,30.00840235,5ec123a045a53653acfa0d25,611e07ecdcc96256ae8d5b80,611e7864f214b20873d67f67,0.6309,
,,,,,,0,192,192,153,1,X,4,7, ,6,,2000,2,5ec123a045a53653acfa0d25,001,2021-08-19_16h28.01.235,natb3,2021.2.3,Win32,30.00840235,5ec123a045a53653acfa0d25,611e07ecdcc96256ae8d5b80,611e7864f214b20873d67f67,,
,,,,space,,0,193,193,58,1,L, , , , ,space,2000,2,5ec123a045a53653acfa0d25,001,2021-08-19_16h28.01.235,natb3,2021.2.3,Win32,30.00840235,5ec123a045a53653acfa0d25,611e07ecdcc96256ae8d5b80,611e7864f214b20873d67f67,0.7186,
,,,,space,,0,194,194,44,1,I, , , , ,space,2500,2.5,5ec123a045a53653acfa0d25,001,2021-08-19_16h28.01.235,natb3,2021.2.3,Win32,30.00840235,5ec123a045a53653acfa0d25,611e07ecdcc96256ae8d5b80,611e7864f214b20873d67f67,0.8087,
,,,,space,,0,195,195,257,1,W, , , , ,space,2000,2,5ec123a045a53653acfa0d25,001,2021-08-19_16h28.01.235,natb3,2021.2.3,Win32,30.00840235,5ec123a045a53653acfa0d25,611e07ecdcc96256ae8d5b80,611e7864f214b20873d67f67,0.6852,
,,,,space,,0,196,196,204,1,Z, , , , ,space,2000,2,5ec123a045a53653acfa0d25,001,2021-08-19_16h28.01.235,natb3,2021.2.3,Win32,30.00840235,5ec123a045a53653acfa0d25,611e07ecdcc96256ae8d5b80,611e7864f214b20873d67f67,0.7224,
,,,,space,,0,197,197,238,1,D, , , , ,space,1500,1.5,5ec123a045a53653acfa0d25,001,2021-08-19_16h28.01.235,natb3,2021.2.3,Win32,30.00840235,5ec123a045a53653acfa0d25,611e07ecdcc96256ae8d5b80,611e7864f214b20873d67f67,0.7803,
,,,,,,0,198,198,141,1,X,1, ,4,6,,1500,1.5,5ec123a045a53653acfa0d25,001,2021-08-19_16h28.01.235,natb3,2021.2.3,Win32,30.00840235,5ec123a045a53653acfa0d25,611e07ecdcc96256ae8d5b80,611e7864f214b20873d67f67,,
,,,,space,,0,199,199,283,1,C, , , , ,space,1500,1.5,5ec123a045a53653acfa0d25,001,2021-08-19_16h28.01.235,natb3,2021.2.3,Win32,30.00840235,5ec123a045a53653acfa0d25,611e07ecdcc96256ae8d5b80,611e7864f214b20873d67f67,0.5987,
,,,,space,,0,200,200,17,1,F, , , , ,space,2500,2.5,5ec123a045a53653acfa0d25,001,2021-08-19_16h28.01.235,natb3,2021.2.3,Win32,30.00840235,5ec123a045a53653acfa0d25,611e07ecdcc96256ae8d5b80,611e7864f214b20873d67f67,0.5368,
,,,,space,,0,201,201,306,1,D, , , , ,space,2000,2,5ec123a045a53653acfa0d25,001,2021-08-19_16h28.01.235,natb3,2021.2.3,Win32,30.00840235,5ec123a045a53653acfa0d25,611e07ecdcc96256ae8d5b80,611e7864f214b20873d67f67,0.4749,
,,,,space,,0,202,202,34,1,Q, , , , ,space,2500,2.5,5ec123a045a53653acfa0d25,001,2021-08-19_16h28.01.235,natb3,2021.2.3,Win32,30.00840235,5ec123a045a53653acfa0d25,611e07ecdcc96256ae8d5b80,611e7864f214b20873d67f67,0.633,
,,,,,,0,203,203,31,1,X, , , , ,,1500,1.5,5ec123a045a53653acfa0d25,001,2021-08-19_16h28.01.235,natb3,2021.2.3,Win32,30.00840235,5ec123a045a53653acfa0d25,611e07ecdcc96256ae8d5b80,611e7864f214b20873d67f67,,
,,,,space,,0,204,204,133,1,X, ,4, ,6,,2500,2.5,5ec123a045a53653acfa0d25,001,2021-08-19_16h28.01.235,natb3,2021.2.3,Win32,30.00840235,5ec123a045a53653acfa0d25,611e07ecdcc96256ae8d5b80,611e7864f214b20873d67f67,0.3893,
,,,,space,,0,205,205,217,1,T, , , , ,space,2500,2.5,5ec123a045a53653acfa0d25,001,2021-08-19_16h28.01.235,natb3,2021.2.3,Win32,30.00840235,5ec123a045a53653acfa0d25,611e07ecdcc96256ae8d5b80,611e7864f214b20873d67f67,0.5724,
,,,,space,,0,206,206,298,1,I, , , , ,space,2000,2,5ec123a045a53653acfa0d25,001,2021-08-19_16h28.01.235,natb3,2021.2.3,Win32,30.00840235,5ec123a045a53653acfa0d25,611e07ecdcc96256ae8d5b80,611e7864f214b20873d67f67,0.4177,
,,,,,,0,207,207,187,1,X, ,3,7,4,,1500,1.5,5ec123a045a53653acfa0d25,001,2021-08-19_16h28.01.235,natb3,2021.2.3,Win32,30.00840235,5ec123a045a53653acfa0d25,611e07ecdcc96256ae8d5b80,611e7864f214b20873d67f67,,
,,,,space,,0,208,208,189,1,O, , , , ,space,1500,1.5,5ec123a045a53653acfa0d25,001,2021-08-19_16h28.01.235,natb3,2021.2.3,Win32,30.00840235,5ec123a045a53653acfa0d25,611e07ecdcc96256ae8d5b80,611e7864f214b20873d67f67,0.6255,
,,,,space,,0,209,209,280,1,L, , , , ,space,1500,1.5,5ec123a045a53653acfa0d25,001,2021-08-19_16h28.01.235,natb3,2021.2.3,Win32,30.00840235,5ec123a045a53653acfa0d25,611e07ecdcc96256ae8d5b80,611e7864f214b20873d67f67,0.5397,
,,,,space,,0,210,210,9,1,I, , , , ,space,1500,1.5,5ec123a045a53653acfa0d25,001,2021-08-19_16h28.01.235,natb3,2021.2.3,Win32,30.00840235,5ec123a045a53653acfa0d25,611e07ecdcc96256ae8d5b80,611e7864f214b20873d67f67,0.5976,
,,,,space,,0,211,211,275,1,G, , , , ,space,1500,1.5,5ec123a045a53653acfa0d25,001,2021-08-19_16h28.01.235,natb3,2021.2.3,Win32,30.00840235,5ec123a045a53653acfa0d25,611e07ecdcc96256ae8d5b80,611e7864f214b20873d67f67,0.629,
,,,,space,,0,212,212,126,1,A, , , , ,space,2500,2.5,5ec123a045a53653acfa0d25,001,2021-08-19_16h28.01.235,natb3,2021.2.3,Win32,30.00840235,5ec123a045a53653acfa0d25,611e07ecdcc96256ae8d5b80,611e7864f214b20873d67f67,0.5719,
,,,,space,,0,213,213,245,1,K, , , , ,space,2000,2,5ec123a045a53653acfa0d25,001,2021-08-19_16h28.01.235,natb3,2021.2.3,Win32,30.00840235,5ec123a045a53653acfa0d25,611e07ecdcc96256ae8d5b80,611e7864f214b20873d67f67,0.5989,
,,,,,,0,214,214,207,1,X,9, ,2, ,,2500,2.5,5ec123a045a53653acfa0d25,001,2021-08-19_16h28.01.235,natb3,2021.2.3,Win32,30.00840235,5ec123a045a53653acfa0d25,611e07ecdcc96256ae8d5b80,611e7864f214b20873d67f67,,
,,,,space,,0,215,215,2,1,E, , , , ,space,2500,2.5,5ec123a045a53653acfa0d25,001,2021-08-19_16h28.01.235,natb3,2021.2.3,Win32,30.00840235,5ec123a045a53653acfa0d25,611e07ecdcc96256ae8d5b80,611e7864f214b20873d67f67,0.4482,
,,,,space,,0,216,216,88,1,J, , , , ,space,2500,2.5,5ec123a045a53653acfa0d25,001,2021-08-19_16h28.01.235,natb3,2021.2.3,Win32,30.00840235,5ec123a045a53653acfa0d25,611e07ecdcc96256ae8d5b80,611e7864f214b20873d67f67,0.5355,
,,,,space,,0,217,217,79,1,P, , , , ,space,2000,2,5ec123a045a53653acfa0d25,001,2021-08-19_16h28.01.235,natb3,2021.2.3,Win32,30.00840235,5ec123a045a53653acfa0d25,611e07ecdcc96256ae8d5b80,611e7864f214b20873d67f67,0.5379,
,,,,space,,0,218,218,333,1,I, , , , ,space,1500,1.5,5ec123a045a53653acfa0d25,001,2021-08-19_16h28.01.235,natb3,2021.2.3,Win32,30.00840235,5ec123a045a53653acfa0d25,611e07ecdcc96256ae8d5b80,611e7864f214b20873d67f67,0.6548,
,,,,space,,0,219,219,172,1,C, , , , ,space,1500,1.5,5ec123a045a53653acfa0d25,001,2021-08-19_16h28.01.235,natb3,2021.2.3,Win32,30.00840235,5ec123a045a53653acfa0d25,611e07ecdcc96256ae8d5b80,611e7864f214b20873d67f67,0.959,
,,,,space,,0,220,220,91,1,L, , , , ,space,2000,2,5ec123a045a53653acfa0d25,001,2021-08-19_16h28.01.235,natb3,2021.2.3,Win32,30.00840235,5ec123a045a53653acfa0d25,611e07ecdcc96256ae8d5b80,611e7864f214b20873d67f67,0.7796,
,,,,space,,0,221,221,127,1,S, , , , ,space,2500,2.5,5ec123a045a53653acfa0d25,001,2021-08-19_16h28.01.235,natb3,2021.2.3,Win32,30.00840235,5ec123a045a53653acfa0d25,611e07ecdcc96256ae8d5b80,611e7864f214b20873d67f67,0.4785,
,,,,,,0,222,222,69,1,X, , , , ,,1500,1.5,5ec123a045a53653acfa0d25,001,2021-08-19_16h28.01.235,natb3,2021.2.3,Win32,30.00840235,5ec123a045a53653acfa0d25,611e07ecdcc96256ae8d5b80,611e7864f214b20873d67f67,,
,,,,,,0,223,223,35,1,X, , , , ,,2500,2.5,5ec123a045a53653acfa0d25,001,2021-08-19_16h28.01.235,natb3,2021.2.3,Win32,30.00840235,5ec123a045a53653acfa0d25,611e07ecdcc96256ae8d5b80,611e7864f214b20873d67f67,,
,,,,space,,0,224,224,223,1,Q, , , , ,space,2000,2,5ec123a045a53653acfa0d25,001,2021-08-19_16h28.01.235,natb3,2021.2.3,Win32,30.00840235,5ec123a045a53653acfa0d25,611e07ecdcc96256ae8d5b80,611e7864f214b20873d67f67,0.5385,
,,,,space,,0,225,225,103,1,W, , , , ,space,2000,2,5ec123a045a53653acfa0d25,001,2021-08-19_16h28.01.235,natb3,2021.2.3,Win32,30.00840235,5ec123a045a53653acfa0d25,611e07ecdcc96256ae8d5b80,611e7864f214b20873d67f67,0.6309,
,,,,space,,0,226,226,120,1,U, , , , ,space,1500,1.5,5ec123a045a53653acfa0d25,001,2021-08-19_16h28.01.235,natb3,2021.2.3,Win32,30.00840235,5ec123a045a53653acfa0d25,611e07ecdcc96256ae8d5b80,611e7864f214b20873d67f67,0.5065,
,,,,space,,0,227,227,231,1,I, , , , ,space,2500,2.5,5ec123a045a53653acfa0d25,001,2021-08-19_16h28.01.235,natb3,2021.2.3,Win32,30.00840235,5ec123a045a53653acfa0d25,611e07ecdcc96256ae8d5b80,611e7864f214b20873d67f67,0.5423,
,,,,,,0,228,228,243,1,X, , , , ,,2500,2.5,5ec123a045a53653acfa0d25,001,2021-08-19_16h28.01.235,natb3,2021.2.3,Win32,30.00840235,5ec123a045a53653acfa0d25,611e07ecdcc96256ae8d5b80,611e7864f214b20873d67f67,,
,,,,space,,0,229,229,97,1,B, , , , ,space,2500,2.5,5ec123a045a53653acfa0d25,001,2021-08-19_16h28.01.235,natb3,2021.2.3,Win32,30.00840235,5ec123a045a53653acfa0d25,611e07ecdcc96256ae8d5b80,611e7864f214b20873d67f67,0.8645,
,,,,space,,0,230,230,330,1,T, , , , ,space,2500,2.5,5ec123a045a53653acfa0d25,001,2021-08-19_16h28.01.235,natb3,2021.2.3,Win32,30.00840235,5ec123a045a53653acfa0d25,611e07ecdcc96256ae8d5b80,611e7864f214b20873d67f67,0.6295,
,,,,space,,0,231,231,266,1,O, , , , ,space,1500,1.5,5ec123a045a53653acfa0d25,001,2021-08-19_16h28.01.235,natb3,2021.2.3,Win32,30.00840235,5ec123a045a53653acfa0d25,611e07ecdcc96256ae8d5b80,611e7864f214b20873d67f67,0.8098,
,,,,space,,0,232,232,106,1,T, , , , ,space,1500,1.5,5ec123a045a53653acfa0d25,001,2021-08-19_16h28.01.235,natb3,2021.2.3,Win32,30.00840235,5ec123a045a53653acfa0d25,611e07ecdcc96256ae8d5b80,611e7864f214b20873d67f67,0.5413,
,,,,space,,0,233,233,68,1,W, , , , ,space,2500,2.5,5ec123a045a53653acfa0d25,001,2021-08-19_16h28.01.235,natb3,2021.2.3,Win32,30.00840235,5ec123a045a53653acfa0d25,611e07ecdcc96256ae8d5b80,611e7864f214b20873d67f67,0.7483,
,,,,space,,0,234,234,105,1,R, , , , ,space,2500,2.5,5ec123a045a53653acfa0d25,001,2021-08-19_16h28.01.235,natb3,2021.2.3,Win32,30.00840235,5ec123a045a53653acfa0d25,611e07ecdcc96256ae8d5b80,611e7864f214b20873d67f67,0.5353,
,,,,space,,0,235,235,59,1,Z, , , , ,space,2000,2,5ec123a045a53653acfa0d25,001,2021-08-19_16h28.01.235,natb3,2021.2.3,Win32,30.00840235,5ec123a045a53653acfa0d25,611e07ecdcc96256ae8d5b80,611e7864f214b20873d67f67,0.5976,
,,,,,,0,236,236,138,1,X,8,5, ,3,,2000,2,5ec123a045a53653acfa0d25,001,2021-08-19_16h28.01.235,natb3,2021.2.3,Win32,30.00840235,5ec123a045a53653acfa0d25,611e07ecdcc96256ae8d5b80,611e7864f214b20873d67f67,,
,,,,space,,0,237,237,262,1,Y, , , , ,space,2500,2.5,5ec123a045a53653acfa0d25,001,2021-08-19_16h28.01.235,natb3,2021.2.3,Win32,30.00840235,5ec123a045a53653acfa0d25,611e07ecdcc96256ae8d5b80,611e7864f214b20873d67f67,0.7794,
,,,,space,,0,238,238,272,1,D, , , , ,space,2000,2,5ec123a045a53653acfa0d25,001,2021-08-19_16h28.01.235,natb3,2021.2.3,Win32,30.00840235,5ec123a045a53653acfa0d25,611e07ecdcc96256ae8d5b80,611e7864f214b20873d67f67,0.4793,
,,,,,,0,239,239,98,1,X, , , , ,,2500,2.5,5ec123a045a53653acfa0d25,001,2021-08-19_16h28.01.235,natb3,2021.2.3,Win32,30.00840235,5ec123a045a53653acfa0d25,611e07ecdcc96256ae8d5b80,611e7864f214b20873d67f67,,
,,,,space,,0,240,240,81,1,S, , , , ,space,2000,2,5ec123a045a53653acfa0d25,001,2021-08-19_16h28.01.235,natb3,2021.2.3,Win32,30.00840235,5ec123a045a53653acfa0d25,611e07ecdcc96256ae8d5b80,611e7864f214b20873d67f67,0.8647,
,,,,,,0,241,241,201,1,K, , , , ,space,1500,1.5,5ec123a045a53653acfa0d25,001,2021-08-19_16h28.01.235,natb3,2021.2.3,Win32,30.00840235,5ec123a045a53653acfa0d25,611e07ecdcc96256ae8d5b80,611e7864f214b20873d67f67,,
,,,,space,,0,242,242,117,1,T, , , , ,space,2500,2.5,5ec123a045a53653acfa0d25,001,2021-08-19_16h28.01.235,natb3,2021.2.3,Win32,30.00840235,5ec123a045a53653acfa0d25,611e07ecdcc96256ae8d5b80,611e7864f214b20873d67f67,0.5119,
,,,,space,,0,243,243,49,1,S, , , , ,space,1500,1.5,5ec123a045a53653acfa0d25,001,2021-08-19_16h28.01.235,natb3,2021.2.3,Win32,30.00840235,5ec123a045a53653acfa0d25,611e07ecdcc96256ae8d5b80,611e7864f214b20873d67f67,0.6858,
,,,,,,0,244,244,203,1,X, , , , ,,2500,2.5,5ec123a045a53653acfa0d25,001,2021-08-19_16h28.01.235,natb3,2021.2.3,Win32,30.00840235,5ec123a045a53653acfa0d25,611e07ecdcc96256ae8d5b80,611e7864f214b20873d67f67,,
,,,,space,,0,245,245,308,1,G, , , , ,space,1500,1.5,5ec123a045a53653acfa0d25,001,2021-08-19_16h28.01.235,natb3,2021.2.3,Win32,30.00840235,5ec123a045a53653acfa0d25,611e07ecdcc96256ae8d5b80,611e7864f214b20873d67f67,0.6897,
,,,,space,,0,246,246,228,1,Y, , , , ,space,2000,2,5ec123a045a53653acfa0d25,001,2021-08-19_16h28.01.235,natb3,2021.2.3,Win32,30.00840235,5ec123a045a53653acfa0d25,611e07ecdcc96256ae8d5b80,611e7864f214b20873d67f67,0.6276,
,,,,space,,0,247,247,324,1,Q, , , , ,space,2000,2,5ec123a045a53653acfa0d25,001,2021-08-19_16h28.01.235,natb3,2021.2.3,Win32,30.00840235,5ec123a045a53653acfa0d25,611e07ecdcc96256ae8d5b80,611e7864f214b20873d67f67,0.481,
,,,,space,,0,248,248,181,1,E, , , , ,space,1500,1.5,5ec123a045a53653acfa0d25,001,2021-08-19_16h28.01.235,natb3,2021.2.3,Win32,30.00840235,5ec123a045a53653acfa0d25,611e07ecdcc96256ae8d5b80,611e7864f214b20873d67f67,0.6042,
,,,,space,,0,249,249,307,1,F, , , , ,space,2500,2.5,5ec123a045a53653acfa0d25,001,2021-08-19_16h28.01.235,natb3,2021.2.3,Win32,30.00840235,5ec123a045a53653acfa0d25,611e07ecdcc96256ae8d5b80,611e7864f214b20873d67f67,0.7206,
,,,,space,,0,250,250,234,1,P, , , , ,space,2000,2,5ec123a045a53653acfa0d25,001,2021-08-19_16h28.01.235,natb3,2021.2.3,Win32,30.00840235,5ec123a045a53653acfa0d25,611e07ecdcc96256ae8d5b80,611e7864f214b20873d67f67,0.5975,
,,,,space,,0,251,251,13,1,A, , , , ,space,2000,2,5ec123a045a53653acfa0d25,001,2021-08-19_16h28.01.235,natb3,2021.2.3,Win32,30.00840235,5ec123a045a53653acfa0d25,611e07ecdcc96256ae8d5b80,611e7864f214b20873d67f67,0.5692,
,,,,space,,0,252,252,183,1,R, , , , ,space,1500,1.5,5ec123a045a53653acfa0d25,001,2021-08-19_16h28.01.235,natb3,2021.2.3,Win32,30.00840235,5ec123a045a53653acfa0d25,611e07ecdcc96256ae8d5b80,611e7864f214b20873d67f67,0.5395,
,,,,,,0,253,253,335,1,P,,,,,space,1500,1.5,5ec123a045a53653acfa0d25,001,2021-08-19_16h28.01.235,natb3,2021.2.3,Win32,30.00840235,5ec123a045a53653acfa0d25,611e07ecdcc96256ae8d5b80,611e7864f214b20873d67f67,,
,,,,space,,0,254,254,297,1,U, , , , ,space,2000,2,5ec123a045a53653acfa0d25,001,2021-08-19_16h28.01.235,natb3,2021.2.3,Win32,30.00840235,5ec123a045a53653acfa0d25,611e07ecdcc96256ae8d5b80,611e7864f214b20873d67f67,0.7802,
,,,,space,,0,255,255,232,1,O, , , , ,space,2500,2.5,5ec123a045a53653acfa0d25,001,2021-08-19_16h28.01.235,natb3,2021.2.3,Win32,30.00840235,5ec123a045a53653acfa0d25,611e07ecdcc96256ae8d5b80,611e7864f214b20873d67f67,0.5658,
,,,,,,0,256,256,248,1,X, ,1,5, ,,1500,1.5,5ec123a045a53653acfa0d25,001,2021-08-19_16h28.01.235,natb3,2021.2.3,Win32,30.00840235,5ec123a045a53653acfa0d25,611e07ecdcc96256ae8d5b80,611e7864f214b20873d67f67,,
,,,,space,,0,257,257,301,1,P, , , , ,space,1500,1.5,5ec123a045a53653acfa0d25,001,2021-08-19_16h28.01.235,natb3,2021.2.3,Win32,30.00840235,5ec123a045a53653acfa0d25,611e07ecdcc96256ae8d5b80,611e7864f214b20873d67f67,0.8107,
,,,,,,0,258,258,7,1,X, , , , ,,1500,1.5,5ec123a045a53653acfa0d25,001,2021-08-19_16h28.01.235,natb3,2021.2.3,Win32,30.00840235,5ec123a045a53653acfa0d25,611e07ecdcc96256ae8d5b80,611e7864f214b20873d67f67,,
,,,,,,0,259,259,293,1,R, , , , ,space,2500,2.5,5ec123a045a53653acfa0d25,001,2021-08-19_16h28.01.235,natb3,2021.2.3,Win32,30.00840235,5ec123a045a53653acfa0d25,611e07ecdcc96256ae8d5b80,611e7864f214b20873d67f67,,
,,,,,,0,260,260,322,1,X, , ,1,6,,2000,2,5ec123a045a53653acfa0d25,001,2021-08-19_16h28.01.235,natb3,2021.2.3,Win32,30.00840235,5ec123a045a53653acfa0d25,611e07ecdcc96256ae8d5b80,611e7864f214b20873d67f67,,
,,,,space,,0,261,261,188,1,I, , , , ,space,2500,2.5,5ec123a045a53653acfa0d25,001,2021-08-19_16h28.01.235,natb3,2021.2.3,Win32,30.00840235,5ec123a045a53653acfa0d25,611e07ecdcc96256ae8d5b80,611e7864f214b20873d67f67,0.7498,
,,,,space,,0,262,262,163,1,G, , , , ,space,2500,2.5,5ec123a045a53653acfa0d25,001,2021-08-19_16h28.01.235,natb3,2021.2.3,Win32,30.00840235,5ec123a045a53653acfa0d25,611e07ecdcc96256ae8d5b80,611e7864f214b20873d67f67,0.631,
,,,,space,,0,263,263,258,1,E, , , , ,space,1500,1.5,5ec123a045a53653acfa0d25,001,2021-08-19_16h28.01.235,natb3,2021.2.3,Win32,30.00840235,5ec123a045a53653acfa0d25,611e07ecdcc96256ae8d5b80,611e7864f214b20873d67f67,0.5949,
,,,,,,0,264,264,43,1,X, ,6, ,2,,2500,2.5,5ec123a045a53653acfa0d25,001,2021-08-19_16h28.01.235,natb3,2021.2.3,Win32,30.00840235,5ec123a045a53653acfa0d25,611e07ecdcc96256ae8d5b80,611e7864f214b20873d67f67,,
,,,,space,,0,265,265,0,1,Q, , , , ,space,1500,1.5,5ec123a045a53653acfa0d25,001,2021-08-19_16h28.01.235,natb3,2021.2.3,Win32,30.00840235,5ec123a045a53653acfa0d25,611e07ecdcc96256ae8d5b80,611e7864f214b20873d67f67,0.689,
,,,,space,,0,266,266,77,1,O, , , , ,space,2000,2,5ec123a045a53653acfa0d25,001,2021-08-19_16h28.01.235,natb3,2021.2.3,Win32,30.00840235,5ec123a045a53653acfa0d25,611e07ecdcc96256ae8d5b80,611e7864f214b20873d67f67,0.7214,
,,,,space,,0,267,267,269,1,A, , , , ,space,2500,2.5,5ec123a045a53653acfa0d25,001,2021-08-19_16h28.01.235,natb3,2021.2.3,Win32,30.00840235,5ec123a045a53653acfa0d25,611e07ecdcc96256ae8d5b80,611e7864f214b20873d67f67,0.7134,
,,,,,,0,268,268,27,1,X,5, ,1,3,,1500,1.5,5ec123a045a53653acfa0d25,001,2021-08-19_16h28.01.235,natb3,2021.2.3,Win32,30.00840235,5ec123a045a53653acfa0d25,611e07ecdcc96256ae8d5b80,611e7864f214b20873d67f67,,
,,,,space,,0,269,269,296,1,Y, , , , ,space,2500,2.5,5ec123a045a53653acfa0d25,001,2021-08-19_16h28.01.235,natb3,2021.2.3,Win32,30.00840235,5ec123a045a53653acfa0d25,611e07ecdcc96256ae8d5b80,611e7864f214b20873d67f67,0.9573,
,,,,,,0,270,270,277,1,X,8,5, ,2,,2000,2,5ec123a045a53653acfa0d25,001,2021-08-19_16h28.01.235,natb3,2021.2.3,Win32,30.00840235,5ec123a045a53653acfa0d25,611e07ecdcc96256ae8d5b80,611e7864f214b20873d67f67,,
,,,,space,,0,271,271,178,1,Q, , , , ,space,1500,1.5,5ec123a045a53653acfa0d25,001,2021-08-19_16h28.01.235,natb3,2021.2.3,Win32,30.00840235,5ec123a045a53653acfa0d25,611e07ecdcc96256ae8d5b80,611e7864f214b20873d67f67,0.568,
,,,,space,,0,272,272,104,1,E, , , , ,space,2000,2,5ec123a045a53653acfa0d25,001,2021-08-19_16h28.01.235,natb3,2021.2.3,Win32,30.00840235,5ec123a045a53653acfa0d25,611e07ecdcc96256ae8d5b80,611e7864f214b20873d67f67,0.5667,
,,,,space,,0,273,273,41,1,Y, , , , ,space,2500,2.5,5ec123a045a53653acfa0d25,001,2021-08-19_16h28.01.235,natb3,2021.2.3,Win32,30.00840235,5ec123a045a53653acfa0d25,611e07ecdcc96256ae8d5b80,611e7864f214b20873d67f67,0.5118,
,,,,,,0,274,274,96,1,X, , , , ,,1500,1.5,5ec123a045a53653acfa0d25,001,2021-08-19_16h28.01.235,natb3,2021.2.3,Win32,30.00840235,5ec123a045a53653acfa0d25,611e07ecdcc96256ae8d5b80,611e7864f214b20873d67f67,,
,,,,space,,0,275,275,292,1,E, , , , ,space,2000,2,5ec123a045a53653acfa0d25,001,2021-08-19_16h28.01.235,natb3,2021.2.3,Win32,30.00840235,5ec123a045a53653acfa0d25,611e07ecdcc96256ae8d5b80,611e7864f214b20873d67f67,0.8073,
,,,,space,,0,276,276,115,1,R, , , , ,space,1500,1.5,5ec123a045a53653acfa0d25,001,2021-08-19_16h28.01.235,natb3,2021.2.3,Win32,30.00840235,5ec123a045a53653acfa0d25,611e07ecdcc96256ae8d5b80,611e7864f214b20873d67f67,0.4802,
,,,,space,,0,277,277,256,1,Q, , , , ,space,2000,2,5ec123a045a53653acfa0d25,001,2021-08-19_16h28.01.235,natb3,2021.2.3,Win32,30.00840235,5ec123a045a53653acfa0d25,611e07ecdcc96256ae8d5b80,611e7864f214b20873d67f67,0.4795,
,,,,space,,0,278,278,261,1,T, , , , ,space,2000,2,5ec123a045a53653acfa0d25,001,2021-08-19_16h28.01.235,natb3,2021.2.3,Win32,30.00840235,5ec123a045a53653acfa0d25,611e07ecdcc96256ae8d5b80,611e7864f214b20873d67f67,0.5674,
,,,,space,,0,279,279,61,1,C, , , , ,space,2000,2,5ec123a045a53653acfa0d25,001,2021-08-19_16h28.01.235,natb3,2021.2.3,Win32,30.00840235,5ec123a045a53653acfa0d25,611e07ecdcc96256ae8d5b80,611e7864f214b20873d67f67,0.5419,
,,,,space,,0,280,280,220,1,U, , , , ,space,2500,2.5,5ec123a045a53653acfa0d25,001,2021-08-19_16h28.01.235,natb3,2021.2.3,Win32,30.00840235,5ec123a045a53653acfa0d25,611e07ecdcc96256ae8d5b80,611e7864f214b20873d67f67,0.6611,
,,,,space,,0,281,281,176,1,N, , , , ,space,1500,1.5,5ec123a045a53653acfa0d25,001,2021-08-19_16h28.01.235,natb3,2021.2.3,Win32,30.00840235,5ec123a045a53653acfa0d25,611e07ecdcc96256ae8d5b80,611e7864f214b20873d67f67,0.8359,
,,,,space,,0,282,282,11,1,P, , , , ,space,2500,2.5,5ec123a045a53653acfa0d25,001,2021-08-19_16h28.01.235,natb3,2021.2.3,Win32,30.00840235,5ec123a045a53653acfa0d25,611e07ecdcc96256ae8d5b80,611e7864f214b20873d67f67,0.4785,
,,,,,,0,283,283,315,1,X, , , , ,,2500,2.5,5ec123a045a53653acfa0d25,001,2021-08-19_16h28.01.235,natb3,2021.2.3,Win32,30.00840235,5ec123a045a53653acfa0d25,611e07ecdcc96256ae8d5b80,611e7864f214b20873d67f67,,
,,,,space,,0,284,284,155,1,O, , , , ,space,1500,1.5,5ec123a045a53653acfa0d25,001,2021-08-19_16h28.01.235,natb3,2021.2.3,Win32,30.00840235,5ec123a045a53653acfa0d25,611e07ecdcc96256ae8d5b80,611e7864f214b20873d67f67,0.5997,
,,,,,,0,285,285,255,1,X, , , , ,,1500,1.5,5ec123a045a53653acfa0d25,001,2021-08-19_16h28.01.235,natb3,2021.2.3,Win32,30.00840235,5ec123a045a53653acfa0d25,611e07ecdcc96256ae8d5b80,611e7864f214b20873d67f67,,
,,,,space,,0,286,286,208,1,B, , , , ,space,1500,1.5,5ec123a045a53653acfa0d25,001,2021-08-19_16h28.01.235,natb3,2021.2.3,Win32,30.00840235,5ec123a045a53653acfa0d25,611e07ecdcc96256ae8d5b80,611e7864f214b20873d67f67,0.5086,
,,,,space,,0,287,287,100,1,M, , , , ,space,2000,2,5ec123a045a53653acfa0d25,001,2021-08-19_16h28.01.235,natb3,2021.2.3,Win32,30.00840235,5ec123a045a53653acfa0d25,611e07ecdcc96256ae8d5b80,611e7864f214b20873d67f67,0.5669,
,,,,space,,0,288,288,112,1,Q, , , , ,space,2500,2.5,5ec123a045a53653acfa0d25,001,2021-08-19_16h28.01.235,natb3,2021.2.3,Win32,30.00840235,5ec123a045a53653acfa0d25,611e07ecdcc96256ae8d5b80,611e7864f214b20873d67f67,0.5696,
,,,,space,,0,289,289,260,1,R, , , , ,space,2000,2,5ec123a045a53653acfa0d25,001,2021-08-19_16h28.01.235,natb3,2021.2.3,Win32,30.00840235,5ec123a045a53653acfa0d25,611e07ecdcc96256ae8d5b80,611e7864f214b20873d67f67,0.5684,
,,,,,,0,290,290,211,1,X, , , , ,,2500,2.5,5ec123a045a53653acfa0d25,001,2021-08-19_16h28.01.235,natb3,2021.2.3,Win32,30.00840235,5ec123a045a53653acfa0d25,611e07ecdcc96256ae8d5b80,611e7864f214b20873d67f67,,
,,,,space,,0,291,291,152,1,U, , , , ,space,2000,2,5ec123a045a53653acfa0d25,001,2021-08-19_16h28.01.235,natb3,2021.2.3,Win32,30.00840235,5ec123a045a53653acfa0d25,611e07ecdcc96256ae8d5b80,611e7864f214b20873d67f67,0.721,
,,,,,,0,292,292,66,1,X, ,4,7, ,,2000,2,5ec123a045a53653acfa0d25,001,2021-08-19_16h28.01.235,natb3,2021.2.3,Win32,30.00840235,5ec123a045a53653acfa0d25,611e07ecdcc96256ae8d5b80,611e7864f214b20873d67f67,,
,,,,space,,0,293,293,210,1,M, , , , ,space,1500,1.5,5ec123a045a53653acfa0d25,001,2021-08-19_16h28.01.235,natb3,2021.2.3,Win32,30.00840235,5ec123a045a53653acfa0d25,611e07ecdcc96256ae8d5b80,611e7864f214b20873d67f67,0.9018,
,,,,space,,0,294,294,60,1,X,7,3,5, ,,1500,1.5,5ec123a045a53653acfa0d25,001,2021-08-19_16h28.01.235,natb3,2021.2.3,Win32,30.00840235,5ec123a045a53653acfa0d25,611e07ecdcc96256ae8d5b80,611e7864f214b20873d67f67,0.8465,
,,,,,,0,295,295,282,1,X, , , , ,,2500,2.5,5ec123a045a53653acfa0d25,001,2021-08-19_16h28.01.235,natb3,2021.2.3,Win32,30.00840235,5ec123a045a53653acfa0d25,611e07ecdcc96256ae8d5b80,611e7864f214b20873d67f67,,
,,,,space,,0,296,296,321,1,N, , , , ,space,2000,2,5ec123a045a53653acfa0d25,001,2021-08-19_16h28.01.235,natb3,2021.2.3,Win32,30.00840235,5ec123a045a53653acfa0d25,611e07ecdcc96256ae8d5b80,611e7864f214b20873d67f67,0.6871,
,,,,space,,0,297,297,131,1,G, , , , ,space,1500,1.5,5ec123a045a53653acfa0d25,001,2021-08-19_16h28.01.235,natb3,2021.2.3,Win32,30.00840235,5ec123a045a53653acfa0d25,611e07ecdcc96256ae8d5b80,611e7864f214b20873d67f67,0.5689,
,,,,space,,0,298,298,113,1,W, , , , ,space,2500,2.5,5ec123a045a53653acfa0d25,001,2021-08-19_16h28.01.235,natb3,2021.2.3,Win32,30.00840235,5ec123a045a53653acfa0d25,611e07ecdcc96256ae8d5b80,611e7864f214b20873d67f67,0.8372,
,,,,,,0,299,299,36,1,W, , , , ,space,2000,2,5ec123a045a53653acfa0d25,001,2021-08-19_16h28.01.235,natb3,2021.2.3,Win32,30.00840235,5ec123a045a53653acfa0d25,611e07ecdcc96256ae8d5b80,611e7864f214b20873d67f67,,
,,,,space,,0,300,300,225,1,E, , , , ,space,2000,2,5ec123a045a53653acfa0d25,001,2021-08-19_16h28.01.235,natb3,2021.2.3,Win32,30.00840235,5ec123a045a53653acfa0d25,611e07ecdcc96256ae8d5b80,611e7864f214b20873d67f67,0.8728,
,,,,space,,0,301,301,10,1,O, , , , ,space,2000,2,5ec123a045a53653acfa0d25,001,2021-08-19_16h28.01.235,natb3,2021.2.3,Win32,30.00840235,5ec123a045a53653acfa0d25,611e07ecdcc96256ae8d5b80,611e7864f214b20873d67f67,0.6281,
,,,,space,,0,302,302,179,1,X, ,9, ,2,,1500,1.5,5ec123a045a53653acfa0d25,001,2021-08-19_16h28.01.235,natb3,2021.2.3,Win32,30.00840235,5ec123a045a53653acfa0d25,611e07ecdcc96256ae8d5b80,611e7864f214b20873d67f67,0.4493,
,,,,space,,0,303,303,143,1,M, , , , ,space,2500,2.5,5ec123a045a53653acfa0d25,001,2021-08-19_16h28.01.235,natb3,2021.2.3,Win32,30.00840235,5ec123a045a53653acfa0d25,611e07ecdcc96256ae8d5b80,611e7864f214b20873d67f67,0.6271,
,,,,,,0,304,304,51,1,X,7,5,8, ,,1500,1.5,5ec123a045a53653acfa0d25,001,2021-08-19_16h28.01.235,natb3,2021.2.3,Win32,30.00840235,5ec123a045a53653acfa0d25,611e07ecdcc96256ae8d5b80,611e7864f214b20873d67f67,,
,,,,space,,0,305,305,157,1,A, , , , ,space,2500,2.5,5ec123a045a53653acfa0d25,001,2021-08-19_16h28.01.235,natb3,2021.2.3,Win32,30.00840235,5ec123a045a53653acfa0d25,611e07ecdcc96256ae8d5b80,611e7864f214b20873d67f67,0.692,
,,,,space,,0,306,306,56,1,J, , , , ,space,1500,1.5,5ec123a045a53653acfa0d25,001,2021-08-19_16h28.01.235,natb3,2021.2.3,Win32,30.00840235,5ec123a045a53653acfa0d25,611e07ecdcc96256ae8d5b80,611e7864f214b20873d67f67,0.9277,
,,,,space,,0,307,307,294,1,T, , , , ,space,2000,2,5ec123a045a53653acfa0d25,001,2021-08-19_16h28.01.235,natb3,2021.2.3,Win32,30.00840235,5ec123a045a53653acfa0d25,611e07ecdcc96256ae8d5b80,611e7864f214b20873d67f67,0.7239,
,,,,,,0,308,308,23,1,X,1, ,5, ,,2000,2,5ec123a045a53653acfa0d25,001,2021-08-19_16h28.01.235,natb3,2021.2.3,Win32,30.00840235,5ec123a045a53653acfa0d25,611e07ecdcc96256ae8d5b80,611e7864f214b20873d67f67,,
,,,,space,,0,309,309,317,1,C, , , , ,space,2000,2,5ec123a045a53653acfa0d25,001,2021-08-19_16h28.01.235,natb3,2021.2.3,Win32,30.00840235,5ec123a045a53653acfa0d25,611e07ecdcc96256ae8d5b80,611e7864f214b20873d67f67,0.6874,
,,,,space,,0,310,310,132,1,H, , , , ,space,2500,2.5,5ec123a045a53653acfa0d25,001,2021-08-19_16h28.01.235,natb3,2021.2.3,Win32,30.00840235,5ec123a045a53653acfa0d25,611e07ecdcc96256ae8d5b80,611e7864f214b20873d67f67,0.5385,
,,,,space,,0,311,311,221,1,I, , , , ,space,2500,2.5,5ec123a045a53653acfa0d25,001,2021-08-19_16h28.01.235,natb3,2021.2.3,Win32,30.00840235,5ec123a045a53653acfa0d25,611e07ecdcc96256ae8d5b80,611e7864f214b20873d67f67,0.6289,
,,,,,,0,312,312,206,1,V, , , , ,space,2000,2,5ec123a045a53653acfa0d25,001,2021-08-19_16h28.01.235,natb3,2021.2.3,Win32,30.00840235,5ec123a045a53653acfa0d25,611e07ecdcc96256ae8d5b80,611e7864f214b20873d67f67,,
,,,,space,,0,313,313,237,1,S, , , , ,space,1500,1.5,5ec123a045a53653acfa0d25,001,2021-08-19_16h28.01.235,natb3,2021.2.3,Win32,30.00840235,5ec123a045a53653acfa0d25,611e07ecdcc96256ae8d5b80,611e7864f214b20873d67f67,0.5072,
,,,,,,0,314,314,299,1,X, , , , ,,2500,2.5,5ec123a045a53653acfa0d25,001,2021-08-19_16h28.01.235,natb3,2021.2.3,Win32,30.00840235,5ec123a045a53653acfa0d25,611e07ecdcc96256ae8d5b80,611e7864f214b20873d67f67,,
,,,,,,0,315,315,302,1,X, , , , ,,2000,2,5ec123a045a53653acfa0d25,001,2021-08-19_16h28.01.235,natb3,2021.2.3,Win32,30.00840235,5ec123a045a53653acfa0d25,611e07ecdcc96256ae8d5b80,611e7864f214b20873d67f67,,
,,,,space,,0,316,316,70,1,E, , , , ,space,2500,2.5,5ec123a045a53653acfa0d25,001,2021-08-19_16h28.01.235,natb3,2021.2.3,Win32,30.00840235,5ec123a045a53653acfa0d25,611e07ecdcc96256ae8d5b80,611e7864f214b20873d67f67,0.6312,
,,,,space,,0,317,317,264,1,U, , , , ,space,2000,2,5ec123a045a53653acfa0d25,001,2021-08-19_16h28.01.235,natb3,2021.2.3,Win32,30.00840235,5ec123a045a53653acfa0d25,611e07ecdcc96256ae8d5b80,611e7864f214b20873d67f67,0.5675,
,,,,space,,0,318,318,121,1,I, , , , ,space,2000,2,5ec123a045a53653acfa0d25,001,2021-08-19_16h28.01.235,natb3,2021.2.3,Win32,30.00840235,5ec123a045a53653acfa0d25,611e07ecdcc96256ae8d5b80,611e7864f214b20873d67f67,0.625,
,,,,space,,0,319,319,53,1,G, , , , ,space,2500,2.5,5ec123a045a53653acfa0d25,001,2021-08-19_16h28.01.235,natb3,2021.2.3,Win32,30.00840235,5ec123a045a53653acfa0d25,611e07ecdcc96256ae8d5b80,611e7864f214b20873d67f67,0.5718,
,,,,,,0,320,320,291,1,X, , , , ,,2000,2,5ec123a045a53653acfa0d25,001,2021-08-19_16h28.01.235,natb3,2021.2.3,Win32,30.00840235,5ec123a045a53653acfa0d25,611e07ecdcc96256ae8d5b80,611e7864f214b20873d67f67,,
,,,,space,,0,321,321,186,1,U, , , , ,space,2500,2.5,5ec123a045a53653acfa0d25,001,2021-08-19_16h28.01.235,natb3,2021.2.3,Win32,30.00840235,5ec123a045a53653acfa0d25,611e07ecdcc96256ae8d5b80,611e7864f214b20873d67f67,0.5401,
,,,,space,,0,322,322,194,1,D, , , , ,space,2000,2,5ec123a045a53653acfa0d25,001,2021-08-19_16h28.01.235,natb3,2021.2.3,Win32,30.00840235,5ec123a045a53653acfa0d25,611e07ecdcc96256ae8d5b80,611e7864f214b20873d67f67,0.566,
,,,,space,,0,323,323,90,1,K, , , , ,space,2000,2,5ec123a045a53653acfa0d25,001,2021-08-19_16h28.01.235,natb3,2021.2.3,Win32,30.00840235,5ec123a045a53653acfa0d25,611e07ecdcc96256ae8d5b80,611e7864f214b20873d67f67,0.5372,
,,,,,,0,324,324,158,1,X, , , , ,,1500,1.5,5ec123a045a53653acfa0d25,001,2021-08-19_16h28.01.235,natb3,2021.2.3,Win32,30.00840235,5ec123a045a53653acfa0d25,611e07ecdcc96256ae8d5b80,611e7864f214b20873d67f67,,
,,,,space,,0,325,325,21,1,J, , , , ,space,1500,1.5,5ec123a045a53653acfa0d25,001,2021-08-19_16h28.01.235,natb3,2021.2.3,Win32,30.00840235,5ec123a045a53653acfa0d25,611e07ecdcc96256ae8d5b80,611e7864f214b20873d67f67,0.6582,
,,,,,,0,326,326,168,1,X, , , , ,,2500,2.5,5ec123a045a53653acfa0d25,001,2021-08-19_16h28.01.235,natb3,2021.2.3,Win32,30.00840235,5ec123a045a53653acfa0d25,611e07ecdcc96256ae8d5b80,611e7864f214b20873d67f67,,
,,,,space,,0,327,327,142,1,N, , , , ,space,2500,2.5,5ec123a045a53653acfa0d25,001,2021-08-19_16h28.01.235,natb3,2021.2.3,Win32,30.00840235,5ec123a045a53653acfa0d25,611e07ecdcc96256ae8d5b80,611e7864f214b20873d67f67,0.7818,
,,,,space,,0,328,328,174,1,B, , , , ,space,2500,2.5,5ec123a045a53653acfa0d25,001,2021-08-19_16h28.01.235,natb3,2021.2.3,Win32,30.00840235,5ec123a045a53653acfa0d25,611e07ecdcc96256ae8d5b80,611e7864f214b20873d67f67,0.7838,
,,,,,,0,329,329,236,1,X,3, ,4,7,,2500,2.5,5ec123a045a53653acfa0d25,001,2021-08-19_16h28.01.235,natb3,2021.2.3,Win32,30.00840235,5ec123a045a53653acfa0d25,611e07ecdcc96256ae8d5b80,611e7864f214b20873d67f67,,
,,,,space,,0,330,330,62,1,V, , , , ,space,1500,1.5,5ec123a045a53653acfa0d25,001,2021-08-19_16h28.01.235,natb3,2021.2.3,Win32,30.00840235,5ec123a045a53653acfa0d25,611e07ecdcc96256ae8d5b80,611e7864f214b20873d67f67,0.7174,
,,,,space,,0,331,331,249,1,C, , , , ,space,2000,2,5ec123a045a53653acfa0d25,001,2021-08-19_16h28.01.235,natb3,2021.2.3,Win32,30.00840235,5ec123a045a53653acfa0d25,611e07ecdcc96256ae8d5b80,611e7864f214b20873d67f67,0.7795,
,,,,,,0,332,332,213,1,X, , , , ,,2500,2.5,5ec123a045a53653acfa0d25,001,2021-08-19_16h28.01.235,natb3,2021.2.3,Win32,30.00840235,5ec123a045a53653acfa0d25,611e07ecdcc96256ae8d5b80,611e7864f214b20873d67f67,,
,,,,space,,0,333,333,192,1,A, , , , ,space,2000,2,5ec123a045a53653acfa0d25,001,2021-08-19_16h28.01.235,natb3,2021.2.3,Win32,30.00840235,5ec123a045a53653acfa0d25,611e07ecdcc96256ae8d5b80,611e7864f214b20873d67f67,0.627,
,,,,space,,0,334,334,16,1,D, , , , ,space,1500,1.5,5ec123a045a53653acfa0d25,001,2021-08-19_16h28.01.235,natb3,2021.2.3,Win32,30.00840235,5ec123a045a53653acfa0d25,611e07ecdcc96256ae8d5b80,611e7864f214b20873d67f67,0.7787,
,,,,space,,0,335,335,161,1,F, , , , ,space,1500,1.5,5ec123a045a53653acfa0d25,001,2021-08-19_16h28.01.235,natb3,2021.2.3,Win32,30.00840235,5ec123a045a53653acfa0d25,611e07ecdcc96256ae8d5b80,611e7864f214b20873d67f67,0.8103,
