key_resp_2.keys,key_resp_2.rt,key_resp_3.keys,key_resp_3.rt,key_resp.keys,key_resp.rt,key_resp_4.keys,trials.thisRepN,trials.thisTrialN,trials.thisN,trials.thisIndex,trials.ran,stimulus,distractor1,distractor2,distractor3,distractor4,CorrAns,isi_duration,isi_dur_in_seconds,participant,session,date,expName,psychopyVersion,OS,frameRate,PROLIFIC_PID,STUDY_ID,SESSION_ID,key_resp_4.rt
return,12.9651,space,21.8387,space,0.4644,,0,0,0,152,1,U, , , , ,space,2000,2,5ed6d1a6c3b8621515caafa3,001,2021-08-17_17h30.45.678,natb3,2021.2.3,Win32,60.18657839,5ed6d1a6c3b8621515caafa3,6107d0959f7c4c3641818b95,611be51f31d73786f4ff194b,
,,,,space,0.258,,0,1,1,112,1,Q, , , , ,space,2500,2.5,5ed6d1a6c3b8621515caafa3,001,2021-08-17_17h30.45.678,natb3,2021.2.3,Win32,60.18657839,5ed6d1a6c3b8621515caafa3,6107d0959f7c4c3641818b95,611be51f31d73786f4ff194b,
,,,,space,0.3605,,0,2,2,301,1,P, , , , ,space,1500,1.5,5ed6d1a6c3b8621515caafa3,001,2021-08-17_17h30.45.678,natb3,2021.2.3,Win32,60.18657839,5ed6d1a6c3b8621515caafa3,6107d0959f7c4c3641818b95,611be51f31d73786f4ff194b,
,,,,space,0.3006,,0,3,3,73,1,Y, , , , ,space,2000,2,5ed6d1a6c3b8621515caafa3,001,2021-08-17_17h30.45.678,natb3,2021.2.3,Win32,60.18657839,5ed6d1a6c3b8621515caafa3,6107d0959f7c4c3641818b95,611be51f31d73786f4ff194b,
,,,,space,0.3822,,0,4,4,24,1,L, , , , ,space,2500,2.5,5ed6d1a6c3b8621515caafa3,001,2021-08-17_17h30.45.678,natb3,2021.2.3,Win32,60.18657839,5ed6d1a6c3b8621515caafa3,6107d0959f7c4c3641818b95,611be51f31d73786f4ff194b,
,,,,space,0.4223,,0,5,5,126,1,A, , , , ,space,2500,2.5,5ed6d1a6c3b8621515caafa3,001,2021-08-17_17h30.45.678,natb3,2021.2.3,Win32,60.18657839,5ed6d1a6c3b8621515caafa3,6107d0959f7c4c3641818b95,611be51f31d73786f4ff194b,
,,,,space,0.5066,,0,6,6,49,1,S, , , , ,space,1500,1.5,5ed6d1a6c3b8621515caafa3,001,2021-08-17_17h30.45.678,natb3,2021.2.3,Win32,60.18657839,5ed6d1a6c3b8621515caafa3,6107d0959f7c4c3641818b95,611be51f31d73786f4ff194b,
,,,,space,0.5074,,0,7,7,6,1,Y, , , , ,space,2500,2.5,5ed6d1a6c3b8621515caafa3,001,2021-08-17_17h30.45.678,natb3,2021.2.3,Win32,60.18657839,5ed6d1a6c3b8621515caafa3,6107d0959f7c4c3641818b95,611be51f31d73786f4ff194b,
,,,,space,0.4152,,0,8,8,317,1,C, , , , ,space,2000,2,5ed6d1a6c3b8621515caafa3,001,2021-08-17_17h30.45.678,natb3,2021.2.3,Win32,60.18657839,5ed6d1a6c3b8621515caafa3,6107d0959f7c4c3641818b95,611be51f31d73786f4ff194b,
,,,,,,,0,9,9,162,1,X,1,6, ,2,,1500,1.5,5ed6d1a6c3b8621515caafa3,001,2021-08-17_17h30.45.678,natb3,2021.2.3,Win32,60.18657839,5ed6d1a6c3b8621515caafa3,6107d0959f7c4c3641818b95,611be51f31d73786f4ff194b,
,,,,,,,0,10,10,302,1,X, , , , ,,2000,2,5ed6d1a6c3b8621515caafa3,001,2021-08-17_17h30.45.678,natb3,2021.2.3,Win32,60.18657839,5ed6d1a6c3b8621515caafa3,6107d0959f7c4c3641818b95,611be51f31d73786f4ff194b,
,,,,space,0.327,,0,11,11,159,1,S, , , , ,space,2500,2.5,5ed6d1a6c3b8621515caafa3,001,2021-08-17_17h30.45.678,natb3,2021.2.3,Win32,60.18657839,5ed6d1a6c3b8621515caafa3,6107d0959f7c4c3641818b95,611be51f31d73786f4ff194b,
,,,,space,0.2994,,0,12,12,195,1,X, , , , ,,1500,1.5,5ed6d1a6c3b8621515caafa3,001,2021-08-17_17h30.45.678,natb3,2021.2.3,Win32,60.18657839,5ed6d1a6c3b8621515caafa3,6107d0959f7c4c3641818b95,611be51f31d73786f4ff194b,
,,,,space,0.4675,,0,13,13,321,1,N, , , , ,space,2000,2,5ed6d1a6c3b8621515caafa3,001,2021-08-17_17h30.45.678,natb3,2021.2.3,Win32,60.18657839,5ed6d1a6c3b8621515caafa3,6107d0959f7c4c3641818b95,611be51f31d73786f4ff194b,
,,,,space,0.5206,,0,14,14,142,1,N, , , , ,space,2500,2.5,5ed6d1a6c3b8621515caafa3,001,2021-08-17_17h30.45.678,natb3,2021.2.3,Win32,60.18657839,5ed6d1a6c3b8621515caafa3,6107d0959f7c4c3641818b95,611be51f31d73786f4ff194b,
,,,,space,0.5126,,0,15,15,19,1,G, , , , ,space,1500,1.5,5ed6d1a6c3b8621515caafa3,001,2021-08-17_17h30.45.678,natb3,2021.2.3,Win32,60.18657839,5ed6d1a6c3b8621515caafa3,6107d0959f7c4c3641818b95,611be51f31d73786f4ff194b,
,,,,,,,0,16,16,259,1,X,8, , ,3,,2500,2.5,5ed6d1a6c3b8621515caafa3,001,2021-08-17_17h30.45.678,natb3,2021.2.3,Win32,60.18657839,5ed6d1a6c3b8621515caafa3,6107d0959f7c4c3641818b95,611be51f31d73786f4ff194b,
,,,,space,0.7452,,0,17,17,279,1,K, , , , ,space,2500,2.5,5ed6d1a6c3b8621515caafa3,001,2021-08-17_17h30.45.678,natb3,2021.2.3,Win32,60.18657839,5ed6d1a6c3b8621515caafa3,6107d0959f7c4c3641818b95,611be51f31d73786f4ff194b,
,,,,space,0.3582,,0,18,18,130,1,F, , , , ,space,2000,2,5ed6d1a6c3b8621515caafa3,001,2021-08-17_17h30.45.678,natb3,2021.2.3,Win32,60.18657839,5ed6d1a6c3b8621515caafa3,6107d0959f7c4c3641818b95,611be51f31d73786f4ff194b,
,,,,space,0.3214,,0,19,19,148,1,X, , , , ,,2000,2,5ed6d1a6c3b8621515caafa3,001,2021-08-17_17h30.45.678,natb3,2021.2.3,Win32,60.18657839,5ed6d1a6c3b8621515caafa3,6107d0959f7c4c3641818b95,611be51f31d73786f4ff194b,
,,,,space,0.4412,,0,20,20,244,1,J, , , , ,space,1500,1.5,5ed6d1a6c3b8621515caafa3,001,2021-08-17_17h30.45.678,natb3,2021.2.3,Win32,60.18657839,5ed6d1a6c3b8621515caafa3,6107d0959f7c4c3641818b95,611be51f31d73786f4ff194b,
,,,,space,0.4505,,0,21,21,235,1,A, , , , ,space,1500,1.5,5ed6d1a6c3b8621515caafa3,001,2021-08-17_17h30.45.678,natb3,2021.2.3,Win32,60.18657839,5ed6d1a6c3b8621515caafa3,6107d0959f7c4c3641818b95,611be51f31d73786f4ff194b,
,,,,space,0.433,,0,22,22,216,1,R, , , , ,space,1500,1.5,5ed6d1a6c3b8621515caafa3,001,2021-08-17_17h30.45.678,natb3,2021.2.3,Win32,60.18657839,5ed6d1a6c3b8621515caafa3,6107d0959f7c4c3641818b95,611be51f31d73786f4ff194b,
,,,,space,0.5704,,0,23,23,316,1,Z, , , , ,space,1500,1.5,5ed6d1a6c3b8621515caafa3,001,2021-08-17_17h30.45.678,natb3,2021.2.3,Win32,60.18657839,5ed6d1a6c3b8621515caafa3,6107d0959f7c4c3641818b95,611be51f31d73786f4ff194b,
,,,,space,0.6111,,0,24,24,180,1,W, , , , ,space,2000,2,5ed6d1a6c3b8621515caafa3,001,2021-08-17_17h30.45.678,natb3,2021.2.3,Win32,60.18657839,5ed6d1a6c3b8621515caafa3,6107d0959f7c4c3641818b95,611be51f31d73786f4ff194b,
,,,,space,0.9007,,0,25,25,290,1,W, , , , ,space,1500,1.5,5ed6d1a6c3b8621515caafa3,001,2021-08-17_17h30.45.678,natb3,2021.2.3,Win32,60.18657839,5ed6d1a6c3b8621515caafa3,6107d0959f7c4c3641818b95,611be51f31d73786f4ff194b,
,,,,,,,0,26,26,129,1,X,2,3,5, ,,1500,1.5,5ed6d1a6c3b8621515caafa3,001,2021-08-17_17h30.45.678,natb3,2021.2.3,Win32,60.18657839,5ed6d1a6c3b8621515caafa3,6107d0959f7c4c3641818b95,611be51f31d73786f4ff194b,
,,,,space,0.7596,,0,27,27,189,1,O, , , , ,space,1500,1.5,5ed6d1a6c3b8621515caafa3,001,2021-08-17_17h30.45.678,natb3,2021.2.3,Win32,60.18657839,5ed6d1a6c3b8621515caafa3,6107d0959f7c4c3641818b95,611be51f31d73786f4ff194b,
,,,,space,0.7683,,0,28,28,164,1,H, , , , ,space,2500,2.5,5ed6d1a6c3b8621515caafa3,001,2021-08-17_17h30.45.678,natb3,2021.2.3,Win32,60.18657839,5ed6d1a6c3b8621515caafa3,6107d0959f7c4c3641818b95,611be51f31d73786f4ff194b,
,,,,space,0.5963,,0,29,29,104,1,E, , , , ,space,2000,2,5ed6d1a6c3b8621515caafa3,001,2021-08-17_17h30.45.678,natb3,2021.2.3,Win32,60.18657839,5ed6d1a6c3b8621515caafa3,6107d0959f7c4c3641818b95,611be51f31d73786f4ff194b,
,,,,space,0.4856,,0,30,30,160,1,D, , , , ,space,1500,1.5,5ed6d1a6c3b8621515caafa3,001,2021-08-17_17h30.45.678,natb3,2021.2.3,Win32,60.18657839,5ed6d1a6c3b8621515caafa3,6107d0959f7c4c3641818b95,611be51f31d73786f4ff194b,
,,,,,,,0,31,31,171,1,X, , , , ,,1500,1.5,5ed6d1a6c3b8621515caafa3,001,2021-08-17_17h30.45.678,natb3,2021.2.3,Win32,60.18657839,5ed6d1a6c3b8621515caafa3,6107d0959f7c4c3641818b95,611be51f31d73786f4ff194b,
,,,,,,,0,32,32,27,1,X,5, ,1,3,,1500,1.5,5ed6d1a6c3b8621515caafa3,001,2021-08-17_17h30.45.678,natb3,2021.2.3,Win32,60.18657839,5ed6d1a6c3b8621515caafa3,6107d0959f7c4c3641818b95,611be51f31d73786f4ff194b,
,,,,space,0.7339,,0,33,33,262,1,Y, , , , ,space,2500,2.5,5ed6d1a6c3b8621515caafa3,001,2021-08-17_17h30.45.678,natb3,2021.2.3,Win32,60.18657839,5ed6d1a6c3b8621515caafa3,6107d0959f7c4c3641818b95,611be51f31d73786f4ff194b,
,,,,,,,0,34,34,329,1,X,3,4, ,2,,2500,2.5,5ed6d1a6c3b8621515caafa3,001,2021-08-17_17h30.45.678,natb3,2021.2.3,Win32,60.18657839,5ed6d1a6c3b8621515caafa3,6107d0959f7c4c3641818b95,611be51f31d73786f4ff194b,
,,,,,,,0,35,35,273,1,X, , , , ,,2000,2,5ed6d1a6c3b8621515caafa3,001,2021-08-17_17h30.45.678,natb3,2021.2.3,Win32,60.18657839,5ed6d1a6c3b8621515caafa3,6107d0959f7c4c3641818b95,611be51f31d73786f4ff194b,
,,,,,,,0,36,36,187,1,X, ,3,7,4,,1500,1.5,5ed6d1a6c3b8621515caafa3,001,2021-08-17_17h30.45.678,natb3,2021.2.3,Win32,60.18657839,5ed6d1a6c3b8621515caafa3,6107d0959f7c4c3641818b95,611be51f31d73786f4ff194b,
,,,,space,0.7004,,0,37,37,214,1,W, , , , ,space,2000,2,5ed6d1a6c3b8621515caafa3,001,2021-08-17_17h30.45.678,natb3,2021.2.3,Win32,60.18657839,5ed6d1a6c3b8621515caafa3,6107d0959f7c4c3641818b95,611be51f31d73786f4ff194b,
,,,,space,0.5718,,0,38,38,330,1,T, , , , ,space,2500,2.5,5ed6d1a6c3b8621515caafa3,001,2021-08-17_17h30.45.678,natb3,2021.2.3,Win32,60.18657839,5ed6d1a6c3b8621515caafa3,6107d0959f7c4c3641818b95,611be51f31d73786f4ff194b,
,,,,,,,0,39,39,39,1,X,6,2, , ,,1500,1.5,5ed6d1a6c3b8621515caafa3,001,2021-08-17_17h30.45.678,natb3,2021.2.3,Win32,60.18657839,5ed6d1a6c3b8621515caafa3,6107d0959f7c4c3641818b95,611be51f31d73786f4ff194b,
,,,,space,0.7856,,0,40,40,156,1,P, , , , ,space,1500,1.5,5ed6d1a6c3b8621515caafa3,001,2021-08-17_17h30.45.678,natb3,2021.2.3,Win32,60.18657839,5ed6d1a6c3b8621515caafa3,6107d0959f7c4c3641818b95,611be51f31d73786f4ff194b,
,,,,space,0.4727,,0,41,41,298,1,I, , , , ,space,2000,2,5ed6d1a6c3b8621515caafa3,001,2021-08-17_17h30.45.678,natb3,2021.2.3,Win32,60.18657839,5ed6d1a6c3b8621515caafa3,6107d0959f7c4c3641818b95,611be51f31d73786f4ff194b,
,,,,space,0.5922,,0,42,42,111,1,O, , , , ,space,2000,2,5ed6d1a6c3b8621515caafa3,001,2021-08-17_17h30.45.678,natb3,2021.2.3,Win32,60.18657839,5ed6d1a6c3b8621515caafa3,6107d0959f7c4c3641818b95,611be51f31d73786f4ff194b,
,,,,,,,0,43,43,268,1,X,6, ,3, ,,2500,2.5,5ed6d1a6c3b8621515caafa3,001,2021-08-17_17h30.45.678,natb3,2021.2.3,Win32,60.18657839,5ed6d1a6c3b8621515caafa3,6107d0959f7c4c3641818b95,611be51f31d73786f4ff194b,
,,,,,,,0,44,44,96,1,X, , , , ,,1500,1.5,5ed6d1a6c3b8621515caafa3,001,2021-08-17_17h30.45.678,natb3,2021.2.3,Win32,60.18657839,5ed6d1a6c3b8621515caafa3,6107d0959f7c4c3641818b95,611be51f31d73786f4ff194b,
,,,,space,0.418,,0,45,45,269,1,A, , , , ,space,2500,2.5,5ed6d1a6c3b8621515caafa3,001,2021-08-17_17h30.45.678,natb3,2021.2.3,Win32,60.18657839,5ed6d1a6c3b8621515caafa3,6107d0959f7c4c3641818b95,611be51f31d73786f4ff194b,
,,,,,,,0,46,46,325,1,X, , , , ,,2500,2.5,5ed6d1a6c3b8621515caafa3,001,2021-08-17_17h30.45.678,natb3,2021.2.3,Win32,60.18657839,5ed6d1a6c3b8621515caafa3,6107d0959f7c4c3641818b95,611be51f31d73786f4ff194b,
,,,,space,0.5334,,0,47,47,28,1,V, , , , ,space,1500,1.5,5ed6d1a6c3b8621515caafa3,001,2021-08-17_17h30.45.678,natb3,2021.2.3,Win32,60.18657839,5ed6d1a6c3b8621515caafa3,6107d0959f7c4c3641818b95,611be51f31d73786f4ff194b,
,,,,,,,0,48,48,69,1,X, , , , ,,1500,1.5,5ed6d1a6c3b8621515caafa3,001,2021-08-17_17h30.45.678,natb3,2021.2.3,Win32,60.18657839,5ed6d1a6c3b8621515caafa3,6107d0959f7c4c3641818b95,611be51f31d73786f4ff194b,
,,,,space,0.6001,,0,49,49,217,1,T, , , , ,space,2500,2.5,5ed6d1a6c3b8621515caafa3,001,2021-08-17_17h30.45.678,natb3,2021.2.3,Win32,60.18657839,5ed6d1a6c3b8621515caafa3,6107d0959f7c4c3641818b95,611be51f31d73786f4ff194b,
,,,,space,0.6255,,0,50,50,231,1,I, , , , ,space,2500,2.5,5ed6d1a6c3b8621515caafa3,001,2021-08-17_17h30.45.678,natb3,2021.2.3,Win32,60.18657839,5ed6d1a6c3b8621515caafa3,6107d0959f7c4c3641818b95,611be51f31d73786f4ff194b,
,,,,,,,0,51,51,295,1,X,8,7,5, ,,2500,2.5,5ed6d1a6c3b8621515caafa3,001,2021-08-17_17h30.45.678,natb3,2021.2.3,Win32,60.18657839,5ed6d1a6c3b8621515caafa3,6107d0959f7c4c3641818b95,611be51f31d73786f4ff194b,
,,,,space,0.6339,,0,52,52,92,1,Z, , , , ,space,1500,1.5,5ed6d1a6c3b8621515caafa3,001,2021-08-17_17h30.45.678,natb3,2021.2.3,Win32,60.18657839,5ed6d1a6c3b8621515caafa3,6107d0959f7c4c3641818b95,611be51f31d73786f4ff194b,
,,,,space,0.5111,,0,53,53,110,1,I, , , , ,space,1500,1.5,5ed6d1a6c3b8621515caafa3,001,2021-08-17_17h30.45.678,natb3,2021.2.3,Win32,60.18657839,5ed6d1a6c3b8621515caafa3,6107d0959f7c4c3641818b95,611be51f31d73786f4ff194b,
,,,,space,0.5194,,0,54,54,80,1,A, , , , ,space,2000,2,5ed6d1a6c3b8621515caafa3,001,2021-08-17_17h30.45.678,natb3,2021.2.3,Win32,60.18657839,5ed6d1a6c3b8621515caafa3,6107d0959f7c4c3641818b95,611be51f31d73786f4ff194b,
,,,,space,0.4109,,0,55,55,149,1,R, , , , ,space,2000,2,5ed6d1a6c3b8621515caafa3,001,2021-08-17_17h30.45.678,natb3,2021.2.3,Win32,60.18657839,5ed6d1a6c3b8621515caafa3,6107d0959f7c4c3641818b95,611be51f31d73786f4ff194b,
,,,,,,,0,56,56,60,1,X,7,3,5, ,,1500,1.5,5ed6d1a6c3b8621515caafa3,001,2021-08-17_17h30.45.678,natb3,2021.2.3,Win32,60.18657839,5ed6d1a6c3b8621515caafa3,6107d0959f7c4c3641818b95,611be51f31d73786f4ff194b,
,,,,space,0.5719,,0,57,57,319,1,V, , , , ,space,2000,2,5ed6d1a6c3b8621515caafa3,001,2021-08-17_17h30.45.678,natb3,2021.2.3,Win32,60.18657839,5ed6d1a6c3b8621515caafa3,6107d0959f7c4c3641818b95,611be51f31d73786f4ff194b,
,,,,space,0.4354,,0,58,58,121,1,I, , , , ,space,2000,2,5ed6d1a6c3b8621515caafa3,001,2021-08-17_17h30.45.678,natb3,2021.2.3,Win32,60.18657839,5ed6d1a6c3b8621515caafa3,6107d0959f7c4c3641818b95,611be51f31d73786f4ff194b,
,,,,space,0.4451,,0,59,59,309,1,H, , , , ,space,2500,2.5,5ed6d1a6c3b8621515caafa3,001,2021-08-17_17h30.45.678,natb3,2021.2.3,Win32,60.18657839,5ed6d1a6c3b8621515caafa3,6107d0959f7c4c3641818b95,611be51f31d73786f4ff194b,
,,,,space,0.4452,,0,60,60,124,1,P, , , , ,space,2000,2,5ed6d1a6c3b8621515caafa3,001,2021-08-17_17h30.45.678,natb3,2021.2.3,Win32,60.18657839,5ed6d1a6c3b8621515caafa3,6107d0959f7c4c3641818b95,611be51f31d73786f4ff194b,
,,,,,,,0,61,61,125,1,X, , , , ,,2000,2,5ed6d1a6c3b8621515caafa3,001,2021-08-17_17h30.45.678,natb3,2021.2.3,Win32,60.18657839,5ed6d1a6c3b8621515caafa3,6107d0959f7c4c3641818b95,611be51f31d73786f4ff194b,
,,,,space,0.4099,,0,62,62,314,1,L, , , , ,space,1500,1.5,5ed6d1a6c3b8621515caafa3,001,2021-08-17_17h30.45.678,natb3,2021.2.3,Win32,60.18657839,5ed6d1a6c3b8621515caafa3,6107d0959f7c4c3641818b95,611be51f31d73786f4ff194b,
,,,,,,,0,63,63,82,1,X,4,6,1,7,,2000,2,5ed6d1a6c3b8621515caafa3,001,2021-08-17_17h30.45.678,natb3,2021.2.3,Win32,60.18657839,5ed6d1a6c3b8621515caafa3,6107d0959f7c4c3641818b95,611be51f31d73786f4ff194b,
,,,,space,0.3394,,0,64,64,150,1,T, , , , ,space,2500,2.5,5ed6d1a6c3b8621515caafa3,001,2021-08-17_17h30.45.678,natb3,2021.2.3,Win32,60.18657839,5ed6d1a6c3b8621515caafa3,6107d0959f7c4c3641818b95,611be51f31d73786f4ff194b,
,,,,space,0.3329,,0,65,65,277,1,X,8,5, ,2,,2000,2,5ed6d1a6c3b8621515caafa3,001,2021-08-17_17h30.45.678,natb3,2021.2.3,Win32,60.18657839,5ed6d1a6c3b8621515caafa3,6107d0959f7c4c3641818b95,611be51f31d73786f4ff194b,
,,,,space,0.4825,,0,66,66,151,1,Y, , , , ,space,2500,2.5,5ed6d1a6c3b8621515caafa3,001,2021-08-17_17h30.45.678,natb3,2021.2.3,Win32,60.18657839,5ed6d1a6c3b8621515caafa3,6107d0959f7c4c3641818b95,611be51f31d73786f4ff194b,
,,,,space,0.5387,,0,67,67,280,1,L, , , , ,space,1500,1.5,5ed6d1a6c3b8621515caafa3,001,2021-08-17_17h30.45.678,natb3,2021.2.3,Win32,60.18657839,5ed6d1a6c3b8621515caafa3,6107d0959f7c4c3641818b95,611be51f31d73786f4ff194b,
,,,,space,0.511,,0,68,68,226,1,R, , , , ,space,2000,2,5ed6d1a6c3b8621515caafa3,001,2021-08-17_17h30.45.678,natb3,2021.2.3,Win32,60.18657839,5ed6d1a6c3b8621515caafa3,6107d0959f7c4c3641818b95,611be51f31d73786f4ff194b,
,,,,space,0.5959,,0,69,69,225,1,E, , , , ,space,2000,2,5ed6d1a6c3b8621515caafa3,001,2021-08-17_17h30.45.678,natb3,2021.2.3,Win32,60.18657839,5ed6d1a6c3b8621515caafa3,6107d0959f7c4c3641818b95,611be51f31d73786f4ff194b,
,,,,space,0.596,,0,70,70,85,1,F, , , , ,space,2500,2.5,5ed6d1a6c3b8621515caafa3,001,2021-08-17_17h30.45.678,natb3,2021.2.3,Win32,60.18657839,5ed6d1a6c3b8621515caafa3,6107d0959f7c4c3641818b95,611be51f31d73786f4ff194b,
,,,,space,0.45,,0,71,71,222,1,O, , , , ,space,2000,2,5ed6d1a6c3b8621515caafa3,001,2021-08-17_17h30.45.678,natb3,2021.2.3,Win32,60.18657839,5ed6d1a6c3b8621515caafa3,6107d0959f7c4c3641818b95,611be51f31d73786f4ff194b,
,,,,space,0.3778,,0,72,72,331,1,Y, , , , ,space,2500,2.5,5ed6d1a6c3b8621515caafa3,001,2021-08-17_17h30.45.678,natb3,2021.2.3,Win32,60.18657839,5ed6d1a6c3b8621515caafa3,6107d0959f7c4c3641818b95,611be51f31d73786f4ff194b,
,,,,space,0.3792,,0,73,73,264,1,U, , , , ,space,2000,2,5ed6d1a6c3b8621515caafa3,001,2021-08-17_17h30.45.678,natb3,2021.2.3,Win32,60.18657839,5ed6d1a6c3b8621515caafa3,6107d0959f7c4c3641818b95,611be51f31d73786f4ff194b,
,,,,space,0.3592,,0,74,74,270,1,S, , , , ,space,1500,1.5,5ed6d1a6c3b8621515caafa3,001,2021-08-17_17h30.45.678,natb3,2021.2.3,Win32,60.18657839,5ed6d1a6c3b8621515caafa3,6107d0959f7c4c3641818b95,611be51f31d73786f4ff194b,
,,,,space,0.408,,0,75,75,50,1,D, , , , ,space,1500,1.5,5ed6d1a6c3b8621515caafa3,001,2021-08-17_17h30.45.678,natb3,2021.2.3,Win32,60.18657839,5ed6d1a6c3b8621515caafa3,6107d0959f7c4c3641818b95,611be51f31d73786f4ff194b,
,,,,space,0.5366,,0,76,76,22,1,K, , , , ,space,2000,2,5ed6d1a6c3b8621515caafa3,001,2021-08-17_17h30.45.678,natb3,2021.2.3,Win32,60.18657839,5ed6d1a6c3b8621515caafa3,6107d0959f7c4c3641818b95,611be51f31d73786f4ff194b,
,,,,,,,0,77,77,107,1,X,9,3, ,2,,2000,2,5ed6d1a6c3b8621515caafa3,001,2021-08-17_17h30.45.678,natb3,2021.2.3,Win32,60.18657839,5ed6d1a6c3b8621515caafa3,6107d0959f7c4c3641818b95,611be51f31d73786f4ff194b,
,,,,,,,0,78,78,51,1,X,7,5,8, ,,1500,1.5,5ed6d1a6c3b8621515caafa3,001,2021-08-17_17h30.45.678,natb3,2021.2.3,Win32,60.18657839,5ed6d1a6c3b8621515caafa3,6107d0959f7c4c3641818b95,611be51f31d73786f4ff194b,
,,,,space,0.4683,,0,79,79,192,1,A, , , , ,space,2000,2,5ed6d1a6c3b8621515caafa3,001,2021-08-17_17h30.45.678,natb3,2021.2.3,Win32,60.18657839,5ed6d1a6c3b8621515caafa3,6107d0959f7c4c3641818b95,611be51f31d73786f4ff194b,
,,,,space,0.395,,0,80,80,56,1,J, , , , ,space,1500,1.5,5ed6d1a6c3b8621515caafa3,001,2021-08-17_17h30.45.678,natb3,2021.2.3,Win32,60.18657839,5ed6d1a6c3b8621515caafa3,6107d0959f7c4c3641818b95,611be51f31d73786f4ff194b,
,,,,space,0.3818,,0,81,81,266,1,O, , , , ,space,1500,1.5,5ed6d1a6c3b8621515caafa3,001,2021-08-17_17h30.45.678,natb3,2021.2.3,Win32,60.18657839,5ed6d1a6c3b8621515caafa3,6107d0959f7c4c3641818b95,611be51f31d73786f4ff194b,
,,,,,,,0,82,82,243,1,X, , , , ,,2500,2.5,5ed6d1a6c3b8621515caafa3,001,2021-08-17_17h30.45.678,natb3,2021.2.3,Win32,60.18657839,5ed6d1a6c3b8621515caafa3,6107d0959f7c4c3641818b95,611be51f31d73786f4ff194b,
,,,,space,0.3769,,0,83,83,83,1,D, , , , ,space,2000,2,5ed6d1a6c3b8621515caafa3,001,2021-08-17_17h30.45.678,natb3,2021.2.3,Win32,60.18657839,5ed6d1a6c3b8621515caafa3,6107d0959f7c4c3641818b95,611be51f31d73786f4ff194b,
,,,,space,0.4,,0,84,84,63,1,B, , , , ,space,2000,2,5ed6d1a6c3b8621515caafa3,001,2021-08-17_17h30.45.678,natb3,2021.2.3,Win32,60.18657839,5ed6d1a6c3b8621515caafa3,6107d0959f7c4c3641818b95,611be51f31d73786f4ff194b,
,,,,space,0.5377,,0,85,85,41,1,Y, , , , ,space,2500,2.5,5ed6d1a6c3b8621515caafa3,001,2021-08-17_17h30.45.678,natb3,2021.2.3,Win32,60.18657839,5ed6d1a6c3b8621515caafa3,6107d0959f7c4c3641818b95,611be51f31d73786f4ff194b,
,,,,space,0.3332,,0,86,86,271,1,X, , , , ,,2500,2.5,5ed6d1a6c3b8621515caafa3,001,2021-08-17_17h30.45.678,natb3,2021.2.3,Win32,60.18657839,5ed6d1a6c3b8621515caafa3,6107d0959f7c4c3641818b95,611be51f31d73786f4ff194b,
,,,,space,0.4235,,0,87,87,91,1,L, , , , ,space,2000,2,5ed6d1a6c3b8621515caafa3,001,2021-08-17_17h30.45.678,natb3,2021.2.3,Win32,60.18657839,5ed6d1a6c3b8621515caafa3,6107d0959f7c4c3641818b95,611be51f31d73786f4ff194b,
,,,,,,,0,88,88,145,1,X, , , , ,,2000,2,5ed6d1a6c3b8621515caafa3,001,2021-08-17_17h30.45.678,natb3,2021.2.3,Win32,60.18657839,5ed6d1a6c3b8621515caafa3,6107d0959f7c4c3641818b95,611be51f31d73786f4ff194b,
,,,,,,,0,89,89,84,1,X, , , , ,,2000,2,5ed6d1a6c3b8621515caafa3,001,2021-08-17_17h30.45.678,natb3,2021.2.3,Win32,60.18657839,5ed6d1a6c3b8621515caafa3,6107d0959f7c4c3641818b95,611be51f31d73786f4ff194b,
,,,,space,0.4867,,0,90,90,324,1,Q, , , , ,space,2000,2,5ed6d1a6c3b8621515caafa3,001,2021-08-17_17h30.45.678,natb3,2021.2.3,Win32,60.18657839,5ed6d1a6c3b8621515caafa3,6107d0959f7c4c3641818b95,611be51f31d73786f4ff194b,
,,,,space,0.7118,,0,91,91,327,1,E, , , , ,space,1500,1.5,5ed6d1a6c3b8621515caafa3,001,2021-08-17_17h30.45.678,natb3,2021.2.3,Win32,60.18657839,5ed6d1a6c3b8621515caafa3,6107d0959f7c4c3641818b95,611be51f31d73786f4ff194b,
,,,,space,0.9112,,0,92,92,79,1,P, , , , ,space,2000,2,5ed6d1a6c3b8621515caafa3,001,2021-08-17_17h30.45.678,natb3,2021.2.3,Win32,60.18657839,5ed6d1a6c3b8621515caafa3,6107d0959f7c4c3641818b95,611be51f31d73786f4ff194b,
,,,,,,,0,93,93,98,1,X, , , , ,,2500,2.5,5ed6d1a6c3b8621515caafa3,001,2021-08-17_17h30.45.678,natb3,2021.2.3,Win32,60.18657839,5ed6d1a6c3b8621515caafa3,6107d0959f7c4c3641818b95,611be51f31d73786f4ff194b,
,,,,space,0.4193,,0,94,94,134,1,J, , , , ,space,2000,2,5ed6d1a6c3b8621515caafa3,001,2021-08-17_17h30.45.678,natb3,2021.2.3,Win32,60.18657839,5ed6d1a6c3b8621515caafa3,6107d0959f7c4c3641818b95,611be51f31d73786f4ff194b,
,,,,space,0.4917,,0,95,95,278,1,J, , , , ,space,2000,2,5ed6d1a6c3b8621515caafa3,001,2021-08-17_17h30.45.678,natb3,2021.2.3,Win32,60.18657839,5ed6d1a6c3b8621515caafa3,6107d0959f7c4c3641818b95,611be51f31d73786f4ff194b,
,,,,space,0.5031,,0,96,96,75,1,U, , , , ,space,1500,1.5,5ed6d1a6c3b8621515caafa3,001,2021-08-17_17h30.45.678,natb3,2021.2.3,Win32,60.18657839,5ed6d1a6c3b8621515caafa3,6107d0959f7c4c3641818b95,611be51f31d73786f4ff194b,
,,,,space,0.5438,,0,97,97,68,1,W, , , , ,space,2500,2.5,5ed6d1a6c3b8621515caafa3,001,2021-08-17_17h30.45.678,natb3,2021.2.3,Win32,60.18657839,5ed6d1a6c3b8621515caafa3,6107d0959f7c4c3641818b95,611be51f31d73786f4ff194b,
,,,,space,0.4214,,0,98,98,194,1,D, , , , ,space,2000,2,5ed6d1a6c3b8621515caafa3,001,2021-08-17_17h30.45.678,natb3,2021.2.3,Win32,60.18657839,5ed6d1a6c3b8621515caafa3,6107d0959f7c4c3641818b95,611be51f31d73786f4ff194b,
,,,,space,0.5517,,0,99,99,185,1,Y, , , , ,space,2500,2.5,5ed6d1a6c3b8621515caafa3,001,2021-08-17_17h30.45.678,natb3,2021.2.3,Win32,60.18657839,5ed6d1a6c3b8621515caafa3,6107d0959f7c4c3641818b95,611be51f31d73786f4ff194b,
,,,,space,0.667,,0,100,100,196,1,F, , , , ,space,1500,1.5,5ed6d1a6c3b8621515caafa3,001,2021-08-17_17h30.45.678,natb3,2021.2.3,Win32,60.18657839,5ed6d1a6c3b8621515caafa3,6107d0959f7c4c3641818b95,611be51f31d73786f4ff194b,
,,,,space,0.3343,,0,101,101,284,1,V, , , , ,space,2500,2.5,5ed6d1a6c3b8621515caafa3,001,2021-08-17_17h30.45.678,natb3,2021.2.3,Win32,60.18657839,5ed6d1a6c3b8621515caafa3,6107d0959f7c4c3641818b95,611be51f31d73786f4ff194b,
,,,,space,0.5004,,0,102,102,10,1,O, , , , ,space,2000,2,5ed6d1a6c3b8621515caafa3,001,2021-08-17_17h30.45.678,natb3,2021.2.3,Win32,60.18657839,5ed6d1a6c3b8621515caafa3,6107d0959f7c4c3641818b95,611be51f31d73786f4ff194b,
,,,,space,0.3829,,0,103,103,131,1,G, , , , ,space,1500,1.5,5ed6d1a6c3b8621515caafa3,001,2021-08-17_17h30.45.678,natb3,2021.2.3,Win32,60.18657839,5ed6d1a6c3b8621515caafa3,6107d0959f7c4c3641818b95,611be51f31d73786f4ff194b,
,,,,,,,0,104,104,248,1,X, ,1,5, ,,1500,1.5,5ed6d1a6c3b8621515caafa3,001,2021-08-17_17h30.45.678,natb3,2021.2.3,Win32,60.18657839,5ed6d1a6c3b8621515caafa3,6107d0959f7c4c3641818b95,611be51f31d73786f4ff194b,
,,,,space,0.4362,,0,105,105,52,1,F, , , , ,space,1500,1.5,5ed6d1a6c3b8621515caafa3,001,2021-08-17_17h30.45.678,natb3,2021.2.3,Win32,60.18657839,5ed6d1a6c3b8621515caafa3,6107d0959f7c4c3641818b95,611be51f31d73786f4ff194b,
,,,,space,0.5282,,0,106,106,224,1,W, , , , ,space,1500,1.5,5ed6d1a6c3b8621515caafa3,001,2021-08-17_17h30.45.678,natb3,2021.2.3,Win32,60.18657839,5ed6d1a6c3b8621515caafa3,6107d0959f7c4c3641818b95,611be51f31d73786f4ff194b,
,,,,space,0.3897,,0,107,107,177,1,M, , , , ,space,2500,2.5,5ed6d1a6c3b8621515caafa3,001,2021-08-17_17h30.45.678,natb3,2021.2.3,Win32,60.18657839,5ed6d1a6c3b8621515caafa3,6107d0959f7c4c3641818b95,611be51f31d73786f4ff194b,
,,,,space,0.3362,,0,108,108,294,1,T, , , , ,space,2000,2,5ed6d1a6c3b8621515caafa3,001,2021-08-17_17h30.45.678,natb3,2021.2.3,Win32,60.18657839,5ed6d1a6c3b8621515caafa3,6107d0959f7c4c3641818b95,611be51f31d73786f4ff194b,
,,,,space,0.4443,,0,109,109,105,1,R, , , , ,space,2500,2.5,5ed6d1a6c3b8621515caafa3,001,2021-08-17_17h30.45.678,natb3,2021.2.3,Win32,60.18657839,5ed6d1a6c3b8621515caafa3,6107d0959f7c4c3641818b95,611be51f31d73786f4ff194b,
,,,,space,0.4762,,0,110,110,123,1,O, , , , ,space,1500,1.5,5ed6d1a6c3b8621515caafa3,001,2021-08-17_17h30.45.678,natb3,2021.2.3,Win32,60.18657839,5ed6d1a6c3b8621515caafa3,6107d0959f7c4c3641818b95,611be51f31d73786f4ff194b,
,,,,space,0.5092,,0,111,111,146,1,W, , , , ,space,1500,1.5,5ed6d1a6c3b8621515caafa3,001,2021-08-17_17h30.45.678,natb3,2021.2.3,Win32,60.18657839,5ed6d1a6c3b8621515caafa3,6107d0959f7c4c3641818b95,611be51f31d73786f4ff194b,
,,,,space,0.4199,,0,112,112,304,1,S, , , , ,space,2000,2,5ed6d1a6c3b8621515caafa3,001,2021-08-17_17h30.45.678,natb3,2021.2.3,Win32,60.18657839,5ed6d1a6c3b8621515caafa3,6107d0959f7c4c3641818b95,611be51f31d73786f4ff194b,
,,,,space,0.3819,,0,113,113,223,1,Q, , , , ,space,2000,2,5ed6d1a6c3b8621515caafa3,001,2021-08-17_17h30.45.678,natb3,2021.2.3,Win32,60.18657839,5ed6d1a6c3b8621515caafa3,6107d0959f7c4c3641818b95,611be51f31d73786f4ff194b,
,,,,,,,0,114,114,207,1,X,9, ,2, ,,2500,2.5,5ed6d1a6c3b8621515caafa3,001,2021-08-17_17h30.45.678,natb3,2021.2.3,Win32,60.18657839,5ed6d1a6c3b8621515caafa3,6107d0959f7c4c3641818b95,611be51f31d73786f4ff194b,
,,,,space,0.6536,,0,115,115,37,1,E, , , , ,space,2500,2.5,5ed6d1a6c3b8621515caafa3,001,2021-08-17_17h30.45.678,natb3,2021.2.3,Win32,60.18657839,5ed6d1a6c3b8621515caafa3,6107d0959f7c4c3641818b95,611be51f31d73786f4ff194b,
,,,,space,0.5114,,0,116,116,286,1,N, , , , ,space,1500,1.5,5ed6d1a6c3b8621515caafa3,001,2021-08-17_17h30.45.678,natb3,2021.2.3,Win32,60.18657839,5ed6d1a6c3b8621515caafa3,6107d0959f7c4c3641818b95,611be51f31d73786f4ff194b,
,,,,space,0.4327,,0,117,117,300,1,O, , , , ,space,2500,2.5,5ed6d1a6c3b8621515caafa3,001,2021-08-17_17h30.45.678,natb3,2021.2.3,Win32,60.18657839,5ed6d1a6c3b8621515caafa3,6107d0959f7c4c3641818b95,611be51f31d73786f4ff194b,
,,,,,,,0,118,118,229,1,X,8, ,2,6,,2500,2.5,5ed6d1a6c3b8621515caafa3,001,2021-08-17_17h30.45.678,natb3,2021.2.3,Win32,60.18657839,5ed6d1a6c3b8621515caafa3,6107d0959f7c4c3641818b95,611be51f31d73786f4ff194b,
,,,,space,0.8658,,0,119,119,65,1,M, , , , ,space,1500,1.5,5ed6d1a6c3b8621515caafa3,001,2021-08-17_17h30.45.678,natb3,2021.2.3,Win32,60.18657839,5ed6d1a6c3b8621515caafa3,6107d0959f7c4c3641818b95,611be51f31d73786f4ff194b,
,,,,space,0.5176,,0,120,120,163,1,G, , , , ,space,2500,2.5,5ed6d1a6c3b8621515caafa3,001,2021-08-17_17h30.45.678,natb3,2021.2.3,Win32,60.18657839,5ed6d1a6c3b8621515caafa3,6107d0959f7c4c3641818b95,611be51f31d73786f4ff194b,
,,,,space,0.3796,,0,121,121,179,1,X, ,9, ,2,,1500,1.5,5ed6d1a6c3b8621515caafa3,001,2021-08-17_17h30.45.678,natb3,2021.2.3,Win32,60.18657839,5ed6d1a6c3b8621515caafa3,6107d0959f7c4c3641818b95,611be51f31d73786f4ff194b,
,,,,space,0.5312,,0,122,122,154,1,I, , , , ,space,2500,2.5,5ed6d1a6c3b8621515caafa3,001,2021-08-17_17h30.45.678,natb3,2021.2.3,Win32,60.18657839,5ed6d1a6c3b8621515caafa3,6107d0959f7c4c3641818b95,611be51f31d73786f4ff194b,
,,,,,,,0,123,123,313,1,X, , , , ,,2500,2.5,5ed6d1a6c3b8621515caafa3,001,2021-08-17_17h30.45.678,natb3,2021.2.3,Win32,60.18657839,5ed6d1a6c3b8621515caafa3,6107d0959f7c4c3641818b95,611be51f31d73786f4ff194b,
,,,,space,0.5133,,0,124,124,323,1,M, , , , ,space,2500,2.5,5ed6d1a6c3b8621515caafa3,001,2021-08-17_17h30.45.678,natb3,2021.2.3,Win32,60.18657839,5ed6d1a6c3b8621515caafa3,6107d0959f7c4c3641818b95,611be51f31d73786f4ff194b,
,,,,space,0.4603,,0,125,125,181,1,E, , , , ,space,1500,1.5,5ed6d1a6c3b8621515caafa3,001,2021-08-17_17h30.45.678,natb3,2021.2.3,Win32,60.18657839,5ed6d1a6c3b8621515caafa3,6107d0959f7c4c3641818b95,611be51f31d73786f4ff194b,
,,,,space,0.3653,,0,126,126,198,1,H, , , , ,space,2500,2.5,5ed6d1a6c3b8621515caafa3,001,2021-08-17_17h30.45.678,natb3,2021.2.3,Win32,60.18657839,5ed6d1a6c3b8621515caafa3,6107d0959f7c4c3641818b95,611be51f31d73786f4ff194b,
,,,,space,0.369,,0,127,127,71,1,R, , , , ,space,2500,2.5,5ed6d1a6c3b8621515caafa3,001,2021-08-17_17h30.45.678,natb3,2021.2.3,Win32,60.18657839,5ed6d1a6c3b8621515caafa3,6107d0959f7c4c3641818b95,611be51f31d73786f4ff194b,
,,,,space,0.5991,,0,128,128,258,1,E, , , , ,space,1500,1.5,5ed6d1a6c3b8621515caafa3,001,2021-08-17_17h30.45.678,natb3,2021.2.3,Win32,60.18657839,5ed6d1a6c3b8621515caafa3,6107d0959f7c4c3641818b95,611be51f31d73786f4ff194b,
,,,,,,,0,129,129,255,1,X, , , , ,,1500,1.5,5ed6d1a6c3b8621515caafa3,001,2021-08-17_17h30.45.678,natb3,2021.2.3,Win32,60.18657839,5ed6d1a6c3b8621515caafa3,6107d0959f7c4c3641818b95,611be51f31d73786f4ff194b,
,,,,,,,0,130,130,141,1,X,1, ,4,6,,1500,1.5,5ed6d1a6c3b8621515caafa3,001,2021-08-17_17h30.45.678,natb3,2021.2.3,Win32,60.18657839,5ed6d1a6c3b8621515caafa3,6107d0959f7c4c3641818b95,611be51f31d73786f4ff194b,
,,,,space,0.387,,0,131,131,202,1,L, , , , ,space,2500,2.5,5ed6d1a6c3b8621515caafa3,001,2021-08-17_17h30.45.678,natb3,2021.2.3,Win32,60.18657839,5ed6d1a6c3b8621515caafa3,6107d0959f7c4c3641818b95,611be51f31d73786f4ff194b,
,,,,space,0.3789,,0,132,132,5,1,T, , , , ,space,2000,2,5ed6d1a6c3b8621515caafa3,001,2021-08-17_17h30.45.678,natb3,2021.2.3,Win32,60.18657839,5ed6d1a6c3b8621515caafa3,6107d0959f7c4c3641818b95,611be51f31d73786f4ff194b,
,,,,space,0.4755,,0,133,133,108,1,Y, , , , ,space,2500,2.5,5ed6d1a6c3b8621515caafa3,001,2021-08-17_17h30.45.678,natb3,2021.2.3,Win32,60.18657839,5ed6d1a6c3b8621515caafa3,6107d0959f7c4c3641818b95,611be51f31d73786f4ff194b,
,,,,,,,0,134,134,23,1,X,1, ,5, ,,2000,2,5ed6d1a6c3b8621515caafa3,001,2021-08-17_17h30.45.678,natb3,2021.2.3,Win32,60.18657839,5ed6d1a6c3b8621515caafa3,6107d0959f7c4c3641818b95,611be51f31d73786f4ff194b,
,,,,space,0.4756,,0,135,135,14,1,S, , , , ,space,2500,2.5,5ed6d1a6c3b8621515caafa3,001,2021-08-17_17h30.45.678,natb3,2021.2.3,Win32,60.18657839,5ed6d1a6c3b8621515caafa3,6107d0959f7c4c3641818b95,611be51f31d73786f4ff194b,
,,,,space,0.5686,,0,136,136,257,1,W, , , , ,space,2000,2,5ed6d1a6c3b8621515caafa3,001,2021-08-17_17h30.45.678,natb3,2021.2.3,Win32,60.18657839,5ed6d1a6c3b8621515caafa3,6107d0959f7c4c3641818b95,611be51f31d73786f4ff194b,
,,,,,,,0,137,137,218,1,X,1,3, ,8,,1500,1.5,5ed6d1a6c3b8621515caafa3,001,2021-08-17_17h30.45.678,natb3,2021.2.3,Win32,60.18657839,5ed6d1a6c3b8621515caafa3,6107d0959f7c4c3641818b95,611be51f31d73786f4ff194b,
,,,,,,,0,138,138,138,1,X,8,5, ,3,,2000,2,5ed6d1a6c3b8621515caafa3,001,2021-08-17_17h30.45.678,natb3,2021.2.3,Win32,60.18657839,5ed6d1a6c3b8621515caafa3,6107d0959f7c4c3641818b95,611be51f31d73786f4ff194b,
,,,,,,,0,139,139,15,1,X, , , , ,,1500,1.5,5ed6d1a6c3b8621515caafa3,001,2021-08-17_17h30.45.678,natb3,2021.2.3,Win32,60.18657839,5ed6d1a6c3b8621515caafa3,6107d0959f7c4c3641818b95,611be51f31d73786f4ff194b,
,,,,space,0.5816,,0,140,140,176,1,N, , , , ,space,1500,1.5,5ed6d1a6c3b8621515caafa3,001,2021-08-17_17h30.45.678,natb3,2021.2.3,Win32,60.18657839,5ed6d1a6c3b8621515caafa3,6107d0959f7c4c3641818b95,611be51f31d73786f4ff194b,
,,,,space,0.4766,,0,141,141,210,1,M, , , , ,space,1500,1.5,5ed6d1a6c3b8621515caafa3,001,2021-08-17_17h30.45.678,natb3,2021.2.3,Win32,60.18657839,5ed6d1a6c3b8621515caafa3,6107d0959f7c4c3641818b95,611be51f31d73786f4ff194b,
,,,,space,0.5105,,0,142,142,58,1,L, , , , ,space,2000,2,5ed6d1a6c3b8621515caafa3,001,2021-08-17_17h30.45.678,natb3,2021.2.3,Win32,60.18657839,5ed6d1a6c3b8621515caafa3,6107d0959f7c4c3641818b95,611be51f31d73786f4ff194b,
,,,,space,0.7002,,0,143,143,59,1,Z, , , , ,space,2000,2,5ed6d1a6c3b8621515caafa3,001,2021-08-17_17h30.45.678,natb3,2021.2.3,Win32,60.18657839,5ed6d1a6c3b8621515caafa3,6107d0959f7c4c3641818b95,611be51f31d73786f4ff194b,
,,,,space,0.3483,,0,144,144,288,1,M, , , , ,space,1500,1.5,5ed6d1a6c3b8621515caafa3,001,2021-08-17_17h30.45.678,natb3,2021.2.3,Win32,60.18657839,5ed6d1a6c3b8621515caafa3,6107d0959f7c4c3641818b95,611be51f31d73786f4ff194b,
,,,,space,0.4993,,0,145,145,47,1,P, , , , ,space,2000,2,5ed6d1a6c3b8621515caafa3,001,2021-08-17_17h30.45.678,natb3,2021.2.3,Win32,60.18657839,5ed6d1a6c3b8621515caafa3,6107d0959f7c4c3641818b95,611be51f31d73786f4ff194b,
,,,,space,0.5117,,0,146,146,36,1,W, , , , ,space,2000,2,5ed6d1a6c3b8621515caafa3,001,2021-08-17_17h30.45.678,natb3,2021.2.3,Win32,60.18657839,5ed6d1a6c3b8621515caafa3,6107d0959f7c4c3641818b95,611be51f31d73786f4ff194b,
,,,,space,0.4282,,0,147,147,228,1,Y, , , , ,space,2000,2,5ed6d1a6c3b8621515caafa3,001,2021-08-17_17h30.45.678,natb3,2021.2.3,Win32,60.18657839,5ed6d1a6c3b8621515caafa3,6107d0959f7c4c3641818b95,611be51f31d73786f4ff194b,
,,,,space,0.4358,,0,148,148,276,1,H, , , , ,space,2000,2,5ed6d1a6c3b8621515caafa3,001,2021-08-17_17h30.45.678,natb3,2021.2.3,Win32,60.18657839,5ed6d1a6c3b8621515caafa3,6107d0959f7c4c3641818b95,611be51f31d73786f4ff194b,
,,,,space,0.5287,,0,149,149,332,1,U, , , , ,space,2000,2,5ed6d1a6c3b8621515caafa3,001,2021-08-17_17h30.45.678,natb3,2021.2.3,Win32,60.18657839,5ed6d1a6c3b8621515caafa3,6107d0959f7c4c3641818b95,611be51f31d73786f4ff194b,
,,,,space,0.7091,,0,150,150,334,1,O, , , , ,space,1500,1.5,5ed6d1a6c3b8621515caafa3,001,2021-08-17_17h30.45.678,natb3,2021.2.3,Win32,60.18657839,5ed6d1a6c3b8621515caafa3,6107d0959f7c4c3641818b95,611be51f31d73786f4ff194b,
,,,,space,0.3138,,0,151,151,90,1,K, , , , ,space,2000,2,5ed6d1a6c3b8621515caafa3,001,2021-08-17_17h30.45.678,natb3,2021.2.3,Win32,60.18657839,5ed6d1a6c3b8621515caafa3,6107d0959f7c4c3641818b95,611be51f31d73786f4ff194b,
,,,,space,0.4144,,0,152,152,328,1,R, , , , ,space,1500,1.5,5ed6d1a6c3b8621515caafa3,001,2021-08-17_17h30.45.678,natb3,2021.2.3,Win32,60.18657839,5ed6d1a6c3b8621515caafa3,6107d0959f7c4c3641818b95,611be51f31d73786f4ff194b,
,,,,space,0.3527,,0,153,153,165,1,J, , , , ,space,2500,2.5,5ed6d1a6c3b8621515caafa3,001,2021-08-17_17h30.45.678,natb3,2021.2.3,Win32,60.18657839,5ed6d1a6c3b8621515caafa3,6107d0959f7c4c3641818b95,611be51f31d73786f4ff194b,
,,,,space,0.5849,,0,154,154,48,1,A, , , , ,space,2500,2.5,5ed6d1a6c3b8621515caafa3,001,2021-08-17_17h30.45.678,natb3,2021.2.3,Win32,60.18657839,5ed6d1a6c3b8621515caafa3,6107d0959f7c4c3641818b95,611be51f31d73786f4ff194b,
,,,,space,0.4963,,0,155,155,188,1,I, , , , ,space,2500,2.5,5ed6d1a6c3b8621515caafa3,001,2021-08-17_17h30.45.678,natb3,2021.2.3,Win32,60.18657839,5ed6d1a6c3b8621515caafa3,6107d0959f7c4c3641818b95,611be51f31d73786f4ff194b,
,,,,space,0.5612,,0,156,156,62,1,V, , , , ,space,1500,1.5,5ed6d1a6c3b8621515caafa3,001,2021-08-17_17h30.45.678,natb3,2021.2.3,Win32,60.18657839,5ed6d1a6c3b8621515caafa3,6107d0959f7c4c3641818b95,611be51f31d73786f4ff194b,
,,,,,,,0,157,157,236,1,X,3, ,4,7,,2500,2.5,5ed6d1a6c3b8621515caafa3,001,2021-08-17_17h30.45.678,natb3,2021.2.3,Win32,60.18657839,5ed6d1a6c3b8621515caafa3,6107d0959f7c4c3641818b95,611be51f31d73786f4ff194b,
,,,,space,0.5621,,0,158,158,206,1,V, , , , ,space,2000,2,5ed6d1a6c3b8621515caafa3,001,2021-08-17_17h30.45.678,natb3,2021.2.3,Win32,60.18657839,5ed6d1a6c3b8621515caafa3,6107d0959f7c4c3641818b95,611be51f31d73786f4ff194b,
,,,,space,0.5961,,0,159,159,205,1,C, , , , ,space,2000,2,5ed6d1a6c3b8621515caafa3,001,2021-08-17_17h30.45.678,natb3,2021.2.3,Win32,60.18657839,5ed6d1a6c3b8621515caafa3,6107d0959f7c4c3641818b95,611be51f31d73786f4ff194b,
,,,,space,0.5478,,0,160,160,45,1,O, , , , ,space,2000,2,5ed6d1a6c3b8621515caafa3,001,2021-08-17_17h30.45.678,natb3,2021.2.3,Win32,60.18657839,5ed6d1a6c3b8621515caafa3,6107d0959f7c4c3641818b95,611be51f31d73786f4ff194b,
,,,,space,0.5136,,0,161,161,81,1,S, , , , ,space,2000,2,5ed6d1a6c3b8621515caafa3,001,2021-08-17_17h30.45.678,natb3,2021.2.3,Win32,60.18657839,5ed6d1a6c3b8621515caafa3,6107d0959f7c4c3641818b95,611be51f31d73786f4ff194b,
,,,,,,,0,162,162,89,1,X,3, , , ,,2000,2,5ed6d1a6c3b8621515caafa3,001,2021-08-17_17h30.45.678,natb3,2021.2.3,Win32,60.18657839,5ed6d1a6c3b8621515caafa3,6107d0959f7c4c3641818b95,611be51f31d73786f4ff194b,
,,,,space,0.4004,,0,163,163,297,1,U, , , , ,space,2000,2,5ed6d1a6c3b8621515caafa3,001,2021-08-17_17h30.45.678,natb3,2021.2.3,Win32,60.18657839,5ed6d1a6c3b8621515caafa3,6107d0959f7c4c3641818b95,611be51f31d73786f4ff194b,
,,,,space,0.3969,,0,164,164,234,1,P, , , , ,space,2000,2,5ed6d1a6c3b8621515caafa3,001,2021-08-17_17h30.45.678,natb3,2021.2.3,Win32,60.18657839,5ed6d1a6c3b8621515caafa3,6107d0959f7c4c3641818b95,611be51f31d73786f4ff194b,
,,,,space,0.4358,,0,165,165,3,1,R, , , , ,space,2000,2,5ed6d1a6c3b8621515caafa3,001,2021-08-17_17h30.45.678,natb3,2021.2.3,Win32,60.18657839,5ed6d1a6c3b8621515caafa3,6107d0959f7c4c3641818b95,611be51f31d73786f4ff194b,
,,,,space,0.4115,,0,166,166,53,1,G, , , , ,space,2500,2.5,5ed6d1a6c3b8621515caafa3,001,2021-08-17_17h30.45.678,natb3,2021.2.3,Win32,60.18657839,5ed6d1a6c3b8621515caafa3,6107d0959f7c4c3641818b95,611be51f31d73786f4ff194b,
,,,,space,0.498,space,0,167,167,42,1,U, , , , ,space,1500,1.5,5ed6d1a6c3b8621515caafa3,001,2021-08-17_17h30.45.678,natb3,2021.2.3,Win32,60.18657839,5ed6d1a6c3b8621515caafa3,6107d0959f7c4c3641818b95,611be51f31d73786f4ff194b,12.4594
,,,,,,,0,168,168,86,1,G, , , , ,space,2000,2,5ed6d1a6c3b8621515caafa3,001,2021-08-17_17h30.45.678,natb3,2021.2.3,Win32,60.18657839,5ed6d1a6c3b8621515caafa3,6107d0959f7c4c3641818b95,611be51f31d73786f4ff194b,
,,,,,,,0,169,169,4,1,X, , , , ,,2000,2,5ed6d1a6c3b8621515caafa3,001,2021-08-17_17h30.45.678,natb3,2021.2.3,Win32,60.18657839,5ed6d1a6c3b8621515caafa3,6107d0959f7c4c3641818b95,611be51f31d73786f4ff194b,
,,,,space,0.3152,,0,170,170,32,1,M, , , , ,space,1500,1.5,5ed6d1a6c3b8621515caafa3,001,2021-08-17_17h30.45.678,natb3,2021.2.3,Win32,60.18657839,5ed6d1a6c3b8621515caafa3,6107d0959f7c4c3641818b95,611be51f31d73786f4ff194b,
,,,,,,,0,171,171,318,1,X, , , , ,,1500,1.5,5ed6d1a6c3b8621515caafa3,001,2021-08-17_17h30.45.678,natb3,2021.2.3,Win32,60.18657839,5ed6d1a6c3b8621515caafa3,6107d0959f7c4c3641818b95,611be51f31d73786f4ff194b,
,,,,space,0.4466,,0,172,172,256,1,Q, , , , ,space,2000,2,5ed6d1a6c3b8621515caafa3,001,2021-08-17_17h30.45.678,natb3,2021.2.3,Win32,60.18657839,5ed6d1a6c3b8621515caafa3,6107d0959f7c4c3641818b95,611be51f31d73786f4ff194b,
,,,,space,0.4016,,0,173,173,72,1,T, , , , ,space,1500,1.5,5ed6d1a6c3b8621515caafa3,001,2021-08-17_17h30.45.678,natb3,2021.2.3,Win32,60.18657839,5ed6d1a6c3b8621515caafa3,6107d0959f7c4c3641818b95,611be51f31d73786f4ff194b,
,,,,space,0.3031,,0,174,174,333,1,I, , , , ,space,1500,1.5,5ed6d1a6c3b8621515caafa3,001,2021-08-17_17h30.45.678,natb3,2021.2.3,Win32,60.18657839,5ed6d1a6c3b8621515caafa3,6107d0959f7c4c3641818b95,611be51f31d73786f4ff194b,
,,,,,,,0,175,175,33,1,X, , , , ,,1500,1.5,5ed6d1a6c3b8621515caafa3,001,2021-08-17_17h30.45.678,natb3,2021.2.3,Win32,60.18657839,5ed6d1a6c3b8621515caafa3,6107d0959f7c4c3641818b95,611be51f31d73786f4ff194b,
,,,,space,0.5332,,0,176,176,103,1,W, , , , ,space,2000,2,5ed6d1a6c3b8621515caafa3,001,2021-08-17_17h30.45.678,natb3,2021.2.3,Win32,60.18657839,5ed6d1a6c3b8621515caafa3,6107d0959f7c4c3641818b95,611be51f31d73786f4ff194b,
,,,,,,,0,177,177,122,1,X,1, , ,8,,1500,1.5,5ed6d1a6c3b8621515caafa3,001,2021-08-17_17h30.45.678,natb3,2021.2.3,Win32,60.18657839,5ed6d1a6c3b8621515caafa3,6107d0959f7c4c3641818b95,611be51f31d73786f4ff194b,
,,,,space,0.4735,,0,178,178,30,1,N, , , , ,space,2500,2.5,5ed6d1a6c3b8621515caafa3,001,2021-08-17_17h30.45.678,natb3,2021.2.3,Win32,60.18657839,5ed6d1a6c3b8621515caafa3,6107d0959f7c4c3641818b95,611be51f31d73786f4ff194b,
,,,,,,,0,179,179,54,1,X, , , , ,,2000,2,5ed6d1a6c3b8621515caafa3,001,2021-08-17_17h30.45.678,natb3,2021.2.3,Win32,60.18657839,5ed6d1a6c3b8621515caafa3,6107d0959f7c4c3641818b95,611be51f31d73786f4ff194b,
,,,,,,,0,180,180,252,1,X,3, ,6,9,,2000,2,5ed6d1a6c3b8621515caafa3,001,2021-08-17_17h30.45.678,natb3,2021.2.3,Win32,60.18657839,5ed6d1a6c3b8621515caafa3,6107d0959f7c4c3641818b95,611be51f31d73786f4ff194b,
,,,,,,,0,181,181,322,1,X, , ,1,6,,2000,2,5ed6d1a6c3b8621515caafa3,001,2021-08-17_17h30.45.678,natb3,2021.2.3,Win32,60.18657839,5ed6d1a6c3b8621515caafa3,6107d0959f7c4c3641818b95,611be51f31d73786f4ff194b,
,,,,space,0.439,,0,182,182,184,1,T, , , , ,space,2000,2,5ed6d1a6c3b8621515caafa3,001,2021-08-17_17h30.45.678,natb3,2021.2.3,Win32,60.18657839,5ed6d1a6c3b8621515caafa3,6107d0959f7c4c3641818b95,611be51f31d73786f4ff194b,
,,,,space,0.45,,0,183,183,246,1,L, , , , ,space,2500,2.5,5ed6d1a6c3b8621515caafa3,001,2021-08-17_17h30.45.678,natb3,2021.2.3,Win32,60.18657839,5ed6d1a6c3b8621515caafa3,6107d0959f7c4c3641818b95,611be51f31d73786f4ff194b,
,,,,space,0.4361,,0,184,184,40,1,T, , , , ,space,1500,1.5,5ed6d1a6c3b8621515caafa3,001,2021-08-17_17h30.45.678,natb3,2021.2.3,Win32,60.18657839,5ed6d1a6c3b8621515caafa3,6107d0959f7c4c3641818b95,611be51f31d73786f4ff194b,
,,,,space,0.6018,,0,185,185,247,1,Z, , , , ,space,1500,1.5,5ed6d1a6c3b8621515caafa3,001,2021-08-17_17h30.45.678,natb3,2021.2.3,Win32,60.18657839,5ed6d1a6c3b8621515caafa3,6107d0959f7c4c3641818b95,611be51f31d73786f4ff194b,
,,,,space,0.3713,,0,186,186,1,1,W, , , , ,space,2000,2,5ed6d1a6c3b8621515caafa3,001,2021-08-17_17h30.45.678,natb3,2021.2.3,Win32,60.18657839,5ed6d1a6c3b8621515caafa3,6107d0959f7c4c3641818b95,611be51f31d73786f4ff194b,
,,,,space,0.3552,,0,187,187,94,1,C, , , , ,space,2000,2,5ed6d1a6c3b8621515caafa3,001,2021-08-17_17h30.45.678,natb3,2021.2.3,Win32,60.18657839,5ed6d1a6c3b8621515caafa3,6107d0959f7c4c3641818b95,611be51f31d73786f4ff194b,
,,,,space,0.3511,,0,188,188,299,1,X, , , , ,,2500,2.5,5ed6d1a6c3b8621515caafa3,001,2021-08-17_17h30.45.678,natb3,2021.2.3,Win32,60.18657839,5ed6d1a6c3b8621515caafa3,6107d0959f7c4c3641818b95,611be51f31d73786f4ff194b,
,,,,,,,0,189,189,287,1,X, ,2, ,9,,2000,2,5ed6d1a6c3b8621515caafa3,001,2021-08-17_17h30.45.678,natb3,2021.2.3,Win32,60.18657839,5ed6d1a6c3b8621515caafa3,6107d0959f7c4c3641818b95,611be51f31d73786f4ff194b,
,,,,space,0.5361,,0,190,190,260,1,R, , , , ,space,2000,2,5ed6d1a6c3b8621515caafa3,001,2021-08-17_17h30.45.678,natb3,2021.2.3,Win32,60.18657839,5ed6d1a6c3b8621515caafa3,6107d0959f7c4c3641818b95,611be51f31d73786f4ff194b,
,,,,space,0.4551,,0,191,191,38,1,R, , , , ,space,2500,2.5,5ed6d1a6c3b8621515caafa3,001,2021-08-17_17h30.45.678,natb3,2021.2.3,Win32,60.18657839,5ed6d1a6c3b8621515caafa3,6107d0959f7c4c3641818b95,611be51f31d73786f4ff194b,
,,,,space,0.4672,,0,192,192,34,1,Q, , , , ,space,2500,2.5,5ed6d1a6c3b8621515caafa3,001,2021-08-17_17h30.45.678,natb3,2021.2.3,Win32,60.18657839,5ed6d1a6c3b8621515caafa3,6107d0959f7c4c3641818b95,611be51f31d73786f4ff194b,
,,,,space,0.4014,,0,193,193,241,1,G, , , , ,space,2500,2.5,5ed6d1a6c3b8621515caafa3,001,2021-08-17_17h30.45.678,natb3,2021.2.3,Win32,60.18657839,5ed6d1a6c3b8621515caafa3,6107d0959f7c4c3641818b95,611be51f31d73786f4ff194b,
,,,,space,0.6056,,0,194,194,70,1,E, , , , ,space,2500,2.5,5ed6d1a6c3b8621515caafa3,001,2021-08-17_17h30.45.678,natb3,2021.2.3,Win32,60.18657839,5ed6d1a6c3b8621515caafa3,6107d0959f7c4c3641818b95,611be51f31d73786f4ff194b,
,,,,space,0.4343,,0,195,195,2,1,E, , , , ,space,2500,2.5,5ed6d1a6c3b8621515caafa3,001,2021-08-17_17h30.45.678,natb3,2021.2.3,Win32,60.18657839,5ed6d1a6c3b8621515caafa3,6107d0959f7c4c3641818b95,611be51f31d73786f4ff194b,
,,,,,,,0,196,196,18,1,X, ,2,5,8,,2500,2.5,5ed6d1a6c3b8621515caafa3,001,2021-08-17_17h30.45.678,natb3,2021.2.3,Win32,60.18657839,5ed6d1a6c3b8621515caafa3,6107d0959f7c4c3641818b95,611be51f31d73786f4ff194b,
,,,,space,0.567,,0,197,197,11,1,P, , , , ,space,2500,2.5,5ed6d1a6c3b8621515caafa3,001,2021-08-17_17h30.45.678,natb3,2021.2.3,Win32,60.18657839,5ed6d1a6c3b8621515caafa3,6107d0959f7c4c3641818b95,611be51f31d73786f4ff194b,
,,,,space,0.5189,,0,198,198,204,1,Z, , , , ,space,2000,2,5ed6d1a6c3b8621515caafa3,001,2021-08-17_17h30.45.678,natb3,2021.2.3,Win32,60.18657839,5ed6d1a6c3b8621515caafa3,6107d0959f7c4c3641818b95,611be51f31d73786f4ff194b,
,,,,space,0.4938,,0,199,199,320,1,B, , , , ,space,1500,1.5,5ed6d1a6c3b8621515caafa3,001,2021-08-17_17h30.45.678,natb3,2021.2.3,Win32,60.18657839,5ed6d1a6c3b8621515caafa3,6107d0959f7c4c3641818b95,611be51f31d73786f4ff194b,
,,,,,,,0,200,200,263,1,X,4, ,6, ,,1500,1.5,5ed6d1a6c3b8621515caafa3,001,2021-08-17_17h30.45.678,natb3,2021.2.3,Win32,60.18657839,5ed6d1a6c3b8621515caafa3,6107d0959f7c4c3641818b95,611be51f31d73786f4ff194b,
,,,,,,,0,201,201,153,1,X,4,7, ,6,,2000,2,5ed6d1a6c3b8621515caafa3,001,2021-08-17_17h30.45.678,natb3,2021.2.3,Win32,60.18657839,5ed6d1a6c3b8621515caafa3,6107d0959f7c4c3641818b95,611be51f31d73786f4ff194b,
,,,,space,0.781,,0,202,202,100,1,M, , , , ,space,2000,2,5ed6d1a6c3b8621515caafa3,001,2021-08-17_17h30.45.678,natb3,2021.2.3,Win32,60.18657839,5ed6d1a6c3b8621515caafa3,6107d0959f7c4c3641818b95,611be51f31d73786f4ff194b,
,,,,space,0.5752,,0,203,203,249,1,C, , , , ,space,2000,2,5ed6d1a6c3b8621515caafa3,001,2021-08-17_17h30.45.678,natb3,2021.2.3,Win32,60.18657839,5ed6d1a6c3b8621515caafa3,6107d0959f7c4c3641818b95,611be51f31d73786f4ff194b,
,,,,space,0.4915,,0,204,204,289,1,Q, , , , ,space,2000,2,5ed6d1a6c3b8621515caafa3,001,2021-08-17_17h30.45.678,natb3,2021.2.3,Win32,60.18657839,5ed6d1a6c3b8621515caafa3,6107d0959f7c4c3641818b95,611be51f31d73786f4ff194b,
,,,,space,0.3789,,0,205,205,161,1,F, , , , ,space,1500,1.5,5ed6d1a6c3b8621515caafa3,001,2021-08-17_17h30.45.678,natb3,2021.2.3,Win32,60.18657839,5ed6d1a6c3b8621515caafa3,6107d0959f7c4c3641818b95,611be51f31d73786f4ff194b,
,,,,space,0.5246,,0,206,206,219,1,Y, , , , ,space,2000,2,5ed6d1a6c3b8621515caafa3,001,2021-08-17_17h30.45.678,natb3,2021.2.3,Win32,60.18657839,5ed6d1a6c3b8621515caafa3,6107d0959f7c4c3641818b95,611be51f31d73786f4ff194b,
,,,,space,0.5479,,0,207,207,220,1,U, , , , ,space,2500,2.5,5ed6d1a6c3b8621515caafa3,001,2021-08-17_17h30.45.678,natb3,2021.2.3,Win32,60.18657839,5ed6d1a6c3b8621515caafa3,6107d0959f7c4c3641818b95,611be51f31d73786f4ff194b,
,,,,,,,0,208,208,12,1,X, , , , ,,1500,1.5,5ed6d1a6c3b8621515caafa3,001,2021-08-17_17h30.45.678,natb3,2021.2.3,Win32,60.18657839,5ed6d1a6c3b8621515caafa3,6107d0959f7c4c3641818b95,611be51f31d73786f4ff194b,
,,,,space,0.9152,,0,209,209,306,1,D, , , , ,space,2000,2,5ed6d1a6c3b8621515caafa3,001,2021-08-17_17h30.45.678,natb3,2021.2.3,Win32,60.18657839,5ed6d1a6c3b8621515caafa3,6107d0959f7c4c3641818b95,611be51f31d73786f4ff194b,
,,,,space,0.5563,,0,210,210,197,1,G, , , , ,space,2500,2.5,5ed6d1a6c3b8621515caafa3,001,2021-08-17_17h30.45.678,natb3,2021.2.3,Win32,60.18657839,5ed6d1a6c3b8621515caafa3,6107d0959f7c4c3641818b95,611be51f31d73786f4ff194b,
,,,,space,0.3665,,0,211,211,155,1,O, , , , ,space,1500,1.5,5ed6d1a6c3b8621515caafa3,001,2021-08-17_17h30.45.678,natb3,2021.2.3,Win32,60.18657839,5ed6d1a6c3b8621515caafa3,6107d0959f7c4c3641818b95,611be51f31d73786f4ff194b,
,,,,space,0.3868,,0,212,212,139,1,V, , , , ,space,2000,2,5ed6d1a6c3b8621515caafa3,001,2021-08-17_17h30.45.678,natb3,2021.2.3,Win32,60.18657839,5ed6d1a6c3b8621515caafa3,6107d0959f7c4c3641818b95,611be51f31d73786f4ff194b,
,,,,,,,0,213,213,182,1,X, , , , ,,1500,1.5,5ed6d1a6c3b8621515caafa3,001,2021-08-17_17h30.45.678,natb3,2021.2.3,Win32,60.18657839,5ed6d1a6c3b8621515caafa3,6107d0959f7c4c3641818b95,611be51f31d73786f4ff194b,
,,,,space,0.5823,,0,214,214,245,1,K, , , , ,space,2000,2,5ed6d1a6c3b8621515caafa3,001,2021-08-17_17h30.45.678,natb3,2021.2.3,Win32,60.18657839,5ed6d1a6c3b8621515caafa3,6107d0959f7c4c3641818b95,611be51f31d73786f4ff194b,
,,,,space,0.5711,,0,215,215,120,1,U, , , , ,space,1500,1.5,5ed6d1a6c3b8621515caafa3,001,2021-08-17_17h30.45.678,natb3,2021.2.3,Win32,60.18657839,5ed6d1a6c3b8621515caafa3,6107d0959f7c4c3641818b95,611be51f31d73786f4ff194b,
,,,,space,0.5948,,0,216,216,238,1,D, , , , ,space,1500,1.5,5ed6d1a6c3b8621515caafa3,001,2021-08-17_17h30.45.678,natb3,2021.2.3,Win32,60.18657839,5ed6d1a6c3b8621515caafa3,6107d0959f7c4c3641818b95,611be51f31d73786f4ff194b,
,,,,,,,0,217,217,311,1,X,1,2,7,3,,2500,2.5,5ed6d1a6c3b8621515caafa3,001,2021-08-17_17h30.45.678,natb3,2021.2.3,Win32,60.18657839,5ed6d1a6c3b8621515caafa3,6107d0959f7c4c3641818b95,611be51f31d73786f4ff194b,
,,,,space,0.5576,,0,218,218,157,1,A, , , , ,space,2500,2.5,5ed6d1a6c3b8621515caafa3,001,2021-08-17_17h30.45.678,natb3,2021.2.3,Win32,60.18657839,5ed6d1a6c3b8621515caafa3,6107d0959f7c4c3641818b95,611be51f31d73786f4ff194b,
,,,,space,0.7091,,0,219,219,307,1,F, , , , ,space,2500,2.5,5ed6d1a6c3b8621515caafa3,001,2021-08-17_17h30.45.678,natb3,2021.2.3,Win32,60.18657839,5ed6d1a6c3b8621515caafa3,6107d0959f7c4c3641818b95,611be51f31d73786f4ff194b,
,,,,space,0.4432,,0,220,220,26,1,C, , , , ,space,2000,2,5ed6d1a6c3b8621515caafa3,001,2021-08-17_17h30.45.678,natb3,2021.2.3,Win32,60.18657839,5ed6d1a6c3b8621515caafa3,6107d0959f7c4c3641818b95,611be51f31d73786f4ff194b,
,,,,space,0.5139,,0,221,221,190,1,P, , , , ,space,2000,2,5ed6d1a6c3b8621515caafa3,001,2021-08-17_17h30.45.678,natb3,2021.2.3,Win32,60.18657839,5ed6d1a6c3b8621515caafa3,6107d0959f7c4c3641818b95,611be51f31d73786f4ff194b,
,,,,space,0.3475,,0,222,222,178,1,Q, , , , ,space,1500,1.5,5ed6d1a6c3b8621515caafa3,001,2021-08-17_17h30.45.678,natb3,2021.2.3,Win32,60.18657839,5ed6d1a6c3b8621515caafa3,6107d0959f7c4c3641818b95,611be51f31d73786f4ff194b,
,,,,space,0.3404,,0,223,223,174,1,B, , , , ,space,2500,2.5,5ed6d1a6c3b8621515caafa3,001,2021-08-17_17h30.45.678,natb3,2021.2.3,Win32,60.18657839,5ed6d1a6c3b8621515caafa3,6107d0959f7c4c3641818b95,611be51f31d73786f4ff194b,
,,,,space,0.3593,,0,224,224,140,1,B, , , , ,space,2500,2.5,5ed6d1a6c3b8621515caafa3,001,2021-08-17_17h30.45.678,natb3,2021.2.3,Win32,60.18657839,5ed6d1a6c3b8621515caafa3,6107d0959f7c4c3641818b95,611be51f31d73786f4ff194b,
,,,,space,0.3567,,0,225,225,275,1,G, , , , ,space,1500,1.5,5ed6d1a6c3b8621515caafa3,001,2021-08-17_17h30.45.678,natb3,2021.2.3,Win32,60.18657839,5ed6d1a6c3b8621515caafa3,6107d0959f7c4c3641818b95,611be51f31d73786f4ff194b,
,,,,space,0.3949,,0,226,226,265,1,I, , , , ,space,2000,2,5ed6d1a6c3b8621515caafa3,001,2021-08-17_17h30.45.678,natb3,2021.2.3,Win32,60.18657839,5ed6d1a6c3b8621515caafa3,6107d0959f7c4c3641818b95,611be51f31d73786f4ff194b,
,,,,space,0.4598,,0,227,227,221,1,I, , , , ,space,2500,2.5,5ed6d1a6c3b8621515caafa3,001,2021-08-17_17h30.45.678,natb3,2021.2.3,Win32,60.18657839,5ed6d1a6c3b8621515caafa3,6107d0959f7c4c3641818b95,611be51f31d73786f4ff194b,
,,,,space,0.3971,,0,228,228,97,1,B, , , , ,space,2500,2.5,5ed6d1a6c3b8621515caafa3,001,2021-08-17_17h30.45.678,natb3,2021.2.3,Win32,60.18657839,5ed6d1a6c3b8621515caafa3,6107d0959f7c4c3641818b95,611be51f31d73786f4ff194b,
,,,,space,0.5129,,0,229,229,113,1,W, , , , ,space,2500,2.5,5ed6d1a6c3b8621515caafa3,001,2021-08-17_17h30.45.678,natb3,2021.2.3,Win32,60.18657839,5ed6d1a6c3b8621515caafa3,6107d0959f7c4c3641818b95,611be51f31d73786f4ff194b,
,,,,,,,0,230,230,305,1,X, , , , ,,1500,1.5,5ed6d1a6c3b8621515caafa3,001,2021-08-17_17h30.45.678,natb3,2021.2.3,Win32,60.18657839,5ed6d1a6c3b8621515caafa3,6107d0959f7c4c3641818b95,611be51f31d73786f4ff194b,
,,,,space,0.4943,,0,231,231,310,1,J, , , , ,space,2500,2.5,5ed6d1a6c3b8621515caafa3,001,2021-08-17_17h30.45.678,natb3,2021.2.3,Win32,60.18657839,5ed6d1a6c3b8621515caafa3,6107d0959f7c4c3641818b95,611be51f31d73786f4ff194b,
,,,,space,0.5721,,0,232,232,274,1,F, , , , ,space,2000,2,5ed6d1a6c3b8621515caafa3,001,2021-08-17_17h30.45.678,natb3,2021.2.3,Win32,60.18657839,5ed6d1a6c3b8621515caafa3,6107d0959f7c4c3641818b95,611be51f31d73786f4ff194b,
,,,,,,,0,233,233,35,1,X, , , , ,,2500,2.5,5ed6d1a6c3b8621515caafa3,001,2021-08-17_17h30.45.678,natb3,2021.2.3,Win32,60.18657839,5ed6d1a6c3b8621515caafa3,6107d0959f7c4c3641818b95,611be51f31d73786f4ff194b,
,,,,space,0.6302,,0,234,234,44,1,I, , , , ,space,2500,2.5,5ed6d1a6c3b8621515caafa3,001,2021-08-17_17h30.45.678,natb3,2021.2.3,Win32,60.18657839,5ed6d1a6c3b8621515caafa3,6107d0959f7c4c3641818b95,611be51f31d73786f4ff194b,
,,,,space,0.4625,,0,235,235,136,1,Z, , , , ,space,2500,2.5,5ed6d1a6c3b8621515caafa3,001,2021-08-17_17h30.45.678,natb3,2021.2.3,Win32,60.18657839,5ed6d1a6c3b8621515caafa3,6107d0959f7c4c3641818b95,611be51f31d73786f4ff194b,
,,,,space,0.4344,,0,236,236,61,1,C, , , , ,space,2000,2,5ed6d1a6c3b8621515caafa3,001,2021-08-17_17h30.45.678,natb3,2021.2.3,Win32,60.18657839,5ed6d1a6c3b8621515caafa3,6107d0959f7c4c3641818b95,611be51f31d73786f4ff194b,
,,,,space,0.6155,,0,237,237,172,1,C, , , , ,space,1500,1.5,5ed6d1a6c3b8621515caafa3,001,2021-08-17_17h30.45.678,natb3,2021.2.3,Win32,60.18657839,5ed6d1a6c3b8621515caafa3,6107d0959f7c4c3641818b95,611be51f31d73786f4ff194b,
,,,,space,0.5903,,0,238,238,308,1,G, , , , ,space,1500,1.5,5ed6d1a6c3b8621515caafa3,001,2021-08-17_17h30.45.678,natb3,2021.2.3,Win32,60.18657839,5ed6d1a6c3b8621515caafa3,6107d0959f7c4c3641818b95,611be51f31d73786f4ff194b,
,,,,space,0.3437,,0,239,239,326,1,W, , , , ,space,2000,2,5ed6d1a6c3b8621515caafa3,001,2021-08-17_17h30.45.678,natb3,2021.2.3,Win32,60.18657839,5ed6d1a6c3b8621515caafa3,6107d0959f7c4c3641818b95,611be51f31d73786f4ff194b,
,,,,space,0.4225,,0,240,240,199,1,J, , , , ,space,2500,2.5,5ed6d1a6c3b8621515caafa3,001,2021-08-17_17h30.45.678,natb3,2021.2.3,Win32,60.18657839,5ed6d1a6c3b8621515caafa3,6107d0959f7c4c3641818b95,611be51f31d73786f4ff194b,
,,,,space,0.3447,,0,241,241,215,1,E, , , , ,space,2500,2.5,5ed6d1a6c3b8621515caafa3,001,2021-08-17_17h30.45.678,natb3,2021.2.3,Win32,60.18657839,5ed6d1a6c3b8621515caafa3,6107d0959f7c4c3641818b95,611be51f31d73786f4ff194b,
,,,,space,0.4213,,0,242,242,227,1,T, , , , ,space,1500,1.5,5ed6d1a6c3b8621515caafa3,001,2021-08-17_17h30.45.678,natb3,2021.2.3,Win32,60.18657839,5ed6d1a6c3b8621515caafa3,6107d0959f7c4c3641818b95,611be51f31d73786f4ff194b,
,,,,,,,0,243,243,211,1,X, , , , ,,2500,2.5,5ed6d1a6c3b8621515caafa3,001,2021-08-17_17h30.45.678,natb3,2021.2.3,Win32,60.18657839,5ed6d1a6c3b8621515caafa3,6107d0959f7c4c3641818b95,611be51f31d73786f4ff194b,
,,,,space,0.4367,,0,244,244,13,1,A, , , , ,space,2000,2,5ed6d1a6c3b8621515caafa3,001,2021-08-17_17h30.45.678,natb3,2021.2.3,Win32,60.18657839,5ed6d1a6c3b8621515caafa3,6107d0959f7c4c3641818b95,611be51f31d73786f4ff194b,
,,,,space,0.3619,,0,245,245,17,1,F, , , , ,space,2500,2.5,5ed6d1a6c3b8621515caafa3,001,2021-08-17_17h30.45.678,natb3,2021.2.3,Win32,60.18657839,5ed6d1a6c3b8621515caafa3,6107d0959f7c4c3641818b95,611be51f31d73786f4ff194b,
,,,,space,0.4027,,0,246,246,114,1,E, , , , ,space,2000,2,5ed6d1a6c3b8621515caafa3,001,2021-08-17_17h30.45.678,natb3,2021.2.3,Win32,60.18657839,5ed6d1a6c3b8621515caafa3,6107d0959f7c4c3641818b95,611be51f31d73786f4ff194b,
,,,,space,0.4185,,0,247,247,193,1,S, , , , ,space,2500,2.5,5ed6d1a6c3b8621515caafa3,001,2021-08-17_17h30.45.678,natb3,2021.2.3,Win32,60.18657839,5ed6d1a6c3b8621515caafa3,6107d0959f7c4c3641818b95,611be51f31d73786f4ff194b,
,,,,space,0.4733,,0,248,248,127,1,S, , , , ,space,2500,2.5,5ed6d1a6c3b8621515caafa3,001,2021-08-17_17h30.45.678,natb3,2021.2.3,Win32,60.18657839,5ed6d1a6c3b8621515caafa3,6107d0959f7c4c3641818b95,611be51f31d73786f4ff194b,
,,,,space,0.5327,,0,249,249,285,1,B, , , , ,space,1500,1.5,5ed6d1a6c3b8621515caafa3,001,2021-08-17_17h30.45.678,natb3,2021.2.3,Win32,60.18657839,5ed6d1a6c3b8621515caafa3,6107d0959f7c4c3641818b95,611be51f31d73786f4ff194b,
,,,,space,0.5714,,0,250,250,106,1,T, , , , ,space,1500,1.5,5ed6d1a6c3b8621515caafa3,001,2021-08-17_17h30.45.678,natb3,2021.2.3,Win32,60.18657839,5ed6d1a6c3b8621515caafa3,6107d0959f7c4c3641818b95,611be51f31d73786f4ff194b,
,,,,space,0.541,,0,251,251,55,1,H, , , , ,space,2500,2.5,5ed6d1a6c3b8621515caafa3,001,2021-08-17_17h30.45.678,natb3,2021.2.3,Win32,60.18657839,5ed6d1a6c3b8621515caafa3,6107d0959f7c4c3641818b95,611be51f31d73786f4ff194b,
,,,,space,0.5656,,0,252,252,237,1,S, , , , ,space,1500,1.5,5ed6d1a6c3b8621515caafa3,001,2021-08-17_17h30.45.678,natb3,2021.2.3,Win32,60.18657839,5ed6d1a6c3b8621515caafa3,6107d0959f7c4c3641818b95,611be51f31d73786f4ff194b,
,,,,,,,0,253,253,78,1,X, , , , ,,2000,2,5ed6d1a6c3b8621515caafa3,001,2021-08-17_17h30.45.678,natb3,2021.2.3,Win32,60.18657839,5ed6d1a6c3b8621515caafa3,6107d0959f7c4c3641818b95,611be51f31d73786f4ff194b,
,,,,,,,0,254,254,118,1,X, , , , ,,2000,2,5ed6d1a6c3b8621515caafa3,001,2021-08-17_17h30.45.678,natb3,2021.2.3,Win32,60.18657839,5ed6d1a6c3b8621515caafa3,6107d0959f7c4c3641818b95,611be51f31d73786f4ff194b,
,,,,space,0.5604,,0,255,255,77,1,O, , , , ,space,2000,2,5ed6d1a6c3b8621515caafa3,001,2021-08-17_17h30.45.678,natb3,2021.2.3,Win32,60.18657839,5ed6d1a6c3b8621515caafa3,6107d0959f7c4c3641818b95,611be51f31d73786f4ff194b,
,,,,space,0.568,,0,256,256,293,1,R, , , , ,space,2500,2.5,5ed6d1a6c3b8621515caafa3,001,2021-08-17_17h30.45.678,natb3,2021.2.3,Win32,60.18657839,5ed6d1a6c3b8621515caafa3,6107d0959f7c4c3641818b95,611be51f31d73786f4ff194b,
,,,,space,0.4496,,0,257,257,137,1,C, , , , ,space,2500,2.5,5ed6d1a6c3b8621515caafa3,001,2021-08-17_17h30.45.678,natb3,2021.2.3,Win32,60.18657839,5ed6d1a6c3b8621515caafa3,6107d0959f7c4c3641818b95,611be51f31d73786f4ff194b,
,,,,,,,0,258,258,43,1,X, ,6, ,2,,2500,2.5,5ed6d1a6c3b8621515caafa3,001,2021-08-17_17h30.45.678,natb3,2021.2.3,Win32,60.18657839,5ed6d1a6c3b8621515caafa3,6107d0959f7c4c3641818b95,611be51f31d73786f4ff194b,
,,,,space,0.6017,,0,259,259,21,1,J, , , , ,space,1500,1.5,5ed6d1a6c3b8621515caafa3,001,2021-08-17_17h30.45.678,natb3,2021.2.3,Win32,60.18657839,5ed6d1a6c3b8621515caafa3,6107d0959f7c4c3641818b95,611be51f31d73786f4ff194b,
,,,,,,,0,260,260,93,1,X,5, ,7, ,,2500,2.5,5ed6d1a6c3b8621515caafa3,001,2021-08-17_17h30.45.678,natb3,2021.2.3,Win32,60.18657839,5ed6d1a6c3b8621515caafa3,6107d0959f7c4c3641818b95,611be51f31d73786f4ff194b,
,,,,,,,0,261,261,31,1,X, , , , ,,1500,1.5,5ed6d1a6c3b8621515caafa3,001,2021-08-17_17h30.45.678,natb3,2021.2.3,Win32,60.18657839,5ed6d1a6c3b8621515caafa3,6107d0959f7c4c3641818b95,611be51f31d73786f4ff194b,
,,,,space,0.5197,,0,262,262,183,1,R, , , , ,space,1500,1.5,5ed6d1a6c3b8621515caafa3,001,2021-08-17_17h30.45.678,natb3,2021.2.3,Win32,60.18657839,5ed6d1a6c3b8621515caafa3,6107d0959f7c4c3641818b95,611be51f31d73786f4ff194b,
,,,,space,0.4377,,0,263,263,0,1,Q, , , , ,space,1500,1.5,5ed6d1a6c3b8621515caafa3,001,2021-08-17_17h30.45.678,natb3,2021.2.3,Win32,60.18657839,5ed6d1a6c3b8621515caafa3,6107d0959f7c4c3641818b95,611be51f31d73786f4ff194b,
,,,,space,0.4755,,0,264,264,132,1,H, , , , ,space,2500,2.5,5ed6d1a6c3b8621515caafa3,001,2021-08-17_17h30.45.678,natb3,2021.2.3,Win32,60.18657839,5ed6d1a6c3b8621515caafa3,6107d0959f7c4c3641818b95,611be51f31d73786f4ff194b,
,,,,space,0.5747,,0,265,265,57,1,K, , , , ,space,2500,2.5,5ed6d1a6c3b8621515caafa3,001,2021-08-17_17h30.45.678,natb3,2021.2.3,Win32,60.18657839,5ed6d1a6c3b8621515caafa3,6107d0959f7c4c3641818b95,611be51f31d73786f4ff194b,
,,,,space,0.4693,,0,266,266,240,1,F, , , , ,space,2500,2.5,5ed6d1a6c3b8621515caafa3,001,2021-08-17_17h30.45.678,natb3,2021.2.3,Win32,60.18657839,5ed6d1a6c3b8621515caafa3,6107d0959f7c4c3641818b95,611be51f31d73786f4ff194b,
,,,,space,0.3917,,0,267,267,88,1,J, , , , ,space,2500,2.5,5ed6d1a6c3b8621515caafa3,001,2021-08-17_17h30.45.678,natb3,2021.2.3,Win32,60.18657839,5ed6d1a6c3b8621515caafa3,6107d0959f7c4c3641818b95,611be51f31d73786f4ff194b,
,,,,,,,0,268,268,133,1,X, ,4, ,6,,2500,2.5,5ed6d1a6c3b8621515caafa3,001,2021-08-17_17h30.45.678,natb3,2021.2.3,Win32,60.18657839,5ed6d1a6c3b8621515caafa3,6107d0959f7c4c3641818b95,611be51f31d73786f4ff194b,
,,,,space,0.4197,,0,269,269,303,1,A, , , , ,space,2000,2,5ed6d1a6c3b8621515caafa3,001,2021-08-17_17h30.45.678,natb3,2021.2.3,Win32,60.18657839,5ed6d1a6c3b8621515caafa3,6107d0959f7c4c3641818b95,611be51f31d73786f4ff194b,
,,,,space,0.6506,,0,270,270,87,1,H, , , , ,space,1500,1.5,5ed6d1a6c3b8621515caafa3,001,2021-08-17_17h30.45.678,natb3,2021.2.3,Win32,60.18657839,5ed6d1a6c3b8621515caafa3,6107d0959f7c4c3641818b95,611be51f31d73786f4ff194b,
,,,,space,0.4392,,0,271,271,135,1,K, , , , ,space,1500,1.5,5ed6d1a6c3b8621515caafa3,001,2021-08-17_17h30.45.678,natb3,2021.2.3,Win32,60.18657839,5ed6d1a6c3b8621515caafa3,6107d0959f7c4c3641818b95,611be51f31d73786f4ff194b,
,,,,space,0.3284,,0,272,272,115,1,R, , , , ,space,1500,1.5,5ed6d1a6c3b8621515caafa3,001,2021-08-17_17h30.45.678,natb3,2021.2.3,Win32,60.18657839,5ed6d1a6c3b8621515caafa3,6107d0959f7c4c3641818b95,611be51f31d73786f4ff194b,
,,,,space,0.4355,,0,273,273,101,1,Q, , , , ,space,2500,2.5,5ed6d1a6c3b8621515caafa3,001,2021-08-17_17h30.45.678,natb3,2021.2.3,Win32,60.18657839,5ed6d1a6c3b8621515caafa3,6107d0959f7c4c3641818b95,611be51f31d73786f4ff194b,
,,,,space,0.4273,,0,274,274,29,1,B, , , , ,space,1500,1.5,5ed6d1a6c3b8621515caafa3,001,2021-08-17_17h30.45.678,natb3,2021.2.3,Win32,60.18657839,5ed6d1a6c3b8621515caafa3,6107d0959f7c4c3641818b95,611be51f31d73786f4ff194b,
,,,,space,0.3307,,0,275,275,250,1,V, , , , ,space,2000,2,5ed6d1a6c3b8621515caafa3,001,2021-08-17_17h30.45.678,natb3,2021.2.3,Win32,60.18657839,5ed6d1a6c3b8621515caafa3,6107d0959f7c4c3641818b95,611be51f31d73786f4ff194b,
,,,,space,0.3456,,0,276,276,169,1,L, , , , ,space,2500,2.5,5ed6d1a6c3b8621515caafa3,001,2021-08-17_17h30.45.678,natb3,2021.2.3,Win32,60.18657839,5ed6d1a6c3b8621515caafa3,6107d0959f7c4c3641818b95,611be51f31d73786f4ff194b,
,,,,space,0.3955,,0,277,277,64,1,N, , , , ,space,2000,2,5ed6d1a6c3b8621515caafa3,001,2021-08-17_17h30.45.678,natb3,2021.2.3,Win32,60.18657839,5ed6d1a6c3b8621515caafa3,6107d0959f7c4c3641818b95,611be51f31d73786f4ff194b,
,,,,space,0.5194,,0,278,278,312,1,K, , , , ,space,2000,2,5ed6d1a6c3b8621515caafa3,001,2021-08-17_17h30.45.678,natb3,2021.2.3,Win32,60.18657839,5ed6d1a6c3b8621515caafa3,6107d0959f7c4c3641818b95,611be51f31d73786f4ff194b,
,,,,space,0.3793,,0,279,279,272,1,D, , , , ,space,2000,2,5ed6d1a6c3b8621515caafa3,001,2021-08-17_17h30.45.678,natb3,2021.2.3,Win32,60.18657839,5ed6d1a6c3b8621515caafa3,6107d0959f7c4c3641818b95,611be51f31d73786f4ff194b,
,,,,space,0.356,,0,280,280,186,1,U, , , , ,space,2500,2.5,5ed6d1a6c3b8621515caafa3,001,2021-08-17_17h30.45.678,natb3,2021.2.3,Win32,60.18657839,5ed6d1a6c3b8621515caafa3,6107d0959f7c4c3641818b95,611be51f31d73786f4ff194b,
,,,,space,0.368,,0,281,281,232,1,O, , , , ,space,2500,2.5,5ed6d1a6c3b8621515caafa3,001,2021-08-17_17h30.45.678,natb3,2021.2.3,Win32,60.18657839,5ed6d1a6c3b8621515caafa3,6107d0959f7c4c3641818b95,611be51f31d73786f4ff194b,
,,,,space,0.5351,,0,282,282,117,1,T, , , , ,space,2500,2.5,5ed6d1a6c3b8621515caafa3,001,2021-08-17_17h30.45.678,natb3,2021.2.3,Win32,60.18657839,5ed6d1a6c3b8621515caafa3,6107d0959f7c4c3641818b95,611be51f31d73786f4ff194b,
,,,,space,0.4097,,0,283,283,99,1,N, , , , ,space,2500,2.5,5ed6d1a6c3b8621515caafa3,001,2021-08-17_17h30.45.678,natb3,2021.2.3,Win32,60.18657839,5ed6d1a6c3b8621515caafa3,6107d0959f7c4c3641818b95,611be51f31d73786f4ff194b,
,,,,space,0.3656,,0,284,284,261,1,T, , , , ,space,2000,2,5ed6d1a6c3b8621515caafa3,001,2021-08-17_17h30.45.678,natb3,2021.2.3,Win32,60.18657839,5ed6d1a6c3b8621515caafa3,6107d0959f7c4c3641818b95,611be51f31d73786f4ff194b,
,,,,space,0.46,,0,285,285,167,1,K, , , , ,space,1500,1.5,5ed6d1a6c3b8621515caafa3,001,2021-08-17_17h30.45.678,natb3,2021.2.3,Win32,60.18657839,5ed6d1a6c3b8621515caafa3,6107d0959f7c4c3641818b95,611be51f31d73786f4ff194b,
,,,,space,0.4001,,0,286,286,9,1,I, , , , ,space,1500,1.5,5ed6d1a6c3b8621515caafa3,001,2021-08-17_17h30.45.678,natb3,2021.2.3,Win32,60.18657839,5ed6d1a6c3b8621515caafa3,6107d0959f7c4c3641818b95,611be51f31d73786f4ff194b,
,,,,space,0.4225,,0,287,287,253,1,N, , , , ,space,2500,2.5,5ed6d1a6c3b8621515caafa3,001,2021-08-17_17h30.45.678,natb3,2021.2.3,Win32,60.18657839,5ed6d1a6c3b8621515caafa3,6107d0959f7c4c3641818b95,611be51f31d73786f4ff194b,
,,,,space,0.3225,,0,288,288,109,1,U, , , , ,space,1500,1.5,5ed6d1a6c3b8621515caafa3,001,2021-08-17_17h30.45.678,natb3,2021.2.3,Win32,60.18657839,5ed6d1a6c3b8621515caafa3,6107d0959f7c4c3641818b95,611be51f31d73786f4ff194b,
,,,,,,,0,289,289,46,1,X, , , , ,,2000,2,5ed6d1a6c3b8621515caafa3,001,2021-08-17_17h30.45.678,natb3,2021.2.3,Win32,60.18657839,5ed6d1a6c3b8621515caafa3,6107d0959f7c4c3641818b95,611be51f31d73786f4ff194b,
,,,,,,,0,290,290,315,1,X, , , , ,,2500,2.5,5ed6d1a6c3b8621515caafa3,001,2021-08-17_17h30.45.678,natb3,2021.2.3,Win32,60.18657839,5ed6d1a6c3b8621515caafa3,6107d0959f7c4c3641818b95,611be51f31d73786f4ff194b,
,,,,space,0.5003,,0,291,291,267,1,P, , , , ,space,2000,2,5ed6d1a6c3b8621515caafa3,001,2021-08-17_17h30.45.678,natb3,2021.2.3,Win32,60.18657839,5ed6d1a6c3b8621515caafa3,6107d0959f7c4c3641818b95,611be51f31d73786f4ff194b,
,,,,space,0.3557,,0,292,292,16,1,D, , , , ,space,1500,1.5,5ed6d1a6c3b8621515caafa3,001,2021-08-17_17h30.45.678,natb3,2021.2.3,Win32,60.18657839,5ed6d1a6c3b8621515caafa3,6107d0959f7c4c3641818b95,611be51f31d73786f4ff194b,
,,,,space,0.5911,,0,293,293,144,1,Q, , , , ,space,2500,2.5,5ed6d1a6c3b8621515caafa3,001,2021-08-17_17h30.45.678,natb3,2021.2.3,Win32,60.18657839,5ed6d1a6c3b8621515caafa3,6107d0959f7c4c3641818b95,611be51f31d73786f4ff194b,
,,,,,,,0,294,294,200,1,X,7, ,5,3,,1500,1.5,5ed6d1a6c3b8621515caafa3,001,2021-08-17_17h30.45.678,natb3,2021.2.3,Win32,60.18657839,5ed6d1a6c3b8621515caafa3,6107d0959f7c4c3641818b95,611be51f31d73786f4ff194b,
,,,,,,,0,295,295,66,1,X, ,4,7, ,,2000,2,5ed6d1a6c3b8621515caafa3,001,2021-08-17_17h30.45.678,natb3,2021.2.3,Win32,60.18657839,5ed6d1a6c3b8621515caafa3,6107d0959f7c4c3641818b95,611be51f31d73786f4ff194b,
,,,,,,,0,296,296,20,1,H, , , , ,space,1500,1.5,5ed6d1a6c3b8621515caafa3,001,2021-08-17_17h30.45.678,natb3,2021.2.3,Win32,60.18657839,5ed6d1a6c3b8621515caafa3,6107d0959f7c4c3641818b95,611be51f31d73786f4ff194b,
,,,,space,0.5385,,0,297,297,296,1,Y, , , , ,space,2500,2.5,5ed6d1a6c3b8621515caafa3,001,2021-08-17_17h30.45.678,natb3,2021.2.3,Win32,60.18657839,5ed6d1a6c3b8621515caafa3,6107d0959f7c4c3641818b95,611be51f31d73786f4ff194b,
,,,,space,0.4015,,0,298,298,208,1,B, , , , ,space,1500,1.5,5ed6d1a6c3b8621515caafa3,001,2021-08-17_17h30.45.678,natb3,2021.2.3,Win32,60.18657839,5ed6d1a6c3b8621515caafa3,6107d0959f7c4c3641818b95,611be51f31d73786f4ff194b,
,,,,,,,0,299,299,102,1,X, ,6, , ,,1500,1.5,5ed6d1a6c3b8621515caafa3,001,2021-08-17_17h30.45.678,natb3,2021.2.3,Win32,60.18657839,5ed6d1a6c3b8621515caafa3,6107d0959f7c4c3641818b95,611be51f31d73786f4ff194b,
,,,,space,0.4162,,0,300,300,25,1,Z, , , , ,space,2500,2.5,5ed6d1a6c3b8621515caafa3,001,2021-08-17_17h30.45.678,natb3,2021.2.3,Win32,60.18657839,5ed6d1a6c3b8621515caafa3,6107d0959f7c4c3641818b95,611be51f31d73786f4ff194b,
,,,,space,0.326,,0,301,301,254,1,M, , , , ,space,1500,1.5,5ed6d1a6c3b8621515caafa3,001,2021-08-17_17h30.45.678,natb3,2021.2.3,Win32,60.18657839,5ed6d1a6c3b8621515caafa3,6107d0959f7c4c3641818b95,611be51f31d73786f4ff194b,
,,,,space,0.2825,,0,302,302,212,1,Q, , , , ,space,2500,2.5,5ed6d1a6c3b8621515caafa3,001,2021-08-17_17h30.45.678,natb3,2021.2.3,Win32,60.18657839,5ed6d1a6c3b8621515caafa3,6107d0959f7c4c3641818b95,611be51f31d73786f4ff194b,
,,,,,,,0,303,303,116,1,X, , , , ,,2000,2,5ed6d1a6c3b8621515caafa3,001,2021-08-17_17h30.45.678,natb3,2021.2.3,Win32,60.18657839,5ed6d1a6c3b8621515caafa3,6107d0959f7c4c3641818b95,611be51f31d73786f4ff194b,
,,,,space,0.469,,0,304,304,95,1,V, , , , ,space,1500,1.5,5ed6d1a6c3b8621515caafa3,001,2021-08-17_17h30.45.678,natb3,2021.2.3,Win32,60.18657839,5ed6d1a6c3b8621515caafa3,6107d0959f7c4c3641818b95,611be51f31d73786f4ff194b,
,,,,space,0.4198,,0,305,305,251,1,B, , , , ,space,1500,1.5,5ed6d1a6c3b8621515caafa3,001,2021-08-17_17h30.45.678,natb3,2021.2.3,Win32,60.18657839,5ed6d1a6c3b8621515caafa3,6107d0959f7c4c3641818b95,611be51f31d73786f4ff194b,
,,,,space,0.3361,,0,306,306,239,1,X, , , , ,,2000,2,5ed6d1a6c3b8621515caafa3,001,2021-08-17_17h30.45.678,natb3,2021.2.3,Win32,60.18657839,5ed6d1a6c3b8621515caafa3,6107d0959f7c4c3641818b95,611be51f31d73786f4ff194b,
,,,,space,0.5078,,0,307,307,170,1,Z, , , , ,space,2000,2,5ed6d1a6c3b8621515caafa3,001,2021-08-17_17h30.45.678,natb3,2021.2.3,Win32,60.18657839,5ed6d1a6c3b8621515caafa3,6107d0959f7c4c3641818b95,611be51f31d73786f4ff194b,
,,,,,,,0,308,308,233,1,X, ,2, ,5,,1500,1.5,5ed6d1a6c3b8621515caafa3,001,2021-08-17_17h30.45.678,natb3,2021.2.3,Win32,60.18657839,5ed6d1a6c3b8621515caafa3,6107d0959f7c4c3641818b95,611be51f31d73786f4ff194b,
,,,,space,0.544,,0,309,309,143,1,M, , , , ,space,2500,2.5,5ed6d1a6c3b8621515caafa3,001,2021-08-17_17h30.45.678,natb3,2021.2.3,Win32,60.18657839,5ed6d1a6c3b8621515caafa3,6107d0959f7c4c3641818b95,611be51f31d73786f4ff194b,
,,,,,,,0,310,310,175,1,X,7, ,4,2,,1500,1.5,5ed6d1a6c3b8621515caafa3,001,2021-08-17_17h30.45.678,natb3,2021.2.3,Win32,60.18657839,5ed6d1a6c3b8621515caafa3,6107d0959f7c4c3641818b95,611be51f31d73786f4ff194b,
,,,,space,0.4527,,0,311,311,209,1,N, , , , ,space,2000,2,5ed6d1a6c3b8621515caafa3,001,2021-08-17_17h30.45.678,natb3,2021.2.3,Win32,60.18657839,5ed6d1a6c3b8621515caafa3,6107d0959f7c4c3641818b95,611be51f31d73786f4ff194b,
,,,,space,0.4949,,0,312,312,292,1,E, , , , ,space,2000,2,5ed6d1a6c3b8621515caafa3,001,2021-08-17_17h30.45.678,natb3,2021.2.3,Win32,60.18657839,5ed6d1a6c3b8621515caafa3,6107d0959f7c4c3641818b95,611be51f31d73786f4ff194b,
,,,,,,,0,313,313,158,1,X, , , , ,,1500,1.5,5ed6d1a6c3b8621515caafa3,001,2021-08-17_17h30.45.678,natb3,2021.2.3,Win32,60.18657839,5ed6d1a6c3b8621515caafa3,6107d0959f7c4c3641818b95,611be51f31d73786f4ff194b,
,,,,,,,0,314,314,213,1,X, , , , ,,2500,2.5,5ed6d1a6c3b8621515caafa3,001,2021-08-17_17h30.45.678,natb3,2021.2.3,Win32,60.18657839,5ed6d1a6c3b8621515caafa3,6107d0959f7c4c3641818b95,611be51f31d73786f4ff194b,
,,,,space,0.4973,,0,315,315,147,1,E, , , , ,space,2000,2,5ed6d1a6c3b8621515caafa3,001,2021-08-17_17h30.45.678,natb3,2021.2.3,Win32,60.18657839,5ed6d1a6c3b8621515caafa3,6107d0959f7c4c3641818b95,611be51f31d73786f4ff194b,
,,,,space,0.5367,,0,316,316,128,1,D, , , , ,space,2500,2.5,5ed6d1a6c3b8621515caafa3,001,2021-08-17_17h30.45.678,natb3,2021.2.3,Win32,60.18657839,5ed6d1a6c3b8621515caafa3,6107d0959f7c4c3641818b95,611be51f31d73786f4ff194b,
,,,,,,,0,317,317,168,1,X, , , , ,,2500,2.5,5ed6d1a6c3b8621515caafa3,001,2021-08-17_17h30.45.678,natb3,2021.2.3,Win32,60.18657839,5ed6d1a6c3b8621515caafa3,6107d0959f7c4c3641818b95,611be51f31d73786f4ff194b,
,,,,space,0.5006,,0,318,318,201,1,K, , , , ,space,1500,1.5,5ed6d1a6c3b8621515caafa3,001,2021-08-17_17h30.45.678,natb3,2021.2.3,Win32,60.18657839,5ed6d1a6c3b8621515caafa3,6107d0959f7c4c3641818b95,611be51f31d73786f4ff194b,
,,,,,,,0,319,319,191,1,X,1, ,3,4,,2500,2.5,5ed6d1a6c3b8621515caafa3,001,2021-08-17_17h30.45.678,natb3,2021.2.3,Win32,60.18657839,5ed6d1a6c3b8621515caafa3,6107d0959f7c4c3641818b95,611be51f31d73786f4ff194b,
,,,,,,,0,320,320,166,1,X, , , , ,,2000,2,5ed6d1a6c3b8621515caafa3,001,2021-08-17_17h30.45.678,natb3,2021.2.3,Win32,60.18657839,5ed6d1a6c3b8621515caafa3,6107d0959f7c4c3641818b95,611be51f31d73786f4ff194b,
,,,,space,0.4648,,0,321,321,242,1,H, , , , ,space,2500,2.5,5ed6d1a6c3b8621515caafa3,001,2021-08-17_17h30.45.678,natb3,2021.2.3,Win32,60.18657839,5ed6d1a6c3b8621515caafa3,6107d0959f7c4c3641818b95,611be51f31d73786f4ff194b,
,,,,space,0.6019,,0,322,322,230,1,U, , , , ,space,1500,1.5,5ed6d1a6c3b8621515caafa3,001,2021-08-17_17h30.45.678,natb3,2021.2.3,Win32,60.18657839,5ed6d1a6c3b8621515caafa3,6107d0959f7c4c3641818b95,611be51f31d73786f4ff194b,
,,,,,,,0,323,323,335,1,P,,,,,space,1500,1.5,5ed6d1a6c3b8621515caafa3,001,2021-08-17_17h30.45.678,natb3,2021.2.3,Win32,60.18657839,5ed6d1a6c3b8621515caafa3,6107d0959f7c4c3641818b95,611be51f31d73786f4ff194b,
,,,,,,,0,324,324,282,1,X, , , , ,,2500,2.5,5ed6d1a6c3b8621515caafa3,001,2021-08-17_17h30.45.678,natb3,2021.2.3,Win32,60.18657839,5ed6d1a6c3b8621515caafa3,6107d0959f7c4c3641818b95,611be51f31d73786f4ff194b,
,,,,space,0.4784,,0,325,325,8,1,U, , , , ,space,1500,1.5,5ed6d1a6c3b8621515caafa3,001,2021-08-17_17h30.45.678,natb3,2021.2.3,Win32,60.18657839,5ed6d1a6c3b8621515caafa3,6107d0959f7c4c3641818b95,611be51f31d73786f4ff194b,
,,,,,,,0,326,326,7,1,X, , , , ,,1500,1.5,5ed6d1a6c3b8621515caafa3,001,2021-08-17_17h30.45.678,natb3,2021.2.3,Win32,60.18657839,5ed6d1a6c3b8621515caafa3,6107d0959f7c4c3641818b95,611be51f31d73786f4ff194b,
,,,,space,0.4172,,0,327,327,281,1,Z, , , , ,space,1500,1.5,5ed6d1a6c3b8621515caafa3,001,2021-08-17_17h30.45.678,natb3,2021.2.3,Win32,60.18657839,5ed6d1a6c3b8621515caafa3,6107d0959f7c4c3641818b95,611be51f31d73786f4ff194b,
,,,,space,0.4153,,0,328,328,283,1,C, , , , ,space,1500,1.5,5ed6d1a6c3b8621515caafa3,001,2021-08-17_17h30.45.678,natb3,2021.2.3,Win32,60.18657839,5ed6d1a6c3b8621515caafa3,6107d0959f7c4c3641818b95,611be51f31d73786f4ff194b,
,,,,,,,0,329,329,203,1,X, , , , ,,2500,2.5,5ed6d1a6c3b8621515caafa3,001,2021-08-17_17h30.45.678,natb3,2021.2.3,Win32,60.18657839,5ed6d1a6c3b8621515caafa3,6107d0959f7c4c3641818b95,611be51f31d73786f4ff194b,
,,,,space,0.3845,,0,330,330,67,1,Q, , , , ,space,2000,2,5ed6d1a6c3b8621515caafa3,001,2021-08-17_17h30.45.678,natb3,2021.2.3,Win32,60.18657839,5ed6d1a6c3b8621515caafa3,6107d0959f7c4c3641818b95,611be51f31d73786f4ff194b,
,,,,space,0.3167,,0,331,331,76,1,I, , , , ,space,2000,2,5ed6d1a6c3b8621515caafa3,001,2021-08-17_17h30.45.678,natb3,2021.2.3,Win32,60.18657839,5ed6d1a6c3b8621515caafa3,6107d0959f7c4c3641818b95,611be51f31d73786f4ff194b,
,,,,space,0.375,,0,332,332,119,1,Y, , , , ,space,2500,2.5,5ed6d1a6c3b8621515caafa3,001,2021-08-17_17h30.45.678,natb3,2021.2.3,Win32,60.18657839,5ed6d1a6c3b8621515caafa3,6107d0959f7c4c3641818b95,611be51f31d73786f4ff194b,
,,,,,,,0,333,333,74,1,X, ,4,3,2,,1500,1.5,5ed6d1a6c3b8621515caafa3,001,2021-08-17_17h30.45.678,natb3,2021.2.3,Win32,60.18657839,5ed6d1a6c3b8621515caafa3,6107d0959f7c4c3641818b95,611be51f31d73786f4ff194b,
,,,,space,0.5528,,0,334,334,173,1,V, , , , ,space,1500,1.5,5ed6d1a6c3b8621515caafa3,001,2021-08-17_17h30.45.678,natb3,2021.2.3,Win32,60.18657839,5ed6d1a6c3b8621515caafa3,6107d0959f7c4c3641818b95,611be51f31d73786f4ff194b,
,,,,,,,0,335,335,291,1,X, , , , ,,2000,2,5ed6d1a6c3b8621515caafa3,001,2021-08-17_17h30.45.678,natb3,2021.2.3,Win32,60.18657839,5ed6d1a6c3b8621515caafa3,6107d0959f7c4c3641818b95,611be51f31d73786f4ff194b,
