key_resp_2.keys,key_resp_2.rt,key_resp_3.keys,key_resp_3.rt,key_resp.keys,key_resp.rt,key_resp_4.keys,trials.thisRepN,trials.thisTrialN,trials.thisN,trials.thisIndex,trials.ran,stimulus,distractor1,distractor2,distractor3,distractor4,CorrAns,isi_duration,isi_dur_in_seconds,participant,session,date,expName,psychopyVersion,OS,frameRate,PROLIFIC_PID,STUDY_ID,SESSION_ID,key_resp_4.rt
return,33.166,space,17.268,space,0.523,,0,0,0,310,1,J, , , , ,space,2500,2.5,5ee0fb635f06010cac68dae3,001,2021-08-19_16h30.48,natb3,2021.2.3,MacIntel,58.82352941,5ee0fb635f06010cac68dae3,611e07ecdcc96256ae8d5b80,611e791422ab98a338af5b51,
,,,,space,0.539,,0,1,1,14,1,S, , , , ,space,2500,2.5,5ee0fb635f06010cac68dae3,001,2021-08-19_16h30.48,natb3,2021.2.3,MacIntel,58.82352941,5ee0fb635f06010cac68dae3,611e07ecdcc96256ae8d5b80,611e791422ab98a338af5b51,
,,,,,,,0,2,2,187,1,X, ,3,7,4,,1500,1.5,5ee0fb635f06010cac68dae3,001,2021-08-19_16h30.48,natb3,2021.2.3,MacIntel,58.82352941,5ee0fb635f06010cac68dae3,611e07ecdcc96256ae8d5b80,611e791422ab98a338af5b51,
,,,,space,0.497,,0,3,3,169,1,L, , , , ,space,2500,2.5,5ee0fb635f06010cac68dae3,001,2021-08-19_16h30.48,natb3,2021.2.3,MacIntel,58.82352941,5ee0fb635f06010cac68dae3,611e07ecdcc96256ae8d5b80,611e791422ab98a338af5b51,
,,,,space,0.514,,0,4,4,326,1,W, , , , ,space,2000,2,5ee0fb635f06010cac68dae3,001,2021-08-19_16h30.48,natb3,2021.2.3,MacIntel,58.82352941,5ee0fb635f06010cac68dae3,611e07ecdcc96256ae8d5b80,611e791422ab98a338af5b51,
,,,,space,0.475,,0,5,5,143,1,M, , , , ,space,2500,2.5,5ee0fb635f06010cac68dae3,001,2021-08-19_16h30.48,natb3,2021.2.3,MacIntel,58.82352941,5ee0fb635f06010cac68dae3,611e07ecdcc96256ae8d5b80,611e791422ab98a338af5b51,
,,,,,,,0,6,6,271,1,X, , , , ,,2500,2.5,5ee0fb635f06010cac68dae3,001,2021-08-19_16h30.48,natb3,2021.2.3,MacIntel,58.82352941,5ee0fb635f06010cac68dae3,611e07ecdcc96256ae8d5b80,611e791422ab98a338af5b51,
,,,,space,0.472,,0,7,7,321,1,N, , , , ,space,2000,2,5ee0fb635f06010cac68dae3,001,2021-08-19_16h30.48,natb3,2021.2.3,MacIntel,58.82352941,5ee0fb635f06010cac68dae3,611e07ecdcc96256ae8d5b80,611e791422ab98a338af5b51,
,,,,space,0.52,,0,8,8,215,1,E, , , , ,space,2500,2.5,5ee0fb635f06010cac68dae3,001,2021-08-19_16h30.48,natb3,2021.2.3,MacIntel,58.82352941,5ee0fb635f06010cac68dae3,611e07ecdcc96256ae8d5b80,611e791422ab98a338af5b51,
,,,,space,0.585,,0,9,9,292,1,E, , , , ,space,2000,2,5ee0fb635f06010cac68dae3,001,2021-08-19_16h30.48,natb3,2021.2.3,MacIntel,58.82352941,5ee0fb635f06010cac68dae3,611e07ecdcc96256ae8d5b80,611e791422ab98a338af5b51,
,,,,space,0.513,,0,10,10,34,1,Q, , , , ,space,2500,2.5,5ee0fb635f06010cac68dae3,001,2021-08-19_16h30.48,natb3,2021.2.3,MacIntel,58.82352941,5ee0fb635f06010cac68dae3,611e07ecdcc96256ae8d5b80,611e791422ab98a338af5b51,
,,,,space,0.448,,0,11,11,0,1,Q, , , , ,space,1500,1.5,5ee0fb635f06010cac68dae3,001,2021-08-19_16h30.48,natb3,2021.2.3,MacIntel,58.82352941,5ee0fb635f06010cac68dae3,611e07ecdcc96256ae8d5b80,611e791422ab98a338af5b51,
,,,,space,0.472,,0,12,12,94,1,C, , , , ,space,2000,2,5ee0fb635f06010cac68dae3,001,2021-08-19_16h30.48,natb3,2021.2.3,MacIntel,58.82352941,5ee0fb635f06010cac68dae3,611e07ecdcc96256ae8d5b80,611e791422ab98a338af5b51,
,,,,space,0.377,,0,13,13,249,1,C, , , , ,space,2000,2,5ee0fb635f06010cac68dae3,001,2021-08-19_16h30.48,natb3,2021.2.3,MacIntel,58.82352941,5ee0fb635f06010cac68dae3,611e07ecdcc96256ae8d5b80,611e791422ab98a338af5b51,
,,,,,,,0,14,14,102,1,X, ,6, , ,,1500,1.5,5ee0fb635f06010cac68dae3,001,2021-08-19_16h30.48,natb3,2021.2.3,MacIntel,58.82352941,5ee0fb635f06010cac68dae3,611e07ecdcc96256ae8d5b80,611e791422ab98a338af5b51,
,,,,space,0.471,,0,15,15,121,1,I, , , , ,space,2000,2,5ee0fb635f06010cac68dae3,001,2021-08-19_16h30.48,natb3,2021.2.3,MacIntel,58.82352941,5ee0fb635f06010cac68dae3,611e07ecdcc96256ae8d5b80,611e791422ab98a338af5b51,
,,,,space,0.492,,0,16,16,126,1,A, , , , ,space,2500,2.5,5ee0fb635f06010cac68dae3,001,2021-08-19_16h30.48,natb3,2021.2.3,MacIntel,58.82352941,5ee0fb635f06010cac68dae3,611e07ecdcc96256ae8d5b80,611e791422ab98a338af5b51,
,,,,space,0.536,,0,17,17,196,1,F, , , , ,space,1500,1.5,5ee0fb635f06010cac68dae3,001,2021-08-19_16h30.48,natb3,2021.2.3,MacIntel,58.82352941,5ee0fb635f06010cac68dae3,611e07ecdcc96256ae8d5b80,611e791422ab98a338af5b51,
,,,,space,0.453,,0,18,18,108,1,Y, , , , ,space,2500,2.5,5ee0fb635f06010cac68dae3,001,2021-08-19_16h30.48,natb3,2021.2.3,MacIntel,58.82352941,5ee0fb635f06010cac68dae3,611e07ecdcc96256ae8d5b80,611e791422ab98a338af5b51,
,,,,,,,0,19,19,299,1,X, , , , ,,2500,2.5,5ee0fb635f06010cac68dae3,001,2021-08-19_16h30.48,natb3,2021.2.3,MacIntel,58.82352941,5ee0fb635f06010cac68dae3,611e07ecdcc96256ae8d5b80,611e791422ab98a338af5b51,
,,,,,,,0,20,20,179,1,X, ,9, ,2,,1500,1.5,5ee0fb635f06010cac68dae3,001,2021-08-19_16h30.48,natb3,2021.2.3,MacIntel,58.82352941,5ee0fb635f06010cac68dae3,611e07ecdcc96256ae8d5b80,611e791422ab98a338af5b51,
,,,,space,0.461,,0,21,21,212,1,Q, , , , ,space,2500,2.5,5ee0fb635f06010cac68dae3,001,2021-08-19_16h30.48,natb3,2021.2.3,MacIntel,58.82352941,5ee0fb635f06010cac68dae3,611e07ecdcc96256ae8d5b80,611e791422ab98a338af5b51,
,,,,space,0.614,,0,22,22,237,1,S, , , , ,space,1500,1.5,5ee0fb635f06010cac68dae3,001,2021-08-19_16h30.48,natb3,2021.2.3,MacIntel,58.82352941,5ee0fb635f06010cac68dae3,611e07ecdcc96256ae8d5b80,611e791422ab98a338af5b51,
,,,,,,,0,23,23,20,1,H, , , , ,space,1500,1.5,5ee0fb635f06010cac68dae3,001,2021-08-19_16h30.48,natb3,2021.2.3,MacIntel,58.82352941,5ee0fb635f06010cac68dae3,611e07ecdcc96256ae8d5b80,611e791422ab98a338af5b51,
,,,,space,0.628,,0,24,24,48,1,A, , , , ,space,2500,2.5,5ee0fb635f06010cac68dae3,001,2021-08-19_16h30.48,natb3,2021.2.3,MacIntel,58.82352941,5ee0fb635f06010cac68dae3,611e07ecdcc96256ae8d5b80,611e791422ab98a338af5b51,
,,,,space,0.649,,0,25,25,91,1,L, , , , ,space,2000,2,5ee0fb635f06010cac68dae3,001,2021-08-19_16h30.48,natb3,2021.2.3,MacIntel,58.82352941,5ee0fb635f06010cac68dae3,611e07ecdcc96256ae8d5b80,611e791422ab98a338af5b51,
,,,,space,0.535,,0,26,26,307,1,F, , , , ,space,2500,2.5,5ee0fb635f06010cac68dae3,001,2021-08-19_16h30.48,natb3,2021.2.3,MacIntel,58.82352941,5ee0fb635f06010cac68dae3,611e07ecdcc96256ae8d5b80,611e791422ab98a338af5b51,
,,,,space,0.404,,0,27,27,72,1,T, , , , ,space,1500,1.5,5ee0fb635f06010cac68dae3,001,2021-08-19_16h30.48,natb3,2021.2.3,MacIntel,58.82352941,5ee0fb635f06010cac68dae3,611e07ecdcc96256ae8d5b80,611e791422ab98a338af5b51,
,,,,space,0.446,,0,28,28,151,1,Y, , , , ,space,2500,2.5,5ee0fb635f06010cac68dae3,001,2021-08-19_16h30.48,natb3,2021.2.3,MacIntel,58.82352941,5ee0fb635f06010cac68dae3,611e07ecdcc96256ae8d5b80,611e791422ab98a338af5b51,
,,,,,,,0,29,29,133,1,X, ,4, ,6,,2500,2.5,5ee0fb635f06010cac68dae3,001,2021-08-19_16h30.48,natb3,2021.2.3,MacIntel,58.82352941,5ee0fb635f06010cac68dae3,611e07ecdcc96256ae8d5b80,611e791422ab98a338af5b51,
,,,,space,0.691,,0,30,30,170,1,Z, , , , ,space,2000,2,5ee0fb635f06010cac68dae3,001,2021-08-19_16h30.48,natb3,2021.2.3,MacIntel,58.82352941,5ee0fb635f06010cac68dae3,611e07ecdcc96256ae8d5b80,611e791422ab98a338af5b51,
,,,,space,0.651,,0,31,31,19,1,G, , , , ,space,1500,1.5,5ee0fb635f06010cac68dae3,001,2021-08-19_16h30.48,natb3,2021.2.3,MacIntel,58.82352941,5ee0fb635f06010cac68dae3,611e07ecdcc96256ae8d5b80,611e791422ab98a338af5b51,
,,,,space,0.644,,0,32,32,184,1,T, , , , ,space,2000,2,5ee0fb635f06010cac68dae3,001,2021-08-19_16h30.48,natb3,2021.2.3,MacIntel,58.82352941,5ee0fb635f06010cac68dae3,611e07ecdcc96256ae8d5b80,611e791422ab98a338af5b51,
,,,,space,0.567,,0,33,33,265,1,I, , , , ,space,2000,2,5ee0fb635f06010cac68dae3,001,2021-08-19_16h30.48,natb3,2021.2.3,MacIntel,58.82352941,5ee0fb635f06010cac68dae3,611e07ecdcc96256ae8d5b80,611e791422ab98a338af5b51,
,,,,space,0.652,,0,34,34,9,1,I, , , , ,space,1500,1.5,5ee0fb635f06010cac68dae3,001,2021-08-19_16h30.48,natb3,2021.2.3,MacIntel,58.82352941,5ee0fb635f06010cac68dae3,611e07ecdcc96256ae8d5b80,611e791422ab98a338af5b51,
,,,,space,0.738,,0,35,35,194,1,D, , , , ,space,2000,2,5ee0fb635f06010cac68dae3,001,2021-08-19_16h30.48,natb3,2021.2.3,MacIntel,58.82352941,5ee0fb635f06010cac68dae3,611e07ecdcc96256ae8d5b80,611e791422ab98a338af5b51,
,,,,,,,0,36,36,243,1,X, , , , ,,2500,2.5,5ee0fb635f06010cac68dae3,001,2021-08-19_16h30.48,natb3,2021.2.3,MacIntel,58.82352941,5ee0fb635f06010cac68dae3,611e07ecdcc96256ae8d5b80,611e791422ab98a338af5b51,
,,,,space,0.936,,0,37,37,165,1,J, , , , ,space,2500,2.5,5ee0fb635f06010cac68dae3,001,2021-08-19_16h30.48,natb3,2021.2.3,MacIntel,58.82352941,5ee0fb635f06010cac68dae3,611e07ecdcc96256ae8d5b80,611e791422ab98a338af5b51,
,,,,space,0.713,,0,38,38,76,1,I, , , , ,space,2000,2,5ee0fb635f06010cac68dae3,001,2021-08-19_16h30.48,natb3,2021.2.3,MacIntel,58.82352941,5ee0fb635f06010cac68dae3,611e07ecdcc96256ae8d5b80,611e791422ab98a338af5b51,
,,,,space,0.518,,0,39,39,334,1,O, , , , ,space,1500,1.5,5ee0fb635f06010cac68dae3,001,2021-08-19_16h30.48,natb3,2021.2.3,MacIntel,58.82352941,5ee0fb635f06010cac68dae3,611e07ecdcc96256ae8d5b80,611e791422ab98a338af5b51,
,,,,space,0.585,,0,40,40,230,1,U, , , , ,space,1500,1.5,5ee0fb635f06010cac68dae3,001,2021-08-19_16h30.48,natb3,2021.2.3,MacIntel,58.82352941,5ee0fb635f06010cac68dae3,611e07ecdcc96256ae8d5b80,611e791422ab98a338af5b51,
,,,,space,0.405,,0,41,41,286,1,N, , , , ,space,1500,1.5,5ee0fb635f06010cac68dae3,001,2021-08-19_16h30.48,natb3,2021.2.3,MacIntel,58.82352941,5ee0fb635f06010cac68dae3,611e07ecdcc96256ae8d5b80,611e791422ab98a338af5b51,
,,,,space,0.432,,0,42,42,10,1,O, , , , ,space,2000,2,5ee0fb635f06010cac68dae3,001,2021-08-19_16h30.48,natb3,2021.2.3,MacIntel,58.82352941,5ee0fb635f06010cac68dae3,611e07ecdcc96256ae8d5b80,611e791422ab98a338af5b51,
,,,,,,,0,43,43,129,1,X,2,3,5, ,,1500,1.5,5ee0fb635f06010cac68dae3,001,2021-08-19_16h30.48,natb3,2021.2.3,MacIntel,58.82352941,5ee0fb635f06010cac68dae3,611e07ecdcc96256ae8d5b80,611e791422ab98a338af5b51,
,,,,space,0.628,,0,44,44,114,1,E, , , , ,space,2000,2,5ee0fb635f06010cac68dae3,001,2021-08-19_16h30.48,natb3,2021.2.3,MacIntel,58.82352941,5ee0fb635f06010cac68dae3,611e07ecdcc96256ae8d5b80,611e791422ab98a338af5b51,
,,,,space,0.589,,0,45,45,147,1,E, , , , ,space,2000,2,5ee0fb635f06010cac68dae3,001,2021-08-19_16h30.48,natb3,2021.2.3,MacIntel,58.82352941,5ee0fb635f06010cac68dae3,611e07ecdcc96256ae8d5b80,611e791422ab98a338af5b51,
,,,,space,0.559,,0,46,46,113,1,W, , , , ,space,2500,2.5,5ee0fb635f06010cac68dae3,001,2021-08-19_16h30.48,natb3,2021.2.3,MacIntel,58.82352941,5ee0fb635f06010cac68dae3,611e07ecdcc96256ae8d5b80,611e791422ab98a338af5b51,
,,,,space,0.427,,0,47,47,67,1,Q, , , , ,space,2000,2,5ee0fb635f06010cac68dae3,001,2021-08-19_16h30.48,natb3,2021.2.3,MacIntel,58.82352941,5ee0fb635f06010cac68dae3,611e07ecdcc96256ae8d5b80,611e791422ab98a338af5b51,
,,,,space,0.447,,0,48,48,61,1,C, , , , ,space,2000,2,5ee0fb635f06010cac68dae3,001,2021-08-19_16h30.48,natb3,2021.2.3,MacIntel,58.82352941,5ee0fb635f06010cac68dae3,611e07ecdcc96256ae8d5b80,611e791422ab98a338af5b51,
,,,,space,0.399,,0,49,49,240,1,F, , , , ,space,2500,2.5,5ee0fb635f06010cac68dae3,001,2021-08-19_16h30.48,natb3,2021.2.3,MacIntel,58.82352941,5ee0fb635f06010cac68dae3,611e07ecdcc96256ae8d5b80,611e791422ab98a338af5b51,
,,,,space,0.384,,0,50,50,6,1,Y, , , , ,space,2500,2.5,5ee0fb635f06010cac68dae3,001,2021-08-19_16h30.48,natb3,2021.2.3,MacIntel,58.82352941,5ee0fb635f06010cac68dae3,611e07ecdcc96256ae8d5b80,611e791422ab98a338af5b51,
,,,,space,0.468,,0,51,51,44,1,I, , , , ,space,2500,2.5,5ee0fb635f06010cac68dae3,001,2021-08-19_16h30.48,natb3,2021.2.3,MacIntel,58.82352941,5ee0fb635f06010cac68dae3,611e07ecdcc96256ae8d5b80,611e791422ab98a338af5b51,
,,,,space,0.561,,0,52,52,68,1,W, , , , ,space,2500,2.5,5ee0fb635f06010cac68dae3,001,2021-08-19_16h30.48,natb3,2021.2.3,MacIntel,58.82352941,5ee0fb635f06010cac68dae3,611e07ecdcc96256ae8d5b80,611e791422ab98a338af5b51,
,,,,space,0.428,,0,53,53,201,1,K, , , , ,space,1500,1.5,5ee0fb635f06010cac68dae3,001,2021-08-19_16h30.48,natb3,2021.2.3,MacIntel,58.82352941,5ee0fb635f06010cac68dae3,611e07ecdcc96256ae8d5b80,611e791422ab98a338af5b51,
,,,,space,0.653,,0,54,54,193,1,S, , , , ,space,2500,2.5,5ee0fb635f06010cac68dae3,001,2021-08-19_16h30.48,natb3,2021.2.3,MacIntel,58.82352941,5ee0fb635f06010cac68dae3,611e07ecdcc96256ae8d5b80,611e791422ab98a338af5b51,
,,,,space,0.628,,0,55,55,285,1,B, , , , ,space,1500,1.5,5ee0fb635f06010cac68dae3,001,2021-08-19_16h30.48,natb3,2021.2.3,MacIntel,58.82352941,5ee0fb635f06010cac68dae3,611e07ecdcc96256ae8d5b80,611e791422ab98a338af5b51,
,,,,,,,0,56,56,23,1,X,1, ,5, ,,2000,2,5ee0fb635f06010cac68dae3,001,2021-08-19_16h30.48,natb3,2021.2.3,MacIntel,58.82352941,5ee0fb635f06010cac68dae3,611e07ecdcc96256ae8d5b80,611e791422ab98a338af5b51,
,,,,space,0.535,,0,57,57,275,1,G, , , , ,space,1500,1.5,5ee0fb635f06010cac68dae3,001,2021-08-19_16h30.48,natb3,2021.2.3,MacIntel,58.82352941,5ee0fb635f06010cac68dae3,611e07ecdcc96256ae8d5b80,611e791422ab98a338af5b51,
,,,,,,,0,58,58,118,1,X, , , , ,,2000,2,5ee0fb635f06010cac68dae3,001,2021-08-19_16h30.48,natb3,2021.2.3,MacIntel,58.82352941,5ee0fb635f06010cac68dae3,611e07ecdcc96256ae8d5b80,611e791422ab98a338af5b51,
,,,,space,0.783,,0,59,59,260,1,R, , , , ,space,2000,2,5ee0fb635f06010cac68dae3,001,2021-08-19_16h30.48,natb3,2021.2.3,MacIntel,58.82352941,5ee0fb635f06010cac68dae3,611e07ecdcc96256ae8d5b80,611e791422ab98a338af5b51,
,,,,space,0.627,,0,60,60,298,1,I, , , , ,space,2000,2,5ee0fb635f06010cac68dae3,001,2021-08-19_16h30.48,natb3,2021.2.3,MacIntel,58.82352941,5ee0fb635f06010cac68dae3,611e07ecdcc96256ae8d5b80,611e791422ab98a338af5b51,
,,,,space,0.675,,0,61,61,303,1,A, , , , ,space,2000,2,5ee0fb635f06010cac68dae3,001,2021-08-19_16h30.48,natb3,2021.2.3,MacIntel,58.82352941,5ee0fb635f06010cac68dae3,611e07ecdcc96256ae8d5b80,611e791422ab98a338af5b51,
,,,,space,0.604,,0,62,62,333,1,I, , , , ,space,1500,1.5,5ee0fb635f06010cac68dae3,001,2021-08-19_16h30.48,natb3,2021.2.3,MacIntel,58.82352941,5ee0fb635f06010cac68dae3,611e07ecdcc96256ae8d5b80,611e791422ab98a338af5b51,
,,,,,,,0,63,63,229,1,X,8, ,2,6,,2500,2.5,5ee0fb635f06010cac68dae3,001,2021-08-19_16h30.48,natb3,2021.2.3,MacIntel,58.82352941,5ee0fb635f06010cac68dae3,611e07ecdcc96256ae8d5b80,611e791422ab98a338af5b51,
,,,,space,0.786,,0,64,64,289,1,Q, , , , ,space,2000,2,5ee0fb635f06010cac68dae3,001,2021-08-19_16h30.48,natb3,2021.2.3,MacIntel,58.82352941,5ee0fb635f06010cac68dae3,611e07ecdcc96256ae8d5b80,611e791422ab98a338af5b51,
,,,,space,0.826,,0,65,65,183,1,R, , , , ,space,1500,1.5,5ee0fb635f06010cac68dae3,001,2021-08-19_16h30.48,natb3,2021.2.3,MacIntel,58.82352941,5ee0fb635f06010cac68dae3,611e07ecdcc96256ae8d5b80,611e791422ab98a338af5b51,
,,,,,,,0,66,66,319,1,V, , , , ,space,2000,2,5ee0fb635f06010cac68dae3,001,2021-08-19_16h30.48,natb3,2021.2.3,MacIntel,58.82352941,5ee0fb635f06010cac68dae3,611e07ecdcc96256ae8d5b80,611e791422ab98a338af5b51,
,,,,space,0.546,,0,67,67,53,1,G, , , , ,space,2500,2.5,5ee0fb635f06010cac68dae3,001,2021-08-19_16h30.48,natb3,2021.2.3,MacIntel,58.82352941,5ee0fb635f06010cac68dae3,611e07ecdcc96256ae8d5b80,611e791422ab98a338af5b51,
,,,,space,0.516,,0,68,68,251,1,B, , , , ,space,1500,1.5,5ee0fb635f06010cac68dae3,001,2021-08-19_16h30.48,natb3,2021.2.3,MacIntel,58.82352941,5ee0fb635f06010cac68dae3,611e07ecdcc96256ae8d5b80,611e791422ab98a338af5b51,
,,,,space,0.446,,0,69,69,270,1,S, , , , ,space,1500,1.5,5ee0fb635f06010cac68dae3,001,2021-08-19_16h30.48,natb3,2021.2.3,MacIntel,58.82352941,5ee0fb635f06010cac68dae3,611e07ecdcc96256ae8d5b80,611e791422ab98a338af5b51,
,,,,space,0.432,,0,70,70,190,1,P, , , , ,space,2000,2,5ee0fb635f06010cac68dae3,001,2021-08-19_16h30.48,natb3,2021.2.3,MacIntel,58.82352941,5ee0fb635f06010cac68dae3,611e07ecdcc96256ae8d5b80,611e791422ab98a338af5b51,
,,,,space,0.429,,0,71,71,274,1,F, , , , ,space,2000,2,5ee0fb635f06010cac68dae3,001,2021-08-19_16h30.48,natb3,2021.2.3,MacIntel,58.82352941,5ee0fb635f06010cac68dae3,611e07ecdcc96256ae8d5b80,611e791422ab98a338af5b51,
,,,,,,,0,72,72,33,1,X, , , , ,,1500,1.5,5ee0fb635f06010cac68dae3,001,2021-08-19_16h30.48,natb3,2021.2.3,MacIntel,58.82352941,5ee0fb635f06010cac68dae3,611e07ecdcc96256ae8d5b80,611e791422ab98a338af5b51,
,,,,space,0.446,,0,73,73,234,1,P, , , , ,space,2000,2,5ee0fb635f06010cac68dae3,001,2021-08-19_16h30.48,natb3,2021.2.3,MacIntel,58.82352941,5ee0fb635f06010cac68dae3,611e07ecdcc96256ae8d5b80,611e791422ab98a338af5b51,
,,,,space,0.446,,0,74,74,244,1,J, , , , ,space,1500,1.5,5ee0fb635f06010cac68dae3,001,2021-08-19_16h30.48,natb3,2021.2.3,MacIntel,58.82352941,5ee0fb635f06010cac68dae3,611e07ecdcc96256ae8d5b80,611e791422ab98a338af5b51,
,,,,space,0.45,,0,75,75,163,1,G, , , , ,space,2500,2.5,5ee0fb635f06010cac68dae3,001,2021-08-19_16h30.48,natb3,2021.2.3,MacIntel,58.82352941,5ee0fb635f06010cac68dae3,611e07ecdcc96256ae8d5b80,611e791422ab98a338af5b51,
,,,,space,0.404,,0,76,76,205,1,C, , , , ,space,2000,2,5ee0fb635f06010cac68dae3,001,2021-08-19_16h30.48,natb3,2021.2.3,MacIntel,58.82352941,5ee0fb635f06010cac68dae3,611e07ecdcc96256ae8d5b80,611e791422ab98a338af5b51,
,,,,,,,0,77,77,236,1,X,3, ,4,7,,2500,2.5,5ee0fb635f06010cac68dae3,001,2021-08-19_16h30.48,natb3,2021.2.3,MacIntel,58.82352941,5ee0fb635f06010cac68dae3,611e07ecdcc96256ae8d5b80,611e791422ab98a338af5b51,
,,,,space,0.498,,0,78,78,64,1,N, , , , ,space,2000,2,5ee0fb635f06010cac68dae3,001,2021-08-19_16h30.48,natb3,2021.2.3,MacIntel,58.82352941,5ee0fb635f06010cac68dae3,611e07ecdcc96256ae8d5b80,611e791422ab98a338af5b51,
,,,,space,0.427,,0,79,79,262,1,Y, , , , ,space,2500,2.5,5ee0fb635f06010cac68dae3,001,2021-08-19_16h30.48,natb3,2021.2.3,MacIntel,58.82352941,5ee0fb635f06010cac68dae3,611e07ecdcc96256ae8d5b80,611e791422ab98a338af5b51,
,,,,space,0.595,,0,80,80,56,1,J, , , , ,space,1500,1.5,5ee0fb635f06010cac68dae3,001,2021-08-19_16h30.48,natb3,2021.2.3,MacIntel,58.82352941,5ee0fb635f06010cac68dae3,611e07ecdcc96256ae8d5b80,611e791422ab98a338af5b51,
,,,,space,0.452,,0,81,81,11,1,P, , , , ,space,2500,2.5,5ee0fb635f06010cac68dae3,001,2021-08-19_16h30.48,natb3,2021.2.3,MacIntel,58.82352941,5ee0fb635f06010cac68dae3,611e07ecdcc96256ae8d5b80,611e791422ab98a338af5b51,
,,,,space,0.558,,0,82,82,235,1,A, , , , ,space,1500,1.5,5ee0fb635f06010cac68dae3,001,2021-08-19_16h30.48,natb3,2021.2.3,MacIntel,58.82352941,5ee0fb635f06010cac68dae3,611e07ecdcc96256ae8d5b80,611e791422ab98a338af5b51,
,,,,,,,0,83,83,43,1,X, ,6, ,2,,2500,2.5,5ee0fb635f06010cac68dae3,001,2021-08-19_16h30.48,natb3,2021.2.3,MacIntel,58.82352941,5ee0fb635f06010cac68dae3,611e07ecdcc96256ae8d5b80,611e791422ab98a338af5b51,
,,,,,,,0,84,84,158,1,X, , , , ,,1500,1.5,5ee0fb635f06010cac68dae3,001,2021-08-19_16h30.48,natb3,2021.2.3,MacIntel,58.82352941,5ee0fb635f06010cac68dae3,611e07ecdcc96256ae8d5b80,611e791422ab98a338af5b51,
,,,,,,,0,85,85,31,1,X, , , , ,,1500,1.5,5ee0fb635f06010cac68dae3,001,2021-08-19_16h30.48,natb3,2021.2.3,MacIntel,58.82352941,5ee0fb635f06010cac68dae3,611e07ecdcc96256ae8d5b80,611e791422ab98a338af5b51,
,,,,,,,0,86,86,291,1,X, , , , ,,2000,2,5ee0fb635f06010cac68dae3,001,2021-08-19_16h30.48,natb3,2021.2.3,MacIntel,58.82352941,5ee0fb635f06010cac68dae3,611e07ecdcc96256ae8d5b80,611e791422ab98a338af5b51,
,,,,,,,0,87,87,175,1,X,7, ,4,2,,1500,1.5,5ee0fb635f06010cac68dae3,001,2021-08-19_16h30.48,natb3,2021.2.3,MacIntel,58.82352941,5ee0fb635f06010cac68dae3,611e07ecdcc96256ae8d5b80,611e791422ab98a338af5b51,
,,,,space,0.601,,0,88,88,87,1,H, , , , ,space,1500,1.5,5ee0fb635f06010cac68dae3,001,2021-08-19_16h30.48,natb3,2021.2.3,MacIntel,58.82352941,5ee0fb635f06010cac68dae3,611e07ecdcc96256ae8d5b80,611e791422ab98a338af5b51,
,,,,space,0.427,,0,89,89,70,1,E, , , , ,space,2500,2.5,5ee0fb635f06010cac68dae3,001,2021-08-19_16h30.48,natb3,2021.2.3,MacIntel,58.82352941,5ee0fb635f06010cac68dae3,611e07ecdcc96256ae8d5b80,611e791422ab98a338af5b51,
,,,,,,,0,90,90,263,1,X,4, ,6, ,,1500,1.5,5ee0fb635f06010cac68dae3,001,2021-08-19_16h30.48,natb3,2021.2.3,MacIntel,58.82352941,5ee0fb635f06010cac68dae3,611e07ecdcc96256ae8d5b80,611e791422ab98a338af5b51,
,,,,space,0.556,,0,91,91,85,1,F, , , , ,space,2500,2.5,5ee0fb635f06010cac68dae3,001,2021-08-19_16h30.48,natb3,2021.2.3,MacIntel,58.82352941,5ee0fb635f06010cac68dae3,611e07ecdcc96256ae8d5b80,611e791422ab98a338af5b51,
,,,,space,0.514,,0,92,92,55,1,H, , , , ,space,2500,2.5,5ee0fb635f06010cac68dae3,001,2021-08-19_16h30.48,natb3,2021.2.3,MacIntel,58.82352941,5ee0fb635f06010cac68dae3,611e07ecdcc96256ae8d5b80,611e791422ab98a338af5b51,
,,,,space,0.563,,0,93,93,261,1,T, , , , ,space,2000,2,5ee0fb635f06010cac68dae3,001,2021-08-19_16h30.48,natb3,2021.2.3,MacIntel,58.82352941,5ee0fb635f06010cac68dae3,611e07ecdcc96256ae8d5b80,611e791422ab98a338af5b51,
,,,,,,,0,94,94,255,1,X, , , , ,,1500,1.5,5ee0fb635f06010cac68dae3,001,2021-08-19_16h30.48,natb3,2021.2.3,MacIntel,58.82352941,5ee0fb635f06010cac68dae3,611e07ecdcc96256ae8d5b80,611e791422ab98a338af5b51,
,,,,space,0.56,,0,95,95,5,1,T, , , , ,space,2000,2,5ee0fb635f06010cac68dae3,001,2021-08-19_16h30.48,natb3,2021.2.3,MacIntel,58.82352941,5ee0fb635f06010cac68dae3,611e07ecdcc96256ae8d5b80,611e791422ab98a338af5b51,
,,,,space,0.693,,0,96,96,154,1,I, , , , ,space,2500,2.5,5ee0fb635f06010cac68dae3,001,2021-08-19_16h30.48,natb3,2021.2.3,MacIntel,58.82352941,5ee0fb635f06010cac68dae3,611e07ecdcc96256ae8d5b80,611e791422ab98a338af5b51,
,,,,,,,0,97,97,141,1,X,1, ,4,6,,1500,1.5,5ee0fb635f06010cac68dae3,001,2021-08-19_16h30.48,natb3,2021.2.3,MacIntel,58.82352941,5ee0fb635f06010cac68dae3,611e07ecdcc96256ae8d5b80,611e791422ab98a338af5b51,
,,,,,,,0,98,98,195,1,X, , , , ,,1500,1.5,5ee0fb635f06010cac68dae3,001,2021-08-19_16h30.48,natb3,2021.2.3,MacIntel,58.82352941,5ee0fb635f06010cac68dae3,611e07ecdcc96256ae8d5b80,611e791422ab98a338af5b51,
,,,,,,,0,99,99,125,1,X, , , , ,,2000,2,5ee0fb635f06010cac68dae3,001,2021-08-19_16h30.48,natb3,2021.2.3,MacIntel,58.82352941,5ee0fb635f06010cac68dae3,611e07ecdcc96256ae8d5b80,611e791422ab98a338af5b51,
,,,,space,0.654,,0,100,100,127,1,S, , , , ,space,2500,2.5,5ee0fb635f06010cac68dae3,001,2021-08-19_16h30.48,natb3,2021.2.3,MacIntel,58.82352941,5ee0fb635f06010cac68dae3,611e07ecdcc96256ae8d5b80,611e791422ab98a338af5b51,
,,,,,,,0,101,101,305,1,X, , , , ,,1500,1.5,5ee0fb635f06010cac68dae3,001,2021-08-19_16h30.48,natb3,2021.2.3,MacIntel,58.82352941,5ee0fb635f06010cac68dae3,611e07ecdcc96256ae8d5b80,611e791422ab98a338af5b51,
,,,,space,0.628,,0,102,102,224,1,W, , , , ,space,1500,1.5,5ee0fb635f06010cac68dae3,001,2021-08-19_16h30.48,natb3,2021.2.3,MacIntel,58.82352941,5ee0fb635f06010cac68dae3,611e07ecdcc96256ae8d5b80,611e791422ab98a338af5b51,
,,,,space,0.897,,0,103,103,95,1,V, , , , ,space,1500,1.5,5ee0fb635f06010cac68dae3,001,2021-08-19_16h30.48,natb3,2021.2.3,MacIntel,58.82352941,5ee0fb635f06010cac68dae3,611e07ecdcc96256ae8d5b80,611e791422ab98a338af5b51,
,,,,,,,0,104,104,51,1,X,7,5,8, ,,1500,1.5,5ee0fb635f06010cac68dae3,001,2021-08-19_16h30.48,natb3,2021.2.3,MacIntel,58.82352941,5ee0fb635f06010cac68dae3,611e07ecdcc96256ae8d5b80,611e791422ab98a338af5b51,
,,,,space,0.602,,0,105,105,279,1,K, , , , ,space,2500,2.5,5ee0fb635f06010cac68dae3,001,2021-08-19_16h30.48,natb3,2021.2.3,MacIntel,58.82352941,5ee0fb635f06010cac68dae3,611e07ecdcc96256ae8d5b80,611e791422ab98a338af5b51,
,,,,,,,0,106,106,35,1,X, , , , ,,2500,2.5,5ee0fb635f06010cac68dae3,001,2021-08-19_16h30.48,natb3,2021.2.3,MacIntel,58.82352941,5ee0fb635f06010cac68dae3,611e07ecdcc96256ae8d5b80,611e791422ab98a338af5b51,
,,,,space,0.59,,0,107,107,223,1,Q, , , , ,space,2000,2,5ee0fb635f06010cac68dae3,001,2021-08-19_16h30.48,natb3,2021.2.3,MacIntel,58.82352941,5ee0fb635f06010cac68dae3,611e07ecdcc96256ae8d5b80,611e791422ab98a338af5b51,
,,,,space,0.791,,0,108,108,278,1,J, , , , ,space,2000,2,5ee0fb635f06010cac68dae3,001,2021-08-19_16h30.48,natb3,2021.2.3,MacIntel,58.82352941,5ee0fb635f06010cac68dae3,611e07ecdcc96256ae8d5b80,611e791422ab98a338af5b51,
,,,,,,,0,109,109,329,1,X,3,4, ,2,,2500,2.5,5ee0fb635f06010cac68dae3,001,2021-08-19_16h30.48,natb3,2021.2.3,MacIntel,58.82352941,5ee0fb635f06010cac68dae3,611e07ecdcc96256ae8d5b80,611e791422ab98a338af5b51,
,,,,space,0.536,,0,110,110,177,1,M, , , , ,space,2500,2.5,5ee0fb635f06010cac68dae3,001,2021-08-19_16h30.48,natb3,2021.2.3,MacIntel,58.82352941,5ee0fb635f06010cac68dae3,611e07ecdcc96256ae8d5b80,611e791422ab98a338af5b51,
,,,,space,0.655,,0,111,111,242,1,H, , , , ,space,2500,2.5,5ee0fb635f06010cac68dae3,001,2021-08-19_16h30.48,natb3,2021.2.3,MacIntel,58.82352941,5ee0fb635f06010cac68dae3,611e07ecdcc96256ae8d5b80,611e791422ab98a338af5b51,
,,,,space,0.555,,0,112,112,227,1,T, , , , ,space,1500,1.5,5ee0fb635f06010cac68dae3,001,2021-08-19_16h30.48,natb3,2021.2.3,MacIntel,58.82352941,5ee0fb635f06010cac68dae3,611e07ecdcc96256ae8d5b80,611e791422ab98a338af5b51,
,,,,,,,0,113,113,74,1,X, ,4,3,2,,1500,1.5,5ee0fb635f06010cac68dae3,001,2021-08-19_16h30.48,natb3,2021.2.3,MacIntel,58.82352941,5ee0fb635f06010cac68dae3,611e07ecdcc96256ae8d5b80,611e791422ab98a338af5b51,
,,,,space,0.565,,0,114,114,75,1,U, , , , ,space,1500,1.5,5ee0fb635f06010cac68dae3,001,2021-08-19_16h30.48,natb3,2021.2.3,MacIntel,58.82352941,5ee0fb635f06010cac68dae3,611e07ecdcc96256ae8d5b80,611e791422ab98a338af5b51,
,,,,space,0.782,,0,115,115,186,1,U, , , , ,space,2500,2.5,5ee0fb635f06010cac68dae3,001,2021-08-19_16h30.48,natb3,2021.2.3,MacIntel,58.82352941,5ee0fb635f06010cac68dae3,611e07ecdcc96256ae8d5b80,611e791422ab98a338af5b51,
,,,,,,,0,116,116,295,1,X,8,7,5, ,,2500,2.5,5ee0fb635f06010cac68dae3,001,2021-08-19_16h30.48,natb3,2021.2.3,MacIntel,58.82352941,5ee0fb635f06010cac68dae3,611e07ecdcc96256ae8d5b80,611e791422ab98a338af5b51,
,,,,space,0.52,,0,117,117,110,1,I, , , , ,space,1500,1.5,5ee0fb635f06010cac68dae3,001,2021-08-19_16h30.48,natb3,2021.2.3,MacIntel,58.82352941,5ee0fb635f06010cac68dae3,611e07ecdcc96256ae8d5b80,611e791422ab98a338af5b51,
,,,,,,,0,118,118,46,1,X, , , , ,,2000,2,5ee0fb635f06010cac68dae3,001,2021-08-19_16h30.48,natb3,2021.2.3,MacIntel,58.82352941,5ee0fb635f06010cac68dae3,611e07ecdcc96256ae8d5b80,611e791422ab98a338af5b51,
,,,,space,0.579,,0,119,119,210,1,M, , , , ,space,1500,1.5,5ee0fb635f06010cac68dae3,001,2021-08-19_16h30.48,natb3,2021.2.3,MacIntel,58.82352941,5ee0fb635f06010cac68dae3,611e07ecdcc96256ae8d5b80,611e791422ab98a338af5b51,
,,,,space,0.539,,0,120,120,103,1,W, , , , ,space,2000,2,5ee0fb635f06010cac68dae3,001,2021-08-19_16h30.48,natb3,2021.2.3,MacIntel,58.82352941,5ee0fb635f06010cac68dae3,611e07ecdcc96256ae8d5b80,611e791422ab98a338af5b51,
,,,,,,,0,121,121,93,1,X,5, ,7, ,,2500,2.5,5ee0fb635f06010cac68dae3,001,2021-08-19_16h30.48,natb3,2021.2.3,MacIntel,58.82352941,5ee0fb635f06010cac68dae3,611e07ecdcc96256ae8d5b80,611e791422ab98a338af5b51,
,,,,space,0.623,,0,122,122,128,1,D, , , , ,space,2500,2.5,5ee0fb635f06010cac68dae3,001,2021-08-19_16h30.48,natb3,2021.2.3,MacIntel,58.82352941,5ee0fb635f06010cac68dae3,611e07ecdcc96256ae8d5b80,611e791422ab98a338af5b51,
,,,,space,0.536,,0,123,123,101,1,Q, , , , ,space,2500,2.5,5ee0fb635f06010cac68dae3,001,2021-08-19_16h30.48,natb3,2021.2.3,MacIntel,58.82352941,5ee0fb635f06010cac68dae3,611e07ecdcc96256ae8d5b80,611e791422ab98a338af5b51,
,,,,space,0.561,,0,124,124,160,1,D, , , , ,space,1500,1.5,5ee0fb635f06010cac68dae3,001,2021-08-19_16h30.48,natb3,2021.2.3,MacIntel,58.82352941,5ee0fb635f06010cac68dae3,611e07ecdcc96256ae8d5b80,611e791422ab98a338af5b51,
,,,,space,0.606,,0,125,125,323,1,M, , , , ,space,2500,2.5,5ee0fb635f06010cac68dae3,001,2021-08-19_16h30.48,natb3,2021.2.3,MacIntel,58.82352941,5ee0fb635f06010cac68dae3,611e07ecdcc96256ae8d5b80,611e791422ab98a338af5b51,
,,,,,,,0,126,126,166,1,X, , , , ,,2000,2,5ee0fb635f06010cac68dae3,001,2021-08-19_16h30.48,natb3,2021.2.3,MacIntel,58.82352941,5ee0fb635f06010cac68dae3,611e07ecdcc96256ae8d5b80,611e791422ab98a338af5b51,
,,,,space,0.493,,0,127,127,258,1,E, , , , ,space,1500,1.5,5ee0fb635f06010cac68dae3,001,2021-08-19_16h30.48,natb3,2021.2.3,MacIntel,58.82352941,5ee0fb635f06010cac68dae3,611e07ecdcc96256ae8d5b80,611e791422ab98a338af5b51,
,,,,,,,0,128,128,191,1,X,1, ,3,4,,2500,2.5,5ee0fb635f06010cac68dae3,001,2021-08-19_16h30.48,natb3,2021.2.3,MacIntel,58.82352941,5ee0fb635f06010cac68dae3,611e07ecdcc96256ae8d5b80,611e791422ab98a338af5b51,
,,,,space,0.532,,0,129,129,181,1,E, , , , ,space,1500,1.5,5ee0fb635f06010cac68dae3,001,2021-08-19_16h30.48,natb3,2021.2.3,MacIntel,58.82352941,5ee0fb635f06010cac68dae3,611e07ecdcc96256ae8d5b80,611e791422ab98a338af5b51,
,,,,space,0.649,,0,130,130,308,1,G, , , , ,space,1500,1.5,5ee0fb635f06010cac68dae3,001,2021-08-19_16h30.48,natb3,2021.2.3,MacIntel,58.82352941,5ee0fb635f06010cac68dae3,611e07ecdcc96256ae8d5b80,611e791422ab98a338af5b51,
,,,,,,,0,131,131,162,1,X,1,6, ,2,,1500,1.5,5ee0fb635f06010cac68dae3,001,2021-08-19_16h30.48,natb3,2021.2.3,MacIntel,58.82352941,5ee0fb635f06010cac68dae3,611e07ecdcc96256ae8d5b80,611e791422ab98a338af5b51,
,,,,space,0.713,,0,132,132,297,1,U, , , , ,space,2000,2,5ee0fb635f06010cac68dae3,001,2021-08-19_16h30.48,natb3,2021.2.3,MacIntel,58.82352941,5ee0fb635f06010cac68dae3,611e07ecdcc96256ae8d5b80,611e791422ab98a338af5b51,
,,,,,,,0,133,133,84,1,X, , , , ,,2000,2,5ee0fb635f06010cac68dae3,001,2021-08-19_16h30.48,natb3,2021.2.3,MacIntel,58.82352941,5ee0fb635f06010cac68dae3,611e07ecdcc96256ae8d5b80,611e791422ab98a338af5b51,
,,,,space,0.472,,0,134,134,38,1,R, , , , ,space,2500,2.5,5ee0fb635f06010cac68dae3,001,2021-08-19_16h30.48,natb3,2021.2.3,MacIntel,58.82352941,5ee0fb635f06010cac68dae3,611e07ecdcc96256ae8d5b80,611e791422ab98a338af5b51,
,,,,,,,0,135,135,155,1,O, , , , ,space,1500,1.5,5ee0fb635f06010cac68dae3,001,2021-08-19_16h30.48,natb3,2021.2.3,MacIntel,58.82352941,5ee0fb635f06010cac68dae3,611e07ecdcc96256ae8d5b80,611e791422ab98a338af5b51,
,,,,,,,0,136,136,335,1,P,,,,,space,1500,1.5,5ee0fb635f06010cac68dae3,001,2021-08-19_16h30.48,natb3,2021.2.3,MacIntel,58.82352941,5ee0fb635f06010cac68dae3,611e07ecdcc96256ae8d5b80,611e791422ab98a338af5b51,
,,,,space,0.803,,0,137,137,316,1,Z, , , , ,space,1500,1.5,5ee0fb635f06010cac68dae3,001,2021-08-19_16h30.48,natb3,2021.2.3,MacIntel,58.82352941,5ee0fb635f06010cac68dae3,611e07ecdcc96256ae8d5b80,611e791422ab98a338af5b51,
,,,,space,0.604,,0,138,138,144,1,Q, , , , ,space,2500,2.5,5ee0fb635f06010cac68dae3,001,2021-08-19_16h30.48,natb3,2021.2.3,MacIntel,58.82352941,5ee0fb635f06010cac68dae3,611e07ecdcc96256ae8d5b80,611e791422ab98a338af5b51,
,,,,,,,0,139,139,153,1,X,4,7, ,6,,2000,2,5ee0fb635f06010cac68dae3,001,2021-08-19_16h30.48,natb3,2021.2.3,MacIntel,58.82352941,5ee0fb635f06010cac68dae3,611e07ecdcc96256ae8d5b80,611e791422ab98a338af5b51,
,,,,space,0.6,,0,140,140,3,1,R, , , , ,space,2000,2,5ee0fb635f06010cac68dae3,001,2021-08-19_16h30.48,natb3,2021.2.3,MacIntel,58.82352941,5ee0fb635f06010cac68dae3,611e07ecdcc96256ae8d5b80,611e791422ab98a338af5b51,
,,,,space,0.443,,0,141,141,100,1,M, , , , ,space,2000,2,5ee0fb635f06010cac68dae3,001,2021-08-19_16h30.48,natb3,2021.2.3,MacIntel,58.82352941,5ee0fb635f06010cac68dae3,611e07ecdcc96256ae8d5b80,611e791422ab98a338af5b51,
,,,,space,0.336,,0,142,142,203,1,X, , , , ,,2500,2.5,5ee0fb635f06010cac68dae3,001,2021-08-19_16h30.48,natb3,2021.2.3,MacIntel,58.82352941,5ee0fb635f06010cac68dae3,611e07ecdcc96256ae8d5b80,611e791422ab98a338af5b51,
,,,,space,0.471,,0,143,143,50,1,D, , , , ,space,1500,1.5,5ee0fb635f06010cac68dae3,001,2021-08-19_16h30.48,natb3,2021.2.3,MacIntel,58.82352941,5ee0fb635f06010cac68dae3,611e07ecdcc96256ae8d5b80,611e791422ab98a338af5b51,
,,,,space,0.493,,0,144,144,117,1,T, , , , ,space,2500,2.5,5ee0fb635f06010cac68dae3,001,2021-08-19_16h30.48,natb3,2021.2.3,MacIntel,58.82352941,5ee0fb635f06010cac68dae3,611e07ecdcc96256ae8d5b80,611e791422ab98a338af5b51,
,,,,space,0.445,,0,145,145,246,1,L, , , , ,space,2500,2.5,5ee0fb635f06010cac68dae3,001,2021-08-19_16h30.48,natb3,2021.2.3,MacIntel,58.82352941,5ee0fb635f06010cac68dae3,611e07ecdcc96256ae8d5b80,611e791422ab98a338af5b51,
,,,,space,0.6,,0,146,146,58,1,L, , , , ,space,2000,2,5ee0fb635f06010cac68dae3,001,2021-08-19_16h30.48,natb3,2021.2.3,MacIntel,58.82352941,5ee0fb635f06010cac68dae3,611e07ecdcc96256ae8d5b80,611e791422ab98a338af5b51,
,,,,,,,0,147,147,54,1,X, , , , ,,2000,2,5ee0fb635f06010cac68dae3,001,2021-08-19_16h30.48,natb3,2021.2.3,MacIntel,58.82352941,5ee0fb635f06010cac68dae3,611e07ecdcc96256ae8d5b80,611e791422ab98a338af5b51,
,,,,space,0.713,,0,148,148,254,1,M, , , , ,space,1500,1.5,5ee0fb635f06010cac68dae3,001,2021-08-19_16h30.48,natb3,2021.2.3,MacIntel,58.82352941,5ee0fb635f06010cac68dae3,611e07ecdcc96256ae8d5b80,611e791422ab98a338af5b51,
,,,,space,0.455,,0,149,149,111,1,O, , , , ,space,2000,2,5ee0fb635f06010cac68dae3,001,2021-08-19_16h30.48,natb3,2021.2.3,MacIntel,58.82352941,5ee0fb635f06010cac68dae3,611e07ecdcc96256ae8d5b80,611e791422ab98a338af5b51,
,,,,space,0.558,,0,150,150,219,1,Y, , , , ,space,2000,2,5ee0fb635f06010cac68dae3,001,2021-08-19_16h30.48,natb3,2021.2.3,MacIntel,58.82352941,5ee0fb635f06010cac68dae3,611e07ecdcc96256ae8d5b80,611e791422ab98a338af5b51,
,,,,space,0.757,,0,151,151,22,1,K, , , , ,space,2000,2,5ee0fb635f06010cac68dae3,001,2021-08-19_16h30.48,natb3,2021.2.3,MacIntel,58.82352941,5ee0fb635f06010cac68dae3,611e07ecdcc96256ae8d5b80,611e791422ab98a338af5b51,
,,,,,,,0,152,152,98,1,X, , , , ,,2500,2.5,5ee0fb635f06010cac68dae3,001,2021-08-19_16h30.48,natb3,2021.2.3,MacIntel,58.82352941,5ee0fb635f06010cac68dae3,611e07ecdcc96256ae8d5b80,611e791422ab98a338af5b51,
,,,,space,0.667,,0,153,153,36,1,W, , , , ,space,2000,2,5ee0fb635f06010cac68dae3,001,2021-08-19_16h30.48,natb3,2021.2.3,MacIntel,58.82352941,5ee0fb635f06010cac68dae3,611e07ecdcc96256ae8d5b80,611e791422ab98a338af5b51,
,,,,space,0.494,,0,154,154,269,1,A, , , , ,space,2500,2.5,5ee0fb635f06010cac68dae3,001,2021-08-19_16h30.48,natb3,2021.2.3,MacIntel,58.82352941,5ee0fb635f06010cac68dae3,611e07ecdcc96256ae8d5b80,611e791422ab98a338af5b51,
,,,,,,,0,155,155,148,1,X, , , , ,,2000,2,5ee0fb635f06010cac68dae3,001,2021-08-19_16h30.48,natb3,2021.2.3,MacIntel,58.82352941,5ee0fb635f06010cac68dae3,611e07ecdcc96256ae8d5b80,611e791422ab98a338af5b51,
,,,,space,0.76,,0,156,156,28,1,V, , , , ,space,1500,1.5,5ee0fb635f06010cac68dae3,001,2021-08-19_16h30.48,natb3,2021.2.3,MacIntel,58.82352941,5ee0fb635f06010cac68dae3,611e07ecdcc96256ae8d5b80,611e791422ab98a338af5b51,
,,,,,,,0,157,157,302,1,X, , , , ,,2000,2,5ee0fb635f06010cac68dae3,001,2021-08-19_16h30.48,natb3,2021.2.3,MacIntel,58.82352941,5ee0fb635f06010cac68dae3,611e07ecdcc96256ae8d5b80,611e791422ab98a338af5b51,
,,,,space,0.492,,0,158,158,157,1,A, , , , ,space,2500,2.5,5ee0fb635f06010cac68dae3,001,2021-08-19_16h30.48,natb3,2021.2.3,MacIntel,58.82352941,5ee0fb635f06010cac68dae3,611e07ecdcc96256ae8d5b80,611e791422ab98a338af5b51,
,,,,space,0.518,,0,159,159,197,1,G, , , , ,space,2500,2.5,5ee0fb635f06010cac68dae3,001,2021-08-19_16h30.48,natb3,2021.2.3,MacIntel,58.82352941,5ee0fb635f06010cac68dae3,611e07ecdcc96256ae8d5b80,611e791422ab98a338af5b51,
,,,,space,0.915,,0,160,160,172,1,C, , , , ,space,1500,1.5,5ee0fb635f06010cac68dae3,001,2021-08-19_16h30.48,natb3,2021.2.3,MacIntel,58.82352941,5ee0fb635f06010cac68dae3,611e07ecdcc96256ae8d5b80,611e791422ab98a338af5b51,
,,,,,,,0,161,161,218,1,X,1,3, ,8,,1500,1.5,5ee0fb635f06010cac68dae3,001,2021-08-19_16h30.48,natb3,2021.2.3,MacIntel,58.82352941,5ee0fb635f06010cac68dae3,611e07ecdcc96256ae8d5b80,611e791422ab98a338af5b51,
,,,,space,0.58,,0,162,162,266,1,O, , , , ,space,1500,1.5,5ee0fb635f06010cac68dae3,001,2021-08-19_16h30.48,natb3,2021.2.3,MacIntel,58.82352941,5ee0fb635f06010cac68dae3,611e07ecdcc96256ae8d5b80,611e791422ab98a338af5b51,
,,,,space,0.538,,0,163,163,150,1,T, , , , ,space,2500,2.5,5ee0fb635f06010cac68dae3,001,2021-08-19_16h30.48,natb3,2021.2.3,MacIntel,58.82352941,5ee0fb635f06010cac68dae3,611e07ecdcc96256ae8d5b80,611e791422ab98a338af5b51,
,,,,space,0.782,,0,164,164,92,1,Z, , , , ,space,1500,1.5,5ee0fb635f06010cac68dae3,001,2021-08-19_16h30.48,natb3,2021.2.3,MacIntel,58.82352941,5ee0fb635f06010cac68dae3,611e07ecdcc96256ae8d5b80,611e791422ab98a338af5b51,
,,,,space,0.67,,0,165,165,59,1,Z, , , , ,space,2000,2,5ee0fb635f06010cac68dae3,001,2021-08-19_16h30.48,natb3,2021.2.3,MacIntel,58.82352941,5ee0fb635f06010cac68dae3,611e07ecdcc96256ae8d5b80,611e791422ab98a338af5b51,
,,,,space,0.604,,0,166,166,314,1,L, , , , ,space,1500,1.5,5ee0fb635f06010cac68dae3,001,2021-08-19_16h30.48,natb3,2021.2.3,MacIntel,58.82352941,5ee0fb635f06010cac68dae3,611e07ecdcc96256ae8d5b80,611e791422ab98a338af5b51,
,,,,space,0.649,space,0,167,167,204,1,Z, , , , ,space,2000,2,5ee0fb635f06010cac68dae3,001,2021-08-19_16h30.48,natb3,2021.2.3,MacIntel,58.82352941,5ee0fb635f06010cac68dae3,611e07ecdcc96256ae8d5b80,611e791422ab98a338af5b51,3.026
,,,,space,0.562,,0,168,168,330,1,T, , , , ,space,2500,2.5,5ee0fb635f06010cac68dae3,001,2021-08-19_16h30.48,natb3,2021.2.3,MacIntel,58.82352941,5ee0fb635f06010cac68dae3,611e07ecdcc96256ae8d5b80,611e791422ab98a338af5b51,
,,,,,,,0,169,169,211,1,X, , , , ,,2500,2.5,5ee0fb635f06010cac68dae3,001,2021-08-19_16h30.48,natb3,2021.2.3,MacIntel,58.82352941,5ee0fb635f06010cac68dae3,611e07ecdcc96256ae8d5b80,611e791422ab98a338af5b51,
,,,,space,0.428,,0,170,170,209,1,N, , , , ,space,2000,2,5ee0fb635f06010cac68dae3,001,2021-08-19_16h30.48,natb3,2021.2.3,MacIntel,58.82352941,5ee0fb635f06010cac68dae3,611e07ecdcc96256ae8d5b80,611e791422ab98a338af5b51,
,,,,,,,0,171,171,69,1,X, , , , ,,1500,1.5,5ee0fb635f06010cac68dae3,001,2021-08-19_16h30.48,natb3,2021.2.3,MacIntel,58.82352941,5ee0fb635f06010cac68dae3,611e07ecdcc96256ae8d5b80,611e791422ab98a338af5b51,
,,,,space,0.623,,0,172,172,250,1,V, , , , ,space,2000,2,5ee0fb635f06010cac68dae3,001,2021-08-19_16h30.48,natb3,2021.2.3,MacIntel,58.82352941,5ee0fb635f06010cac68dae3,611e07ecdcc96256ae8d5b80,611e791422ab98a338af5b51,
,,,,space,0.425,,0,173,173,226,1,R, , , , ,space,2000,2,5ee0fb635f06010cac68dae3,001,2021-08-19_16h30.48,natb3,2021.2.3,MacIntel,58.82352941,5ee0fb635f06010cac68dae3,611e07ecdcc96256ae8d5b80,611e791422ab98a338af5b51,
,,,,space,0.499,,0,174,174,29,1,B, , , , ,space,1500,1.5,5ee0fb635f06010cac68dae3,001,2021-08-19_16h30.48,natb3,2021.2.3,MacIntel,58.82352941,5ee0fb635f06010cac68dae3,611e07ecdcc96256ae8d5b80,611e791422ab98a338af5b51,
,,,,,,,0,175,175,200,1,X,7, ,5,3,,1500,1.5,5ee0fb635f06010cac68dae3,001,2021-08-19_16h30.48,natb3,2021.2.3,MacIntel,58.82352941,5ee0fb635f06010cac68dae3,611e07ecdcc96256ae8d5b80,611e791422ab98a338af5b51,
,,,,space,0.645,,0,176,176,327,1,E, , , , ,space,1500,1.5,5ee0fb635f06010cac68dae3,001,2021-08-19_16h30.48,natb3,2021.2.3,MacIntel,58.82352941,5ee0fb635f06010cac68dae3,611e07ecdcc96256ae8d5b80,611e791422ab98a338af5b51,
,,,,,,,0,177,177,287,1,X, ,2, ,9,,2000,2,5ee0fb635f06010cac68dae3,001,2021-08-19_16h30.48,natb3,2021.2.3,MacIntel,58.82352941,5ee0fb635f06010cac68dae3,611e07ecdcc96256ae8d5b80,611e791422ab98a338af5b51,
,,,,space,0.425,,0,178,178,222,1,O, , , , ,space,2000,2,5ee0fb635f06010cac68dae3,001,2021-08-19_16h30.48,natb3,2021.2.3,MacIntel,58.82352941,5ee0fb635f06010cac68dae3,611e07ecdcc96256ae8d5b80,611e791422ab98a338af5b51,
,,,,space,0.469,,0,179,179,253,1,N, , , , ,space,2500,2.5,5ee0fb635f06010cac68dae3,001,2021-08-19_16h30.48,natb3,2021.2.3,MacIntel,58.82352941,5ee0fb635f06010cac68dae3,611e07ecdcc96256ae8d5b80,611e791422ab98a338af5b51,
,,,,space,0.4,,0,180,180,124,1,P, , , , ,space,2000,2,5ee0fb635f06010cac68dae3,001,2021-08-19_16h30.48,natb3,2021.2.3,MacIntel,58.82352941,5ee0fb635f06010cac68dae3,611e07ecdcc96256ae8d5b80,611e791422ab98a338af5b51,
,,,,space,0.472,,0,181,181,86,1,G, , , , ,space,2000,2,5ee0fb635f06010cac68dae3,001,2021-08-19_16h30.48,natb3,2021.2.3,MacIntel,58.82352941,5ee0fb635f06010cac68dae3,611e07ecdcc96256ae8d5b80,611e791422ab98a338af5b51,
,,,,,,,0,182,182,233,1,X, ,2, ,5,,1500,1.5,5ee0fb635f06010cac68dae3,001,2021-08-19_16h30.48,natb3,2021.2.3,MacIntel,58.82352941,5ee0fb635f06010cac68dae3,611e07ecdcc96256ae8d5b80,611e791422ab98a338af5b51,
,,,,space,0.433,,0,183,183,45,1,O, , , , ,space,2000,2,5ee0fb635f06010cac68dae3,001,2021-08-19_16h30.48,natb3,2021.2.3,MacIntel,58.82352941,5ee0fb635f06010cac68dae3,611e07ecdcc96256ae8d5b80,611e791422ab98a338af5b51,
,,,,space,0.427,,0,184,184,97,1,B, , , , ,space,2500,2.5,5ee0fb635f06010cac68dae3,001,2021-08-19_16h30.48,natb3,2021.2.3,MacIntel,58.82352941,5ee0fb635f06010cac68dae3,611e07ecdcc96256ae8d5b80,611e791422ab98a338af5b51,
,,,,space,0.404,,0,185,185,328,1,R, , , , ,space,1500,1.5,5ee0fb635f06010cac68dae3,001,2021-08-19_16h30.48,natb3,2021.2.3,MacIntel,58.82352941,5ee0fb635f06010cac68dae3,611e07ecdcc96256ae8d5b80,611e791422ab98a338af5b51,
,,,,,,,0,186,186,18,1,X, ,2,5,8,,2500,2.5,5ee0fb635f06010cac68dae3,001,2021-08-19_16h30.48,natb3,2021.2.3,MacIntel,58.82352941,5ee0fb635f06010cac68dae3,611e07ecdcc96256ae8d5b80,611e791422ab98a338af5b51,
,,,,space,0.401,,0,187,187,290,1,W, , , , ,space,1500,1.5,5ee0fb635f06010cac68dae3,001,2021-08-19_16h30.48,natb3,2021.2.3,MacIntel,58.82352941,5ee0fb635f06010cac68dae3,611e07ecdcc96256ae8d5b80,611e791422ab98a338af5b51,
,,,,space,0.358,,0,188,188,81,1,S, , , , ,space,2000,2,5ee0fb635f06010cac68dae3,001,2021-08-19_16h30.48,natb3,2021.2.3,MacIntel,58.82352941,5ee0fb635f06010cac68dae3,611e07ecdcc96256ae8d5b80,611e791422ab98a338af5b51,
,,,,space,0.539,,0,189,189,199,1,J, , , , ,space,2500,2.5,5ee0fb635f06010cac68dae3,001,2021-08-19_16h30.48,natb3,2021.2.3,MacIntel,58.82352941,5ee0fb635f06010cac68dae3,611e07ecdcc96256ae8d5b80,611e791422ab98a338af5b51,
,,,,,,,0,190,190,252,1,X,3, ,6,9,,2000,2,5ee0fb635f06010cac68dae3,001,2021-08-19_16h30.48,natb3,2021.2.3,MacIntel,58.82352941,5ee0fb635f06010cac68dae3,611e07ecdcc96256ae8d5b80,611e791422ab98a338af5b51,
,,,,space,0.625,,0,191,191,136,1,Z, , , , ,space,2500,2.5,5ee0fb635f06010cac68dae3,001,2021-08-19_16h30.48,natb3,2021.2.3,MacIntel,58.82352941,5ee0fb635f06010cac68dae3,611e07ecdcc96256ae8d5b80,611e791422ab98a338af5b51,
,,,,space,0.58,,0,192,192,115,1,R, , , , ,space,1500,1.5,5ee0fb635f06010cac68dae3,001,2021-08-19_16h30.48,natb3,2021.2.3,MacIntel,58.82352941,5ee0fb635f06010cac68dae3,611e07ecdcc96256ae8d5b80,611e791422ab98a338af5b51,
,,,,space,0.554,,0,193,193,1,1,W, , , , ,space,2000,2,5ee0fb635f06010cac68dae3,001,2021-08-19_16h30.48,natb3,2021.2.3,MacIntel,58.82352941,5ee0fb635f06010cac68dae3,611e07ecdcc96256ae8d5b80,611e791422ab98a338af5b51,
,,,,space,0.493,,0,194,194,135,1,K, , , , ,space,1500,1.5,5ee0fb635f06010cac68dae3,001,2021-08-19_16h30.48,natb3,2021.2.3,MacIntel,58.82352941,5ee0fb635f06010cac68dae3,611e07ecdcc96256ae8d5b80,611e791422ab98a338af5b51,
,,,,space,0.47,,0,195,195,206,1,V, , , , ,space,2000,2,5ee0fb635f06010cac68dae3,001,2021-08-19_16h30.48,natb3,2021.2.3,MacIntel,58.82352941,5ee0fb635f06010cac68dae3,611e07ecdcc96256ae8d5b80,611e791422ab98a338af5b51,
,,,,space,0.452,,0,196,196,208,1,B, , , , ,space,1500,1.5,5ee0fb635f06010cac68dae3,001,2021-08-19_16h30.48,natb3,2021.2.3,MacIntel,58.82352941,5ee0fb635f06010cac68dae3,611e07ecdcc96256ae8d5b80,611e791422ab98a338af5b51,
,,,,,,,0,197,197,116,1,X, , , , ,,2000,2,5ee0fb635f06010cac68dae3,001,2021-08-19_16h30.48,natb3,2021.2.3,MacIntel,58.82352941,5ee0fb635f06010cac68dae3,611e07ecdcc96256ae8d5b80,611e791422ab98a338af5b51,
,,,,space,0.626,,0,198,198,185,1,Y, , , , ,space,2500,2.5,5ee0fb635f06010cac68dae3,001,2021-08-19_16h30.48,natb3,2021.2.3,MacIntel,58.82352941,5ee0fb635f06010cac68dae3,611e07ecdcc96256ae8d5b80,611e791422ab98a338af5b51,
,,,,space,0.687,,0,199,199,130,1,F, , , , ,space,2000,2,5ee0fb635f06010cac68dae3,001,2021-08-19_16h30.48,natb3,2021.2.3,MacIntel,58.82352941,5ee0fb635f06010cac68dae3,611e07ecdcc96256ae8d5b80,611e791422ab98a338af5b51,
,,,,space,0.489,,0,200,200,217,1,T, , , , ,space,2500,2.5,5ee0fb635f06010cac68dae3,001,2021-08-19_16h30.48,natb3,2021.2.3,MacIntel,58.82352941,5ee0fb635f06010cac68dae3,611e07ecdcc96256ae8d5b80,611e791422ab98a338af5b51,
,,,,space,0.38,,0,201,201,137,1,C, , , , ,space,2500,2.5,5ee0fb635f06010cac68dae3,001,2021-08-19_16h30.48,natb3,2021.2.3,MacIntel,58.82352941,5ee0fb635f06010cac68dae3,611e07ecdcc96256ae8d5b80,611e791422ab98a338af5b51,
,,,,space,0.47,,0,202,202,47,1,P, , , , ,space,2000,2,5ee0fb635f06010cac68dae3,001,2021-08-19_16h30.48,natb3,2021.2.3,MacIntel,58.82352941,5ee0fb635f06010cac68dae3,611e07ecdcc96256ae8d5b80,611e791422ab98a338af5b51,
,,,,,,,0,203,203,107,1,X,9,3, ,2,,2000,2,5ee0fb635f06010cac68dae3,001,2021-08-19_16h30.48,natb3,2021.2.3,MacIntel,58.82352941,5ee0fb635f06010cac68dae3,611e07ecdcc96256ae8d5b80,611e791422ab98a338af5b51,
,,,,,,,0,204,204,145,1,X, , , , ,,2000,2,5ee0fb635f06010cac68dae3,001,2021-08-19_16h30.48,natb3,2021.2.3,MacIntel,58.82352941,5ee0fb635f06010cac68dae3,611e07ecdcc96256ae8d5b80,611e791422ab98a338af5b51,
,,,,,,,0,205,205,15,1,X, , , , ,,1500,1.5,5ee0fb635f06010cac68dae3,001,2021-08-19_16h30.48,natb3,2021.2.3,MacIntel,58.82352941,5ee0fb635f06010cac68dae3,611e07ecdcc96256ae8d5b80,611e791422ab98a338af5b51,
,,,,space,0.45,,0,206,206,320,1,B, , , , ,space,1500,1.5,5ee0fb635f06010cac68dae3,001,2021-08-19_16h30.48,natb3,2021.2.3,MacIntel,58.82352941,5ee0fb635f06010cac68dae3,611e07ecdcc96256ae8d5b80,611e791422ab98a338af5b51,
,,,,space,0.738,,0,207,207,213,1,X, , , , ,,2500,2.5,5ee0fb635f06010cac68dae3,001,2021-08-19_16h30.48,natb3,2021.2.3,MacIntel,58.82352941,5ee0fb635f06010cac68dae3,611e07ecdcc96256ae8d5b80,611e791422ab98a338af5b51,
,,,,,,,0,208,208,239,1,X, , , , ,,2000,2,5ee0fb635f06010cac68dae3,001,2021-08-19_16h30.48,natb3,2021.2.3,MacIntel,58.82352941,5ee0fb635f06010cac68dae3,611e07ecdcc96256ae8d5b80,611e791422ab98a338af5b51,
,,,,,,,0,209,209,332,1,U, , , , ,space,2000,2,5ee0fb635f06010cac68dae3,001,2021-08-19_16h30.48,natb3,2021.2.3,MacIntel,58.82352941,5ee0fb635f06010cac68dae3,611e07ecdcc96256ae8d5b80,611e791422ab98a338af5b51,
,,,,,,,0,210,210,52,1,F, , , , ,space,1500,1.5,5ee0fb635f06010cac68dae3,001,2021-08-19_16h30.48,natb3,2021.2.3,MacIntel,58.82352941,5ee0fb635f06010cac68dae3,611e07ecdcc96256ae8d5b80,611e791422ab98a338af5b51,
,,,,,,,0,211,211,60,1,X,7,3,5, ,,1500,1.5,5ee0fb635f06010cac68dae3,001,2021-08-19_16h30.48,natb3,2021.2.3,MacIntel,58.82352941,5ee0fb635f06010cac68dae3,611e07ecdcc96256ae8d5b80,611e791422ab98a338af5b51,
,,,,space,0.383,,0,212,212,120,1,U, , , , ,space,1500,1.5,5ee0fb635f06010cac68dae3,001,2021-08-19_16h30.48,natb3,2021.2.3,MacIntel,58.82352941,5ee0fb635f06010cac68dae3,611e07ecdcc96256ae8d5b80,611e791422ab98a338af5b51,
,,,,,,,0,213,213,311,1,X,1,2,7,3,,2500,2.5,5ee0fb635f06010cac68dae3,001,2021-08-19_16h30.48,natb3,2021.2.3,MacIntel,58.82352941,5ee0fb635f06010cac68dae3,611e07ecdcc96256ae8d5b80,611e791422ab98a338af5b51,
,,,,space,0.532,,0,214,214,228,1,Y, , , , ,space,2000,2,5ee0fb635f06010cac68dae3,001,2021-08-19_16h30.48,natb3,2021.2.3,MacIntel,58.82352941,5ee0fb635f06010cac68dae3,611e07ecdcc96256ae8d5b80,611e791422ab98a338af5b51,
,,,,space,0.718,,0,215,215,62,1,V, , , , ,space,1500,1.5,5ee0fb635f06010cac68dae3,001,2021-08-19_16h30.48,natb3,2021.2.3,MacIntel,58.82352941,5ee0fb635f06010cac68dae3,611e07ecdcc96256ae8d5b80,611e791422ab98a338af5b51,
,,,,space,0.488,,0,216,216,331,1,Y, , , , ,space,2500,2.5,5ee0fb635f06010cac68dae3,001,2021-08-19_16h30.48,natb3,2021.2.3,MacIntel,58.82352941,5ee0fb635f06010cac68dae3,611e07ecdcc96256ae8d5b80,611e791422ab98a338af5b51,
,,,,space,0.446,,0,217,217,40,1,T, , , , ,space,1500,1.5,5ee0fb635f06010cac68dae3,001,2021-08-19_16h30.48,natb3,2021.2.3,MacIntel,58.82352941,5ee0fb635f06010cac68dae3,611e07ecdcc96256ae8d5b80,611e791422ab98a338af5b51,
,,,,space,0.377,,0,218,218,7,1,X, , , , ,,1500,1.5,5ee0fb635f06010cac68dae3,001,2021-08-19_16h30.48,natb3,2021.2.3,MacIntel,58.82352941,5ee0fb635f06010cac68dae3,611e07ecdcc96256ae8d5b80,611e791422ab98a338af5b51,
,,,,space,0.424,,0,219,219,79,1,P, , , , ,space,2000,2,5ee0fb635f06010cac68dae3,001,2021-08-19_16h30.48,natb3,2021.2.3,MacIntel,58.82352941,5ee0fb635f06010cac68dae3,611e07ecdcc96256ae8d5b80,611e791422ab98a338af5b51,
,,,,space,0.603,,0,220,220,13,1,A, , , , ,space,2000,2,5ee0fb635f06010cac68dae3,001,2021-08-19_16h30.48,natb3,2021.2.3,MacIntel,58.82352941,5ee0fb635f06010cac68dae3,611e07ecdcc96256ae8d5b80,611e791422ab98a338af5b51,
,,,,space,0.424,,0,221,221,192,1,A, , , , ,space,2000,2,5ee0fb635f06010cac68dae3,001,2021-08-19_16h30.48,natb3,2021.2.3,MacIntel,58.82352941,5ee0fb635f06010cac68dae3,611e07ecdcc96256ae8d5b80,611e791422ab98a338af5b51,
,,,,space,0.467,,0,222,222,189,1,O, , , , ,space,1500,1.5,5ee0fb635f06010cac68dae3,001,2021-08-19_16h30.48,natb3,2021.2.3,MacIntel,58.82352941,5ee0fb635f06010cac68dae3,611e07ecdcc96256ae8d5b80,611e791422ab98a338af5b51,
,,,,,,,0,223,223,248,1,X, ,1,5, ,,1500,1.5,5ee0fb635f06010cac68dae3,001,2021-08-19_16h30.48,natb3,2021.2.3,MacIntel,58.82352941,5ee0fb635f06010cac68dae3,611e07ecdcc96256ae8d5b80,611e791422ab98a338af5b51,
,,,,space,0.47,,0,224,224,178,1,Q, , , , ,space,1500,1.5,5ee0fb635f06010cac68dae3,001,2021-08-19_16h30.48,natb3,2021.2.3,MacIntel,58.82352941,5ee0fb635f06010cac68dae3,611e07ecdcc96256ae8d5b80,611e791422ab98a338af5b51,
,,,,space,0.517,,0,225,225,105,1,R, , , , ,space,2500,2.5,5ee0fb635f06010cac68dae3,001,2021-08-19_16h30.48,natb3,2021.2.3,MacIntel,58.82352941,5ee0fb635f06010cac68dae3,611e07ecdcc96256ae8d5b80,611e791422ab98a338af5b51,
,,,,space,0.488,,0,226,226,149,1,R, , , , ,space,2000,2,5ee0fb635f06010cac68dae3,001,2021-08-19_16h30.48,natb3,2021.2.3,MacIntel,58.82352941,5ee0fb635f06010cac68dae3,611e07ecdcc96256ae8d5b80,611e791422ab98a338af5b51,
,,,,space,0.645,,0,227,227,2,1,E, , , , ,space,2500,2.5,5ee0fb635f06010cac68dae3,001,2021-08-19_16h30.48,natb3,2021.2.3,MacIntel,58.82352941,5ee0fb635f06010cac68dae3,611e07ecdcc96256ae8d5b80,611e791422ab98a338af5b51,
,,,,space,0.469,,0,228,228,156,1,P, , , , ,space,1500,1.5,5ee0fb635f06010cac68dae3,001,2021-08-19_16h30.48,natb3,2021.2.3,MacIntel,58.82352941,5ee0fb635f06010cac68dae3,611e07ecdcc96256ae8d5b80,611e791422ab98a338af5b51,
,,,,space,0.889,,0,229,229,82,1,X,4,6,1,7,,2000,2,5ee0fb635f06010cac68dae3,001,2021-08-19_16h30.48,natb3,2021.2.3,MacIntel,58.82352941,5ee0fb635f06010cac68dae3,611e07ecdcc96256ae8d5b80,611e791422ab98a338af5b51,
,,,,space,0.556,,0,230,230,37,1,E, , , , ,space,2500,2.5,5ee0fb635f06010cac68dae3,001,2021-08-19_16h30.48,natb3,2021.2.3,MacIntel,58.82352941,5ee0fb635f06010cac68dae3,611e07ecdcc96256ae8d5b80,611e791422ab98a338af5b51,
,,,,space,0.424,,0,231,231,8,1,U, , , , ,space,1500,1.5,5ee0fb635f06010cac68dae3,001,2021-08-19_16h30.48,natb3,2021.2.3,MacIntel,58.82352941,5ee0fb635f06010cac68dae3,611e07ecdcc96256ae8d5b80,611e791422ab98a338af5b51,
,,,,space,0.401,,0,232,232,109,1,U, , , , ,space,1500,1.5,5ee0fb635f06010cac68dae3,001,2021-08-19_16h30.48,natb3,2021.2.3,MacIntel,58.82352941,5ee0fb635f06010cac68dae3,611e07ecdcc96256ae8d5b80,611e791422ab98a338af5b51,
,,,,space,0.362,,0,233,233,174,1,B, , , , ,space,2500,2.5,5ee0fb635f06010cac68dae3,001,2021-08-19_16h30.48,natb3,2021.2.3,MacIntel,58.82352941,5ee0fb635f06010cac68dae3,611e07ecdcc96256ae8d5b80,611e791422ab98a338af5b51,
,,,,space,0.425,,0,234,234,188,1,I, , , , ,space,2500,2.5,5ee0fb635f06010cac68dae3,001,2021-08-19_16h30.48,natb3,2021.2.3,MacIntel,58.82352941,5ee0fb635f06010cac68dae3,611e07ecdcc96256ae8d5b80,611e791422ab98a338af5b51,
,,,,space,0.338,,0,235,235,78,1,X, , , , ,,2000,2,5ee0fb635f06010cac68dae3,001,2021-08-19_16h30.48,natb3,2021.2.3,MacIntel,58.82352941,5ee0fb635f06010cac68dae3,611e07ecdcc96256ae8d5b80,611e791422ab98a338af5b51,
,,,,space,0.423,,0,236,236,83,1,D, , , , ,space,2000,2,5ee0fb635f06010cac68dae3,001,2021-08-19_16h30.48,natb3,2021.2.3,MacIntel,58.82352941,5ee0fb635f06010cac68dae3,611e07ecdcc96256ae8d5b80,611e791422ab98a338af5b51,
,,,,,,,0,237,237,168,1,X, , , , ,,2500,2.5,5ee0fb635f06010cac68dae3,001,2021-08-19_16h30.48,natb3,2021.2.3,MacIntel,58.82352941,5ee0fb635f06010cac68dae3,611e07ecdcc96256ae8d5b80,611e791422ab98a338af5b51,
,,,,space,0.513,,0,238,238,17,1,F, , , , ,space,2500,2.5,5ee0fb635f06010cac68dae3,001,2021-08-19_16h30.48,natb3,2021.2.3,MacIntel,58.82352941,5ee0fb635f06010cac68dae3,611e07ecdcc96256ae8d5b80,611e791422ab98a338af5b51,
,,,,space,0.777,,0,239,239,304,1,S, , , , ,space,2000,2,5ee0fb635f06010cac68dae3,001,2021-08-19_16h30.48,natb3,2021.2.3,MacIntel,58.82352941,5ee0fb635f06010cac68dae3,611e07ecdcc96256ae8d5b80,611e791422ab98a338af5b51,
,,,,space,0.688,,0,240,240,99,1,N, , , , ,space,2500,2.5,5ee0fb635f06010cac68dae3,001,2021-08-19_16h30.48,natb3,2021.2.3,MacIntel,58.82352941,5ee0fb635f06010cac68dae3,611e07ecdcc96256ae8d5b80,611e791422ab98a338af5b51,
,,,,space,0.427,,0,241,241,146,1,W, , , , ,space,1500,1.5,5ee0fb635f06010cac68dae3,001,2021-08-19_16h30.48,natb3,2021.2.3,MacIntel,58.82352941,5ee0fb635f06010cac68dae3,611e07ecdcc96256ae8d5b80,611e791422ab98a338af5b51,
,,,,space,0.444,,0,242,242,280,1,L, , , , ,space,1500,1.5,5ee0fb635f06010cac68dae3,001,2021-08-19_16h30.48,natb3,2021.2.3,MacIntel,58.82352941,5ee0fb635f06010cac68dae3,611e07ecdcc96256ae8d5b80,611e791422ab98a338af5b51,
,,,,,,,0,243,243,325,1,X, , , , ,,2500,2.5,5ee0fb635f06010cac68dae3,001,2021-08-19_16h30.48,natb3,2021.2.3,MacIntel,58.82352941,5ee0fb635f06010cac68dae3,611e07ecdcc96256ae8d5b80,611e791422ab98a338af5b51,
,,,,space,0.541,,0,244,244,139,1,V, , , , ,space,2000,2,5ee0fb635f06010cac68dae3,001,2021-08-19_16h30.48,natb3,2021.2.3,MacIntel,58.82352941,5ee0fb635f06010cac68dae3,611e07ecdcc96256ae8d5b80,611e791422ab98a338af5b51,
,,,,space,0.426,,0,245,245,231,1,I, , , , ,space,2500,2.5,5ee0fb635f06010cac68dae3,001,2021-08-19_16h30.48,natb3,2021.2.3,MacIntel,58.82352941,5ee0fb635f06010cac68dae3,611e07ecdcc96256ae8d5b80,611e791422ab98a338af5b51,
,,,,space,0.63,,0,246,246,131,1,G, , , , ,space,1500,1.5,5ee0fb635f06010cac68dae3,001,2021-08-19_16h30.48,natb3,2021.2.3,MacIntel,58.82352941,5ee0fb635f06010cac68dae3,611e07ecdcc96256ae8d5b80,611e791422ab98a338af5b51,
,,,,space,0.447,,0,247,247,202,1,L, , , , ,space,2500,2.5,5ee0fb635f06010cac68dae3,001,2021-08-19_16h30.48,natb3,2021.2.3,MacIntel,58.82352941,5ee0fb635f06010cac68dae3,611e07ecdcc96256ae8d5b80,611e791422ab98a338af5b51,
,,,,space,0.401,,0,248,248,293,1,R, , , , ,space,2500,2.5,5ee0fb635f06010cac68dae3,001,2021-08-19_16h30.48,natb3,2021.2.3,MacIntel,58.82352941,5ee0fb635f06010cac68dae3,611e07ecdcc96256ae8d5b80,611e791422ab98a338af5b51,
,,,,space,0.489,,0,249,249,257,1,W, , , , ,space,2000,2,5ee0fb635f06010cac68dae3,001,2021-08-19_16h30.48,natb3,2021.2.3,MacIntel,58.82352941,5ee0fb635f06010cac68dae3,611e07ecdcc96256ae8d5b80,611e791422ab98a338af5b51,
,,,,space,0.426,,0,250,250,164,1,H, , , , ,space,2500,2.5,5ee0fb635f06010cac68dae3,001,2021-08-19_16h30.48,natb3,2021.2.3,MacIntel,58.82352941,5ee0fb635f06010cac68dae3,611e07ecdcc96256ae8d5b80,611e791422ab98a338af5b51,
,,,,space,0.445,,0,251,251,301,1,P, , , , ,space,1500,1.5,5ee0fb635f06010cac68dae3,001,2021-08-19_16h30.48,natb3,2021.2.3,MacIntel,58.82352941,5ee0fb635f06010cac68dae3,611e07ecdcc96256ae8d5b80,611e791422ab98a338af5b51,
,,,,space,0.469,,0,252,252,282,1,X, , , , ,,2500,2.5,5ee0fb635f06010cac68dae3,001,2021-08-19_16h30.48,natb3,2021.2.3,MacIntel,58.82352941,5ee0fb635f06010cac68dae3,611e07ecdcc96256ae8d5b80,611e791422ab98a338af5b51,
,,,,space,0.625,,0,253,253,288,1,M, , , , ,space,1500,1.5,5ee0fb635f06010cac68dae3,001,2021-08-19_16h30.48,natb3,2021.2.3,MacIntel,58.82352941,5ee0fb635f06010cac68dae3,611e07ecdcc96256ae8d5b80,611e791422ab98a338af5b51,
,,,,space,0.87,,0,254,254,284,1,V, , , , ,space,2500,2.5,5ee0fb635f06010cac68dae3,001,2021-08-19_16h30.48,natb3,2021.2.3,MacIntel,58.82352941,5ee0fb635f06010cac68dae3,611e07ecdcc96256ae8d5b80,611e791422ab98a338af5b51,
,,,,,,,0,255,255,313,1,X, , , , ,,2500,2.5,5ee0fb635f06010cac68dae3,001,2021-08-19_16h30.48,natb3,2021.2.3,MacIntel,58.82352941,5ee0fb635f06010cac68dae3,611e07ecdcc96256ae8d5b80,611e791422ab98a338af5b51,
,,,,,,,0,256,256,220,1,U, , , , ,space,2500,2.5,5ee0fb635f06010cac68dae3,001,2021-08-19_16h30.48,natb3,2021.2.3,MacIntel,58.82352941,5ee0fb635f06010cac68dae3,611e07ecdcc96256ae8d5b80,611e791422ab98a338af5b51,
,,,,,,,0,257,257,232,1,O, , , , ,space,2500,2.5,5ee0fb635f06010cac68dae3,001,2021-08-19_16h30.48,natb3,2021.2.3,MacIntel,58.82352941,5ee0fb635f06010cac68dae3,611e07ecdcc96256ae8d5b80,611e791422ab98a338af5b51,
,,,,,,,0,258,258,318,1,X, , , , ,,1500,1.5,5ee0fb635f06010cac68dae3,001,2021-08-19_16h30.48,natb3,2021.2.3,MacIntel,58.82352941,5ee0fb635f06010cac68dae3,611e07ecdcc96256ae8d5b80,611e791422ab98a338af5b51,
,,,,space,0.737,,0,259,259,312,1,K, , , , ,space,2000,2,5ee0fb635f06010cac68dae3,001,2021-08-19_16h30.48,natb3,2021.2.3,MacIntel,58.82352941,5ee0fb635f06010cac68dae3,611e07ecdcc96256ae8d5b80,611e791422ab98a338af5b51,
,,,,space,0.893,,0,260,260,306,1,D, , , , ,space,2000,2,5ee0fb635f06010cac68dae3,001,2021-08-19_16h30.48,natb3,2021.2.3,MacIntel,58.82352941,5ee0fb635f06010cac68dae3,611e07ecdcc96256ae8d5b80,611e791422ab98a338af5b51,
,,,,,,,0,261,261,16,1,D, , , , ,space,1500,1.5,5ee0fb635f06010cac68dae3,001,2021-08-19_16h30.48,natb3,2021.2.3,MacIntel,58.82352941,5ee0fb635f06010cac68dae3,611e07ecdcc96256ae8d5b80,611e791422ab98a338af5b51,
,,,,space,0.669,,0,262,262,296,1,Y, , , , ,space,2500,2.5,5ee0fb635f06010cac68dae3,001,2021-08-19_16h30.48,natb3,2021.2.3,MacIntel,58.82352941,5ee0fb635f06010cac68dae3,611e07ecdcc96256ae8d5b80,611e791422ab98a338af5b51,
,,,,,,,0,263,263,161,1,F, , , , ,space,1500,1.5,5ee0fb635f06010cac68dae3,001,2021-08-19_16h30.48,natb3,2021.2.3,MacIntel,58.82352941,5ee0fb635f06010cac68dae3,611e07ecdcc96256ae8d5b80,611e791422ab98a338af5b51,
,,,,space,0.513,,0,264,264,30,1,N, , , , ,space,2500,2.5,5ee0fb635f06010cac68dae3,001,2021-08-19_16h30.48,natb3,2021.2.3,MacIntel,58.82352941,5ee0fb635f06010cac68dae3,611e07ecdcc96256ae8d5b80,611e791422ab98a338af5b51,
,,,,space,0.713,,0,265,265,159,1,S, , , , ,space,2500,2.5,5ee0fb635f06010cac68dae3,001,2021-08-19_16h30.48,natb3,2021.2.3,MacIntel,58.82352941,5ee0fb635f06010cac68dae3,611e07ecdcc96256ae8d5b80,611e791422ab98a338af5b51,
,,,,,,,0,266,266,180,1,W, , , , ,space,2000,2,5ee0fb635f06010cac68dae3,001,2021-08-19_16h30.48,natb3,2021.2.3,MacIntel,58.82352941,5ee0fb635f06010cac68dae3,611e07ecdcc96256ae8d5b80,611e791422ab98a338af5b51,
,,,,space,0.826,,0,267,267,73,1,Y, , , , ,space,2000,2,5ee0fb635f06010cac68dae3,001,2021-08-19_16h30.48,natb3,2021.2.3,MacIntel,58.82352941,5ee0fb635f06010cac68dae3,611e07ecdcc96256ae8d5b80,611e791422ab98a338af5b51,
,,,,,,,0,268,268,66,1,X, ,4,7, ,,2000,2,5ee0fb635f06010cac68dae3,001,2021-08-19_16h30.48,natb3,2021.2.3,MacIntel,58.82352941,5ee0fb635f06010cac68dae3,611e07ecdcc96256ae8d5b80,611e791422ab98a338af5b51,
,,,,space,0.49,,0,269,269,112,1,Q, , , , ,space,2500,2.5,5ee0fb635f06010cac68dae3,001,2021-08-19_16h30.48,natb3,2021.2.3,MacIntel,58.82352941,5ee0fb635f06010cac68dae3,611e07ecdcc96256ae8d5b80,611e791422ab98a338af5b51,
,,,,space,0.623,,0,270,270,106,1,T, , , , ,space,1500,1.5,5ee0fb635f06010cac68dae3,001,2021-08-19_16h30.48,natb3,2021.2.3,MacIntel,58.82352941,5ee0fb635f06010cac68dae3,611e07ecdcc96256ae8d5b80,611e791422ab98a338af5b51,
,,,,,,,0,271,271,32,1,M, , , , ,space,1500,1.5,5ee0fb635f06010cac68dae3,001,2021-08-19_16h30.48,natb3,2021.2.3,MacIntel,58.82352941,5ee0fb635f06010cac68dae3,611e07ecdcc96256ae8d5b80,611e791422ab98a338af5b51,
,,,,space,0.956,,0,272,272,123,1,O, , , , ,space,1500,1.5,5ee0fb635f06010cac68dae3,001,2021-08-19_16h30.48,natb3,2021.2.3,MacIntel,58.82352941,5ee0fb635f06010cac68dae3,611e07ecdcc96256ae8d5b80,611e791422ab98a338af5b51,
,,,,space,0.871,,0,273,273,142,1,N, , , , ,space,2500,2.5,5ee0fb635f06010cac68dae3,001,2021-08-19_16h30.48,natb3,2021.2.3,MacIntel,58.82352941,5ee0fb635f06010cac68dae3,611e07ecdcc96256ae8d5b80,611e791422ab98a338af5b51,
,,,,space,0.581,,0,274,274,214,1,W, , , , ,space,2000,2,5ee0fb635f06010cac68dae3,001,2021-08-19_16h30.48,natb3,2021.2.3,MacIntel,58.82352941,5ee0fb635f06010cac68dae3,611e07ecdcc96256ae8d5b80,611e791422ab98a338af5b51,
,,,,space,0.468,,0,275,275,104,1,E, , , , ,space,2000,2,5ee0fb635f06010cac68dae3,001,2021-08-19_16h30.48,natb3,2021.2.3,MacIntel,58.82352941,5ee0fb635f06010cac68dae3,611e07ecdcc96256ae8d5b80,611e791422ab98a338af5b51,
,,,,space,0.493,,0,276,276,267,1,P, , , , ,space,2000,2,5ee0fb635f06010cac68dae3,001,2021-08-19_16h30.48,natb3,2021.2.3,MacIntel,58.82352941,5ee0fb635f06010cac68dae3,611e07ecdcc96256ae8d5b80,611e791422ab98a338af5b51,
,,,,space,0.558,,0,277,277,225,1,E, , , , ,space,2000,2,5ee0fb635f06010cac68dae3,001,2021-08-19_16h30.48,natb3,2021.2.3,MacIntel,58.82352941,5ee0fb635f06010cac68dae3,611e07ecdcc96256ae8d5b80,611e791422ab98a338af5b51,
,,,,space,0.514,,0,278,278,317,1,C, , , , ,space,2000,2,5ee0fb635f06010cac68dae3,001,2021-08-19_16h30.48,natb3,2021.2.3,MacIntel,58.82352941,5ee0fb635f06010cac68dae3,611e07ecdcc96256ae8d5b80,611e791422ab98a338af5b51,
,,,,space,0.801,,0,279,279,96,1,X, , , , ,,1500,1.5,5ee0fb635f06010cac68dae3,001,2021-08-19_16h30.48,natb3,2021.2.3,MacIntel,58.82352941,5ee0fb635f06010cac68dae3,611e07ecdcc96256ae8d5b80,611e791422ab98a338af5b51,
,,,,space,0.572,,0,280,280,241,1,G, , , , ,space,2500,2.5,5ee0fb635f06010cac68dae3,001,2021-08-19_16h30.48,natb3,2021.2.3,MacIntel,58.82352941,5ee0fb635f06010cac68dae3,611e07ecdcc96256ae8d5b80,611e791422ab98a338af5b51,
,,,,,,,0,281,281,140,1,B, , , , ,space,2500,2.5,5ee0fb635f06010cac68dae3,001,2021-08-19_16h30.48,natb3,2021.2.3,MacIntel,58.82352941,5ee0fb635f06010cac68dae3,611e07ecdcc96256ae8d5b80,611e791422ab98a338af5b51,
,,,,space,0.423,,0,282,282,273,1,X, , , , ,,2000,2,5ee0fb635f06010cac68dae3,001,2021-08-19_16h30.48,natb3,2021.2.3,MacIntel,58.82352941,5ee0fb635f06010cac68dae3,611e07ecdcc96256ae8d5b80,611e791422ab98a338af5b51,
,,,,space,0.378,,0,283,283,152,1,U, , , , ,space,2000,2,5ee0fb635f06010cac68dae3,001,2021-08-19_16h30.48,natb3,2021.2.3,MacIntel,58.82352941,5ee0fb635f06010cac68dae3,611e07ecdcc96256ae8d5b80,611e791422ab98a338af5b51,
,,,,space,0.379,,0,284,284,221,1,I, , , , ,space,2500,2.5,5ee0fb635f06010cac68dae3,001,2021-08-19_16h30.48,natb3,2021.2.3,MacIntel,58.82352941,5ee0fb635f06010cac68dae3,611e07ecdcc96256ae8d5b80,611e791422ab98a338af5b51,
,,,,space,0.667,,0,285,285,25,1,Z, , , , ,space,2500,2.5,5ee0fb635f06010cac68dae3,001,2021-08-19_16h30.48,natb3,2021.2.3,MacIntel,58.82352941,5ee0fb635f06010cac68dae3,611e07ecdcc96256ae8d5b80,611e791422ab98a338af5b51,
,,,,,,,0,286,286,89,1,X,3, , , ,,2000,2,5ee0fb635f06010cac68dae3,001,2021-08-19_16h30.48,natb3,2021.2.3,MacIntel,58.82352941,5ee0fb635f06010cac68dae3,611e07ecdcc96256ae8d5b80,611e791422ab98a338af5b51,
,,,,space,0.604,,0,287,287,41,1,Y, , , , ,space,2500,2.5,5ee0fb635f06010cac68dae3,001,2021-08-19_16h30.48,natb3,2021.2.3,MacIntel,58.82352941,5ee0fb635f06010cac68dae3,611e07ecdcc96256ae8d5b80,611e791422ab98a338af5b51,
,,,,,,,0,288,288,171,1,X, , , , ,,1500,1.5,5ee0fb635f06010cac68dae3,001,2021-08-19_16h30.48,natb3,2021.2.3,MacIntel,58.82352941,5ee0fb635f06010cac68dae3,611e07ecdcc96256ae8d5b80,611e791422ab98a338af5b51,
,,,,,,,0,289,289,39,1,X,6,2, , ,,1500,1.5,5ee0fb635f06010cac68dae3,001,2021-08-19_16h30.48,natb3,2021.2.3,MacIntel,58.82352941,5ee0fb635f06010cac68dae3,611e07ecdcc96256ae8d5b80,611e791422ab98a338af5b51,
,,,,space,0.421,,0,290,290,264,1,U, , , , ,space,2000,2,5ee0fb635f06010cac68dae3,001,2021-08-19_16h30.48,natb3,2021.2.3,MacIntel,58.82352941,5ee0fb635f06010cac68dae3,611e07ecdcc96256ae8d5b80,611e791422ab98a338af5b51,
,,,,space,0.537,,0,291,291,71,1,R, , , , ,space,2500,2.5,5ee0fb635f06010cac68dae3,001,2021-08-19_16h30.48,natb3,2021.2.3,MacIntel,58.82352941,5ee0fb635f06010cac68dae3,611e07ecdcc96256ae8d5b80,611e791422ab98a338af5b51,
,,,,space,0.605,,0,292,292,276,1,H, , , , ,space,2000,2,5ee0fb635f06010cac68dae3,001,2021-08-19_16h30.48,natb3,2021.2.3,MacIntel,58.82352941,5ee0fb635f06010cac68dae3,611e07ecdcc96256ae8d5b80,611e791422ab98a338af5b51,
,,,,space,0.624,,0,293,293,77,1,O, , , , ,space,2000,2,5ee0fb635f06010cac68dae3,001,2021-08-19_16h30.48,natb3,2021.2.3,MacIntel,58.82352941,5ee0fb635f06010cac68dae3,611e07ecdcc96256ae8d5b80,611e791422ab98a338af5b51,
,,,,space,0.559,,0,294,294,198,1,H, , , , ,space,2500,2.5,5ee0fb635f06010cac68dae3,001,2021-08-19_16h30.48,natb3,2021.2.3,MacIntel,58.82352941,5ee0fb635f06010cac68dae3,611e07ecdcc96256ae8d5b80,611e791422ab98a338af5b51,
,,,,space,0.497,,0,295,295,134,1,J, , , , ,space,2000,2,5ee0fb635f06010cac68dae3,001,2021-08-19_16h30.48,natb3,2021.2.3,MacIntel,58.82352941,5ee0fb635f06010cac68dae3,611e07ecdcc96256ae8d5b80,611e791422ab98a338af5b51,
,,,,space,0.578,,0,296,296,88,1,J, , , , ,space,2500,2.5,5ee0fb635f06010cac68dae3,001,2021-08-19_16h30.48,natb3,2021.2.3,MacIntel,58.82352941,5ee0fb635f06010cac68dae3,611e07ecdcc96256ae8d5b80,611e791422ab98a338af5b51,
,,,,space,0.406,,0,297,297,24,1,L, , , , ,space,2500,2.5,5ee0fb635f06010cac68dae3,001,2021-08-19_16h30.48,natb3,2021.2.3,MacIntel,58.82352941,5ee0fb635f06010cac68dae3,611e07ecdcc96256ae8d5b80,611e791422ab98a338af5b51,
,,,,space,0.536,,0,298,298,173,1,V, , , , ,space,1500,1.5,5ee0fb635f06010cac68dae3,001,2021-08-19_16h30.48,natb3,2021.2.3,MacIntel,58.82352941,5ee0fb635f06010cac68dae3,611e07ecdcc96256ae8d5b80,611e791422ab98a338af5b51,
,,,,space,0.735,,0,299,299,300,1,O, , , , ,space,2500,2.5,5ee0fb635f06010cac68dae3,001,2021-08-19_16h30.48,natb3,2021.2.3,MacIntel,58.82352941,5ee0fb635f06010cac68dae3,611e07ecdcc96256ae8d5b80,611e791422ab98a338af5b51,
,,,,space,0.435,,0,300,300,167,1,K, , , , ,space,1500,1.5,5ee0fb635f06010cac68dae3,001,2021-08-19_16h30.48,natb3,2021.2.3,MacIntel,58.82352941,5ee0fb635f06010cac68dae3,611e07ecdcc96256ae8d5b80,611e791422ab98a338af5b51,
,,,,space,0.404,,0,301,301,63,1,B, , , , ,space,2000,2,5ee0fb635f06010cac68dae3,001,2021-08-19_16h30.48,natb3,2021.2.3,MacIntel,58.82352941,5ee0fb635f06010cac68dae3,611e07ecdcc96256ae8d5b80,611e791422ab98a338af5b51,
,,,,,,,0,302,302,315,1,X, , , , ,,2500,2.5,5ee0fb635f06010cac68dae3,001,2021-08-19_16h30.48,natb3,2021.2.3,MacIntel,58.82352941,5ee0fb635f06010cac68dae3,611e07ecdcc96256ae8d5b80,611e791422ab98a338af5b51,
,,,,space,0.606,,0,303,303,176,1,N, , , , ,space,1500,1.5,5ee0fb635f06010cac68dae3,001,2021-08-19_16h30.48,natb3,2021.2.3,MacIntel,58.82352941,5ee0fb635f06010cac68dae3,611e07ecdcc96256ae8d5b80,611e791422ab98a338af5b51,
,,,,,,,0,304,304,4,1,X, , , , ,,2000,2,5ee0fb635f06010cac68dae3,001,2021-08-19_16h30.48,natb3,2021.2.3,MacIntel,58.82352941,5ee0fb635f06010cac68dae3,611e07ecdcc96256ae8d5b80,611e791422ab98a338af5b51,
,,,,space,0.468,,0,305,305,294,1,T, , , , ,space,2000,2,5ee0fb635f06010cac68dae3,001,2021-08-19_16h30.48,natb3,2021.2.3,MacIntel,58.82352941,5ee0fb635f06010cac68dae3,611e07ecdcc96256ae8d5b80,611e791422ab98a338af5b51,
,,,,,,,0,306,306,322,1,X, , ,1,6,,2000,2,5ee0fb635f06010cac68dae3,001,2021-08-19_16h30.48,natb3,2021.2.3,MacIntel,58.82352941,5ee0fb635f06010cac68dae3,611e07ecdcc96256ae8d5b80,611e791422ab98a338af5b51,
,,,,space,0.536,,0,307,307,42,1,U, , , , ,space,1500,1.5,5ee0fb635f06010cac68dae3,001,2021-08-19_16h30.48,natb3,2021.2.3,MacIntel,58.82352941,5ee0fb635f06010cac68dae3,611e07ecdcc96256ae8d5b80,611e791422ab98a338af5b51,
,,,,,,,0,308,308,122,1,X,1, , ,8,,1500,1.5,5ee0fb635f06010cac68dae3,001,2021-08-19_16h30.48,natb3,2021.2.3,MacIntel,58.82352941,5ee0fb635f06010cac68dae3,611e07ecdcc96256ae8d5b80,611e791422ab98a338af5b51,
,,,,,,,0,309,309,256,1,Q, , , , ,space,2000,2,5ee0fb635f06010cac68dae3,001,2021-08-19_16h30.48,natb3,2021.2.3,MacIntel,58.82352941,5ee0fb635f06010cac68dae3,611e07ecdcc96256ae8d5b80,611e791422ab98a338af5b51,
,,,,space,0.514,,0,310,310,309,1,H, , , , ,space,2500,2.5,5ee0fb635f06010cac68dae3,001,2021-08-19_16h30.48,natb3,2021.2.3,MacIntel,58.82352941,5ee0fb635f06010cac68dae3,611e07ecdcc96256ae8d5b80,611e791422ab98a338af5b51,
,,,,space,0.647,,0,311,311,272,1,D, , , , ,space,2000,2,5ee0fb635f06010cac68dae3,001,2021-08-19_16h30.48,natb3,2021.2.3,MacIntel,58.82352941,5ee0fb635f06010cac68dae3,611e07ecdcc96256ae8d5b80,611e791422ab98a338af5b51,
,,,,space,0.679,,0,312,312,119,1,Y, , , , ,space,2500,2.5,5ee0fb635f06010cac68dae3,001,2021-08-19_16h30.48,natb3,2021.2.3,MacIntel,58.82352941,5ee0fb635f06010cac68dae3,611e07ecdcc96256ae8d5b80,611e791422ab98a338af5b51,
,,,,space,0.627,,0,313,313,247,1,Z, , , , ,space,1500,1.5,5ee0fb635f06010cac68dae3,001,2021-08-19_16h30.48,natb3,2021.2.3,MacIntel,58.82352941,5ee0fb635f06010cac68dae3,611e07ecdcc96256ae8d5b80,611e791422ab98a338af5b51,
,,,,,,,0,314,314,182,1,X, , , , ,,1500,1.5,5ee0fb635f06010cac68dae3,001,2021-08-19_16h30.48,natb3,2021.2.3,MacIntel,58.82352941,5ee0fb635f06010cac68dae3,611e07ecdcc96256ae8d5b80,611e791422ab98a338af5b51,
,,,,,,,0,315,315,277,1,X,8,5, ,2,,2000,2,5ee0fb635f06010cac68dae3,001,2021-08-19_16h30.48,natb3,2021.2.3,MacIntel,58.82352941,5ee0fb635f06010cac68dae3,611e07ecdcc96256ae8d5b80,611e791422ab98a338af5b51,
,,,,space,0.733,,0,316,316,324,1,Q, , , , ,space,2000,2,5ee0fb635f06010cac68dae3,001,2021-08-19_16h30.48,natb3,2021.2.3,MacIntel,58.82352941,5ee0fb635f06010cac68dae3,611e07ecdcc96256ae8d5b80,611e791422ab98a338af5b51,
,,,,space,0.674,,0,317,317,245,1,K, , , , ,space,2000,2,5ee0fb635f06010cac68dae3,001,2021-08-19_16h30.48,natb3,2021.2.3,MacIntel,58.82352941,5ee0fb635f06010cac68dae3,611e07ecdcc96256ae8d5b80,611e791422ab98a338af5b51,
,,,,space,0.447,,0,318,318,26,1,C, , , , ,space,2000,2,5ee0fb635f06010cac68dae3,001,2021-08-19_16h30.48,natb3,2021.2.3,MacIntel,58.82352941,5ee0fb635f06010cac68dae3,611e07ecdcc96256ae8d5b80,611e791422ab98a338af5b51,
,,,,,,,0,319,319,27,1,X,5, ,1,3,,1500,1.5,5ee0fb635f06010cac68dae3,001,2021-08-19_16h30.48,natb3,2021.2.3,MacIntel,58.82352941,5ee0fb635f06010cac68dae3,611e07ecdcc96256ae8d5b80,611e791422ab98a338af5b51,
,,,,space,0.468,,0,320,320,49,1,S, , , , ,space,1500,1.5,5ee0fb635f06010cac68dae3,001,2021-08-19_16h30.48,natb3,2021.2.3,MacIntel,58.82352941,5ee0fb635f06010cac68dae3,611e07ecdcc96256ae8d5b80,611e791422ab98a338af5b51,
,,,,,,,0,321,321,80,1,A, , , , ,space,2000,2,5ee0fb635f06010cac68dae3,001,2021-08-19_16h30.48,natb3,2021.2.3,MacIntel,58.82352941,5ee0fb635f06010cac68dae3,611e07ecdcc96256ae8d5b80,611e791422ab98a338af5b51,
,,,,,,,0,322,322,281,1,Z, , , , ,space,1500,1.5,5ee0fb635f06010cac68dae3,001,2021-08-19_16h30.48,natb3,2021.2.3,MacIntel,58.82352941,5ee0fb635f06010cac68dae3,611e07ecdcc96256ae8d5b80,611e791422ab98a338af5b51,
,,,,space,0.344,,0,323,323,216,1,R, , , , ,space,1500,1.5,5ee0fb635f06010cac68dae3,001,2021-08-19_16h30.48,natb3,2021.2.3,MacIntel,58.82352941,5ee0fb635f06010cac68dae3,611e07ecdcc96256ae8d5b80,611e791422ab98a338af5b51,
,,,,space,0.402,,0,324,324,259,1,X,8, , ,3,,2500,2.5,5ee0fb635f06010cac68dae3,001,2021-08-19_16h30.48,natb3,2021.2.3,MacIntel,58.82352941,5ee0fb635f06010cac68dae3,611e07ecdcc96256ae8d5b80,611e791422ab98a338af5b51,
,,,,space,0.801,,0,325,325,90,1,K, , , , ,space,2000,2,5ee0fb635f06010cac68dae3,001,2021-08-19_16h30.48,natb3,2021.2.3,MacIntel,58.82352941,5ee0fb635f06010cac68dae3,611e07ecdcc96256ae8d5b80,611e791422ab98a338af5b51,
,,,,space,0.445,,0,326,326,65,1,M, , , , ,space,1500,1.5,5ee0fb635f06010cac68dae3,001,2021-08-19_16h30.48,natb3,2021.2.3,MacIntel,58.82352941,5ee0fb635f06010cac68dae3,611e07ecdcc96256ae8d5b80,611e791422ab98a338af5b51,
,,,,space,0.427,,0,327,327,283,1,C, , , , ,space,1500,1.5,5ee0fb635f06010cac68dae3,001,2021-08-19_16h30.48,natb3,2021.2.3,MacIntel,58.82352941,5ee0fb635f06010cac68dae3,611e07ecdcc96256ae8d5b80,611e791422ab98a338af5b51,
,,,,,,,0,328,328,12,1,X, , , , ,,1500,1.5,5ee0fb635f06010cac68dae3,001,2021-08-19_16h30.48,natb3,2021.2.3,MacIntel,58.82352941,5ee0fb635f06010cac68dae3,611e07ecdcc96256ae8d5b80,611e791422ab98a338af5b51,
,,,,space,0.444,,0,329,329,21,1,J, , , , ,space,1500,1.5,5ee0fb635f06010cac68dae3,001,2021-08-19_16h30.48,natb3,2021.2.3,MacIntel,58.82352941,5ee0fb635f06010cac68dae3,611e07ecdcc96256ae8d5b80,611e791422ab98a338af5b51,
,,,,,,,0,330,330,207,1,X,9, ,2, ,,2500,2.5,5ee0fb635f06010cac68dae3,001,2021-08-19_16h30.48,natb3,2021.2.3,MacIntel,58.82352941,5ee0fb635f06010cac68dae3,611e07ecdcc96256ae8d5b80,611e791422ab98a338af5b51,
,,,,space,0.492,,0,331,331,132,1,H, , , , ,space,2500,2.5,5ee0fb635f06010cac68dae3,001,2021-08-19_16h30.48,natb3,2021.2.3,MacIntel,58.82352941,5ee0fb635f06010cac68dae3,611e07ecdcc96256ae8d5b80,611e791422ab98a338af5b51,
,,,,,,,0,332,332,138,1,X,8,5, ,3,,2000,2,5ee0fb635f06010cac68dae3,001,2021-08-19_16h30.48,natb3,2021.2.3,MacIntel,58.82352941,5ee0fb635f06010cac68dae3,611e07ecdcc96256ae8d5b80,611e791422ab98a338af5b51,
,,,,space,0.579,,0,333,333,57,1,K, , , , ,space,2500,2.5,5ee0fb635f06010cac68dae3,001,2021-08-19_16h30.48,natb3,2021.2.3,MacIntel,58.82352941,5ee0fb635f06010cac68dae3,611e07ecdcc96256ae8d5b80,611e791422ab98a338af5b51,
,,,,,,,0,334,334,268,1,X,6, ,3, ,,2500,2.5,5ee0fb635f06010cac68dae3,001,2021-08-19_16h30.48,natb3,2021.2.3,MacIntel,58.82352941,5ee0fb635f06010cac68dae3,611e07ecdcc96256ae8d5b80,611e791422ab98a338af5b51,
,,,,space,0.579,,0,335,335,238,1,D, , , , ,space,1500,1.5,5ee0fb635f06010cac68dae3,001,2021-08-19_16h30.48,natb3,2021.2.3,MacIntel,58.82352941,5ee0fb635f06010cac68dae3,611e07ecdcc96256ae8d5b80,611e791422ab98a338af5b51,
