key_resp_2.keys,key_resp_2.rt,key_resp_3.keys,key_resp_3.rt,key_resp.keys,key_resp.rt,key_resp_4.keys,trials.thisRepN,trials.thisTrialN,trials.thisN,trials.thisIndex,trials.ran,stimulus,distractor1,distractor2,distractor3,distractor4,CorrAns,isi_duration,isi_dur_in_seconds,participant,session,date,expName,psychopyVersion,OS,frameRate,PROLIFIC_PID,STUDY_ID,SESSION_ID,key_resp_4.rt
return,31.1054,space,40.8351,space,0.642,,0,0,0,174,1,B, , , , ,space,2500,2.5,5f1478321de6634e0a24282b,001,2021-08-19_16h33.24.721,natb3,2021.2.3,Win32,60.26637739,5f1478321de6634e0a24282b,611e07ecdcc96256ae8d5b80,611e78da298fee3a7a846227,
,,,,space,0.4033,,0,1,1,254,1,M, , , , ,space,1500,1.5,5f1478321de6634e0a24282b,001,2021-08-19_16h33.24.721,natb3,2021.2.3,Win32,60.26637739,5f1478321de6634e0a24282b,611e07ecdcc96256ae8d5b80,611e78da298fee3a7a846227,
,,,,space,0.3562,,0,2,2,250,1,V, , , , ,space,2000,2,5f1478321de6634e0a24282b,001,2021-08-19_16h33.24.721,natb3,2021.2.3,Win32,60.26637739,5f1478321de6634e0a24282b,611e07ecdcc96256ae8d5b80,611e78da298fee3a7a846227,
,,,,space,0.5275,,0,3,3,9,1,I, , , , ,space,1500,1.5,5f1478321de6634e0a24282b,001,2021-08-19_16h33.24.721,natb3,2021.2.3,Win32,60.26637739,5f1478321de6634e0a24282b,611e07ecdcc96256ae8d5b80,611e78da298fee3a7a846227,
,,,,space,0.3778,,0,4,4,109,1,U, , , , ,space,1500,1.5,5f1478321de6634e0a24282b,001,2021-08-19_16h33.24.721,natb3,2021.2.3,Win32,60.26637739,5f1478321de6634e0a24282b,611e07ecdcc96256ae8d5b80,611e78da298fee3a7a846227,
,,,,space,0.412,,0,5,5,130,1,F, , , , ,space,2000,2,5f1478321de6634e0a24282b,001,2021-08-19_16h33.24.721,natb3,2021.2.3,Win32,60.26637739,5f1478321de6634e0a24282b,611e07ecdcc96256ae8d5b80,611e78da298fee3a7a846227,
,,,,space,0.4279,,0,6,6,306,1,D, , , , ,space,2000,2,5f1478321de6634e0a24282b,001,2021-08-19_16h33.24.721,natb3,2021.2.3,Win32,60.26637739,5f1478321de6634e0a24282b,611e07ecdcc96256ae8d5b80,611e78da298fee3a7a846227,
,,,,space,0.3728,,0,7,7,210,1,M, , , , ,space,1500,1.5,5f1478321de6634e0a24282b,001,2021-08-19_16h33.24.721,natb3,2021.2.3,Win32,60.26637739,5f1478321de6634e0a24282b,611e07ecdcc96256ae8d5b80,611e78da298fee3a7a846227,
,,,,space,0.3174,,0,8,8,32,1,M, , , , ,space,1500,1.5,5f1478321de6634e0a24282b,001,2021-08-19_16h33.24.721,natb3,2021.2.3,Win32,60.26637739,5f1478321de6634e0a24282b,611e07ecdcc96256ae8d5b80,611e78da298fee3a7a846227,
,,,,space,0.2941,,0,9,9,87,1,H, , , , ,space,1500,1.5,5f1478321de6634e0a24282b,001,2021-08-19_16h33.24.721,natb3,2021.2.3,Win32,60.26637739,5f1478321de6634e0a24282b,611e07ecdcc96256ae8d5b80,611e78da298fee3a7a846227,
,,,,space,0.2527,,0,10,10,15,1,X, , , , ,,1500,1.5,5f1478321de6634e0a24282b,001,2021-08-19_16h33.24.721,natb3,2021.2.3,Win32,60.26637739,5f1478321de6634e0a24282b,611e07ecdcc96256ae8d5b80,611e78da298fee3a7a846227,
,,,,,,,0,11,11,305,1,X, , , , ,,1500,1.5,5f1478321de6634e0a24282b,001,2021-08-19_16h33.24.721,natb3,2021.2.3,Win32,60.26637739,5f1478321de6634e0a24282b,611e07ecdcc96256ae8d5b80,611e78da298fee3a7a846227,
,,,,,,,0,12,12,51,1,X,7,5,8, ,,1500,1.5,5f1478321de6634e0a24282b,001,2021-08-19_16h33.24.721,natb3,2021.2.3,Win32,60.26637739,5f1478321de6634e0a24282b,611e07ecdcc96256ae8d5b80,611e78da298fee3a7a846227,
,,,,,,,0,13,13,273,1,X, , , , ,,2000,2,5f1478321de6634e0a24282b,001,2021-08-19_16h33.24.721,natb3,2021.2.3,Win32,60.26637739,5f1478321de6634e0a24282b,611e07ecdcc96256ae8d5b80,611e78da298fee3a7a846227,
,,,,,,,0,14,14,60,1,X,7,3,5, ,,1500,1.5,5f1478321de6634e0a24282b,001,2021-08-19_16h33.24.721,natb3,2021.2.3,Win32,60.26637739,5f1478321de6634e0a24282b,611e07ecdcc96256ae8d5b80,611e78da298fee3a7a846227,
,,,,,,,0,15,15,119,1,Y, , , , ,space,2500,2.5,5f1478321de6634e0a24282b,001,2021-08-19_16h33.24.721,natb3,2021.2.3,Win32,60.26637739,5f1478321de6634e0a24282b,611e07ecdcc96256ae8d5b80,611e78da298fee3a7a846227,
,,,,space,0.7398,,0,16,16,41,1,Y, , , , ,space,2500,2.5,5f1478321de6634e0a24282b,001,2021-08-19_16h33.24.721,natb3,2021.2.3,Win32,60.26637739,5f1478321de6634e0a24282b,611e07ecdcc96256ae8d5b80,611e78da298fee3a7a846227,
,,,,space,0.7553,,0,17,17,34,1,Q, , , , ,space,2500,2.5,5f1478321de6634e0a24282b,001,2021-08-19_16h33.24.721,natb3,2021.2.3,Win32,60.26637739,5f1478321de6634e0a24282b,611e07ecdcc96256ae8d5b80,611e78da298fee3a7a846227,
,,,,space,0.4393,,0,18,18,45,1,O, , , , ,space,2000,2,5f1478321de6634e0a24282b,001,2021-08-19_16h33.24.721,natb3,2021.2.3,Win32,60.26637739,5f1478321de6634e0a24282b,611e07ecdcc96256ae8d5b80,611e78da298fee3a7a846227,
,,,,,,,0,19,19,102,1,X, ,6, , ,,1500,1.5,5f1478321de6634e0a24282b,001,2021-08-19_16h33.24.721,natb3,2021.2.3,Win32,60.26637739,5f1478321de6634e0a24282b,611e07ecdcc96256ae8d5b80,611e78da298fee3a7a846227,
,,,,space,0.8882,,0,20,20,121,1,I, , , , ,space,2000,2,5f1478321de6634e0a24282b,001,2021-08-19_16h33.24.721,natb3,2021.2.3,Win32,60.26637739,5f1478321de6634e0a24282b,611e07ecdcc96256ae8d5b80,611e78da298fee3a7a846227,
,,,,space,0.4549,,0,21,21,308,1,G, , , , ,space,1500,1.5,5f1478321de6634e0a24282b,001,2021-08-19_16h33.24.721,natb3,2021.2.3,Win32,60.26637739,5f1478321de6634e0a24282b,611e07ecdcc96256ae8d5b80,611e78da298fee3a7a846227,
,,,,space,0.4322,,0,22,22,151,1,Y, , , , ,space,2500,2.5,5f1478321de6634e0a24282b,001,2021-08-19_16h33.24.721,natb3,2021.2.3,Win32,60.26637739,5f1478321de6634e0a24282b,611e07ecdcc96256ae8d5b80,611e78da298fee3a7a846227,
,,,,,,,0,23,23,7,1,X, , , , ,,1500,1.5,5f1478321de6634e0a24282b,001,2021-08-19_16h33.24.721,natb3,2021.2.3,Win32,60.26637739,5f1478321de6634e0a24282b,611e07ecdcc96256ae8d5b80,611e78da298fee3a7a846227,
,,,,space,0.4895,,0,24,24,241,1,G, , , , ,space,2500,2.5,5f1478321de6634e0a24282b,001,2021-08-19_16h33.24.721,natb3,2021.2.3,Win32,60.26637739,5f1478321de6634e0a24282b,611e07ecdcc96256ae8d5b80,611e78da298fee3a7a846227,
,,,,space,0.4937,,0,25,25,135,1,K, , , , ,space,1500,1.5,5f1478321de6634e0a24282b,001,2021-08-19_16h33.24.721,natb3,2021.2.3,Win32,60.26637739,5f1478321de6634e0a24282b,611e07ecdcc96256ae8d5b80,611e78da298fee3a7a846227,
,,,,space,0.4054,,0,26,26,57,1,K, , , , ,space,2500,2.5,5f1478321de6634e0a24282b,001,2021-08-19_16h33.24.721,natb3,2021.2.3,Win32,60.26637739,5f1478321de6634e0a24282b,611e07ecdcc96256ae8d5b80,611e78da298fee3a7a846227,
,,,,space,0.3964,,0,27,27,49,1,S, , , , ,space,1500,1.5,5f1478321de6634e0a24282b,001,2021-08-19_16h33.24.721,natb3,2021.2.3,Win32,60.26637739,5f1478321de6634e0a24282b,611e07ecdcc96256ae8d5b80,611e78da298fee3a7a846227,
,,,,space,0.4373,,0,28,28,146,1,W, , , , ,space,1500,1.5,5f1478321de6634e0a24282b,001,2021-08-19_16h33.24.721,natb3,2021.2.3,Win32,60.26637739,5f1478321de6634e0a24282b,611e07ecdcc96256ae8d5b80,611e78da298fee3a7a846227,
,,,,space,0.3968,,0,29,29,10,1,O, , , , ,space,2000,2,5f1478321de6634e0a24282b,001,2021-08-19_16h33.24.721,natb3,2021.2.3,Win32,60.26637739,5f1478321de6634e0a24282b,611e07ecdcc96256ae8d5b80,611e78da298fee3a7a846227,
,,,,space,0.4663,,0,30,30,258,1,E, , , , ,space,1500,1.5,5f1478321de6634e0a24282b,001,2021-08-19_16h33.24.721,natb3,2021.2.3,Win32,60.26637739,5f1478321de6634e0a24282b,611e07ecdcc96256ae8d5b80,611e78da298fee3a7a846227,
,,,,space,0.3508,,0,31,31,142,1,N, , , , ,space,2500,2.5,5f1478321de6634e0a24282b,001,2021-08-19_16h33.24.721,natb3,2021.2.3,Win32,60.26637739,5f1478321de6634e0a24282b,611e07ecdcc96256ae8d5b80,611e78da298fee3a7a846227,
,,,,space,0.508,,0,32,32,310,1,J, , , , ,space,2500,2.5,5f1478321de6634e0a24282b,001,2021-08-19_16h33.24.721,natb3,2021.2.3,Win32,60.26637739,5f1478321de6634e0a24282b,611e07ecdcc96256ae8d5b80,611e78da298fee3a7a846227,
,,,,space,0.4488,,0,33,33,137,1,C, , , , ,space,2500,2.5,5f1478321de6634e0a24282b,001,2021-08-19_16h33.24.721,natb3,2021.2.3,Win32,60.26637739,5f1478321de6634e0a24282b,611e07ecdcc96256ae8d5b80,611e78da298fee3a7a846227,
,,,,space,0.5324,,0,34,34,319,1,V, , , , ,space,2000,2,5f1478321de6634e0a24282b,001,2021-08-19_16h33.24.721,natb3,2021.2.3,Win32,60.26637739,5f1478321de6634e0a24282b,611e07ecdcc96256ae8d5b80,611e78da298fee3a7a846227,
,,,,,,,0,35,35,229,1,X,8, ,2,6,,2500,2.5,5f1478321de6634e0a24282b,001,2021-08-19_16h33.24.721,natb3,2021.2.3,Win32,60.26637739,5f1478321de6634e0a24282b,611e07ecdcc96256ae8d5b80,611e78da298fee3a7a846227,
,,,,,,,0,36,36,302,1,X, , , , ,,2000,2,5f1478321de6634e0a24282b,001,2021-08-19_16h33.24.721,natb3,2021.2.3,Win32,60.26637739,5f1478321de6634e0a24282b,611e07ecdcc96256ae8d5b80,611e78da298fee3a7a846227,
,,,,,,,0,37,37,200,1,X,7, ,5,3,,1500,1.5,5f1478321de6634e0a24282b,001,2021-08-19_16h33.24.721,natb3,2021.2.3,Win32,60.26637739,5f1478321de6634e0a24282b,611e07ecdcc96256ae8d5b80,611e78da298fee3a7a846227,
,,,,space,0.6467,,0,38,38,244,1,J, , , , ,space,1500,1.5,5f1478321de6634e0a24282b,001,2021-08-19_16h33.24.721,natb3,2021.2.3,Win32,60.26637739,5f1478321de6634e0a24282b,611e07ecdcc96256ae8d5b80,611e78da298fee3a7a846227,
,,,,,,,0,39,39,175,1,X,7, ,4,2,,1500,1.5,5f1478321de6634e0a24282b,001,2021-08-19_16h33.24.721,natb3,2021.2.3,Win32,60.26637739,5f1478321de6634e0a24282b,611e07ecdcc96256ae8d5b80,611e78da298fee3a7a846227,
,,,,space,0.5052,,0,40,40,220,1,U, , , , ,space,2500,2.5,5f1478321de6634e0a24282b,001,2021-08-19_16h33.24.721,natb3,2021.2.3,Win32,60.26637739,5f1478321de6634e0a24282b,611e07ecdcc96256ae8d5b80,611e78da298fee3a7a846227,
,,,,space,0.6703,,0,41,41,131,1,G, , , , ,space,1500,1.5,5f1478321de6634e0a24282b,001,2021-08-19_16h33.24.721,natb3,2021.2.3,Win32,60.26637739,5f1478321de6634e0a24282b,611e07ecdcc96256ae8d5b80,611e78da298fee3a7a846227,
,,,,space,0.6136,,0,42,42,225,1,E, , , , ,space,2000,2,5f1478321de6634e0a24282b,001,2021-08-19_16h33.24.721,natb3,2021.2.3,Win32,60.26637739,5f1478321de6634e0a24282b,611e07ecdcc96256ae8d5b80,611e78da298fee3a7a846227,
,,,,,,,0,43,43,138,1,X,8,5, ,3,,2000,2,5f1478321de6634e0a24282b,001,2021-08-19_16h33.24.721,natb3,2021.2.3,Win32,60.26637739,5f1478321de6634e0a24282b,611e07ecdcc96256ae8d5b80,611e78da298fee3a7a846227,
,,,,space,0.5097,,0,44,44,94,1,C, , , , ,space,2000,2,5f1478321de6634e0a24282b,001,2021-08-19_16h33.24.721,natb3,2021.2.3,Win32,60.26637739,5f1478321de6634e0a24282b,611e07ecdcc96256ae8d5b80,611e78da298fee3a7a846227,
,,,,,,,0,45,45,236,1,X,3, ,4,7,,2500,2.5,5f1478321de6634e0a24282b,001,2021-08-19_16h33.24.721,natb3,2021.2.3,Win32,60.26637739,5f1478321de6634e0a24282b,611e07ecdcc96256ae8d5b80,611e78da298fee3a7a846227,
,,,,,,,0,46,46,132,1,H, , , , ,space,2500,2.5,5f1478321de6634e0a24282b,001,2021-08-19_16h33.24.721,natb3,2021.2.3,Win32,60.26637739,5f1478321de6634e0a24282b,611e07ecdcc96256ae8d5b80,611e78da298fee3a7a846227,
,,,,,,,0,47,47,75,1,U, , , , ,space,1500,1.5,5f1478321de6634e0a24282b,001,2021-08-19_16h33.24.721,natb3,2021.2.3,Win32,60.26637739,5f1478321de6634e0a24282b,611e07ecdcc96256ae8d5b80,611e78da298fee3a7a846227,
,,,,,,,0,48,48,96,1,X, , , , ,,1500,1.5,5f1478321de6634e0a24282b,001,2021-08-19_16h33.24.721,natb3,2021.2.3,Win32,60.26637739,5f1478321de6634e0a24282b,611e07ecdcc96256ae8d5b80,611e78da298fee3a7a846227,
,,,,space,0.5627,,0,49,49,86,1,G, , , , ,space,2000,2,5f1478321de6634e0a24282b,001,2021-08-19_16h33.24.721,natb3,2021.2.3,Win32,60.26637739,5f1478321de6634e0a24282b,611e07ecdcc96256ae8d5b80,611e78da298fee3a7a846227,
,,,,space,0.5843,,0,50,50,180,1,W, , , , ,space,2000,2,5f1478321de6634e0a24282b,001,2021-08-19_16h33.24.721,natb3,2021.2.3,Win32,60.26637739,5f1478321de6634e0a24282b,611e07ecdcc96256ae8d5b80,611e78da298fee3a7a846227,
,,,,,,,0,51,51,252,1,X,3, ,6,9,,2000,2,5f1478321de6634e0a24282b,001,2021-08-19_16h33.24.721,natb3,2021.2.3,Win32,60.26637739,5f1478321de6634e0a24282b,611e07ecdcc96256ae8d5b80,611e78da298fee3a7a846227,
,,,,space,0.5517,,0,52,52,280,1,L, , , , ,space,1500,1.5,5f1478321de6634e0a24282b,001,2021-08-19_16h33.24.721,natb3,2021.2.3,Win32,60.26637739,5f1478321de6634e0a24282b,611e07ecdcc96256ae8d5b80,611e78da298fee3a7a846227,
,,,,space,0.6358,,0,53,53,164,1,H, , , , ,space,2500,2.5,5f1478321de6634e0a24282b,001,2021-08-19_16h33.24.721,natb3,2021.2.3,Win32,60.26637739,5f1478321de6634e0a24282b,611e07ecdcc96256ae8d5b80,611e78da298fee3a7a846227,
,,,,space,0.3468,,0,54,54,240,1,F, , , , ,space,2500,2.5,5f1478321de6634e0a24282b,001,2021-08-19_16h33.24.721,natb3,2021.2.3,Win32,60.26637739,5f1478321de6634e0a24282b,611e07ecdcc96256ae8d5b80,611e78da298fee3a7a846227,
,,,,space,0.6369,,0,55,55,2,1,E, , , , ,space,2500,2.5,5f1478321de6634e0a24282b,001,2021-08-19_16h33.24.721,natb3,2021.2.3,Win32,60.26637739,5f1478321de6634e0a24282b,611e07ecdcc96256ae8d5b80,611e78da298fee3a7a846227,
,,,,space,0.3841,,0,56,56,168,1,X, , , , ,,2500,2.5,5f1478321de6634e0a24282b,001,2021-08-19_16h33.24.721,natb3,2021.2.3,Win32,60.26637739,5f1478321de6634e0a24282b,611e07ecdcc96256ae8d5b80,611e78da298fee3a7a846227,
,,,,space,0.5391,,0,57,57,309,1,H, , , , ,space,2500,2.5,5f1478321de6634e0a24282b,001,2021-08-19_16h33.24.721,natb3,2021.2.3,Win32,60.26637739,5f1478321de6634e0a24282b,611e07ecdcc96256ae8d5b80,611e78da298fee3a7a846227,
,,,,space,0.5552,,0,58,58,159,1,S, , , , ,space,2500,2.5,5f1478321de6634e0a24282b,001,2021-08-19_16h33.24.721,natb3,2021.2.3,Win32,60.26637739,5f1478321de6634e0a24282b,611e07ecdcc96256ae8d5b80,611e78da298fee3a7a846227,
,,,,,,,0,59,59,277,1,X,8,5, ,2,,2000,2,5f1478321de6634e0a24282b,001,2021-08-19_16h33.24.721,natb3,2021.2.3,Win32,60.26637739,5f1478321de6634e0a24282b,611e07ecdcc96256ae8d5b80,611e78da298fee3a7a846227,
,,,,space,0.7157,,0,60,60,303,1,A, , , , ,space,2000,2,5f1478321de6634e0a24282b,001,2021-08-19_16h33.24.721,natb3,2021.2.3,Win32,60.26637739,5f1478321de6634e0a24282b,611e07ecdcc96256ae8d5b80,611e78da298fee3a7a846227,
,,,,space,0.8538,,0,61,61,149,1,R, , , , ,space,2000,2,5f1478321de6634e0a24282b,001,2021-08-19_16h33.24.721,natb3,2021.2.3,Win32,60.26637739,5f1478321de6634e0a24282b,611e07ecdcc96256ae8d5b80,611e78da298fee3a7a846227,
,,,,,,,0,62,62,66,1,X, ,4,7, ,,2000,2,5f1478321de6634e0a24282b,001,2021-08-19_16h33.24.721,natb3,2021.2.3,Win32,60.26637739,5f1478321de6634e0a24282b,611e07ecdcc96256ae8d5b80,611e78da298fee3a7a846227,
,,,,space,0.7431,,0,63,63,270,1,S, , , , ,space,1500,1.5,5f1478321de6634e0a24282b,001,2021-08-19_16h33.24.721,natb3,2021.2.3,Win32,60.26637739,5f1478321de6634e0a24282b,611e07ecdcc96256ae8d5b80,611e78da298fee3a7a846227,
,,,,space,0.3679,,0,64,64,312,1,K, , , , ,space,2000,2,5f1478321de6634e0a24282b,001,2021-08-19_16h33.24.721,natb3,2021.2.3,Win32,60.26637739,5f1478321de6634e0a24282b,611e07ecdcc96256ae8d5b80,611e78da298fee3a7a846227,
,,,,space,0.4827,,0,65,65,185,1,Y, , , , ,space,2500,2.5,5f1478321de6634e0a24282b,001,2021-08-19_16h33.24.721,natb3,2021.2.3,Win32,60.26637739,5f1478321de6634e0a24282b,611e07ecdcc96256ae8d5b80,611e78da298fee3a7a846227,
,,,,,,,0,66,66,295,1,X,8,7,5, ,,2500,2.5,5f1478321de6634e0a24282b,001,2021-08-19_16h33.24.721,natb3,2021.2.3,Win32,60.26637739,5f1478321de6634e0a24282b,611e07ecdcc96256ae8d5b80,611e78da298fee3a7a846227,
,,,,space,0.3587,,0,67,67,47,1,P, , , , ,space,2000,2,5f1478321de6634e0a24282b,001,2021-08-19_16h33.24.721,natb3,2021.2.3,Win32,60.26637739,5f1478321de6634e0a24282b,611e07ecdcc96256ae8d5b80,611e78da298fee3a7a846227,
,,,,space,0.5841,,0,68,68,199,1,J, , , , ,space,2500,2.5,5f1478321de6634e0a24282b,001,2021-08-19_16h33.24.721,natb3,2021.2.3,Win32,60.26637739,5f1478321de6634e0a24282b,611e07ecdcc96256ae8d5b80,611e78da298fee3a7a846227,
,,,,space,0.5794,,0,69,69,29,1,B, , , , ,space,1500,1.5,5f1478321de6634e0a24282b,001,2021-08-19_16h33.24.721,natb3,2021.2.3,Win32,60.26637739,5f1478321de6634e0a24282b,611e07ecdcc96256ae8d5b80,611e78da298fee3a7a846227,
,,,,space,0.396,,0,70,70,139,1,V, , , , ,space,2000,2,5f1478321de6634e0a24282b,001,2021-08-19_16h33.24.721,natb3,2021.2.3,Win32,60.26637739,5f1478321de6634e0a24282b,611e07ecdcc96256ae8d5b80,611e78da298fee3a7a846227,
,,,,space,0.6896,,0,71,71,275,1,G, , , , ,space,1500,1.5,5f1478321de6634e0a24282b,001,2021-08-19_16h33.24.721,natb3,2021.2.3,Win32,60.26637739,5f1478321de6634e0a24282b,611e07ecdcc96256ae8d5b80,611e78da298fee3a7a846227,
,,,,space,0.4163,,0,72,72,0,1,Q, , , , ,space,1500,1.5,5f1478321de6634e0a24282b,001,2021-08-19_16h33.24.721,natb3,2021.2.3,Win32,60.26637739,5f1478321de6634e0a24282b,611e07ecdcc96256ae8d5b80,611e78da298fee3a7a846227,
,,,,space,0.7887,,0,73,73,263,1,X,4, ,6, ,,1500,1.5,5f1478321de6634e0a24282b,001,2021-08-19_16h33.24.721,natb3,2021.2.3,Win32,60.26637739,5f1478321de6634e0a24282b,611e07ecdcc96256ae8d5b80,611e78da298fee3a7a846227,
,,,,,,,0,74,74,187,1,X, ,3,7,4,,1500,1.5,5f1478321de6634e0a24282b,001,2021-08-19_16h33.24.721,natb3,2021.2.3,Win32,60.26637739,5f1478321de6634e0a24282b,611e07ecdcc96256ae8d5b80,611e78da298fee3a7a846227,
,,,,n,0.6072,,0,75,75,85,1,F, , , , ,space,2500,2.5,5f1478321de6634e0a24282b,001,2021-08-19_16h33.24.721,natb3,2021.2.3,Win32,60.26637739,5f1478321de6634e0a24282b,611e07ecdcc96256ae8d5b80,611e78da298fee3a7a846227,
,,,,space,0.5232,,0,76,76,42,1,U, , , , ,space,1500,1.5,5f1478321de6634e0a24282b,001,2021-08-19_16h33.24.721,natb3,2021.2.3,Win32,60.26637739,5f1478321de6634e0a24282b,611e07ecdcc96256ae8d5b80,611e78da298fee3a7a846227,
,,,,space,0.4716,,0,77,77,167,1,K, , , , ,space,1500,1.5,5f1478321de6634e0a24282b,001,2021-08-19_16h33.24.721,natb3,2021.2.3,Win32,60.26637739,5f1478321de6634e0a24282b,611e07ecdcc96256ae8d5b80,611e78da298fee3a7a846227,
,,,,space,0.5501,,0,78,78,261,1,T, , , , ,space,2000,2,5f1478321de6634e0a24282b,001,2021-08-19_16h33.24.721,natb3,2021.2.3,Win32,60.26637739,5f1478321de6634e0a24282b,611e07ecdcc96256ae8d5b80,611e78da298fee3a7a846227,
,,,,space,0.7399,,0,79,79,65,1,M, , , , ,space,1500,1.5,5f1478321de6634e0a24282b,001,2021-08-19_16h33.24.721,natb3,2021.2.3,Win32,60.26637739,5f1478321de6634e0a24282b,611e07ecdcc96256ae8d5b80,611e78da298fee3a7a846227,
,,,,space,0.4739,,0,80,80,245,1,K, , , , ,space,2000,2,5f1478321de6634e0a24282b,001,2021-08-19_16h33.24.721,natb3,2021.2.3,Win32,60.26637739,5f1478321de6634e0a24282b,611e07ecdcc96256ae8d5b80,611e78da298fee3a7a846227,
,,,,space,0.3295,,0,81,81,125,1,X, , , , ,,2000,2,5f1478321de6634e0a24282b,001,2021-08-19_16h33.24.721,natb3,2021.2.3,Win32,60.26637739,5f1478321de6634e0a24282b,611e07ecdcc96256ae8d5b80,611e78da298fee3a7a846227,
,,,,space,0.5291,,0,82,82,260,1,R, , , , ,space,2000,2,5f1478321de6634e0a24282b,001,2021-08-19_16h33.24.721,natb3,2021.2.3,Win32,60.26637739,5f1478321de6634e0a24282b,611e07ecdcc96256ae8d5b80,611e78da298fee3a7a846227,
,,,,space,0.422,,0,83,83,106,1,T, , , , ,space,1500,1.5,5f1478321de6634e0a24282b,001,2021-08-19_16h33.24.721,natb3,2021.2.3,Win32,60.26637739,5f1478321de6634e0a24282b,611e07ecdcc96256ae8d5b80,611e78da298fee3a7a846227,
,,,,space,0.5321,,0,84,84,323,1,M, , , , ,space,2500,2.5,5f1478321de6634e0a24282b,001,2021-08-19_16h33.24.721,natb3,2021.2.3,Win32,60.26637739,5f1478321de6634e0a24282b,611e07ecdcc96256ae8d5b80,611e78da298fee3a7a846227,
,,,,space,0.5303,,0,85,85,8,1,U, , , , ,space,1500,1.5,5f1478321de6634e0a24282b,001,2021-08-19_16h33.24.721,natb3,2021.2.3,Win32,60.26637739,5f1478321de6634e0a24282b,611e07ecdcc96256ae8d5b80,611e78da298fee3a7a846227,
,,,,space,0.3961,,0,86,86,95,1,V, , , , ,space,1500,1.5,5f1478321de6634e0a24282b,001,2021-08-19_16h33.24.721,natb3,2021.2.3,Win32,60.26637739,5f1478321de6634e0a24282b,611e07ecdcc96256ae8d5b80,611e78da298fee3a7a846227,
,,,,space,0.4117,,0,87,87,50,1,D, , , , ,space,1500,1.5,5f1478321de6634e0a24282b,001,2021-08-19_16h33.24.721,natb3,2021.2.3,Win32,60.26637739,5f1478321de6634e0a24282b,611e07ecdcc96256ae8d5b80,611e78da298fee3a7a846227,
,,,,space,0.4746,,0,88,88,104,1,E, , , , ,space,2000,2,5f1478321de6634e0a24282b,001,2021-08-19_16h33.24.721,natb3,2021.2.3,Win32,60.26637739,5f1478321de6634e0a24282b,611e07ecdcc96256ae8d5b80,611e78da298fee3a7a846227,
,,,,,,,0,89,89,23,1,X,1, ,5, ,,2000,2,5f1478321de6634e0a24282b,001,2021-08-19_16h33.24.721,natb3,2021.2.3,Win32,60.26637739,5f1478321de6634e0a24282b,611e07ecdcc96256ae8d5b80,611e78da298fee3a7a846227,
,,,,space,0.5445,,0,90,90,330,1,T, , , , ,space,2500,2.5,5f1478321de6634e0a24282b,001,2021-08-19_16h33.24.721,natb3,2021.2.3,Win32,60.26637739,5f1478321de6634e0a24282b,611e07ecdcc96256ae8d5b80,611e78da298fee3a7a846227,
,,,,,,,0,91,91,39,1,X,6,2, , ,,1500,1.5,5f1478321de6634e0a24282b,001,2021-08-19_16h33.24.721,natb3,2021.2.3,Win32,60.26637739,5f1478321de6634e0a24282b,611e07ecdcc96256ae8d5b80,611e78da298fee3a7a846227,
,,,,space,0.392,,0,92,92,111,1,O, , , , ,space,2000,2,5f1478321de6634e0a24282b,001,2021-08-19_16h33.24.721,natb3,2021.2.3,Win32,60.26637739,5f1478321de6634e0a24282b,611e07ecdcc96256ae8d5b80,611e78da298fee3a7a846227,
,,,,space,0.4816,,0,93,93,219,1,Y, , , , ,space,2000,2,5f1478321de6634e0a24282b,001,2021-08-19_16h33.24.721,natb3,2021.2.3,Win32,60.26637739,5f1478321de6634e0a24282b,611e07ecdcc96256ae8d5b80,611e78da298fee3a7a846227,
,,,,,,,0,94,94,148,1,X, , , , ,,2000,2,5f1478321de6634e0a24282b,001,2021-08-19_16h33.24.721,natb3,2021.2.3,Win32,60.26637739,5f1478321de6634e0a24282b,611e07ecdcc96256ae8d5b80,611e78da298fee3a7a846227,
,,,,,,,0,95,95,271,1,X, , , , ,,2500,2.5,5f1478321de6634e0a24282b,001,2021-08-19_16h33.24.721,natb3,2021.2.3,Win32,60.26637739,5f1478321de6634e0a24282b,611e07ecdcc96256ae8d5b80,611e78da298fee3a7a846227,
,,,,,,,0,96,96,154,1,I, , , , ,space,2500,2.5,5f1478321de6634e0a24282b,001,2021-08-19_16h33.24.721,natb3,2021.2.3,Win32,60.26637739,5f1478321de6634e0a24282b,611e07ecdcc96256ae8d5b80,611e78da298fee3a7a846227,
,,,,space,0.6458,,0,97,97,222,1,O, , , , ,space,2000,2,5f1478321de6634e0a24282b,001,2021-08-19_16h33.24.721,natb3,2021.2.3,Win32,60.26637739,5f1478321de6634e0a24282b,611e07ecdcc96256ae8d5b80,611e78da298fee3a7a846227,
,,,,space,0.4474,,0,98,98,128,1,D, , , , ,space,2500,2.5,5f1478321de6634e0a24282b,001,2021-08-19_16h33.24.721,natb3,2021.2.3,Win32,60.26637739,5f1478321de6634e0a24282b,611e07ecdcc96256ae8d5b80,611e78da298fee3a7a846227,
,,,,space,0.5796,,0,99,99,81,1,S, , , , ,space,2000,2,5f1478321de6634e0a24282b,001,2021-08-19_16h33.24.721,natb3,2021.2.3,Win32,60.26637739,5f1478321de6634e0a24282b,611e07ecdcc96256ae8d5b80,611e78da298fee3a7a846227,
,,,,,,,0,100,100,179,1,X, ,9, ,2,,1500,1.5,5f1478321de6634e0a24282b,001,2021-08-19_16h33.24.721,natb3,2021.2.3,Win32,60.26637739,5f1478321de6634e0a24282b,611e07ecdcc96256ae8d5b80,611e78da298fee3a7a846227,
,,,,space,0.4163,,0,101,101,326,1,W, , , , ,space,2000,2,5f1478321de6634e0a24282b,001,2021-08-19_16h33.24.721,natb3,2021.2.3,Win32,60.26637739,5f1478321de6634e0a24282b,611e07ecdcc96256ae8d5b80,611e78da298fee3a7a846227,
,,,,space,0.4255,,0,102,102,186,1,U, , , , ,space,2500,2.5,5f1478321de6634e0a24282b,001,2021-08-19_16h33.24.721,natb3,2021.2.3,Win32,60.26637739,5f1478321de6634e0a24282b,611e07ecdcc96256ae8d5b80,611e78da298fee3a7a846227,
,,,,space,0.4814,,0,103,103,316,1,Z, , , , ,space,1500,1.5,5f1478321de6634e0a24282b,001,2021-08-19_16h33.24.721,natb3,2021.2.3,Win32,60.26637739,5f1478321de6634e0a24282b,611e07ecdcc96256ae8d5b80,611e78da298fee3a7a846227,
,,,,space,0.4044,,0,104,104,156,1,P, , , , ,space,1500,1.5,5f1478321de6634e0a24282b,001,2021-08-19_16h33.24.721,natb3,2021.2.3,Win32,60.26637739,5f1478321de6634e0a24282b,611e07ecdcc96256ae8d5b80,611e78da298fee3a7a846227,
,,,,,,,0,105,105,195,1,X, , , , ,,1500,1.5,5f1478321de6634e0a24282b,001,2021-08-19_16h33.24.721,natb3,2021.2.3,Win32,60.26637739,5f1478321de6634e0a24282b,611e07ecdcc96256ae8d5b80,611e78da298fee3a7a846227,
,,,,space,0.5054,,0,106,106,22,1,K, , , , ,space,2000,2,5f1478321de6634e0a24282b,001,2021-08-19_16h33.24.721,natb3,2021.2.3,Win32,60.26637739,5f1478321de6634e0a24282b,611e07ecdcc96256ae8d5b80,611e78da298fee3a7a846227,
,,,,space,0.4828,,0,107,107,80,1,A, , , , ,space,2000,2,5f1478321de6634e0a24282b,001,2021-08-19_16h33.24.721,natb3,2021.2.3,Win32,60.26637739,5f1478321de6634e0a24282b,611e07ecdcc96256ae8d5b80,611e78da298fee3a7a846227,
,,,,space,0.3499,,0,108,108,78,1,X, , , , ,,2000,2,5f1478321de6634e0a24282b,001,2021-08-19_16h33.24.721,natb3,2021.2.3,Win32,60.26637739,5f1478321de6634e0a24282b,611e07ecdcc96256ae8d5b80,611e78da298fee3a7a846227,
,,,,space,0.4818,,0,109,109,290,1,W, , , , ,space,1500,1.5,5f1478321de6634e0a24282b,001,2021-08-19_16h33.24.721,natb3,2021.2.3,Win32,60.26637739,5f1478321de6634e0a24282b,611e07ecdcc96256ae8d5b80,611e78da298fee3a7a846227,
,,,,space,0.4795,,0,110,110,143,1,M, , , , ,space,2500,2.5,5f1478321de6634e0a24282b,001,2021-08-19_16h33.24.721,natb3,2021.2.3,Win32,60.26637739,5f1478321de6634e0a24282b,611e07ecdcc96256ae8d5b80,611e78da298fee3a7a846227,
,,,,space,0.4209,,0,111,111,83,1,D, , , , ,space,2000,2,5f1478321de6634e0a24282b,001,2021-08-19_16h33.24.721,natb3,2021.2.3,Win32,60.26637739,5f1478321de6634e0a24282b,611e07ecdcc96256ae8d5b80,611e78da298fee3a7a846227,
,,,,space,0.4649,,0,112,112,152,1,U, , , , ,space,2000,2,5f1478321de6634e0a24282b,001,2021-08-19_16h33.24.721,natb3,2021.2.3,Win32,60.26637739,5f1478321de6634e0a24282b,611e07ecdcc96256ae8d5b80,611e78da298fee3a7a846227,
,,,,space,0.5178,,0,113,113,40,1,T, , , , ,space,1500,1.5,5f1478321de6634e0a24282b,001,2021-08-19_16h33.24.721,natb3,2021.2.3,Win32,60.26637739,5f1478321de6634e0a24282b,611e07ecdcc96256ae8d5b80,611e78da298fee3a7a846227,
,,,,space,0.3456,,0,114,114,297,1,U, , , , ,space,2000,2,5f1478321de6634e0a24282b,001,2021-08-19_16h33.24.721,natb3,2021.2.3,Win32,60.26637739,5f1478321de6634e0a24282b,611e07ecdcc96256ae8d5b80,611e78da298fee3a7a846227,
,,,,space,0.4867,,0,115,115,196,1,F, , , , ,space,1500,1.5,5f1478321de6634e0a24282b,001,2021-08-19_16h33.24.721,natb3,2021.2.3,Win32,60.26637739,5f1478321de6634e0a24282b,611e07ecdcc96256ae8d5b80,611e78da298fee3a7a846227,
,,,,space,0.4727,,0,116,116,108,1,Y, , , , ,space,2500,2.5,5f1478321de6634e0a24282b,001,2021-08-19_16h33.24.721,natb3,2021.2.3,Win32,60.26637739,5f1478321de6634e0a24282b,611e07ecdcc96256ae8d5b80,611e78da298fee3a7a846227,
,,,,space,0.5367,,0,117,117,300,1,O, , , , ,space,2500,2.5,5f1478321de6634e0a24282b,001,2021-08-19_16h33.24.721,natb3,2021.2.3,Win32,60.26637739,5f1478321de6634e0a24282b,611e07ecdcc96256ae8d5b80,611e78da298fee3a7a846227,
,,,,space,0.4332,,0,118,118,134,1,J, , , , ,space,2000,2,5f1478321de6634e0a24282b,001,2021-08-19_16h33.24.721,natb3,2021.2.3,Win32,60.26637739,5f1478321de6634e0a24282b,611e07ecdcc96256ae8d5b80,611e78da298fee3a7a846227,
,,,,space,0.4808,,0,119,119,247,1,Z, , , , ,space,1500,1.5,5f1478321de6634e0a24282b,001,2021-08-19_16h33.24.721,natb3,2021.2.3,Win32,60.26637739,5f1478321de6634e0a24282b,611e07ecdcc96256ae8d5b80,611e78da298fee3a7a846227,
,,,,space,0.4645,,0,120,120,285,1,B, , , , ,space,1500,1.5,5f1478321de6634e0a24282b,001,2021-08-19_16h33.24.721,natb3,2021.2.3,Win32,60.26637739,5f1478321de6634e0a24282b,611e07ecdcc96256ae8d5b80,611e78da298fee3a7a846227,
,,,,space,0.4209,,0,121,121,298,1,I, , , , ,space,2000,2,5f1478321de6634e0a24282b,001,2021-08-19_16h33.24.721,natb3,2021.2.3,Win32,60.26637739,5f1478321de6634e0a24282b,611e07ecdcc96256ae8d5b80,611e78da298fee3a7a846227,
,,,,space,0.4144,,0,122,122,197,1,G, , , , ,space,2500,2.5,5f1478321de6634e0a24282b,001,2021-08-19_16h33.24.721,natb3,2021.2.3,Win32,60.26637739,5f1478321de6634e0a24282b,611e07ecdcc96256ae8d5b80,611e78da298fee3a7a846227,
,,,,space,0.3712,,0,123,123,53,1,G, , , , ,space,2500,2.5,5f1478321de6634e0a24282b,001,2021-08-19_16h33.24.721,natb3,2021.2.3,Win32,60.26637739,5f1478321de6634e0a24282b,611e07ecdcc96256ae8d5b80,611e78da298fee3a7a846227,
,,,,,,,0,124,124,278,1,J, , , , ,space,2000,2,5f1478321de6634e0a24282b,001,2021-08-19_16h33.24.721,natb3,2021.2.3,Win32,60.26637739,5f1478321de6634e0a24282b,611e07ecdcc96256ae8d5b80,611e78da298fee3a7a846227,
,,,,space,0.3476,,0,125,125,173,1,V, , , , ,space,1500,1.5,5f1478321de6634e0a24282b,001,2021-08-19_16h33.24.721,natb3,2021.2.3,Win32,60.26637739,5f1478321de6634e0a24282b,611e07ecdcc96256ae8d5b80,611e78da298fee3a7a846227,
,,,,space,0.4145,,0,126,126,178,1,Q, , , , ,space,1500,1.5,5f1478321de6634e0a24282b,001,2021-08-19_16h33.24.721,natb3,2021.2.3,Win32,60.26637739,5f1478321de6634e0a24282b,611e07ecdcc96256ae8d5b80,611e78da298fee3a7a846227,
,,,,space,0.8283,,0,127,127,68,1,W, , , , ,space,2500,2.5,5f1478321de6634e0a24282b,001,2021-08-19_16h33.24.721,natb3,2021.2.3,Win32,60.26637739,5f1478321de6634e0a24282b,611e07ecdcc96256ae8d5b80,611e78da298fee3a7a846227,
,,,,space,0.6655,,0,128,128,56,1,J, , , , ,space,1500,1.5,5f1478321de6634e0a24282b,001,2021-08-19_16h33.24.721,natb3,2021.2.3,Win32,60.26637739,5f1478321de6634e0a24282b,611e07ecdcc96256ae8d5b80,611e78da298fee3a7a846227,
,,,,space,0.4238,,0,129,129,202,1,L, , , , ,space,2500,2.5,5f1478321de6634e0a24282b,001,2021-08-19_16h33.24.721,natb3,2021.2.3,Win32,60.26637739,5f1478321de6634e0a24282b,611e07ecdcc96256ae8d5b80,611e78da298fee3a7a846227,
,,,,space,0.4094,,0,130,130,314,1,L, , , , ,space,1500,1.5,5f1478321de6634e0a24282b,001,2021-08-19_16h33.24.721,natb3,2021.2.3,Win32,60.26637739,5f1478321de6634e0a24282b,611e07ecdcc96256ae8d5b80,611e78da298fee3a7a846227,
,,,,,,,0,131,131,248,1,X, ,1,5, ,,1500,1.5,5f1478321de6634e0a24282b,001,2021-08-19_16h33.24.721,natb3,2021.2.3,Win32,60.26637739,5f1478321de6634e0a24282b,611e07ecdcc96256ae8d5b80,611e78da298fee3a7a846227,
,,,,space,0.3915,,0,132,132,190,1,P, , , , ,space,2000,2,5f1478321de6634e0a24282b,001,2021-08-19_16h33.24.721,natb3,2021.2.3,Win32,60.26637739,5f1478321de6634e0a24282b,611e07ecdcc96256ae8d5b80,611e78da298fee3a7a846227,
,,,,space,0.5575,,0,133,133,232,1,O, , , , ,space,2500,2.5,5f1478321de6634e0a24282b,001,2021-08-19_16h33.24.721,natb3,2021.2.3,Win32,60.26637739,5f1478321de6634e0a24282b,611e07ecdcc96256ae8d5b80,611e78da298fee3a7a846227,
,,,,space,0.4983,,0,134,134,256,1,Q, , , , ,space,2000,2,5f1478321de6634e0a24282b,001,2021-08-19_16h33.24.721,natb3,2021.2.3,Win32,60.26637739,5f1478321de6634e0a24282b,611e07ecdcc96256ae8d5b80,611e78da298fee3a7a846227,
,,,,,,,0,135,135,239,1,X, , , , ,,2000,2,5f1478321de6634e0a24282b,001,2021-08-19_16h33.24.721,natb3,2021.2.3,Win32,60.26637739,5f1478321de6634e0a24282b,611e07ecdcc96256ae8d5b80,611e78da298fee3a7a846227,
,,,,space,0.4236,,0,136,136,21,1,J, , , , ,space,1500,1.5,5f1478321de6634e0a24282b,001,2021-08-19_16h33.24.721,natb3,2021.2.3,Win32,60.26637739,5f1478321de6634e0a24282b,611e07ecdcc96256ae8d5b80,611e78da298fee3a7a846227,
,,,,space,0.4332,,0,137,137,212,1,Q, , , , ,space,2500,2.5,5f1478321de6634e0a24282b,001,2021-08-19_16h33.24.721,natb3,2021.2.3,Win32,60.26637739,5f1478321de6634e0a24282b,611e07ecdcc96256ae8d5b80,611e78da298fee3a7a846227,
,,,,space,0.5376,,0,138,138,116,1,X, , , , ,,2000,2,5f1478321de6634e0a24282b,001,2021-08-19_16h33.24.721,natb3,2021.2.3,Win32,60.26637739,5f1478321de6634e0a24282b,611e07ecdcc96256ae8d5b80,611e78da298fee3a7a846227,
,,,,space,0.9023,,0,139,139,279,1,K, , , , ,space,2500,2.5,5f1478321de6634e0a24282b,001,2021-08-19_16h33.24.721,natb3,2021.2.3,Win32,60.26637739,5f1478321de6634e0a24282b,611e07ecdcc96256ae8d5b80,611e78da298fee3a7a846227,
,,,,,,,0,140,140,24,1,L, , , , ,space,2500,2.5,5f1478321de6634e0a24282b,001,2021-08-19_16h33.24.721,natb3,2021.2.3,Win32,60.26637739,5f1478321de6634e0a24282b,611e07ecdcc96256ae8d5b80,611e78da298fee3a7a846227,
,,,,space,0.7162,,0,141,141,265,1,I, , , , ,space,2000,2,5f1478321de6634e0a24282b,001,2021-08-19_16h33.24.721,natb3,2021.2.3,Win32,60.26637739,5f1478321de6634e0a24282b,611e07ecdcc96256ae8d5b80,611e78da298fee3a7a846227,
,,,,space,0.3617,,0,142,142,59,1,Z, , , , ,space,2000,2,5f1478321de6634e0a24282b,001,2021-08-19_16h33.24.721,natb3,2021.2.3,Win32,60.26637739,5f1478321de6634e0a24282b,611e07ecdcc96256ae8d5b80,611e78da298fee3a7a846227,
,,,,,,,0,143,143,311,1,X,1,2,7,3,,2500,2.5,5f1478321de6634e0a24282b,001,2021-08-19_16h33.24.721,natb3,2021.2.3,Win32,60.26637739,5f1478321de6634e0a24282b,611e07ecdcc96256ae8d5b80,611e78da298fee3a7a846227,
,,,,space,0.7644,,0,144,144,123,1,O, , , , ,space,1500,1.5,5f1478321de6634e0a24282b,001,2021-08-19_16h33.24.721,natb3,2021.2.3,Win32,60.26637739,5f1478321de6634e0a24282b,611e07ecdcc96256ae8d5b80,611e78da298fee3a7a846227,
,,,,space,0.8282,,0,145,145,304,1,S, , , , ,space,2000,2,5f1478321de6634e0a24282b,001,2021-08-19_16h33.24.721,natb3,2021.2.3,Win32,60.26637739,5f1478321de6634e0a24282b,611e07ecdcc96256ae8d5b80,611e78da298fee3a7a846227,
,,,,space,0.7703,,0,146,146,183,1,R, , , , ,space,1500,1.5,5f1478321de6634e0a24282b,001,2021-08-19_16h33.24.721,natb3,2021.2.3,Win32,60.26637739,5f1478321de6634e0a24282b,611e07ecdcc96256ae8d5b80,611e78da298fee3a7a846227,
,,,,space,0.6836,,0,147,147,117,1,T, , , , ,space,2500,2.5,5f1478321de6634e0a24282b,001,2021-08-19_16h33.24.721,natb3,2021.2.3,Win32,60.26637739,5f1478321de6634e0a24282b,611e07ecdcc96256ae8d5b80,611e78da298fee3a7a846227,
,,,,space,0.3365,,0,148,148,227,1,T, , , , ,space,1500,1.5,5f1478321de6634e0a24282b,001,2021-08-19_16h33.24.721,natb3,2021.2.3,Win32,60.26637739,5f1478321de6634e0a24282b,611e07ecdcc96256ae8d5b80,611e78da298fee3a7a846227,
,,,,space,0.271,,0,149,149,27,1,X,5, ,1,3,,1500,1.5,5f1478321de6634e0a24282b,001,2021-08-19_16h33.24.721,natb3,2021.2.3,Win32,60.26637739,5f1478321de6634e0a24282b,611e07ecdcc96256ae8d5b80,611e78da298fee3a7a846227,
,,,,,,,0,150,150,268,1,X,6, ,3, ,,2500,2.5,5f1478321de6634e0a24282b,001,2021-08-19_16h33.24.721,natb3,2021.2.3,Win32,60.26637739,5f1478321de6634e0a24282b,611e07ecdcc96256ae8d5b80,611e78da298fee3a7a846227,
,,,,space,0.8571,,0,151,151,262,1,Y, , , , ,space,2500,2.5,5f1478321de6634e0a24282b,001,2021-08-19_16h33.24.721,natb3,2021.2.3,Win32,60.26637739,5f1478321de6634e0a24282b,611e07ecdcc96256ae8d5b80,611e78da298fee3a7a846227,
,,,,,,,0,152,152,166,1,X, , , , ,,2000,2,5f1478321de6634e0a24282b,001,2021-08-19_16h33.24.721,natb3,2021.2.3,Win32,60.26637739,5f1478321de6634e0a24282b,611e07ecdcc96256ae8d5b80,611e78da298fee3a7a846227,
,,,,space,0.4625,,0,153,153,170,1,Z, , , , ,space,2000,2,5f1478321de6634e0a24282b,001,2021-08-19_16h33.24.721,natb3,2021.2.3,Win32,60.26637739,5f1478321de6634e0a24282b,611e07ecdcc96256ae8d5b80,611e78da298fee3a7a846227,
,,,,space,0.6787,,0,154,154,294,1,T, , , , ,space,2000,2,5f1478321de6634e0a24282b,001,2021-08-19_16h33.24.721,natb3,2021.2.3,Win32,60.26637739,5f1478321de6634e0a24282b,611e07ecdcc96256ae8d5b80,611e78da298fee3a7a846227,
,,,,space,0.5723,,0,155,155,115,1,R, , , , ,space,1500,1.5,5f1478321de6634e0a24282b,001,2021-08-19_16h33.24.721,natb3,2021.2.3,Win32,60.26637739,5f1478321de6634e0a24282b,611e07ecdcc96256ae8d5b80,611e78da298fee3a7a846227,
,,,,,,,0,156,156,322,1,X, , ,1,6,,2000,2,5f1478321de6634e0a24282b,001,2021-08-19_16h33.24.721,natb3,2021.2.3,Win32,60.26637739,5f1478321de6634e0a24282b,611e07ecdcc96256ae8d5b80,611e78da298fee3a7a846227,
,,,,space,0.467,,0,157,157,160,1,D, , , , ,space,1500,1.5,5f1478321de6634e0a24282b,001,2021-08-19_16h33.24.721,natb3,2021.2.3,Win32,60.26637739,5f1478321de6634e0a24282b,611e07ecdcc96256ae8d5b80,611e78da298fee3a7a846227,
,,,,,,,0,158,158,282,1,X, , , , ,,2500,2.5,5f1478321de6634e0a24282b,001,2021-08-19_16h33.24.721,natb3,2021.2.3,Win32,60.26637739,5f1478321de6634e0a24282b,611e07ecdcc96256ae8d5b80,611e78da298fee3a7a846227,
,,,,,,,0,159,159,315,1,X, , , , ,,2500,2.5,5f1478321de6634e0a24282b,001,2021-08-19_16h33.24.721,natb3,2021.2.3,Win32,60.26637739,5f1478321de6634e0a24282b,611e07ecdcc96256ae8d5b80,611e78da298fee3a7a846227,
,,,,space,0.5319,,0,160,160,26,1,C, , , , ,space,2000,2,5f1478321de6634e0a24282b,001,2021-08-19_16h33.24.721,natb3,2021.2.3,Win32,60.26637739,5f1478321de6634e0a24282b,611e07ecdcc96256ae8d5b80,611e78da298fee3a7a846227,
,,,,space,0.5301,,0,161,161,25,1,Z, , , , ,space,2500,2.5,5f1478321de6634e0a24282b,001,2021-08-19_16h33.24.721,natb3,2021.2.3,Win32,60.26637739,5f1478321de6634e0a24282b,611e07ecdcc96256ae8d5b80,611e78da298fee3a7a846227,
,,,,space,0.534,,0,162,162,110,1,I, , , , ,space,1500,1.5,5f1478321de6634e0a24282b,001,2021-08-19_16h33.24.721,natb3,2021.2.3,Win32,60.26637739,5f1478321de6634e0a24282b,611e07ecdcc96256ae8d5b80,611e78da298fee3a7a846227,
,,,,space,0.5837,,0,163,163,157,1,A, , , , ,space,2500,2.5,5f1478321de6634e0a24282b,001,2021-08-19_16h33.24.721,natb3,2021.2.3,Win32,60.26637739,5f1478321de6634e0a24282b,611e07ecdcc96256ae8d5b80,611e78da298fee3a7a846227,
,,,,space,0.5,,0,164,164,321,1,N, , , , ,space,2000,2,5f1478321de6634e0a24282b,001,2021-08-19_16h33.24.721,natb3,2021.2.3,Win32,60.26637739,5f1478321de6634e0a24282b,611e07ecdcc96256ae8d5b80,611e78da298fee3a7a846227,
,,,,space,0.5407,,0,165,165,181,1,E, , , , ,space,1500,1.5,5f1478321de6634e0a24282b,001,2021-08-19_16h33.24.721,natb3,2021.2.3,Win32,60.26637739,5f1478321de6634e0a24282b,611e07ecdcc96256ae8d5b80,611e78da298fee3a7a846227,
,,,,space,0.3883,,0,166,166,331,1,Y, , , , ,space,2500,2.5,5f1478321de6634e0a24282b,001,2021-08-19_16h33.24.721,natb3,2021.2.3,Win32,60.26637739,5f1478321de6634e0a24282b,611e07ecdcc96256ae8d5b80,611e78da298fee3a7a846227,
,,,,space,0.8626,space,0,167,167,36,1,W, , , , ,space,2000,2,5f1478321de6634e0a24282b,001,2021-08-19_16h33.24.721,natb3,2021.2.3,Win32,60.26637739,5f1478321de6634e0a24282b,611e07ecdcc96256ae8d5b80,611e78da298fee3a7a846227,195.9809
,,,,space,0.4455,,0,168,168,97,1,B, , , , ,space,2500,2.5,5f1478321de6634e0a24282b,001,2021-08-19_16h33.24.721,natb3,2021.2.3,Win32,60.26637739,5f1478321de6634e0a24282b,611e07ecdcc96256ae8d5b80,611e78da298fee3a7a846227,
,,,,,,,0,169,169,33,1,X, , , , ,,1500,1.5,5f1478321de6634e0a24282b,001,2021-08-19_16h33.24.721,natb3,2021.2.3,Win32,60.26637739,5f1478321de6634e0a24282b,611e07ecdcc96256ae8d5b80,611e78da298fee3a7a846227,
,,,,space,0.6169,,0,170,170,284,1,V, , , , ,space,2500,2.5,5f1478321de6634e0a24282b,001,2021-08-19_16h33.24.721,natb3,2021.2.3,Win32,60.26637739,5f1478321de6634e0a24282b,611e07ecdcc96256ae8d5b80,611e78da298fee3a7a846227,
,,,,space,0.3811,,0,171,171,238,1,D, , , , ,space,1500,1.5,5f1478321de6634e0a24282b,001,2021-08-19_16h33.24.721,natb3,2021.2.3,Win32,60.26637739,5f1478321de6634e0a24282b,611e07ecdcc96256ae8d5b80,611e78da298fee3a7a846227,
,,,,space,0.411,,0,172,172,91,1,L, , , , ,space,2000,2,5f1478321de6634e0a24282b,001,2021-08-19_16h33.24.721,natb3,2021.2.3,Win32,60.26637739,5f1478321de6634e0a24282b,611e07ecdcc96256ae8d5b80,611e78da298fee3a7a846227,
,,,,space,0.4627,,0,173,173,333,1,I, , , , ,space,1500,1.5,5f1478321de6634e0a24282b,001,2021-08-19_16h33.24.721,natb3,2021.2.3,Win32,60.26637739,5f1478321de6634e0a24282b,611e07ecdcc96256ae8d5b80,611e78da298fee3a7a846227,
,,,,space,0.3998,,0,174,174,5,1,T, , , , ,space,2000,2,5f1478321de6634e0a24282b,001,2021-08-19_16h33.24.721,natb3,2021.2.3,Win32,60.26637739,5f1478321de6634e0a24282b,611e07ecdcc96256ae8d5b80,611e78da298fee3a7a846227,
,,,,space,0.9569,,0,175,175,335,1,P,,,,,space,1500,1.5,5f1478321de6634e0a24282b,001,2021-08-19_16h33.24.721,natb3,2021.2.3,Win32,60.26637739,5f1478321de6634e0a24282b,611e07ecdcc96256ae8d5b80,611e78da298fee3a7a846227,
,,,,,,,0,176,176,203,1,X, , , , ,,2500,2.5,5f1478321de6634e0a24282b,001,2021-08-19_16h33.24.721,natb3,2021.2.3,Win32,60.26637739,5f1478321de6634e0a24282b,611e07ecdcc96256ae8d5b80,611e78da298fee3a7a846227,
,,,,space,0.5317,,0,177,177,301,1,P, , , , ,space,1500,1.5,5f1478321de6634e0a24282b,001,2021-08-19_16h33.24.721,natb3,2021.2.3,Win32,60.26637739,5f1478321de6634e0a24282b,611e07ecdcc96256ae8d5b80,611e78da298fee3a7a846227,
,,,,,,,0,178,178,213,1,X, , , , ,,2500,2.5,5f1478321de6634e0a24282b,001,2021-08-19_16h33.24.721,natb3,2021.2.3,Win32,60.26637739,5f1478321de6634e0a24282b,611e07ecdcc96256ae8d5b80,611e78da298fee3a7a846227,
,,,,,,,0,179,179,153,1,X,4,7, ,6,,2000,2,5f1478321de6634e0a24282b,001,2021-08-19_16h33.24.721,natb3,2021.2.3,Win32,60.26637739,5f1478321de6634e0a24282b,611e07ecdcc96256ae8d5b80,611e78da298fee3a7a846227,
,,,,space,0.4788,,0,180,180,172,1,C, , , , ,space,1500,1.5,5f1478321de6634e0a24282b,001,2021-08-19_16h33.24.721,natb3,2021.2.3,Win32,60.26637739,5f1478321de6634e0a24282b,611e07ecdcc96256ae8d5b80,611e78da298fee3a7a846227,
,,,,space,0.7616,,0,181,181,204,1,Z, , , , ,space,2000,2,5f1478321de6634e0a24282b,001,2021-08-19_16h33.24.721,natb3,2021.2.3,Win32,60.26637739,5f1478321de6634e0a24282b,611e07ecdcc96256ae8d5b80,611e78da298fee3a7a846227,
,,,,,,,0,182,182,259,1,X,8, , ,3,,2500,2.5,5f1478321de6634e0a24282b,001,2021-08-19_16h33.24.721,natb3,2021.2.3,Win32,60.26637739,5f1478321de6634e0a24282b,611e07ecdcc96256ae8d5b80,611e78da298fee3a7a846227,
,,,,space,0.4797,,0,183,183,136,1,Z, , , , ,space,2500,2.5,5f1478321de6634e0a24282b,001,2021-08-19_16h33.24.721,natb3,2021.2.3,Win32,60.26637739,5f1478321de6634e0a24282b,611e07ecdcc96256ae8d5b80,611e78da298fee3a7a846227,
,,,,,,,0,184,184,122,1,X,1, , ,8,,1500,1.5,5f1478321de6634e0a24282b,001,2021-08-19_16h33.24.721,natb3,2021.2.3,Win32,60.26637739,5f1478321de6634e0a24282b,611e07ecdcc96256ae8d5b80,611e78da298fee3a7a846227,
,,,,space,0.8335,,0,185,185,235,1,A, , , , ,space,1500,1.5,5f1478321de6634e0a24282b,001,2021-08-19_16h33.24.721,natb3,2021.2.3,Win32,60.26637739,5f1478321de6634e0a24282b,611e07ecdcc96256ae8d5b80,611e78da298fee3a7a846227,
,,,,space,0.396,,0,186,186,234,1,P, , , , ,space,2000,2,5f1478321de6634e0a24282b,001,2021-08-19_16h33.24.721,natb3,2021.2.3,Win32,60.26637739,5f1478321de6634e0a24282b,611e07ecdcc96256ae8d5b80,611e78da298fee3a7a846227,
,,,,space,0.4847,,0,187,187,105,1,R, , , , ,space,2500,2.5,5f1478321de6634e0a24282b,001,2021-08-19_16h33.24.721,natb3,2021.2.3,Win32,60.26637739,5f1478321de6634e0a24282b,611e07ecdcc96256ae8d5b80,611e78da298fee3a7a846227,
,,,,,,,0,188,188,141,1,X,1, ,4,6,,1500,1.5,5f1478321de6634e0a24282b,001,2021-08-19_16h33.24.721,natb3,2021.2.3,Win32,60.26637739,5f1478321de6634e0a24282b,611e07ecdcc96256ae8d5b80,611e78da298fee3a7a846227,
,,,,space,0.4962,,0,189,189,124,1,P, , , , ,space,2000,2,5f1478321de6634e0a24282b,001,2021-08-19_16h33.24.721,natb3,2021.2.3,Win32,60.26637739,5f1478321de6634e0a24282b,611e07ecdcc96256ae8d5b80,611e78da298fee3a7a846227,
,,,,,,,0,190,190,107,1,X,9,3, ,2,,2000,2,5f1478321de6634e0a24282b,001,2021-08-19_16h33.24.721,natb3,2021.2.3,Win32,60.26637739,5f1478321de6634e0a24282b,611e07ecdcc96256ae8d5b80,611e78da298fee3a7a846227,
,,,,space,0.4912,,0,191,191,55,1,H, , , , ,space,2500,2.5,5f1478321de6634e0a24282b,001,2021-08-19_16h33.24.721,natb3,2021.2.3,Win32,60.26637739,5f1478321de6634e0a24282b,611e07ecdcc96256ae8d5b80,611e78da298fee3a7a846227,
,,,,space,0.6554,,0,192,192,230,1,U, , , , ,space,1500,1.5,5f1478321de6634e0a24282b,001,2021-08-19_16h33.24.721,natb3,2021.2.3,Win32,60.26637739,5f1478321de6634e0a24282b,611e07ecdcc96256ae8d5b80,611e78da298fee3a7a846227,
,,,,,,,0,193,193,218,1,X,1,3, ,8,,1500,1.5,5f1478321de6634e0a24282b,001,2021-08-19_16h33.24.721,natb3,2021.2.3,Win32,60.26637739,5f1478321de6634e0a24282b,611e07ecdcc96256ae8d5b80,611e78da298fee3a7a846227,
,,,,space,0.519,,0,194,194,198,1,H, , , , ,space,2500,2.5,5f1478321de6634e0a24282b,001,2021-08-19_16h33.24.721,natb3,2021.2.3,Win32,60.26637739,5f1478321de6634e0a24282b,611e07ecdcc96256ae8d5b80,611e78da298fee3a7a846227,
,,,,,,,0,195,195,291,1,X, , , , ,,2000,2,5f1478321de6634e0a24282b,001,2021-08-19_16h33.24.721,natb3,2021.2.3,Win32,60.26637739,5f1478321de6634e0a24282b,611e07ecdcc96256ae8d5b80,611e78da298fee3a7a846227,
,,,,space,0.6986,,0,196,196,223,1,Q, , , , ,space,2000,2,5f1478321de6634e0a24282b,001,2021-08-19_16h33.24.721,natb3,2021.2.3,Win32,60.26637739,5f1478321de6634e0a24282b,611e07ecdcc96256ae8d5b80,611e78da298fee3a7a846227,
,,,,space,0.5901,,0,197,197,217,1,T, , , , ,space,2500,2.5,5f1478321de6634e0a24282b,001,2021-08-19_16h33.24.721,natb3,2021.2.3,Win32,60.26637739,5f1478321de6634e0a24282b,611e07ecdcc96256ae8d5b80,611e78da298fee3a7a846227,
,,,,,,,0,198,198,255,1,X, , , , ,,1500,1.5,5f1478321de6634e0a24282b,001,2021-08-19_16h33.24.721,natb3,2021.2.3,Win32,60.26637739,5f1478321de6634e0a24282b,611e07ecdcc96256ae8d5b80,611e78da298fee3a7a846227,
,,,,space,0.6814,,0,199,199,266,1,O, , , , ,space,1500,1.5,5f1478321de6634e0a24282b,001,2021-08-19_16h33.24.721,natb3,2021.2.3,Win32,60.26637739,5f1478321de6634e0a24282b,611e07ecdcc96256ae8d5b80,611e78da298fee3a7a846227,
,,,,,,,0,200,200,307,1,F, , , , ,space,2500,2.5,5f1478321de6634e0a24282b,001,2021-08-19_16h33.24.721,natb3,2021.2.3,Win32,60.26637739,5f1478321de6634e0a24282b,611e07ecdcc96256ae8d5b80,611e78da298fee3a7a846227,
,,,,,,,0,201,201,233,1,X, ,2, ,5,,1500,1.5,5f1478321de6634e0a24282b,001,2021-08-19_16h33.24.721,natb3,2021.2.3,Win32,60.26637739,5f1478321de6634e0a24282b,611e07ecdcc96256ae8d5b80,611e78da298fee3a7a846227,
,,,,space,0.45,,0,202,202,274,1,F, , , , ,space,2000,2,5f1478321de6634e0a24282b,001,2021-08-19_16h33.24.721,natb3,2021.2.3,Win32,60.26637739,5f1478321de6634e0a24282b,611e07ecdcc96256ae8d5b80,611e78da298fee3a7a846227,
,,,,,,,0,203,203,158,1,X, , , , ,,1500,1.5,5f1478321de6634e0a24282b,001,2021-08-19_16h33.24.721,natb3,2021.2.3,Win32,60.26637739,5f1478321de6634e0a24282b,611e07ecdcc96256ae8d5b80,611e78da298fee3a7a846227,
,,,,space,0.3838,,0,204,204,126,1,A, , , , ,space,2500,2.5,5f1478321de6634e0a24282b,001,2021-08-19_16h33.24.721,natb3,2021.2.3,Win32,60.26637739,5f1478321de6634e0a24282b,611e07ecdcc96256ae8d5b80,611e78da298fee3a7a846227,
,,,,space,0.4496,,0,205,205,253,1,N, , , , ,space,2500,2.5,5f1478321de6634e0a24282b,001,2021-08-19_16h33.24.721,natb3,2021.2.3,Win32,60.26637739,5f1478321de6634e0a24282b,611e07ecdcc96256ae8d5b80,611e78da298fee3a7a846227,
,,,,space,0.4166,,0,206,206,216,1,R, , , , ,space,1500,1.5,5f1478321de6634e0a24282b,001,2021-08-19_16h33.24.721,natb3,2021.2.3,Win32,60.26637739,5f1478321de6634e0a24282b,611e07ecdcc96256ae8d5b80,611e78da298fee3a7a846227,
,,,,space,0.6715,,0,207,207,14,1,S, , , , ,space,2500,2.5,5f1478321de6634e0a24282b,001,2021-08-19_16h33.24.721,natb3,2021.2.3,Win32,60.26637739,5f1478321de6634e0a24282b,611e07ecdcc96256ae8d5b80,611e78da298fee3a7a846227,
,,,,space,0.3732,,0,208,208,221,1,I, , , , ,space,2500,2.5,5f1478321de6634e0a24282b,001,2021-08-19_16h33.24.721,natb3,2021.2.3,Win32,60.26637739,5f1478321de6634e0a24282b,611e07ecdcc96256ae8d5b80,611e78da298fee3a7a846227,
,,,,space,0.6404,,0,209,209,264,1,U, , , , ,space,2000,2,5f1478321de6634e0a24282b,001,2021-08-19_16h33.24.721,natb3,2021.2.3,Win32,60.26637739,5f1478321de6634e0a24282b,611e07ecdcc96256ae8d5b80,611e78da298fee3a7a846227,
,,,,space,0.4126,,0,210,210,206,1,V, , , , ,space,2000,2,5f1478321de6634e0a24282b,001,2021-08-19_16h33.24.721,natb3,2021.2.3,Win32,60.26637739,5f1478321de6634e0a24282b,611e07ecdcc96256ae8d5b80,611e78da298fee3a7a846227,
,,,,space,0.4173,,0,211,211,155,1,O, , , , ,space,1500,1.5,5f1478321de6634e0a24282b,001,2021-08-19_16h33.24.721,natb3,2021.2.3,Win32,60.26637739,5f1478321de6634e0a24282b,611e07ecdcc96256ae8d5b80,611e78da298fee3a7a846227,
,,,,space,0.45,,0,212,212,20,1,H, , , , ,space,1500,1.5,5f1478321de6634e0a24282b,001,2021-08-19_16h33.24.721,natb3,2021.2.3,Win32,60.26637739,5f1478321de6634e0a24282b,611e07ecdcc96256ae8d5b80,611e78da298fee3a7a846227,
,,,,space,0.4789,,0,213,213,269,1,A, , , , ,space,2500,2.5,5f1478321de6634e0a24282b,001,2021-08-19_16h33.24.721,natb3,2021.2.3,Win32,60.26637739,5f1478321de6634e0a24282b,611e07ecdcc96256ae8d5b80,611e78da298fee3a7a846227,
,,,,space,0.5794,,0,214,214,286,1,N, , , , ,space,1500,1.5,5f1478321de6634e0a24282b,001,2021-08-19_16h33.24.721,natb3,2021.2.3,Win32,60.26637739,5f1478321de6634e0a24282b,611e07ecdcc96256ae8d5b80,611e78da298fee3a7a846227,
,,,,space,0.4466,,0,215,215,226,1,R, , , , ,space,2000,2,5f1478321de6634e0a24282b,001,2021-08-19_16h33.24.721,natb3,2021.2.3,Win32,60.26637739,5f1478321de6634e0a24282b,611e07ecdcc96256ae8d5b80,611e78da298fee3a7a846227,
,,,,,,,0,216,216,46,1,X, , , , ,,2000,2,5f1478321de6634e0a24282b,001,2021-08-19_16h33.24.721,natb3,2021.2.3,Win32,60.26637739,5f1478321de6634e0a24282b,611e07ecdcc96256ae8d5b80,611e78da298fee3a7a846227,
,,,,,,,0,217,217,329,1,X,3,4, ,2,,2500,2.5,5f1478321de6634e0a24282b,001,2021-08-19_16h33.24.721,natb3,2021.2.3,Win32,60.26637739,5f1478321de6634e0a24282b,611e07ecdcc96256ae8d5b80,611e78da298fee3a7a846227,
,,,,space,0.6871,,0,218,218,19,1,G, , , , ,space,1500,1.5,5f1478321de6634e0a24282b,001,2021-08-19_16h33.24.721,natb3,2021.2.3,Win32,60.26637739,5f1478321de6634e0a24282b,611e07ecdcc96256ae8d5b80,611e78da298fee3a7a846227,
,,,,space,0.4845,,0,219,219,98,1,X, , , , ,,2500,2.5,5f1478321de6634e0a24282b,001,2021-08-19_16h33.24.721,natb3,2021.2.3,Win32,60.26637739,5f1478321de6634e0a24282b,611e07ecdcc96256ae8d5b80,611e78da298fee3a7a846227,
,,,,,,,0,220,220,191,1,X,1, ,3,4,,2500,2.5,5f1478321de6634e0a24282b,001,2021-08-19_16h33.24.721,natb3,2021.2.3,Win32,60.26637739,5f1478321de6634e0a24282b,611e07ecdcc96256ae8d5b80,611e78da298fee3a7a846227,
,,,,space,0.5236,,0,221,221,44,1,I, , , , ,space,2500,2.5,5f1478321de6634e0a24282b,001,2021-08-19_16h33.24.721,natb3,2021.2.3,Win32,60.26637739,5f1478321de6634e0a24282b,611e07ecdcc96256ae8d5b80,611e78da298fee3a7a846227,
,,,,space,0.4829,,0,222,222,188,1,I, , , , ,space,2500,2.5,5f1478321de6634e0a24282b,001,2021-08-19_16h33.24.721,natb3,2021.2.3,Win32,60.26637739,5f1478321de6634e0a24282b,611e07ecdcc96256ae8d5b80,611e78da298fee3a7a846227,
,,,,,,,0,223,223,84,1,X, , , , ,,2000,2,5f1478321de6634e0a24282b,001,2021-08-19_16h33.24.721,natb3,2021.2.3,Win32,60.26637739,5f1478321de6634e0a24282b,611e07ecdcc96256ae8d5b80,611e78da298fee3a7a846227,
,,,,space,0.6003,,0,224,224,189,1,O, , , , ,space,1500,1.5,5f1478321de6634e0a24282b,001,2021-08-19_16h33.24.721,natb3,2021.2.3,Win32,60.26637739,5f1478321de6634e0a24282b,611e07ecdcc96256ae8d5b80,611e78da298fee3a7a846227,
,,,,space,0.5649,,0,225,225,90,1,K, , , , ,space,2000,2,5f1478321de6634e0a24282b,001,2021-08-19_16h33.24.721,natb3,2021.2.3,Win32,60.26637739,5f1478321de6634e0a24282b,611e07ecdcc96256ae8d5b80,611e78da298fee3a7a846227,
,,,,space,0.6293,,0,226,226,288,1,M, , , , ,space,1500,1.5,5f1478321de6634e0a24282b,001,2021-08-19_16h33.24.721,natb3,2021.2.3,Win32,60.26637739,5f1478321de6634e0a24282b,611e07ecdcc96256ae8d5b80,611e78da298fee3a7a846227,
,,,,space,0.7139,,0,227,227,92,1,Z, , , , ,space,1500,1.5,5f1478321de6634e0a24282b,001,2021-08-19_16h33.24.721,natb3,2021.2.3,Win32,60.26637739,5f1478321de6634e0a24282b,611e07ecdcc96256ae8d5b80,611e78da298fee3a7a846227,
,,,,space,0.5644,,0,228,228,103,1,W, , , , ,space,2000,2,5f1478321de6634e0a24282b,001,2021-08-19_16h33.24.721,natb3,2021.2.3,Win32,60.26637739,5f1478321de6634e0a24282b,611e07ecdcc96256ae8d5b80,611e78da298fee3a7a846227,
,,,,,,,0,229,229,54,1,X, , , , ,,2000,2,5f1478321de6634e0a24282b,001,2021-08-19_16h33.24.721,natb3,2021.2.3,Win32,60.26637739,5f1478321de6634e0a24282b,611e07ecdcc96256ae8d5b80,611e78da298fee3a7a846227,
,,,,space,0.6026,,0,230,230,6,1,Y, , , , ,space,2500,2.5,5f1478321de6634e0a24282b,001,2021-08-19_16h33.24.721,natb3,2021.2.3,Win32,60.26637739,5f1478321de6634e0a24282b,611e07ecdcc96256ae8d5b80,611e78da298fee3a7a846227,
,,,,,,,0,231,231,299,1,X, , , , ,,2500,2.5,5f1478321de6634e0a24282b,001,2021-08-19_16h33.24.721,natb3,2021.2.3,Win32,60.26637739,5f1478321de6634e0a24282b,611e07ecdcc96256ae8d5b80,611e78da298fee3a7a846227,
,,,,space,0.5538,,0,232,232,17,1,F, , , , ,space,2500,2.5,5f1478321de6634e0a24282b,001,2021-08-19_16h33.24.721,natb3,2021.2.3,Win32,60.26637739,5f1478321de6634e0a24282b,611e07ecdcc96256ae8d5b80,611e78da298fee3a7a846227,
,,,,space,0.4626,,0,233,233,16,1,D, , , , ,space,1500,1.5,5f1478321de6634e0a24282b,001,2021-08-19_16h33.24.721,natb3,2021.2.3,Win32,60.26637739,5f1478321de6634e0a24282b,611e07ecdcc96256ae8d5b80,611e78da298fee3a7a846227,
,,,,space,0.7379,,0,234,234,327,1,E, , , , ,space,1500,1.5,5f1478321de6634e0a24282b,001,2021-08-19_16h33.24.721,natb3,2021.2.3,Win32,60.26637739,5f1478321de6634e0a24282b,611e07ecdcc96256ae8d5b80,611e78da298fee3a7a846227,
,,,,,,,0,235,235,43,1,X, ,6, ,2,,2500,2.5,5f1478321de6634e0a24282b,001,2021-08-19_16h33.24.721,natb3,2021.2.3,Win32,60.26637739,5f1478321de6634e0a24282b,611e07ecdcc96256ae8d5b80,611e78da298fee3a7a846227,
,,,,space,0.5773,,0,236,236,281,1,Z, , , , ,space,1500,1.5,5f1478321de6634e0a24282b,001,2021-08-19_16h33.24.721,natb3,2021.2.3,Win32,60.26637739,5f1478321de6634e0a24282b,611e07ecdcc96256ae8d5b80,611e78da298fee3a7a846227,
,,,,,,,0,237,237,318,1,X, , , , ,,1500,1.5,5f1478321de6634e0a24282b,001,2021-08-19_16h33.24.721,natb3,2021.2.3,Win32,60.26637739,5f1478321de6634e0a24282b,611e07ecdcc96256ae8d5b80,611e78da298fee3a7a846227,
,,,,space,0.3987,,0,238,238,30,1,N, , , , ,space,2500,2.5,5f1478321de6634e0a24282b,001,2021-08-19_16h33.24.721,natb3,2021.2.3,Win32,60.26637739,5f1478321de6634e0a24282b,611e07ecdcc96256ae8d5b80,611e78da298fee3a7a846227,
,,,,space,0.4978,,0,239,239,292,1,E, , , , ,space,2000,2,5f1478321de6634e0a24282b,001,2021-08-19_16h33.24.721,natb3,2021.2.3,Win32,60.26637739,5f1478321de6634e0a24282b,611e07ecdcc96256ae8d5b80,611e78da298fee3a7a846227,
,,,,,,,0,240,240,313,1,X, , , , ,,2500,2.5,5f1478321de6634e0a24282b,001,2021-08-19_16h33.24.721,natb3,2021.2.3,Win32,60.26637739,5f1478321de6634e0a24282b,611e07ecdcc96256ae8d5b80,611e78da298fee3a7a846227,
,,,,space,0.4695,,0,241,241,184,1,T, , , , ,space,2000,2,5f1478321de6634e0a24282b,001,2021-08-19_16h33.24.721,natb3,2021.2.3,Win32,60.26637739,5f1478321de6634e0a24282b,611e07ecdcc96256ae8d5b80,611e78da298fee3a7a846227,
,,,,space,0.4426,,0,242,242,88,1,J, , , , ,space,2500,2.5,5f1478321de6634e0a24282b,001,2021-08-19_16h33.24.721,natb3,2021.2.3,Win32,60.26637739,5f1478321de6634e0a24282b,611e07ecdcc96256ae8d5b80,611e78da298fee3a7a846227,
,,,,space,0.5002,,0,243,243,73,1,Y, , , , ,space,2000,2,5f1478321de6634e0a24282b,001,2021-08-19_16h33.24.721,natb3,2021.2.3,Win32,60.26637739,5f1478321de6634e0a24282b,611e07ecdcc96256ae8d5b80,611e78da298fee3a7a846227,
,,,,,,,0,244,244,211,1,X, , , , ,,2500,2.5,5f1478321de6634e0a24282b,001,2021-08-19_16h33.24.721,natb3,2021.2.3,Win32,60.26637739,5f1478321de6634e0a24282b,611e07ecdcc96256ae8d5b80,611e78da298fee3a7a846227,
,,,,,,,0,245,245,145,1,X, , , , ,,2000,2,5f1478321de6634e0a24282b,001,2021-08-19_16h33.24.721,natb3,2021.2.3,Win32,60.26637739,5f1478321de6634e0a24282b,611e07ecdcc96256ae8d5b80,611e78da298fee3a7a846227,
,,,,space,0.4678,,0,246,246,209,1,N, , , , ,space,2000,2,5f1478321de6634e0a24282b,001,2021-08-19_16h33.24.721,natb3,2021.2.3,Win32,60.26637739,5f1478321de6634e0a24282b,611e07ecdcc96256ae8d5b80,611e78da298fee3a7a846227,
,,,,,,,0,247,247,89,1,X,3, , , ,,2000,2,5f1478321de6634e0a24282b,001,2021-08-19_16h33.24.721,natb3,2021.2.3,Win32,60.26637739,5f1478321de6634e0a24282b,611e07ecdcc96256ae8d5b80,611e78da298fee3a7a846227,
,,,,space,0.4839,,0,248,248,165,1,J, , , , ,space,2500,2.5,5f1478321de6634e0a24282b,001,2021-08-19_16h33.24.721,natb3,2021.2.3,Win32,60.26637739,5f1478321de6634e0a24282b,611e07ecdcc96256ae8d5b80,611e78da298fee3a7a846227,
,,,,space,0.5169,,0,249,249,334,1,O, , , , ,space,1500,1.5,5f1478321de6634e0a24282b,001,2021-08-19_16h33.24.721,natb3,2021.2.3,Win32,60.26637739,5f1478321de6634e0a24282b,611e07ecdcc96256ae8d5b80,611e78da298fee3a7a846227,
,,,,,,,0,250,250,74,1,X, ,4,3,2,,1500,1.5,5f1478321de6634e0a24282b,001,2021-08-19_16h33.24.721,natb3,2021.2.3,Win32,60.26637739,5f1478321de6634e0a24282b,611e07ecdcc96256ae8d5b80,611e78da298fee3a7a846227,
,,,,space,0.3756,,0,251,251,246,1,L, , , , ,space,2500,2.5,5f1478321de6634e0a24282b,001,2021-08-19_16h33.24.721,natb3,2021.2.3,Win32,60.26637739,5f1478321de6634e0a24282b,611e07ecdcc96256ae8d5b80,611e78da298fee3a7a846227,
,,,,space,0.4842,,0,252,252,13,1,A, , , , ,space,2000,2,5f1478321de6634e0a24282b,001,2021-08-19_16h33.24.721,natb3,2021.2.3,Win32,60.26637739,5f1478321de6634e0a24282b,611e07ecdcc96256ae8d5b80,611e78da298fee3a7a846227,
,,,,space,0.4315,,0,253,253,48,1,A, , , , ,space,2500,2.5,5f1478321de6634e0a24282b,001,2021-08-19_16h33.24.721,natb3,2021.2.3,Win32,60.26637739,5f1478321de6634e0a24282b,611e07ecdcc96256ae8d5b80,611e78da298fee3a7a846227,
,,,,space,0.4003,,0,254,254,243,1,X, , , , ,,2500,2.5,5f1478321de6634e0a24282b,001,2021-08-19_16h33.24.721,natb3,2021.2.3,Win32,60.26637739,5f1478321de6634e0a24282b,611e07ecdcc96256ae8d5b80,611e78da298fee3a7a846227,
,,,,,,,0,255,255,162,1,X,1,6, ,2,,1500,1.5,5f1478321de6634e0a24282b,001,2021-08-19_16h33.24.721,natb3,2021.2.3,Win32,60.26637739,5f1478321de6634e0a24282b,611e07ecdcc96256ae8d5b80,611e78da298fee3a7a846227,
,,,,space,0.4678,,0,256,256,3,1,R, , , , ,space,2000,2,5f1478321de6634e0a24282b,001,2021-08-19_16h33.24.721,natb3,2021.2.3,Win32,60.26637739,5f1478321de6634e0a24282b,611e07ecdcc96256ae8d5b80,611e78da298fee3a7a846227,
,,,,space,0.4393,,0,257,257,163,1,G, , , , ,space,2500,2.5,5f1478321de6634e0a24282b,001,2021-08-19_16h33.24.721,natb3,2021.2.3,Win32,60.26637739,5f1478321de6634e0a24282b,611e07ecdcc96256ae8d5b80,611e78da298fee3a7a846227,
,,,,space,0.9447,,0,258,258,11,1,P, , , , ,space,2500,2.5,5f1478321de6634e0a24282b,001,2021-08-19_16h33.24.721,natb3,2021.2.3,Win32,60.26637739,5f1478321de6634e0a24282b,611e07ecdcc96256ae8d5b80,611e78da298fee3a7a846227,
,,,,space,0.8502,,0,259,259,72,1,T, , , , ,space,1500,1.5,5f1478321de6634e0a24282b,001,2021-08-19_16h33.24.721,natb3,2021.2.3,Win32,60.26637739,5f1478321de6634e0a24282b,611e07ecdcc96256ae8d5b80,611e78da298fee3a7a846227,
,,,,space,0.4382,,0,260,260,272,1,D, , , , ,space,2000,2,5f1478321de6634e0a24282b,001,2021-08-19_16h33.24.721,natb3,2021.2.3,Win32,60.26637739,5f1478321de6634e0a24282b,611e07ecdcc96256ae8d5b80,611e78da298fee3a7a846227,
,,,,space,0.5008,,0,261,261,144,1,Q, , , , ,space,2500,2.5,5f1478321de6634e0a24282b,001,2021-08-19_16h33.24.721,natb3,2021.2.3,Win32,60.26637739,5f1478321de6634e0a24282b,611e07ecdcc96256ae8d5b80,611e78da298fee3a7a846227,
,,,,space,0.4849,,0,262,262,324,1,Q, , , , ,space,2000,2,5f1478321de6634e0a24282b,001,2021-08-19_16h33.24.721,natb3,2021.2.3,Win32,60.26637739,5f1478321de6634e0a24282b,611e07ecdcc96256ae8d5b80,611e78da298fee3a7a846227,
,,,,space,0.5205,,0,263,263,64,1,N, , , , ,space,2000,2,5f1478321de6634e0a24282b,001,2021-08-19_16h33.24.721,natb3,2021.2.3,Win32,60.26637739,5f1478321de6634e0a24282b,611e07ecdcc96256ae8d5b80,611e78da298fee3a7a846227,
,,,,space,0.3816,,0,264,264,31,1,X, , , , ,,1500,1.5,5f1478321de6634e0a24282b,001,2021-08-19_16h33.24.721,natb3,2021.2.3,Win32,60.26637739,5f1478321de6634e0a24282b,611e07ecdcc96256ae8d5b80,611e78da298fee3a7a846227,
,,,,space,0.5006,,0,265,265,215,1,E, , , , ,space,2500,2.5,5f1478321de6634e0a24282b,001,2021-08-19_16h33.24.721,natb3,2021.2.3,Win32,60.26637739,5f1478321de6634e0a24282b,611e07ecdcc96256ae8d5b80,611e78da298fee3a7a846227,
,,,,space,0.5172,,0,266,266,194,1,D, , , , ,space,2000,2,5f1478321de6634e0a24282b,001,2021-08-19_16h33.24.721,natb3,2021.2.3,Win32,60.26637739,5f1478321de6634e0a24282b,611e07ecdcc96256ae8d5b80,611e78da298fee3a7a846227,
,,,,space,0.4921,,0,267,267,177,1,M, , , , ,space,2500,2.5,5f1478321de6634e0a24282b,001,2021-08-19_16h33.24.721,natb3,2021.2.3,Win32,60.26637739,5f1478321de6634e0a24282b,611e07ecdcc96256ae8d5b80,611e78da298fee3a7a846227,
,,,,space,0.6836,,0,268,268,214,1,W, , , , ,space,2000,2,5f1478321de6634e0a24282b,001,2021-08-19_16h33.24.721,natb3,2021.2.3,Win32,60.26637739,5f1478321de6634e0a24282b,611e07ecdcc96256ae8d5b80,611e78da298fee3a7a846227,
,,,,space,0.5837,,0,269,269,61,1,C, , , , ,space,2000,2,5f1478321de6634e0a24282b,001,2021-08-19_16h33.24.721,natb3,2021.2.3,Win32,60.26637739,5f1478321de6634e0a24282b,611e07ecdcc96256ae8d5b80,611e78da298fee3a7a846227,
,,,,space,0.7387,,0,270,270,251,1,B, , , , ,space,1500,1.5,5f1478321de6634e0a24282b,001,2021-08-19_16h33.24.721,natb3,2021.2.3,Win32,60.26637739,5f1478321de6634e0a24282b,611e07ecdcc96256ae8d5b80,611e78da298fee3a7a846227,
,,,,space,0.417,,0,271,271,289,1,Q, , , , ,space,2000,2,5f1478321de6634e0a24282b,001,2021-08-19_16h33.24.721,natb3,2021.2.3,Win32,60.26637739,5f1478321de6634e0a24282b,611e07ecdcc96256ae8d5b80,611e78da298fee3a7a846227,
,,,,space,0.5338,,0,272,272,71,1,R, , , , ,space,2500,2.5,5f1478321de6634e0a24282b,001,2021-08-19_16h33.24.721,natb3,2021.2.3,Win32,60.26637739,5f1478321de6634e0a24282b,611e07ecdcc96256ae8d5b80,611e78da298fee3a7a846227,
,,,,space,0.42,,0,273,273,161,1,F, , , , ,space,1500,1.5,5f1478321de6634e0a24282b,001,2021-08-19_16h33.24.721,natb3,2021.2.3,Win32,60.26637739,5f1478321de6634e0a24282b,611e07ecdcc96256ae8d5b80,611e78da298fee3a7a846227,
,,,,space,0.4037,,0,274,274,201,1,K, , , , ,space,1500,1.5,5f1478321de6634e0a24282b,001,2021-08-19_16h33.24.721,natb3,2021.2.3,Win32,60.26637739,5f1478321de6634e0a24282b,611e07ecdcc96256ae8d5b80,611e78da298fee3a7a846227,
,,,,space,0.3725,,0,275,275,176,1,N, , , , ,space,1500,1.5,5f1478321de6634e0a24282b,001,2021-08-19_16h33.24.721,natb3,2021.2.3,Win32,60.26637739,5f1478321de6634e0a24282b,611e07ecdcc96256ae8d5b80,611e78da298fee3a7a846227,
,,,,space,0.4074,,0,276,276,133,1,X, ,4, ,6,,2500,2.5,5f1478321de6634e0a24282b,001,2021-08-19_16h33.24.721,natb3,2021.2.3,Win32,60.26637739,5f1478321de6634e0a24282b,611e07ecdcc96256ae8d5b80,611e78da298fee3a7a846227,
,,,,space,0.7897,,0,277,277,4,1,X, , , , ,,2000,2,5f1478321de6634e0a24282b,001,2021-08-19_16h33.24.721,natb3,2021.2.3,Win32,60.26637739,5f1478321de6634e0a24282b,611e07ecdcc96256ae8d5b80,611e78da298fee3a7a846227,
,,,,space,0.6505,,0,278,278,276,1,H, , , , ,space,2000,2,5f1478321de6634e0a24282b,001,2021-08-19_16h33.24.721,natb3,2021.2.3,Win32,60.26637739,5f1478321de6634e0a24282b,611e07ecdcc96256ae8d5b80,611e78da298fee3a7a846227,
,,,,,,,0,279,279,129,1,X,2,3,5, ,,1500,1.5,5f1478321de6634e0a24282b,001,2021-08-19_16h33.24.721,natb3,2021.2.3,Win32,60.26637739,5f1478321de6634e0a24282b,611e07ecdcc96256ae8d5b80,611e78da298fee3a7a846227,
,,,,space,0.6828,,0,280,280,63,1,B, , , , ,space,2000,2,5f1478321de6634e0a24282b,001,2021-08-19_16h33.24.721,natb3,2021.2.3,Win32,60.26637739,5f1478321de6634e0a24282b,611e07ecdcc96256ae8d5b80,611e78da298fee3a7a846227,
,,,,space,0.7337,,0,281,281,332,1,U, , , , ,space,2000,2,5f1478321de6634e0a24282b,001,2021-08-19_16h33.24.721,natb3,2021.2.3,Win32,60.26637739,5f1478321de6634e0a24282b,611e07ecdcc96256ae8d5b80,611e78da298fee3a7a846227,
,,,,space,0.5002,,0,282,282,193,1,S, , , , ,space,2500,2.5,5f1478321de6634e0a24282b,001,2021-08-19_16h33.24.721,natb3,2021.2.3,Win32,60.26637739,5f1478321de6634e0a24282b,611e07ecdcc96256ae8d5b80,611e78da298fee3a7a846227,
,,,,space,0.5006,,0,283,283,58,1,L, , , , ,space,2000,2,5f1478321de6634e0a24282b,001,2021-08-19_16h33.24.721,natb3,2021.2.3,Win32,60.26637739,5f1478321de6634e0a24282b,611e07ecdcc96256ae8d5b80,611e78da298fee3a7a846227,
,,,,space,0.6007,,0,284,284,52,1,F, , , , ,space,1500,1.5,5f1478321de6634e0a24282b,001,2021-08-19_16h33.24.721,natb3,2021.2.3,Win32,60.26637739,5f1478321de6634e0a24282b,611e07ecdcc96256ae8d5b80,611e78da298fee3a7a846227,
,,,,space,0.5005,,0,285,285,114,1,E, , , , ,space,2000,2,5f1478321de6634e0a24282b,001,2021-08-19_16h33.24.721,natb3,2021.2.3,Win32,60.26637739,5f1478321de6634e0a24282b,611e07ecdcc96256ae8d5b80,611e78da298fee3a7a846227,
,,,,,,,0,286,286,293,1,R, , , , ,space,2500,2.5,5f1478321de6634e0a24282b,001,2021-08-19_16h33.24.721,natb3,2021.2.3,Win32,60.26637739,5f1478321de6634e0a24282b,611e07ecdcc96256ae8d5b80,611e78da298fee3a7a846227,
,,,,space,0.4344,,0,287,287,28,1,V, , , , ,space,1500,1.5,5f1478321de6634e0a24282b,001,2021-08-19_16h33.24.721,natb3,2021.2.3,Win32,60.26637739,5f1478321de6634e0a24282b,611e07ecdcc96256ae8d5b80,611e78da298fee3a7a846227,
,,,,space,0.4694,,0,288,288,113,1,W, , , , ,space,2500,2.5,5f1478321de6634e0a24282b,001,2021-08-19_16h33.24.721,natb3,2021.2.3,Win32,60.26637739,5f1478321de6634e0a24282b,611e07ecdcc96256ae8d5b80,611e78da298fee3a7a846227,
,,,,,,,0,289,289,207,1,X,9, ,2, ,,2500,2.5,5f1478321de6634e0a24282b,001,2021-08-19_16h33.24.721,natb3,2021.2.3,Win32,60.26637739,5f1478321de6634e0a24282b,611e07ecdcc96256ae8d5b80,611e78da298fee3a7a846227,
,,,,,,,0,290,290,112,1,Q, , , , ,space,2500,2.5,5f1478321de6634e0a24282b,001,2021-08-19_16h33.24.721,natb3,2021.2.3,Win32,60.26637739,5f1478321de6634e0a24282b,611e07ecdcc96256ae8d5b80,611e78da298fee3a7a846227,
,,,,space,0.8735,,0,291,291,328,1,R, , , , ,space,1500,1.5,5f1478321de6634e0a24282b,001,2021-08-19_16h33.24.721,natb3,2021.2.3,Win32,60.26637739,5f1478321de6634e0a24282b,611e07ecdcc96256ae8d5b80,611e78da298fee3a7a846227,
,,,,,,,0,292,292,76,1,I, , , , ,space,2000,2,5f1478321de6634e0a24282b,001,2021-08-19_16h33.24.721,natb3,2021.2.3,Win32,60.26637739,5f1478321de6634e0a24282b,611e07ecdcc96256ae8d5b80,611e78da298fee3a7a846227,
,,,,space,0.5052,,0,293,293,296,1,Y, , , , ,space,2500,2.5,5f1478321de6634e0a24282b,001,2021-08-19_16h33.24.721,natb3,2021.2.3,Win32,60.26637739,5f1478321de6634e0a24282b,611e07ecdcc96256ae8d5b80,611e78da298fee3a7a846227,
,,,,,,,0,294,294,93,1,X,5, ,7, ,,2500,2.5,5f1478321de6634e0a24282b,001,2021-08-19_16h33.24.721,natb3,2021.2.3,Win32,60.26637739,5f1478321de6634e0a24282b,611e07ecdcc96256ae8d5b80,611e78da298fee3a7a846227,
,,,,space,0.5512,,0,295,295,283,1,C, , , , ,space,1500,1.5,5f1478321de6634e0a24282b,001,2021-08-19_16h33.24.721,natb3,2021.2.3,Win32,60.26637739,5f1478321de6634e0a24282b,611e07ecdcc96256ae8d5b80,611e78da298fee3a7a846227,
,,,,space,0.8338,,0,296,296,67,1,Q, , , , ,space,2000,2,5f1478321de6634e0a24282b,001,2021-08-19_16h33.24.721,natb3,2021.2.3,Win32,60.26637739,5f1478321de6634e0a24282b,611e07ecdcc96256ae8d5b80,611e78da298fee3a7a846227,
,,,,,,,0,297,297,69,1,X, , , , ,,1500,1.5,5f1478321de6634e0a24282b,001,2021-08-19_16h33.24.721,natb3,2021.2.3,Win32,60.26637739,5f1478321de6634e0a24282b,611e07ecdcc96256ae8d5b80,611e78da298fee3a7a846227,
,,,,space,0.5566,,0,298,298,1,1,W, , , , ,space,2000,2,5f1478321de6634e0a24282b,001,2021-08-19_16h33.24.721,natb3,2021.2.3,Win32,60.26637739,5f1478321de6634e0a24282b,611e07ecdcc96256ae8d5b80,611e78da298fee3a7a846227,
,,,,,,,0,299,299,18,1,X, ,2,5,8,,2500,2.5,5f1478321de6634e0a24282b,001,2021-08-19_16h33.24.721,natb3,2021.2.3,Win32,60.26637739,5f1478321de6634e0a24282b,611e07ecdcc96256ae8d5b80,611e78da298fee3a7a846227,
,,,,space,0.4679,,0,300,300,70,1,E, , , , ,space,2500,2.5,5f1478321de6634e0a24282b,001,2021-08-19_16h33.24.721,natb3,2021.2.3,Win32,60.26637739,5f1478321de6634e0a24282b,611e07ecdcc96256ae8d5b80,611e78da298fee3a7a846227,
,,,,,,,0,301,301,228,1,Y, , , , ,space,2000,2,5f1478321de6634e0a24282b,001,2021-08-19_16h33.24.721,natb3,2021.2.3,Win32,60.26637739,5f1478321de6634e0a24282b,611e07ecdcc96256ae8d5b80,611e78da298fee3a7a846227,
,,,,space,0.4501,,0,302,302,249,1,C, , , , ,space,2000,2,5f1478321de6634e0a24282b,001,2021-08-19_16h33.24.721,natb3,2021.2.3,Win32,60.26637739,5f1478321de6634e0a24282b,611e07ecdcc96256ae8d5b80,611e78da298fee3a7a846227,
,,,,space,0.4669,,0,303,303,79,1,P, , , , ,space,2000,2,5f1478321de6634e0a24282b,001,2021-08-19_16h33.24.721,natb3,2021.2.3,Win32,60.26637739,5f1478321de6634e0a24282b,611e07ecdcc96256ae8d5b80,611e78da298fee3a7a846227,
,,,,space,0.4855,,0,304,304,120,1,U, , , , ,space,1500,1.5,5f1478321de6634e0a24282b,001,2021-08-19_16h33.24.721,natb3,2021.2.3,Win32,60.26637739,5f1478321de6634e0a24282b,611e07ecdcc96256ae8d5b80,611e78da298fee3a7a846227,
,,,,space,0.4418,,0,305,305,147,1,E, , , , ,space,2000,2,5f1478321de6634e0a24282b,001,2021-08-19_16h33.24.721,natb3,2021.2.3,Win32,60.26637739,5f1478321de6634e0a24282b,611e07ecdcc96256ae8d5b80,611e78da298fee3a7a846227,
,,,,space,0.4514,,0,306,306,62,1,V, , , , ,space,1500,1.5,5f1478321de6634e0a24282b,001,2021-08-19_16h33.24.721,natb3,2021.2.3,Win32,60.26637739,5f1478321de6634e0a24282b,611e07ecdcc96256ae8d5b80,611e78da298fee3a7a846227,
,,,,space,0.6443,,0,307,307,169,1,L, , , , ,space,2500,2.5,5f1478321de6634e0a24282b,001,2021-08-19_16h33.24.721,natb3,2021.2.3,Win32,60.26637739,5f1478321de6634e0a24282b,611e07ecdcc96256ae8d5b80,611e78da298fee3a7a846227,
,,,,space,0.6175,,0,308,308,127,1,S, , , , ,space,2500,2.5,5f1478321de6634e0a24282b,001,2021-08-19_16h33.24.721,natb3,2021.2.3,Win32,60.26637739,5f1478321de6634e0a24282b,611e07ecdcc96256ae8d5b80,611e78da298fee3a7a846227,
,,,,space,0.5374,,0,309,309,192,1,A, , , , ,space,2000,2,5f1478321de6634e0a24282b,001,2021-08-19_16h33.24.721,natb3,2021.2.3,Win32,60.26637739,5f1478321de6634e0a24282b,611e07ecdcc96256ae8d5b80,611e78da298fee3a7a846227,
,,,,,,,0,310,310,82,1,X,4,6,1,7,,2000,2,5f1478321de6634e0a24282b,001,2021-08-19_16h33.24.721,natb3,2021.2.3,Win32,60.26637739,5f1478321de6634e0a24282b,611e07ecdcc96256ae8d5b80,611e78da298fee3a7a846227,
,,,,space,0.424,,0,311,311,317,1,C, , , , ,space,2000,2,5f1478321de6634e0a24282b,001,2021-08-19_16h33.24.721,natb3,2021.2.3,Win32,60.26637739,5f1478321de6634e0a24282b,611e07ecdcc96256ae8d5b80,611e78da298fee3a7a846227,
,,,,space,0.5002,,0,312,312,182,1,X, , , , ,,1500,1.5,5f1478321de6634e0a24282b,001,2021-08-19_16h33.24.721,natb3,2021.2.3,Win32,60.26637739,5f1478321de6634e0a24282b,611e07ecdcc96256ae8d5b80,611e78da298fee3a7a846227,
,,,,,,,0,313,313,12,1,X, , , , ,,1500,1.5,5f1478321de6634e0a24282b,001,2021-08-19_16h33.24.721,natb3,2021.2.3,Win32,60.26637739,5f1478321de6634e0a24282b,611e07ecdcc96256ae8d5b80,611e78da298fee3a7a846227,
,,,,space,0.438,,0,314,314,37,1,E, , , , ,space,2500,2.5,5f1478321de6634e0a24282b,001,2021-08-19_16h33.24.721,natb3,2021.2.3,Win32,60.26637739,5f1478321de6634e0a24282b,611e07ecdcc96256ae8d5b80,611e78da298fee3a7a846227,
,,,,space,0.5845,,0,315,315,99,1,N, , , , ,space,2500,2.5,5f1478321de6634e0a24282b,001,2021-08-19_16h33.24.721,natb3,2021.2.3,Win32,60.26637739,5f1478321de6634e0a24282b,611e07ecdcc96256ae8d5b80,611e78da298fee3a7a846227,
,,,,space,0.4359,,0,316,316,140,1,B, , , , ,space,2500,2.5,5f1478321de6634e0a24282b,001,2021-08-19_16h33.24.721,natb3,2021.2.3,Win32,60.26637739,5f1478321de6634e0a24282b,611e07ecdcc96256ae8d5b80,611e78da298fee3a7a846227,
,,,,,,,0,317,317,287,1,X, ,2, ,9,,2000,2,5f1478321de6634e0a24282b,001,2021-08-19_16h33.24.721,natb3,2021.2.3,Win32,60.26637739,5f1478321de6634e0a24282b,611e07ecdcc96256ae8d5b80,611e78da298fee3a7a846227,
,,,,space,0.5839,,0,318,318,38,1,R, , , , ,space,2500,2.5,5f1478321de6634e0a24282b,001,2021-08-19_16h33.24.721,natb3,2021.2.3,Win32,60.26637739,5f1478321de6634e0a24282b,611e07ecdcc96256ae8d5b80,611e78da298fee3a7a846227,
,,,,space,0.5342,,0,319,319,242,1,H, , , , ,space,2500,2.5,5f1478321de6634e0a24282b,001,2021-08-19_16h33.24.721,natb3,2021.2.3,Win32,60.26637739,5f1478321de6634e0a24282b,611e07ecdcc96256ae8d5b80,611e78da298fee3a7a846227,
,,,,space,0.6839,,0,320,320,267,1,P, , , , ,space,2000,2,5f1478321de6634e0a24282b,001,2021-08-19_16h33.24.721,natb3,2021.2.3,Win32,60.26637739,5f1478321de6634e0a24282b,611e07ecdcc96256ae8d5b80,611e78da298fee3a7a846227,
,,,,space,0.5005,,0,321,321,101,1,Q, , , , ,space,2500,2.5,5f1478321de6634e0a24282b,001,2021-08-19_16h33.24.721,natb3,2021.2.3,Win32,60.26637739,5f1478321de6634e0a24282b,611e07ecdcc96256ae8d5b80,611e78da298fee3a7a846227,
,,,,space,0.5839,,0,322,322,208,1,B, , , , ,space,1500,1.5,5f1478321de6634e0a24282b,001,2021-08-19_16h33.24.721,natb3,2021.2.3,Win32,60.26637739,5f1478321de6634e0a24282b,611e07ecdcc96256ae8d5b80,611e78da298fee3a7a846227,
,,,,space,0.7499,,0,323,323,150,1,T, , , , ,space,2500,2.5,5f1478321de6634e0a24282b,001,2021-08-19_16h33.24.721,natb3,2021.2.3,Win32,60.26637739,5f1478321de6634e0a24282b,611e07ecdcc96256ae8d5b80,611e78da298fee3a7a846227,
,,,,,,,0,324,324,171,1,X, , , , ,,1500,1.5,5f1478321de6634e0a24282b,001,2021-08-19_16h33.24.721,natb3,2021.2.3,Win32,60.26637739,5f1478321de6634e0a24282b,611e07ecdcc96256ae8d5b80,611e78da298fee3a7a846227,
,,,,space,0.3732,,0,325,325,100,1,M, , , , ,space,2000,2,5f1478321de6634e0a24282b,001,2021-08-19_16h33.24.721,natb3,2021.2.3,Win32,60.26637739,5f1478321de6634e0a24282b,611e07ecdcc96256ae8d5b80,611e78da298fee3a7a846227,
,,,,space,0.5002,,0,326,326,237,1,S, , , , ,space,1500,1.5,5f1478321de6634e0a24282b,001,2021-08-19_16h33.24.721,natb3,2021.2.3,Win32,60.26637739,5f1478321de6634e0a24282b,611e07ecdcc96256ae8d5b80,611e78da298fee3a7a846227,
,,,,space,0.6362,,0,327,327,77,1,O, , , , ,space,2000,2,5f1478321de6634e0a24282b,001,2021-08-19_16h33.24.721,natb3,2021.2.3,Win32,60.26637739,5f1478321de6634e0a24282b,611e07ecdcc96256ae8d5b80,611e78da298fee3a7a846227,
,,,,,,,0,328,328,325,1,X, , , , ,,2500,2.5,5f1478321de6634e0a24282b,001,2021-08-19_16h33.24.721,natb3,2021.2.3,Win32,60.26637739,5f1478321de6634e0a24282b,611e07ecdcc96256ae8d5b80,611e78da298fee3a7a846227,
,,,,,,,0,329,329,231,1,I, , , , ,space,2500,2.5,5f1478321de6634e0a24282b,001,2021-08-19_16h33.24.721,natb3,2021.2.3,Win32,60.26637739,5f1478321de6634e0a24282b,611e07ecdcc96256ae8d5b80,611e78da298fee3a7a846227,
,,,,,,,0,330,330,118,1,X, , , , ,,2000,2,5f1478321de6634e0a24282b,001,2021-08-19_16h33.24.721,natb3,2021.2.3,Win32,60.26637739,5f1478321de6634e0a24282b,611e07ecdcc96256ae8d5b80,611e78da298fee3a7a846227,
,,,,space,0.5026,,0,331,331,35,1,X, , , , ,,2500,2.5,5f1478321de6634e0a24282b,001,2021-08-19_16h33.24.721,natb3,2021.2.3,Win32,60.26637739,5f1478321de6634e0a24282b,611e07ecdcc96256ae8d5b80,611e78da298fee3a7a846227,
,,,,space,0.5202,,0,332,332,224,1,W, , , , ,space,1500,1.5,5f1478321de6634e0a24282b,001,2021-08-19_16h33.24.721,natb3,2021.2.3,Win32,60.26637739,5f1478321de6634e0a24282b,611e07ecdcc96256ae8d5b80,611e78da298fee3a7a846227,
,,,,space,0.5466,,0,333,333,257,1,W, , , , ,space,2000,2,5f1478321de6634e0a24282b,001,2021-08-19_16h33.24.721,natb3,2021.2.3,Win32,60.26637739,5f1478321de6634e0a24282b,611e07ecdcc96256ae8d5b80,611e78da298fee3a7a846227,
,,,,space,0.4368,,0,334,334,205,1,C, , , , ,space,2000,2,5f1478321de6634e0a24282b,001,2021-08-19_16h33.24.721,natb3,2021.2.3,Win32,60.26637739,5f1478321de6634e0a24282b,611e07ecdcc96256ae8d5b80,611e78da298fee3a7a846227,
,,,,space,0.5006,,0,335,335,320,1,B, , , , ,space,1500,1.5,5f1478321de6634e0a24282b,001,2021-08-19_16h33.24.721,natb3,2021.2.3,Win32,60.26637739,5f1478321de6634e0a24282b,611e07ecdcc96256ae8d5b80,611e78da298fee3a7a846227,
