key_resp_2.keys,key_resp_2.rt,key_resp_3.keys,key_resp_3.rt,key_resp.keys,key_resp_4.keys,trials.thisRepN,trials.thisTrialN,trials.thisN,trials.thisIndex,trials.ran,stimulus,distractor1,distractor2,distractor3,distractor4,CorrAns,isi_duration,isi_dur_in_seconds,participant,session,date,expName,psychopyVersion,OS,frameRate,PROLIFIC_PID,STUDY_ID,SESSION_ID,key_resp.rt,key_resp_4.rt
return,19.7008,space,14.7189,,,0,0,0,218,1,X,1,3, ,8,,1500,1.5,5f97ef92e7ba4b02643d156d,001,2021-08-19_16h35.31.633,natb3,2021.2.3,Win32,60.15399423,5f97ef92e7ba4b02643d156d,611e07ecdcc96256ae8d5b80,611e7a2b8905a8420b90e73a,,
,,,,space,,0,1,1,326,1,W, , , , ,space,2000,2,5f97ef92e7ba4b02643d156d,001,2021-08-19_16h35.31.633,natb3,2021.2.3,Win32,60.15399423,5f97ef92e7ba4b02643d156d,611e07ecdcc96256ae8d5b80,611e7a2b8905a8420b90e73a,0.7912,
,,,,space,,0,2,2,274,1,F, , , , ,space,2000,2,5f97ef92e7ba4b02643d156d,001,2021-08-19_16h35.31.633,natb3,2021.2.3,Win32,60.15399423,5f97ef92e7ba4b02643d156d,611e07ecdcc96256ae8d5b80,611e7a2b8905a8420b90e73a,0.5474,
,,,,space,,0,3,3,238,1,D, , , , ,space,1500,1.5,5f97ef92e7ba4b02643d156d,001,2021-08-19_16h35.31.633,natb3,2021.2.3,Win32,60.15399423,5f97ef92e7ba4b02643d156d,611e07ecdcc96256ae8d5b80,611e7a2b8905a8420b90e73a,0.5503,
,,,,,,0,4,4,74,1,X, ,4,3,2,,1500,1.5,5f97ef92e7ba4b02643d156d,001,2021-08-19_16h35.31.633,natb3,2021.2.3,Win32,60.15399423,5f97ef92e7ba4b02643d156d,611e07ecdcc96256ae8d5b80,611e7a2b8905a8420b90e73a,,
,,,,,,0,5,5,207,1,X,9, ,2, ,,2500,2.5,5f97ef92e7ba4b02643d156d,001,2021-08-19_16h35.31.633,natb3,2021.2.3,Win32,60.15399423,5f97ef92e7ba4b02643d156d,611e07ecdcc96256ae8d5b80,611e7a2b8905a8420b90e73a,,
,,,,space,,0,6,6,262,1,Y, , , , ,space,2500,2.5,5f97ef92e7ba4b02643d156d,001,2021-08-19_16h35.31.633,natb3,2021.2.3,Win32,60.15399423,5f97ef92e7ba4b02643d156d,611e07ecdcc96256ae8d5b80,611e7a2b8905a8420b90e73a,0.5511,
,,,,,,0,7,7,82,1,X,4,6,1,7,,2000,2,5f97ef92e7ba4b02643d156d,001,2021-08-19_16h35.31.633,natb3,2021.2.3,Win32,60.15399423,5f97ef92e7ba4b02643d156d,611e07ecdcc96256ae8d5b80,611e7a2b8905a8420b90e73a,,
,,,,,,0,8,8,23,1,X,1, ,5, ,,2000,2,5f97ef92e7ba4b02643d156d,001,2021-08-19_16h35.31.633,natb3,2021.2.3,Win32,60.15399423,5f97ef92e7ba4b02643d156d,611e07ecdcc96256ae8d5b80,611e7a2b8905a8420b90e73a,,
,,,,space,,0,9,9,301,1,P, , , , ,space,1500,1.5,5f97ef92e7ba4b02643d156d,001,2021-08-19_16h35.31.633,natb3,2021.2.3,Win32,60.15399423,5f97ef92e7ba4b02643d156d,611e07ecdcc96256ae8d5b80,611e7a2b8905a8420b90e73a,0.4675,
,,,,space,,0,10,10,319,1,V, , , , ,space,2000,2,5f97ef92e7ba4b02643d156d,001,2021-08-19_16h35.31.633,natb3,2021.2.3,Win32,60.15399423,5f97ef92e7ba4b02643d156d,611e07ecdcc96256ae8d5b80,611e7a2b8905a8420b90e73a,0.5512,
,,,,,,0,11,11,248,1,X, ,1,5, ,,1500,1.5,5f97ef92e7ba4b02643d156d,001,2021-08-19_16h35.31.633,natb3,2021.2.3,Win32,60.15399423,5f97ef92e7ba4b02643d156d,611e07ecdcc96256ae8d5b80,611e7a2b8905a8420b90e73a,,
,,,,space,,0,12,12,255,1,X, , , , ,,1500,1.5,5f97ef92e7ba4b02643d156d,001,2021-08-19_16h35.31.633,natb3,2021.2.3,Win32,60.15399423,5f97ef92e7ba4b02643d156d,611e07ecdcc96256ae8d5b80,611e7a2b8905a8420b90e73a,0.4837,
,,,,,,0,13,13,179,1,X, ,9, ,2,,1500,1.5,5f97ef92e7ba4b02643d156d,001,2021-08-19_16h35.31.633,natb3,2021.2.3,Win32,60.15399423,5f97ef92e7ba4b02643d156d,611e07ecdcc96256ae8d5b80,611e7a2b8905a8420b90e73a,,
,,,,,,0,14,14,211,1,X, , , , ,,2500,2.5,5f97ef92e7ba4b02643d156d,001,2021-08-19_16h35.31.633,natb3,2021.2.3,Win32,60.15399423,5f97ef92e7ba4b02643d156d,611e07ecdcc96256ae8d5b80,611e7a2b8905a8420b90e73a,,
,,,,,,0,15,15,118,1,X, , , , ,,2000,2,5f97ef92e7ba4b02643d156d,001,2021-08-19_16h35.31.633,natb3,2021.2.3,Win32,60.15399423,5f97ef92e7ba4b02643d156d,611e07ecdcc96256ae8d5b80,611e7a2b8905a8420b90e73a,,
,,,,space,,0,16,16,333,1,I, , , , ,space,1500,1.5,5f97ef92e7ba4b02643d156d,001,2021-08-19_16h35.31.633,natb3,2021.2.3,Win32,60.15399423,5f97ef92e7ba4b02643d156d,611e07ecdcc96256ae8d5b80,611e7a2b8905a8420b90e73a,0.5176,
,,,,space,,0,17,17,115,1,R, , , , ,space,1500,1.5,5f97ef92e7ba4b02643d156d,001,2021-08-19_16h35.31.633,natb3,2021.2.3,Win32,60.15399423,5f97ef92e7ba4b02643d156d,611e07ecdcc96256ae8d5b80,611e7a2b8905a8420b90e73a,0.5508,
,,,,space,,0,18,18,335,1,P,,,,,space,1500,1.5,5f97ef92e7ba4b02643d156d,001,2021-08-19_16h35.31.633,natb3,2021.2.3,Win32,60.15399423,5f97ef92e7ba4b02643d156d,611e07ecdcc96256ae8d5b80,611e7a2b8905a8420b90e73a,0.7903,
,,,,space,,0,19,19,205,1,C, , , , ,space,2000,2,5f97ef92e7ba4b02643d156d,001,2021-08-19_16h35.31.633,natb3,2021.2.3,Win32,60.15399423,5f97ef92e7ba4b02643d156d,611e07ecdcc96256ae8d5b80,611e7a2b8905a8420b90e73a,0.5504,
,,,,,,0,20,20,133,1,X, ,4, ,6,,2500,2.5,5f97ef92e7ba4b02643d156d,001,2021-08-19_16h35.31.633,natb3,2021.2.3,Win32,60.15399423,5f97ef92e7ba4b02643d156d,611e07ecdcc96256ae8d5b80,611e7a2b8905a8420b90e73a,,
,,,,space,,0,21,21,249,1,C, , , , ,space,2000,2,5f97ef92e7ba4b02643d156d,001,2021-08-19_16h35.31.633,natb3,2021.2.3,Win32,60.15399423,5f97ef92e7ba4b02643d156d,611e07ecdcc96256ae8d5b80,611e7a2b8905a8420b90e73a,0.4674,
,,,,,,0,22,22,263,1,X,4, ,6, ,,1500,1.5,5f97ef92e7ba4b02643d156d,001,2021-08-19_16h35.31.633,natb3,2021.2.3,Win32,60.15399423,5f97ef92e7ba4b02643d156d,611e07ecdcc96256ae8d5b80,611e7a2b8905a8420b90e73a,,
,,,,space,,0,23,23,87,1,H, , , , ,space,1500,1.5,5f97ef92e7ba4b02643d156d,001,2021-08-19_16h35.31.633,natb3,2021.2.3,Win32,60.15399423,5f97ef92e7ba4b02643d156d,611e07ecdcc96256ae8d5b80,611e7a2b8905a8420b90e73a,0.484,
,,,,space,,0,24,24,137,1,C, , , , ,space,2500,2.5,5f97ef92e7ba4b02643d156d,001,2021-08-19_16h35.31.633,natb3,2021.2.3,Win32,60.15399423,5f97ef92e7ba4b02643d156d,611e07ecdcc96256ae8d5b80,611e7a2b8905a8420b90e73a,0.6506,
,,,,space,,0,25,25,77,1,O, , , , ,space,2000,2,5f97ef92e7ba4b02643d156d,001,2021-08-19_16h35.31.633,natb3,2021.2.3,Win32,60.15399423,5f97ef92e7ba4b02643d156d,611e07ecdcc96256ae8d5b80,611e7a2b8905a8420b90e73a,0.5342,
,,,,space,,0,26,26,222,1,O, , , , ,space,2000,2,5f97ef92e7ba4b02643d156d,001,2021-08-19_16h35.31.633,natb3,2021.2.3,Win32,60.15399423,5f97ef92e7ba4b02643d156d,611e07ecdcc96256ae8d5b80,611e7a2b8905a8420b90e73a,0.5509,
,,,,space,,0,27,27,101,1,Q, , , , ,space,2500,2.5,5f97ef92e7ba4b02643d156d,001,2021-08-19_16h35.31.633,natb3,2021.2.3,Win32,60.15399423,5f97ef92e7ba4b02643d156d,611e07ecdcc96256ae8d5b80,611e7a2b8905a8420b90e73a,0.4853,
,,,,space,,0,28,28,312,1,K, , , , ,space,2000,2,5f97ef92e7ba4b02643d156d,001,2021-08-19_16h35.31.633,natb3,2021.2.3,Win32,60.15399423,5f97ef92e7ba4b02643d156d,611e07ecdcc96256ae8d5b80,611e7a2b8905a8420b90e73a,0.4173,
,,,,,,0,29,29,187,1,X, ,3,7,4,,1500,1.5,5f97ef92e7ba4b02643d156d,001,2021-08-19_16h35.31.633,natb3,2021.2.3,Win32,60.15399423,5f97ef92e7ba4b02643d156d,611e07ecdcc96256ae8d5b80,611e7a2b8905a8420b90e73a,,
,,,,space,,0,30,30,330,1,T, , , , ,space,2500,2.5,5f97ef92e7ba4b02643d156d,001,2021-08-19_16h35.31.633,natb3,2021.2.3,Win32,60.15399423,5f97ef92e7ba4b02643d156d,611e07ecdcc96256ae8d5b80,611e7a2b8905a8420b90e73a,0.5337,
,,,,space,,0,31,31,149,1,R, , , , ,space,2000,2,5f97ef92e7ba4b02643d156d,001,2021-08-19_16h35.31.633,natb3,2021.2.3,Win32,60.15399423,5f97ef92e7ba4b02643d156d,611e07ecdcc96256ae8d5b80,611e7a2b8905a8420b90e73a,0.7006,
,,,,,,0,32,32,107,1,X,9,3, ,2,,2000,2,5f97ef92e7ba4b02643d156d,001,2021-08-19_16h35.31.633,natb3,2021.2.3,Win32,60.15399423,5f97ef92e7ba4b02643d156d,611e07ecdcc96256ae8d5b80,611e7a2b8905a8420b90e73a,,
,,,,space,,0,33,33,91,1,L, , , , ,space,2000,2,5f97ef92e7ba4b02643d156d,001,2021-08-19_16h35.31.633,natb3,2021.2.3,Win32,60.15399423,5f97ef92e7ba4b02643d156d,611e07ecdcc96256ae8d5b80,611e7a2b8905a8420b90e73a,0.5403,
,,,,,,0,34,34,35,1,X, , , , ,,2500,2.5,5f97ef92e7ba4b02643d156d,001,2021-08-19_16h35.31.633,natb3,2021.2.3,Win32,60.15399423,5f97ef92e7ba4b02643d156d,611e07ecdcc96256ae8d5b80,611e7a2b8905a8420b90e73a,,
,,,,space,,0,35,35,201,1,K, , , , ,space,1500,1.5,5f97ef92e7ba4b02643d156d,001,2021-08-19_16h35.31.633,natb3,2021.2.3,Win32,60.15399423,5f97ef92e7ba4b02643d156d,611e07ecdcc96256ae8d5b80,611e7a2b8905a8420b90e73a,0.551,
,,,,space,,0,36,36,261,1,T, , , , ,space,2000,2,5f97ef92e7ba4b02643d156d,001,2021-08-19_16h35.31.633,natb3,2021.2.3,Win32,60.15399423,5f97ef92e7ba4b02643d156d,611e07ecdcc96256ae8d5b80,611e7a2b8905a8420b90e73a,0.5191,
,,,,space,,0,37,37,176,1,N, , , , ,space,1500,1.5,5f97ef92e7ba4b02643d156d,001,2021-08-19_16h35.31.633,natb3,2021.2.3,Win32,60.15399423,5f97ef92e7ba4b02643d156d,611e07ecdcc96256ae8d5b80,611e7a2b8905a8420b90e73a,0.4515,
,,,,,,0,38,38,15,1,X, , , , ,,1500,1.5,5f97ef92e7ba4b02643d156d,001,2021-08-19_16h35.31.633,natb3,2021.2.3,Win32,60.15399423,5f97ef92e7ba4b02643d156d,611e07ecdcc96256ae8d5b80,611e7a2b8905a8420b90e73a,,
,,,,,,0,39,39,89,1,X,3, , , ,,2000,2,5f97ef92e7ba4b02643d156d,001,2021-08-19_16h35.31.633,natb3,2021.2.3,Win32,60.15399423,5f97ef92e7ba4b02643d156d,611e07ecdcc96256ae8d5b80,611e7a2b8905a8420b90e73a,,
,,,,space,,0,40,40,1,1,W, , , , ,space,2000,2,5f97ef92e7ba4b02643d156d,001,2021-08-19_16h35.31.633,natb3,2021.2.3,Win32,60.15399423,5f97ef92e7ba4b02643d156d,611e07ecdcc96256ae8d5b80,611e7a2b8905a8420b90e73a,0.5006,
,,,,space,,0,41,41,72,1,T, , , , ,space,1500,1.5,5f97ef92e7ba4b02643d156d,001,2021-08-19_16h35.31.633,natb3,2021.2.3,Win32,60.15399423,5f97ef92e7ba4b02643d156d,611e07ecdcc96256ae8d5b80,611e7a2b8905a8420b90e73a,0.4851,
,,,,,,0,42,42,122,1,X,1, , ,8,,1500,1.5,5f97ef92e7ba4b02643d156d,001,2021-08-19_16h35.31.633,natb3,2021.2.3,Win32,60.15399423,5f97ef92e7ba4b02643d156d,611e07ecdcc96256ae8d5b80,611e7a2b8905a8420b90e73a,,
,,,,space,,0,43,43,281,1,Z, , , , ,space,1500,1.5,5f97ef92e7ba4b02643d156d,001,2021-08-19_16h35.31.633,natb3,2021.2.3,Win32,60.15399423,5f97ef92e7ba4b02643d156d,611e07ecdcc96256ae8d5b80,611e7a2b8905a8420b90e73a,0.584,
,,,,space,,0,44,44,22,1,K, , , , ,space,2000,2,5f97ef92e7ba4b02643d156d,001,2021-08-19_16h35.31.633,natb3,2021.2.3,Win32,60.15399423,5f97ef92e7ba4b02643d156d,611e07ecdcc96256ae8d5b80,611e7a2b8905a8420b90e73a,0.5341,
,,,,,,0,45,45,66,1,X, ,4,7, ,,2000,2,5f97ef92e7ba4b02643d156d,001,2021-08-19_16h35.31.633,natb3,2021.2.3,Win32,60.15399423,5f97ef92e7ba4b02643d156d,611e07ecdcc96256ae8d5b80,611e7a2b8905a8420b90e73a,,
,,,,space,,0,46,46,130,1,F, , , , ,space,2000,2,5f97ef92e7ba4b02643d156d,001,2021-08-19_16h35.31.633,natb3,2021.2.3,Win32,60.15399423,5f97ef92e7ba4b02643d156d,611e07ecdcc96256ae8d5b80,611e7a2b8905a8420b90e73a,0.4843,
,,,,space,,0,47,47,70,1,E, , , , ,space,2500,2.5,5f97ef92e7ba4b02643d156d,001,2021-08-19_16h35.31.633,natb3,2021.2.3,Win32,60.15399423,5f97ef92e7ba4b02643d156d,611e07ecdcc96256ae8d5b80,611e7a2b8905a8420b90e73a,0.5339,
,,,,space,,0,48,48,64,1,N, , , , ,space,2000,2,5f97ef92e7ba4b02643d156d,001,2021-08-19_16h35.31.633,natb3,2021.2.3,Win32,60.15399423,5f97ef92e7ba4b02643d156d,611e07ecdcc96256ae8d5b80,611e7a2b8905a8420b90e73a,0.3841,
,,,,space,,0,49,49,254,1,M, , , , ,space,1500,1.5,5f97ef92e7ba4b02643d156d,001,2021-08-19_16h35.31.633,natb3,2021.2.3,Win32,60.15399423,5f97ef92e7ba4b02643d156d,611e07ecdcc96256ae8d5b80,611e7a2b8905a8420b90e73a,0.4677,
,,,,space,,0,50,50,156,1,P, , , , ,space,1500,1.5,5f97ef92e7ba4b02643d156d,001,2021-08-19_16h35.31.633,natb3,2021.2.3,Win32,60.15399423,5f97ef92e7ba4b02643d156d,611e07ecdcc96256ae8d5b80,611e7a2b8905a8420b90e73a,0.4185,
,,,,space,,0,51,51,46,1,X, , , , ,,2000,2,5f97ef92e7ba4b02643d156d,001,2021-08-19_16h35.31.633,natb3,2021.2.3,Win32,60.15399423,5f97ef92e7ba4b02643d156d,611e07ecdcc96256ae8d5b80,611e7a2b8905a8420b90e73a,0.4174,
,,,,space,,0,52,52,14,1,S, , , , ,space,2500,2.5,5f97ef92e7ba4b02643d156d,001,2021-08-19_16h35.31.633,natb3,2021.2.3,Win32,60.15399423,5f97ef92e7ba4b02643d156d,611e07ecdcc96256ae8d5b80,611e7a2b8905a8420b90e73a,0.5513,
,,,,space,,0,53,53,79,1,P, , , , ,space,2000,2,5f97ef92e7ba4b02643d156d,001,2021-08-19_16h35.31.633,natb3,2021.2.3,Win32,60.15399423,5f97ef92e7ba4b02643d156d,611e07ecdcc96256ae8d5b80,611e7a2b8905a8420b90e73a,0.4839,
,,,,space,,0,54,54,48,1,A, , , , ,space,2500,2.5,5f97ef92e7ba4b02643d156d,001,2021-08-19_16h35.31.633,natb3,2021.2.3,Win32,60.15399423,5f97ef92e7ba4b02643d156d,611e07ecdcc96256ae8d5b80,611e7a2b8905a8420b90e73a,0.434,
,,,,space,,0,55,55,298,1,I, , , , ,space,2000,2,5f97ef92e7ba4b02643d156d,001,2021-08-19_16h35.31.633,natb3,2021.2.3,Win32,60.15399423,5f97ef92e7ba4b02643d156d,611e07ecdcc96256ae8d5b80,611e7a2b8905a8420b90e73a,0.5008,
,,,,space,,0,56,56,178,1,Q, , , , ,space,1500,1.5,5f97ef92e7ba4b02643d156d,001,2021-08-19_16h35.31.633,natb3,2021.2.3,Win32,60.15399423,5f97ef92e7ba4b02643d156d,611e07ecdcc96256ae8d5b80,611e7a2b8905a8420b90e73a,0.5345,
,,,,,,0,57,57,287,1,X, ,2, ,9,,2000,2,5f97ef92e7ba4b02643d156d,001,2021-08-19_16h35.31.633,natb3,2021.2.3,Win32,60.15399423,5f97ef92e7ba4b02643d156d,611e07ecdcc96256ae8d5b80,611e7a2b8905a8420b90e73a,,
,,,,,,0,58,58,27,1,X,5, ,1,3,,1500,1.5,5f97ef92e7ba4b02643d156d,001,2021-08-19_16h35.31.633,natb3,2021.2.3,Win32,60.15399423,5f97ef92e7ba4b02643d156d,611e07ecdcc96256ae8d5b80,611e7a2b8905a8420b90e73a,,
,,,,space,,0,59,59,38,1,R, , , , ,space,2500,2.5,5f97ef92e7ba4b02643d156d,001,2021-08-19_16h35.31.633,natb3,2021.2.3,Win32,60.15399423,5f97ef92e7ba4b02643d156d,611e07ecdcc96256ae8d5b80,611e7a2b8905a8420b90e73a,0.5673,
,,,,space,,0,60,60,264,1,U, , , , ,space,2000,2,5f97ef92e7ba4b02643d156d,001,2021-08-19_16h35.31.633,natb3,2021.2.3,Win32,60.15399423,5f97ef92e7ba4b02643d156d,611e07ecdcc96256ae8d5b80,611e7a2b8905a8420b90e73a,0.5674,
,,,,space,,0,61,61,230,1,U, , , , ,space,1500,1.5,5f97ef92e7ba4b02643d156d,001,2021-08-19_16h35.31.633,natb3,2021.2.3,Win32,60.15399423,5f97ef92e7ba4b02643d156d,611e07ecdcc96256ae8d5b80,611e7a2b8905a8420b90e73a,0.5847,
,,,,space,,0,62,62,253,1,N, , , , ,space,2500,2.5,5f97ef92e7ba4b02643d156d,001,2021-08-19_16h35.31.633,natb3,2021.2.3,Win32,60.15399423,5f97ef92e7ba4b02643d156d,611e07ecdcc96256ae8d5b80,611e7a2b8905a8420b90e73a,0.5341,
,,,,space,,0,63,63,32,1,M, , , , ,space,1500,1.5,5f97ef92e7ba4b02643d156d,001,2021-08-19_16h35.31.633,natb3,2021.2.3,Win32,60.15399423,5f97ef92e7ba4b02643d156d,611e07ecdcc96256ae8d5b80,611e7a2b8905a8420b90e73a,0.3843,
,,,,,,0,64,64,325,1,X, , , , ,,2500,2.5,5f97ef92e7ba4b02643d156d,001,2021-08-19_16h35.31.633,natb3,2021.2.3,Win32,60.15399423,5f97ef92e7ba4b02643d156d,611e07ecdcc96256ae8d5b80,611e7a2b8905a8420b90e73a,,
,,,,space,,0,65,65,199,1,J, , , , ,space,2500,2.5,5f97ef92e7ba4b02643d156d,001,2021-08-19_16h35.31.633,natb3,2021.2.3,Win32,60.15399423,5f97ef92e7ba4b02643d156d,611e07ecdcc96256ae8d5b80,611e7a2b8905a8420b90e73a,0.434,
,,,,space,,0,66,66,151,1,Y, , , , ,space,2500,2.5,5f97ef92e7ba4b02643d156d,001,2021-08-19_16h35.31.633,natb3,2021.2.3,Win32,60.15399423,5f97ef92e7ba4b02643d156d,611e07ecdcc96256ae8d5b80,611e7a2b8905a8420b90e73a,0.5007,
,,,,space,,0,67,67,266,1,O, , , , ,space,1500,1.5,5f97ef92e7ba4b02643d156d,001,2021-08-19_16h35.31.633,natb3,2021.2.3,Win32,60.15399423,5f97ef92e7ba4b02643d156d,611e07ecdcc96256ae8d5b80,611e7a2b8905a8420b90e73a,0.6011,
,,,,space,,0,68,68,139,1,V, , , , ,space,2000,2,5f97ef92e7ba4b02643d156d,001,2021-08-19_16h35.31.633,natb3,2021.2.3,Win32,60.15399423,5f97ef92e7ba4b02643d156d,611e07ecdcc96256ae8d5b80,611e7a2b8905a8420b90e73a,0.4178,
,,,,space,,0,69,69,30,1,N, , , , ,space,2500,2.5,5f97ef92e7ba4b02643d156d,001,2021-08-19_16h35.31.633,natb3,2021.2.3,Win32,60.15399423,5f97ef92e7ba4b02643d156d,611e07ecdcc96256ae8d5b80,611e7a2b8905a8420b90e73a,0.5869,
,,,,space,,0,70,70,164,1,H, , , , ,space,2500,2.5,5f97ef92e7ba4b02643d156d,001,2021-08-19_16h35.31.633,natb3,2021.2.3,Win32,60.15399423,5f97ef92e7ba4b02643d156d,611e07ecdcc96256ae8d5b80,611e7a2b8905a8420b90e73a,0.5019,
,,,,,,0,71,71,69,1,X, , , , ,,1500,1.5,5f97ef92e7ba4b02643d156d,001,2021-08-19_16h35.31.633,natb3,2021.2.3,Win32,60.15399423,5f97ef92e7ba4b02643d156d,611e07ecdcc96256ae8d5b80,611e7a2b8905a8420b90e73a,,
,,,,space,,0,72,72,85,1,F, , , , ,space,2500,2.5,5f97ef92e7ba4b02643d156d,001,2021-08-19_16h35.31.633,natb3,2021.2.3,Win32,60.15399423,5f97ef92e7ba4b02643d156d,611e07ecdcc96256ae8d5b80,611e7a2b8905a8420b90e73a,0.4699,
,,,,space,,0,73,73,294,1,T, , , , ,space,2000,2,5f97ef92e7ba4b02643d156d,001,2021-08-19_16h35.31.633,natb3,2021.2.3,Win32,60.15399423,5f97ef92e7ba4b02643d156d,611e07ecdcc96256ae8d5b80,611e7a2b8905a8420b90e73a,0.5174,
,,,,space,,0,74,74,308,1,G, , , , ,space,1500,1.5,5f97ef92e7ba4b02643d156d,001,2021-08-19_16h35.31.633,natb3,2021.2.3,Win32,60.15399423,5f97ef92e7ba4b02643d156d,611e07ecdcc96256ae8d5b80,611e7a2b8905a8420b90e73a,0.5005,
,,,,space,,0,75,75,0,1,Q, , , , ,space,1500,1.5,5f97ef92e7ba4b02643d156d,001,2021-08-19_16h35.31.633,natb3,2021.2.3,Win32,60.15399423,5f97ef92e7ba4b02643d156d,611e07ecdcc96256ae8d5b80,611e7a2b8905a8420b90e73a,0.384,
,,,,space,,0,76,76,136,1,Z, , , , ,space,2500,2.5,5f97ef92e7ba4b02643d156d,001,2021-08-19_16h35.31.633,natb3,2021.2.3,Win32,60.15399423,5f97ef92e7ba4b02643d156d,611e07ecdcc96256ae8d5b80,611e7a2b8905a8420b90e73a,0.4514,
,,,,space,,0,77,77,17,1,F, , , , ,space,2500,2.5,5f97ef92e7ba4b02643d156d,001,2021-08-19_16h35.31.633,natb3,2021.2.3,Win32,60.15399423,5f97ef92e7ba4b02643d156d,611e07ecdcc96256ae8d5b80,611e7a2b8905a8420b90e73a,0.5175,
,,,,space,,0,78,78,76,1,I, , , , ,space,2000,2,5f97ef92e7ba4b02643d156d,001,2021-08-19_16h35.31.633,natb3,2021.2.3,Win32,60.15399423,5f97ef92e7ba4b02643d156d,611e07ecdcc96256ae8d5b80,611e7a2b8905a8420b90e73a,0.4344,
,,,,space,,0,79,79,24,1,L, , , , ,space,2500,2.5,5f97ef92e7ba4b02643d156d,001,2021-08-19_16h35.31.633,natb3,2021.2.3,Win32,60.15399423,5f97ef92e7ba4b02643d156d,611e07ecdcc96256ae8d5b80,611e7a2b8905a8420b90e73a,0.4008,
,,,,space,,0,80,80,314,1,L, , , , ,space,1500,1.5,5f97ef92e7ba4b02643d156d,001,2021-08-19_16h35.31.633,natb3,2021.2.3,Win32,60.15399423,5f97ef92e7ba4b02643d156d,611e07ecdcc96256ae8d5b80,611e7a2b8905a8420b90e73a,0.3851,
,,,,space,,0,81,81,304,1,S, , , , ,space,2000,2,5f97ef92e7ba4b02643d156d,001,2021-08-19_16h35.31.633,natb3,2021.2.3,Win32,60.15399423,5f97ef92e7ba4b02643d156d,611e07ecdcc96256ae8d5b80,611e7a2b8905a8420b90e73a,0.3673,
,,,,space,,0,82,82,154,1,I, , , , ,space,2500,2.5,5f97ef92e7ba4b02643d156d,001,2021-08-19_16h35.31.633,natb3,2021.2.3,Win32,60.15399423,5f97ef92e7ba4b02643d156d,611e07ecdcc96256ae8d5b80,611e7a2b8905a8420b90e73a,0.3673,
,,,,space,,0,83,83,7,1,X, , , , ,,1500,1.5,5f97ef92e7ba4b02643d156d,001,2021-08-19_16h35.31.633,natb3,2021.2.3,Win32,60.15399423,5f97ef92e7ba4b02643d156d,611e07ecdcc96256ae8d5b80,611e7a2b8905a8420b90e73a,0.101,
,,,,space,,0,84,84,16,1,D, , , , ,space,1500,1.5,5f97ef92e7ba4b02643d156d,001,2021-08-19_16h35.31.633,natb3,2021.2.3,Win32,60.15399423,5f97ef92e7ba4b02643d156d,611e07ecdcc96256ae8d5b80,611e7a2b8905a8420b90e73a,0.6506,
,,,,,,0,85,85,318,1,X, , , , ,,1500,1.5,5f97ef92e7ba4b02643d156d,001,2021-08-19_16h35.31.633,natb3,2021.2.3,Win32,60.15399423,5f97ef92e7ba4b02643d156d,611e07ecdcc96256ae8d5b80,611e7a2b8905a8420b90e73a,,
,,,,space,,0,86,86,146,1,W, , , , ,space,1500,1.5,5f97ef92e7ba4b02643d156d,001,2021-08-19_16h35.31.633,natb3,2021.2.3,Win32,60.15399423,5f97ef92e7ba4b02643d156d,611e07ecdcc96256ae8d5b80,611e7a2b8905a8420b90e73a,0.617,
,,,,space,,0,87,87,28,1,V, , , , ,space,1500,1.5,5f97ef92e7ba4b02643d156d,001,2021-08-19_16h35.31.633,natb3,2021.2.3,Win32,60.15399423,5f97ef92e7ba4b02643d156d,611e07ecdcc96256ae8d5b80,611e7a2b8905a8420b90e73a,0.5176,
,,,,space,,0,88,88,2,1,E, , , , ,space,2500,2.5,5f97ef92e7ba4b02643d156d,001,2021-08-19_16h35.31.633,natb3,2021.2.3,Win32,60.15399423,5f97ef92e7ba4b02643d156d,611e07ecdcc96256ae8d5b80,611e7a2b8905a8420b90e73a,0.6008,
,,,,space,,0,89,89,63,1,B, , , , ,space,2000,2,5f97ef92e7ba4b02643d156d,001,2021-08-19_16h35.31.633,natb3,2021.2.3,Win32,60.15399423,5f97ef92e7ba4b02643d156d,611e07ecdcc96256ae8d5b80,611e7a2b8905a8420b90e73a,0.4342,
,,,,space,,0,90,90,152,1,U, , , , ,space,2000,2,5f97ef92e7ba4b02643d156d,001,2021-08-19_16h35.31.633,natb3,2021.2.3,Win32,60.15399423,5f97ef92e7ba4b02643d156d,611e07ecdcc96256ae8d5b80,611e7a2b8905a8420b90e73a,0.3344,
,,,,,,0,91,91,39,1,X,6,2, , ,,1500,1.5,5f97ef92e7ba4b02643d156d,001,2021-08-19_16h35.31.633,natb3,2021.2.3,Win32,60.15399423,5f97ef92e7ba4b02643d156d,611e07ecdcc96256ae8d5b80,611e7a2b8905a8420b90e73a,,
,,,,space,,0,92,92,80,1,A, , , , ,space,2000,2,5f97ef92e7ba4b02643d156d,001,2021-08-19_16h35.31.633,natb3,2021.2.3,Win32,60.15399423,5f97ef92e7ba4b02643d156d,611e07ecdcc96256ae8d5b80,611e7a2b8905a8420b90e73a,0.934,
,,,,space,,0,93,93,220,1,U, , , , ,space,2500,2.5,5f97ef92e7ba4b02643d156d,001,2021-08-19_16h35.31.633,natb3,2021.2.3,Win32,60.15399423,5f97ef92e7ba4b02643d156d,611e07ecdcc96256ae8d5b80,611e7a2b8905a8420b90e73a,0.4417,
,,,,space,,0,94,94,302,1,X, , , , ,,2000,2,5f97ef92e7ba4b02643d156d,001,2021-08-19_16h35.31.633,natb3,2021.2.3,Win32,60.15399423,5f97ef92e7ba4b02643d156d,611e07ecdcc96256ae8d5b80,611e7a2b8905a8420b90e73a,0.3915,
,,,,space,,0,95,95,275,1,G, , , , ,space,1500,1.5,5f97ef92e7ba4b02643d156d,001,2021-08-19_16h35.31.633,natb3,2021.2.3,Win32,60.15399423,5f97ef92e7ba4b02643d156d,611e07ecdcc96256ae8d5b80,611e7a2b8905a8420b90e73a,0.6919,
,,,,space,,0,96,96,185,1,Y, , , , ,space,2500,2.5,5f97ef92e7ba4b02643d156d,001,2021-08-19_16h35.31.633,natb3,2021.2.3,Win32,60.15399423,5f97ef92e7ba4b02643d156d,611e07ecdcc96256ae8d5b80,611e7a2b8905a8420b90e73a,0.6663,
,,,,space,,0,97,97,104,1,E, , , , ,space,2000,2,5f97ef92e7ba4b02643d156d,001,2021-08-19_16h35.31.633,natb3,2021.2.3,Win32,60.15399423,5f97ef92e7ba4b02643d156d,611e07ecdcc96256ae8d5b80,611e7a2b8905a8420b90e73a,0.7538,
,,,,space,,0,98,98,52,1,F, , , , ,space,1500,1.5,5f97ef92e7ba4b02643d156d,001,2021-08-19_16h35.31.633,natb3,2021.2.3,Win32,60.15399423,5f97ef92e7ba4b02643d156d,611e07ecdcc96256ae8d5b80,611e7a2b8905a8420b90e73a,0.4842,
,,,,space,,0,99,99,147,1,E, , , , ,space,2000,2,5f97ef92e7ba4b02643d156d,001,2021-08-19_16h35.31.633,natb3,2021.2.3,Win32,60.15399423,5f97ef92e7ba4b02643d156d,611e07ecdcc96256ae8d5b80,611e7a2b8905a8420b90e73a,0.4345,
,,,,space,,0,100,100,117,1,T, , , , ,space,2500,2.5,5f97ef92e7ba4b02643d156d,001,2021-08-19_16h35.31.633,natb3,2021.2.3,Win32,60.15399423,5f97ef92e7ba4b02643d156d,611e07ecdcc96256ae8d5b80,611e7a2b8905a8420b90e73a,0.3835,
,,,,space,,0,101,101,181,1,E, , , , ,space,1500,1.5,5f97ef92e7ba4b02643d156d,001,2021-08-19_16h35.31.633,natb3,2021.2.3,Win32,60.15399423,5f97ef92e7ba4b02643d156d,611e07ecdcc96256ae8d5b80,611e7a2b8905a8420b90e73a,0.5008,
,,,,space,,0,102,102,221,1,I, , , , ,space,2500,2.5,5f97ef92e7ba4b02643d156d,001,2021-08-19_16h35.31.633,natb3,2021.2.3,Win32,60.15399423,5f97ef92e7ba4b02643d156d,611e07ecdcc96256ae8d5b80,611e7a2b8905a8420b90e73a,0.434,
,,,,space,,0,103,103,96,1,X, , , , ,,1500,1.5,5f97ef92e7ba4b02643d156d,001,2021-08-19_16h35.31.633,natb3,2021.2.3,Win32,60.15399423,5f97ef92e7ba4b02643d156d,611e07ecdcc96256ae8d5b80,611e7a2b8905a8420b90e73a,0.3198,
,,,,space,,0,104,104,170,1,Z, , , , ,space,2000,2,5f97ef92e7ba4b02643d156d,001,2021-08-19_16h35.31.633,natb3,2021.2.3,Win32,60.15399423,5f97ef92e7ba4b02643d156d,611e07ecdcc96256ae8d5b80,611e7a2b8905a8420b90e73a,0.5346,
,,,,space,,0,105,105,173,1,V, , , , ,space,1500,1.5,5f97ef92e7ba4b02643d156d,001,2021-08-19_16h35.31.633,natb3,2021.2.3,Win32,60.15399423,5f97ef92e7ba4b02643d156d,611e07ecdcc96256ae8d5b80,611e7a2b8905a8420b90e73a,0.6032,
,,,,space,,0,106,106,119,1,Y, , , , ,space,2500,2.5,5f97ef92e7ba4b02643d156d,001,2021-08-19_16h35.31.633,natb3,2021.2.3,Win32,60.15399423,5f97ef92e7ba4b02643d156d,611e07ecdcc96256ae8d5b80,611e7a2b8905a8420b90e73a,0.8012,
,,,,,,0,107,107,12,1,X, , , , ,,1500,1.5,5f97ef92e7ba4b02643d156d,001,2021-08-19_16h35.31.633,natb3,2021.2.3,Win32,60.15399423,5f97ef92e7ba4b02643d156d,611e07ecdcc96256ae8d5b80,611e7a2b8905a8420b90e73a,,
,,,,,,0,108,108,233,1,X, ,2, ,5,,1500,1.5,5f97ef92e7ba4b02643d156d,001,2021-08-19_16h35.31.633,natb3,2021.2.3,Win32,60.15399423,5f97ef92e7ba4b02643d156d,611e07ecdcc96256ae8d5b80,611e7a2b8905a8420b90e73a,,
,,,,,,0,109,109,125,1,X, , , , ,,2000,2,5f97ef92e7ba4b02643d156d,001,2021-08-19_16h35.31.633,natb3,2021.2.3,Win32,60.15399423,5f97ef92e7ba4b02643d156d,611e07ecdcc96256ae8d5b80,611e7a2b8905a8420b90e73a,,
,,,,space,,0,110,110,177,1,M, , , , ,space,2500,2.5,5f97ef92e7ba4b02643d156d,001,2021-08-19_16h35.31.633,natb3,2021.2.3,Win32,60.15399423,5f97ef92e7ba4b02643d156d,611e07ecdcc96256ae8d5b80,611e7a2b8905a8420b90e73a,0.4039,
,,,,space,,0,111,111,265,1,I, , , , ,space,2000,2,5f97ef92e7ba4b02643d156d,001,2021-08-19_16h35.31.633,natb3,2021.2.3,Win32,60.15399423,5f97ef92e7ba4b02643d156d,611e07ecdcc96256ae8d5b80,611e7a2b8905a8420b90e73a,0.5705,
,,,,space,,0,112,112,216,1,R, , , , ,space,1500,1.5,5f97ef92e7ba4b02643d156d,001,2021-08-19_16h35.31.633,natb3,2021.2.3,Win32,60.15399423,5f97ef92e7ba4b02643d156d,611e07ecdcc96256ae8d5b80,611e7a2b8905a8420b90e73a,0.7173,
,,,,space,,0,113,113,244,1,J, , , , ,space,1500,1.5,5f97ef92e7ba4b02643d156d,001,2021-08-19_16h35.31.633,natb3,2021.2.3,Win32,60.15399423,5f97ef92e7ba4b02643d156d,611e07ecdcc96256ae8d5b80,611e7a2b8905a8420b90e73a,0.5677,
,,,,space,,0,114,114,227,1,T, , , , ,space,1500,1.5,5f97ef92e7ba4b02643d156d,001,2021-08-19_16h35.31.633,natb3,2021.2.3,Win32,60.15399423,5f97ef92e7ba4b02643d156d,611e07ecdcc96256ae8d5b80,611e7a2b8905a8420b90e73a,0.4343,
,,,,space,,0,115,115,142,1,N, , , , ,space,2500,2.5,5f97ef92e7ba4b02643d156d,001,2021-08-19_16h35.31.633,natb3,2021.2.3,Win32,60.15399423,5f97ef92e7ba4b02643d156d,611e07ecdcc96256ae8d5b80,611e7a2b8905a8420b90e73a,0.4177,
,,,,space,,0,116,116,228,1,Y, , , , ,space,2000,2,5f97ef92e7ba4b02643d156d,001,2021-08-19_16h35.31.633,natb3,2021.2.3,Win32,60.15399423,5f97ef92e7ba4b02643d156d,611e07ecdcc96256ae8d5b80,611e7a2b8905a8420b90e73a,0.3678,
,,,,,,0,117,117,31,1,X, , , , ,,1500,1.5,5f97ef92e7ba4b02643d156d,001,2021-08-19_16h35.31.633,natb3,2021.2.3,Win32,60.15399423,5f97ef92e7ba4b02643d156d,611e07ecdcc96256ae8d5b80,611e7a2b8905a8420b90e73a,,
,,,,space,,0,118,118,81,1,S, , , , ,space,2000,2,5f97ef92e7ba4b02643d156d,001,2021-08-19_16h35.31.633,natb3,2021.2.3,Win32,60.15399423,5f97ef92e7ba4b02643d156d,611e07ecdcc96256ae8d5b80,611e7a2b8905a8420b90e73a,0.4509,
,,,,space,,0,119,119,56,1,J, , , , ,space,1500,1.5,5f97ef92e7ba4b02643d156d,001,2021-08-19_16h35.31.633,natb3,2021.2.3,Win32,60.15399423,5f97ef92e7ba4b02643d156d,611e07ecdcc96256ae8d5b80,611e7a2b8905a8420b90e73a,0.5689,
,,,,,,0,120,120,116,1,X, , , , ,,2000,2,5f97ef92e7ba4b02643d156d,001,2021-08-19_16h35.31.633,natb3,2021.2.3,Win32,60.15399423,5f97ef92e7ba4b02643d156d,611e07ecdcc96256ae8d5b80,611e7a2b8905a8420b90e73a,,
,,,,,,0,121,121,33,1,X, , , , ,,1500,1.5,5f97ef92e7ba4b02643d156d,001,2021-08-19_16h35.31.633,natb3,2021.2.3,Win32,60.15399423,5f97ef92e7ba4b02643d156d,611e07ecdcc96256ae8d5b80,611e7a2b8905a8420b90e73a,,
,,,,space,,0,122,122,296,1,Y, , , , ,space,2500,2.5,5f97ef92e7ba4b02643d156d,001,2021-08-19_16h35.31.633,natb3,2021.2.3,Win32,60.15399423,5f97ef92e7ba4b02643d156d,611e07ecdcc96256ae8d5b80,611e7a2b8905a8420b90e73a,0.6179,
,,,,space,,0,123,123,44,1,I, , , , ,space,2500,2.5,5f97ef92e7ba4b02643d156d,001,2021-08-19_16h35.31.633,natb3,2021.2.3,Win32,60.15399423,5f97ef92e7ba4b02643d156d,611e07ecdcc96256ae8d5b80,611e7a2b8905a8420b90e73a,0.5675,
,,,,space,,0,124,124,223,1,Q, , , , ,space,2000,2,5f97ef92e7ba4b02643d156d,001,2021-08-19_16h35.31.633,natb3,2021.2.3,Win32,60.15399423,5f97ef92e7ba4b02643d156d,611e07ecdcc96256ae8d5b80,611e7a2b8905a8420b90e73a,0.5173,
,,,,space,,0,125,125,145,1,X, , , , ,,2000,2,5f97ef92e7ba4b02643d156d,001,2021-08-19_16h35.31.633,natb3,2021.2.3,Win32,60.15399423,5f97ef92e7ba4b02643d156d,611e07ecdcc96256ae8d5b80,611e7a2b8905a8420b90e73a,0.6506,
,,,,space,,0,126,126,71,1,R, , , , ,space,2500,2.5,5f97ef92e7ba4b02643d156d,001,2021-08-19_16h35.31.633,natb3,2021.2.3,Win32,60.15399423,5f97ef92e7ba4b02643d156d,611e07ecdcc96256ae8d5b80,611e7a2b8905a8420b90e73a,0.5175,
,,,,space,,0,127,127,300,1,O, , , , ,space,2500,2.5,5f97ef92e7ba4b02643d156d,001,2021-08-19_16h35.31.633,natb3,2021.2.3,Win32,60.15399423,5f97ef92e7ba4b02643d156d,611e07ecdcc96256ae8d5b80,611e7a2b8905a8420b90e73a,0.5508,
,,,,space,,0,128,128,123,1,O, , , , ,space,1500,1.5,5f97ef92e7ba4b02643d156d,001,2021-08-19_16h35.31.633,natb3,2021.2.3,Win32,60.15399423,5f97ef92e7ba4b02643d156d,611e07ecdcc96256ae8d5b80,611e7a2b8905a8420b90e73a,0.6175,
,,,,space,,0,129,129,29,1,B, , , , ,space,1500,1.5,5f97ef92e7ba4b02643d156d,001,2021-08-19_16h35.31.633,natb3,2021.2.3,Win32,60.15399423,5f97ef92e7ba4b02643d156d,611e07ecdcc96256ae8d5b80,611e7a2b8905a8420b90e73a,0.4681,
,,,,space,,0,130,130,276,1,H, , , , ,space,2000,2,5f97ef92e7ba4b02643d156d,001,2021-08-19_16h35.31.633,natb3,2021.2.3,Win32,60.15399423,5f97ef92e7ba4b02643d156d,611e07ecdcc96256ae8d5b80,611e7a2b8905a8420b90e73a,0.4175,
,,,,,,0,131,131,243,1,X, , , , ,,2500,2.5,5f97ef92e7ba4b02643d156d,001,2021-08-19_16h35.31.633,natb3,2021.2.3,Win32,60.15399423,5f97ef92e7ba4b02643d156d,611e07ecdcc96256ae8d5b80,611e7a2b8905a8420b90e73a,,
,,,,space,,0,132,132,169,1,L, , , , ,space,2500,2.5,5f97ef92e7ba4b02643d156d,001,2021-08-19_16h35.31.633,natb3,2021.2.3,Win32,60.15399423,5f97ef92e7ba4b02643d156d,611e07ecdcc96256ae8d5b80,611e7a2b8905a8420b90e73a,0.5173,
,,,,,,0,133,133,141,1,X,1, ,4,6,,1500,1.5,5f97ef92e7ba4b02643d156d,001,2021-08-19_16h35.31.633,natb3,2021.2.3,Win32,60.15399423,5f97ef92e7ba4b02643d156d,611e07ecdcc96256ae8d5b80,611e7a2b8905a8420b90e73a,,
,,,,space,,0,134,134,10,1,O, , , , ,space,2000,2,5f97ef92e7ba4b02643d156d,001,2021-08-19_16h35.31.633,natb3,2021.2.3,Win32,60.15399423,5f97ef92e7ba4b02643d156d,611e07ecdcc96256ae8d5b80,611e7a2b8905a8420b90e73a,0.5671,
,,,,,,0,135,135,214,1,W, , , , ,space,2000,2,5f97ef92e7ba4b02643d156d,001,2021-08-19_16h35.31.633,natb3,2021.2.3,Win32,60.15399423,5f97ef92e7ba4b02643d156d,611e07ecdcc96256ae8d5b80,611e7a2b8905a8420b90e73a,,
,,,,space,,0,136,136,37,1,E, , , , ,space,2500,2.5,5f97ef92e7ba4b02643d156d,001,2021-08-19_16h35.31.633,natb3,2021.2.3,Win32,60.15399423,5f97ef92e7ba4b02643d156d,611e07ecdcc96256ae8d5b80,611e7a2b8905a8420b90e73a,0.6842,
,,,,space,,0,137,137,303,1,A, , , , ,space,2000,2,5f97ef92e7ba4b02643d156d,001,2021-08-19_16h35.31.633,natb3,2021.2.3,Win32,60.15399423,5f97ef92e7ba4b02643d156d,611e07ecdcc96256ae8d5b80,611e7a2b8905a8420b90e73a,0.7503,
,,,,space,,0,138,138,68,1,W, , , , ,space,2500,2.5,5f97ef92e7ba4b02643d156d,001,2021-08-19_16h35.31.633,natb3,2021.2.3,Win32,60.15399423,5f97ef92e7ba4b02643d156d,611e07ecdcc96256ae8d5b80,611e7a2b8905a8420b90e73a,0.7165,
,,,,,,0,139,139,192,1,A, , , , ,space,2000,2,5f97ef92e7ba4b02643d156d,001,2021-08-19_16h35.31.633,natb3,2021.2.3,Win32,60.15399423,5f97ef92e7ba4b02643d156d,611e07ecdcc96256ae8d5b80,611e7a2b8905a8420b90e73a,,
,,,,,,0,140,140,98,1,X, , , , ,,2500,2.5,5f97ef92e7ba4b02643d156d,001,2021-08-19_16h35.31.633,natb3,2021.2.3,Win32,60.15399423,5f97ef92e7ba4b02643d156d,611e07ecdcc96256ae8d5b80,611e7a2b8905a8420b90e73a,,
,,,,,,0,141,141,329,1,X,3,4, ,2,,2500,2.5,5f97ef92e7ba4b02643d156d,001,2021-08-19_16h35.31.633,natb3,2021.2.3,Win32,60.15399423,5f97ef92e7ba4b02643d156d,611e07ecdcc96256ae8d5b80,611e7a2b8905a8420b90e73a,,
,,,,space,,0,142,142,144,1,Q, , , , ,space,2500,2.5,5f97ef92e7ba4b02643d156d,001,2021-08-19_16h35.31.633,natb3,2021.2.3,Win32,60.15399423,5f97ef92e7ba4b02643d156d,611e07ecdcc96256ae8d5b80,611e7a2b8905a8420b90e73a,0.5195,
,,,,space,,0,143,143,208,1,B, , , , ,space,1500,1.5,5f97ef92e7ba4b02643d156d,001,2021-08-19_16h35.31.633,natb3,2021.2.3,Win32,60.15399423,5f97ef92e7ba4b02643d156d,611e07ecdcc96256ae8d5b80,611e7a2b8905a8420b90e73a,0.5345,
,,,,space,,0,144,144,245,1,K, , , , ,space,2000,2,5f97ef92e7ba4b02643d156d,001,2021-08-19_16h35.31.633,natb3,2021.2.3,Win32,60.15399423,5f97ef92e7ba4b02643d156d,611e07ecdcc96256ae8d5b80,611e7a2b8905a8420b90e73a,0.4027,
,,,,space,,0,145,145,47,1,P, , , , ,space,2000,2,5f97ef92e7ba4b02643d156d,001,2021-08-19_16h35.31.633,natb3,2021.2.3,Win32,60.15399423,5f97ef92e7ba4b02643d156d,611e07ecdcc96256ae8d5b80,611e7a2b8905a8420b90e73a,0.4342,
,,,,,,0,146,146,102,1,X, ,6, , ,,1500,1.5,5f97ef92e7ba4b02643d156d,001,2021-08-19_16h35.31.633,natb3,2021.2.3,Win32,60.15399423,5f97ef92e7ba4b02643d156d,611e07ecdcc96256ae8d5b80,611e7a2b8905a8420b90e73a,,
,,,,space,,0,147,147,155,1,O, , , , ,space,1500,1.5,5f97ef92e7ba4b02643d156d,001,2021-08-19_16h35.31.633,natb3,2021.2.3,Win32,60.15399423,5f97ef92e7ba4b02643d156d,611e07ecdcc96256ae8d5b80,611e7a2b8905a8420b90e73a,0.5674,
,,,,,,0,148,148,78,1,X, , , , ,,2000,2,5f97ef92e7ba4b02643d156d,001,2021-08-19_16h35.31.633,natb3,2021.2.3,Win32,60.15399423,5f97ef92e7ba4b02643d156d,611e07ecdcc96256ae8d5b80,611e7a2b8905a8420b90e73a,,
,,,,,,0,149,149,232,1,O, , , , ,space,2500,2.5,5f97ef92e7ba4b02643d156d,001,2021-08-19_16h35.31.633,natb3,2021.2.3,Win32,60.15399423,5f97ef92e7ba4b02643d156d,611e07ecdcc96256ae8d5b80,611e7a2b8905a8420b90e73a,,
,,,,,,0,150,150,153,1,X,4,7, ,6,,2000,2,5f97ef92e7ba4b02643d156d,001,2021-08-19_16h35.31.633,natb3,2021.2.3,Win32,60.15399423,5f97ef92e7ba4b02643d156d,611e07ecdcc96256ae8d5b80,611e7a2b8905a8420b90e73a,,
,,,,,,0,151,151,40,1,T, , , , ,space,1500,1.5,5f97ef92e7ba4b02643d156d,001,2021-08-19_16h35.31.633,natb3,2021.2.3,Win32,60.15399423,5f97ef92e7ba4b02643d156d,611e07ecdcc96256ae8d5b80,611e7a2b8905a8420b90e73a,,
,,,,,,0,152,152,9,1,I, , , , ,space,1500,1.5,5f97ef92e7ba4b02643d156d,001,2021-08-19_16h35.31.633,natb3,2021.2.3,Win32,60.15399423,5f97ef92e7ba4b02643d156d,611e07ecdcc96256ae8d5b80,611e7a2b8905a8420b90e73a,,
,,,,,,0,153,153,237,1,S, , , , ,space,1500,1.5,5f97ef92e7ba4b02643d156d,001,2021-08-19_16h35.31.633,natb3,2021.2.3,Win32,60.15399423,5f97ef92e7ba4b02643d156d,611e07ecdcc96256ae8d5b80,611e7a2b8905a8420b90e73a,,
,,,,,,0,154,154,334,1,O, , , , ,space,1500,1.5,5f97ef92e7ba4b02643d156d,001,2021-08-19_16h35.31.633,natb3,2021.2.3,Win32,60.15399423,5f97ef92e7ba4b02643d156d,611e07ecdcc96256ae8d5b80,611e7a2b8905a8420b90e73a,,
,,,,,,0,155,155,280,1,L, , , , ,space,1500,1.5,5f97ef92e7ba4b02643d156d,001,2021-08-19_16h35.31.633,natb3,2021.2.3,Win32,60.15399423,5f97ef92e7ba4b02643d156d,611e07ecdcc96256ae8d5b80,611e7a2b8905a8420b90e73a,,
,,,,,,0,156,156,231,1,I, , , , ,space,2500,2.5,5f97ef92e7ba4b02643d156d,001,2021-08-19_16h35.31.633,natb3,2021.2.3,Win32,60.15399423,5f97ef92e7ba4b02643d156d,611e07ecdcc96256ae8d5b80,611e7a2b8905a8420b90e73a,,
,,,,,,0,157,157,269,1,A, , , , ,space,2500,2.5,5f97ef92e7ba4b02643d156d,001,2021-08-19_16h35.31.633,natb3,2021.2.3,Win32,60.15399423,5f97ef92e7ba4b02643d156d,611e07ecdcc96256ae8d5b80,611e7a2b8905a8420b90e73a,,
,,,,,,0,158,158,150,1,T, , , , ,space,2500,2.5,5f97ef92e7ba4b02643d156d,001,2021-08-19_16h35.31.633,natb3,2021.2.3,Win32,60.15399423,5f97ef92e7ba4b02643d156d,611e07ecdcc96256ae8d5b80,611e7a2b8905a8420b90e73a,,
,,,,,,0,159,159,19,1,G, , , , ,space,1500,1.5,5f97ef92e7ba4b02643d156d,001,2021-08-19_16h35.31.633,natb3,2021.2.3,Win32,60.15399423,5f97ef92e7ba4b02643d156d,611e07ecdcc96256ae8d5b80,611e7a2b8905a8420b90e73a,,
,,,,,,0,160,160,157,1,A, , , , ,space,2500,2.5,5f97ef92e7ba4b02643d156d,001,2021-08-19_16h35.31.633,natb3,2021.2.3,Win32,60.15399423,5f97ef92e7ba4b02643d156d,611e07ecdcc96256ae8d5b80,611e7a2b8905a8420b90e73a,,
,,,,,,0,161,161,323,1,M, , , , ,space,2500,2.5,5f97ef92e7ba4b02643d156d,001,2021-08-19_16h35.31.633,natb3,2021.2.3,Win32,60.15399423,5f97ef92e7ba4b02643d156d,611e07ecdcc96256ae8d5b80,611e7a2b8905a8420b90e73a,,
,,,,,,0,162,162,3,1,R, , , , ,space,2000,2,5f97ef92e7ba4b02643d156d,001,2021-08-19_16h35.31.633,natb3,2021.2.3,Win32,60.15399423,5f97ef92e7ba4b02643d156d,611e07ecdcc96256ae8d5b80,611e7a2b8905a8420b90e73a,,
,,,,,,0,163,163,283,1,C, , , , ,space,1500,1.5,5f97ef92e7ba4b02643d156d,001,2021-08-19_16h35.31.633,natb3,2021.2.3,Win32,60.15399423,5f97ef92e7ba4b02643d156d,611e07ecdcc96256ae8d5b80,611e7a2b8905a8420b90e73a,,
,,,,,,0,164,164,204,1,Z, , , , ,space,2000,2,5f97ef92e7ba4b02643d156d,001,2021-08-19_16h35.31.633,natb3,2021.2.3,Win32,60.15399423,5f97ef92e7ba4b02643d156d,611e07ecdcc96256ae8d5b80,611e7a2b8905a8420b90e73a,,
,,,,,,0,165,165,67,1,Q, , , , ,space,2000,2,5f97ef92e7ba4b02643d156d,001,2021-08-19_16h35.31.633,natb3,2021.2.3,Win32,60.15399423,5f97ef92e7ba4b02643d156d,611e07ecdcc96256ae8d5b80,611e7a2b8905a8420b90e73a,,
,,,,,,0,166,166,183,1,R, , , , ,space,1500,1.5,5f97ef92e7ba4b02643d156d,001,2021-08-19_16h35.31.633,natb3,2021.2.3,Win32,60.15399423,5f97ef92e7ba4b02643d156d,611e07ecdcc96256ae8d5b80,611e7a2b8905a8420b90e73a,,
,,,,,space,0,167,167,168,1,X, , , , ,,2500,2.5,5f97ef92e7ba4b02643d156d,001,2021-08-19_16h35.31.633,natb3,2021.2.3,Win32,60.15399423,5f97ef92e7ba4b02643d156d,611e07ecdcc96256ae8d5b80,611e7a2b8905a8420b90e73a,,1304.2434
,,,,space,,0,168,168,206,1,V, , , , ,space,2000,2,5f97ef92e7ba4b02643d156d,001,2021-08-19_16h35.31.633,natb3,2021.2.3,Win32,60.15399423,5f97ef92e7ba4b02643d156d,611e07ecdcc96256ae8d5b80,611e7a2b8905a8420b90e73a,0.5172,
,,,,space,,0,169,169,235,1,A, , , , ,space,1500,1.5,5f97ef92e7ba4b02643d156d,001,2021-08-19_16h35.31.633,natb3,2021.2.3,Win32,60.15399423,5f97ef92e7ba4b02643d156d,611e07ecdcc96256ae8d5b80,611e7a2b8905a8420b90e73a,0.5509,
,,,,,,0,170,170,236,1,X,3, ,4,7,,2500,2.5,5f97ef92e7ba4b02643d156d,001,2021-08-19_16h35.31.633,natb3,2021.2.3,Win32,60.15399423,5f97ef92e7ba4b02643d156d,611e07ecdcc96256ae8d5b80,611e7a2b8905a8420b90e73a,,
,,,,space,,0,171,171,41,1,Y, , , , ,space,2500,2.5,5f97ef92e7ba4b02643d156d,001,2021-08-19_16h35.31.633,natb3,2021.2.3,Win32,60.15399423,5f97ef92e7ba4b02643d156d,611e07ecdcc96256ae8d5b80,611e7a2b8905a8420b90e73a,0.6676,
,,,,space,,0,172,172,103,1,W, , , , ,space,2000,2,5f97ef92e7ba4b02643d156d,001,2021-08-19_16h35.31.633,natb3,2021.2.3,Win32,60.15399423,5f97ef92e7ba4b02643d156d,611e07ecdcc96256ae8d5b80,611e7a2b8905a8420b90e73a,0.5365,
,,,,space,,0,173,173,270,1,S, , , , ,space,1500,1.5,5f97ef92e7ba4b02643d156d,001,2021-08-19_16h35.31.633,natb3,2021.2.3,Win32,60.15399423,5f97ef92e7ba4b02643d156d,611e07ecdcc96256ae8d5b80,611e7a2b8905a8420b90e73a,0.4674,
,,,,space,,0,174,174,250,1,V, , , , ,space,2000,2,5f97ef92e7ba4b02643d156d,001,2021-08-19_16h35.31.633,natb3,2021.2.3,Win32,60.15399423,5f97ef92e7ba4b02643d156d,611e07ecdcc96256ae8d5b80,611e7a2b8905a8420b90e73a,0.4359,
,,,,space,,0,175,175,45,1,O, , , , ,space,2000,2,5f97ef92e7ba4b02643d156d,001,2021-08-19_16h35.31.633,natb3,2021.2.3,Win32,60.15399423,5f97ef92e7ba4b02643d156d,611e07ecdcc96256ae8d5b80,611e7a2b8905a8420b90e73a,0.4672,
,,,,space,,0,176,176,95,1,V, , , , ,space,1500,1.5,5f97ef92e7ba4b02643d156d,001,2021-08-19_16h35.31.633,natb3,2021.2.3,Win32,60.15399423,5f97ef92e7ba4b02643d156d,611e07ecdcc96256ae8d5b80,611e7a2b8905a8420b90e73a,0.4344,
,,,,space,,0,177,177,109,1,U, , , , ,space,1500,1.5,5f97ef92e7ba4b02643d156d,001,2021-08-19_16h35.31.633,natb3,2021.2.3,Win32,60.15399423,5f97ef92e7ba4b02643d156d,611e07ecdcc96256ae8d5b80,611e7a2b8905a8420b90e73a,0.4174,
,,,,space,,0,178,178,172,1,C, , , , ,space,1500,1.5,5f97ef92e7ba4b02643d156d,001,2021-08-19_16h35.31.633,natb3,2021.2.3,Win32,60.15399423,5f97ef92e7ba4b02643d156d,611e07ecdcc96256ae8d5b80,611e7a2b8905a8420b90e73a,0.4175,
,,,,space,,0,179,179,293,1,R, , , , ,space,2500,2.5,5f97ef92e7ba4b02643d156d,001,2021-08-19_16h35.31.633,natb3,2021.2.3,Win32,60.15399423,5f97ef92e7ba4b02643d156d,611e07ecdcc96256ae8d5b80,611e7a2b8905a8420b90e73a,0.4675,
,,,,space,,0,180,180,97,1,B, , , , ,space,2500,2.5,5f97ef92e7ba4b02643d156d,001,2021-08-19_16h35.31.633,natb3,2021.2.3,Win32,60.15399423,5f97ef92e7ba4b02643d156d,611e07ecdcc96256ae8d5b80,611e7a2b8905a8420b90e73a,0.3836,
,,,,space,,0,181,181,138,1,X,8,5, ,3,,2000,2,5f97ef92e7ba4b02643d156d,001,2021-08-19_16h35.31.633,natb3,2021.2.3,Win32,60.15399423,5f97ef92e7ba4b02643d156d,611e07ecdcc96256ae8d5b80,611e7a2b8905a8420b90e73a,0.4257,
,,,,space,,0,182,182,226,1,R, , , , ,space,2000,2,5f97ef92e7ba4b02643d156d,001,2021-08-19_16h35.31.633,natb3,2021.2.3,Win32,60.15399423,5f97ef92e7ba4b02643d156d,611e07ecdcc96256ae8d5b80,611e7a2b8905a8420b90e73a,0.5013,
,,,,space,,0,183,183,307,1,F, , , , ,space,2500,2.5,5f97ef92e7ba4b02643d156d,001,2021-08-19_16h35.31.633,natb3,2021.2.3,Win32,60.15399423,5f97ef92e7ba4b02643d156d,611e07ecdcc96256ae8d5b80,611e7a2b8905a8420b90e73a,0.4664,
,,,,,,0,184,184,203,1,X, , , , ,,2500,2.5,5f97ef92e7ba4b02643d156d,001,2021-08-19_16h35.31.633,natb3,2021.2.3,Win32,60.15399423,5f97ef92e7ba4b02643d156d,611e07ecdcc96256ae8d5b80,611e7a2b8905a8420b90e73a,,
,,,,,,0,185,185,239,1,X, , , , ,,2000,2,5f97ef92e7ba4b02643d156d,001,2021-08-19_16h35.31.633,natb3,2021.2.3,Win32,60.15399423,5f97ef92e7ba4b02643d156d,611e07ecdcc96256ae8d5b80,611e7a2b8905a8420b90e73a,,
,,,,,,0,186,186,93,1,X,5, ,7, ,,2500,2.5,5f97ef92e7ba4b02643d156d,001,2021-08-19_16h35.31.633,natb3,2021.2.3,Win32,60.15399423,5f97ef92e7ba4b02643d156d,611e07ecdcc96256ae8d5b80,611e7a2b8905a8420b90e73a,,
,,,,space,,0,187,187,289,1,Q, , , , ,space,2000,2,5f97ef92e7ba4b02643d156d,001,2021-08-19_16h35.31.633,natb3,2021.2.3,Win32,60.15399423,5f97ef92e7ba4b02643d156d,611e07ecdcc96256ae8d5b80,611e7a2b8905a8420b90e73a,0.6675,
,,,,,,0,188,188,295,1,X,8,7,5, ,,2500,2.5,5f97ef92e7ba4b02643d156d,001,2021-08-19_16h35.31.633,natb3,2021.2.3,Win32,60.15399423,5f97ef92e7ba4b02643d156d,611e07ecdcc96256ae8d5b80,611e7a2b8905a8420b90e73a,,
,,,,,,0,189,189,191,1,X,1, ,3,4,,2500,2.5,5f97ef92e7ba4b02643d156d,001,2021-08-19_16h35.31.633,natb3,2021.2.3,Win32,60.15399423,5f97ef92e7ba4b02643d156d,611e07ecdcc96256ae8d5b80,611e7a2b8905a8420b90e73a,,
,,,,space,,0,190,190,114,1,E, , , , ,space,2000,2,5f97ef92e7ba4b02643d156d,001,2021-08-19_16h35.31.633,natb3,2021.2.3,Win32,60.15399423,5f97ef92e7ba4b02643d156d,611e07ecdcc96256ae8d5b80,611e7a2b8905a8420b90e73a,0.6339,
,,,,,,0,191,191,54,1,X, , , , ,,2000,2,5f97ef92e7ba4b02643d156d,001,2021-08-19_16h35.31.633,natb3,2021.2.3,Win32,60.15399423,5f97ef92e7ba4b02643d156d,611e07ecdcc96256ae8d5b80,611e7a2b8905a8420b90e73a,,
,,,,,,0,192,192,313,1,X, , , , ,,2500,2.5,5f97ef92e7ba4b02643d156d,001,2021-08-19_16h35.31.633,natb3,2021.2.3,Win32,60.15399423,5f97ef92e7ba4b02643d156d,611e07ecdcc96256ae8d5b80,611e7a2b8905a8420b90e73a,,
,,,,,,0,193,193,316,1,Z, , , , ,space,1500,1.5,5f97ef92e7ba4b02643d156d,001,2021-08-19_16h35.31.633,natb3,2021.2.3,Win32,60.15399423,5f97ef92e7ba4b02643d156d,611e07ecdcc96256ae8d5b80,611e7a2b8905a8420b90e73a,,
,,,,space,,0,194,194,58,1,L, , , , ,space,2000,2,5f97ef92e7ba4b02643d156d,001,2021-08-19_16h35.31.633,natb3,2021.2.3,Win32,60.15399423,5f97ef92e7ba4b02643d156d,611e07ecdcc96256ae8d5b80,611e7a2b8905a8420b90e73a,0.5343,
,,,,,,0,195,195,175,1,X,7, ,4,2,,1500,1.5,5f97ef92e7ba4b02643d156d,001,2021-08-19_16h35.31.633,natb3,2021.2.3,Win32,60.15399423,5f97ef92e7ba4b02643d156d,611e07ecdcc96256ae8d5b80,611e7a2b8905a8420b90e73a,,
,,,,space,,0,196,196,190,1,P, , , , ,space,2000,2,5f97ef92e7ba4b02643d156d,001,2021-08-19_16h35.31.633,natb3,2021.2.3,Win32,60.15399423,5f97ef92e7ba4b02643d156d,611e07ecdcc96256ae8d5b80,611e7a2b8905a8420b90e73a,0.5174,
,,,,space,,0,197,197,53,1,G, , , , ,space,2500,2.5,5f97ef92e7ba4b02643d156d,001,2021-08-19_16h35.31.633,natb3,2021.2.3,Win32,60.15399423,5f97ef92e7ba4b02643d156d,611e07ecdcc96256ae8d5b80,611e7a2b8905a8420b90e73a,0.7342,
,,,,space,,0,198,198,21,1,J, , , , ,space,1500,1.5,5f97ef92e7ba4b02643d156d,001,2021-08-19_16h35.31.633,natb3,2021.2.3,Win32,60.15399423,5f97ef92e7ba4b02643d156d,611e07ecdcc96256ae8d5b80,611e7a2b8905a8420b90e73a,0.4676,
,,,,space,,0,199,199,196,1,F, , , , ,space,1500,1.5,5f97ef92e7ba4b02643d156d,001,2021-08-19_16h35.31.633,natb3,2021.2.3,Win32,60.15399423,5f97ef92e7ba4b02643d156d,611e07ecdcc96256ae8d5b80,611e7a2b8905a8420b90e73a,0.5019,
,,,,,,0,200,200,60,1,X,7,3,5, ,,1500,1.5,5f97ef92e7ba4b02643d156d,001,2021-08-19_16h35.31.633,natb3,2021.2.3,Win32,60.15399423,5f97ef92e7ba4b02643d156d,611e07ecdcc96256ae8d5b80,611e7a2b8905a8420b90e73a,,
,,,,space,,0,201,201,36,1,W, , , , ,space,2000,2,5f97ef92e7ba4b02643d156d,001,2021-08-19_16h35.31.633,natb3,2021.2.3,Win32,60.15399423,5f97ef92e7ba4b02643d156d,611e07ecdcc96256ae8d5b80,611e7a2b8905a8420b90e73a,0.5692,
,,,,,,0,202,202,148,1,X, , , , ,,2000,2,5f97ef92e7ba4b02643d156d,001,2021-08-19_16h35.31.633,natb3,2021.2.3,Win32,60.15399423,5f97ef92e7ba4b02643d156d,611e07ecdcc96256ae8d5b80,611e7a2b8905a8420b90e73a,,
,,,,space,,0,203,203,126,1,A, , , , ,space,2500,2.5,5f97ef92e7ba4b02643d156d,001,2021-08-19_16h35.31.633,natb3,2021.2.3,Win32,60.15399423,5f97ef92e7ba4b02643d156d,611e07ecdcc96256ae8d5b80,611e7a2b8905a8420b90e73a,0.5026,
,,,,space,,0,204,204,198,1,H, , , , ,space,2500,2.5,5f97ef92e7ba4b02643d156d,001,2021-08-19_16h35.31.633,natb3,2021.2.3,Win32,60.15399423,5f97ef92e7ba4b02643d156d,611e07ecdcc96256ae8d5b80,611e7a2b8905a8420b90e73a,0.5674,
,,,,space,,0,205,205,132,1,H, , , , ,space,2500,2.5,5f97ef92e7ba4b02643d156d,001,2021-08-19_16h35.31.633,natb3,2021.2.3,Win32,60.15399423,5f97ef92e7ba4b02643d156d,611e07ecdcc96256ae8d5b80,611e7a2b8905a8420b90e73a,0.4712,
,,,,,,0,206,206,84,1,X, , , , ,,2000,2,5f97ef92e7ba4b02643d156d,001,2021-08-19_16h35.31.633,natb3,2021.2.3,Win32,60.15399423,5f97ef92e7ba4b02643d156d,611e07ecdcc96256ae8d5b80,611e7a2b8905a8420b90e73a,,
,,,,space,,0,207,207,127,1,S, , , , ,space,2500,2.5,5f97ef92e7ba4b02643d156d,001,2021-08-19_16h35.31.633,natb3,2021.2.3,Win32,60.15399423,5f97ef92e7ba4b02643d156d,611e07ecdcc96256ae8d5b80,611e7a2b8905a8420b90e73a,0.4342,
,,,,space,,0,208,208,217,1,T, , , , ,space,2500,2.5,5f97ef92e7ba4b02643d156d,001,2021-08-19_16h35.31.633,natb3,2021.2.3,Win32,60.15399423,5f97ef92e7ba4b02643d156d,611e07ecdcc96256ae8d5b80,611e7a2b8905a8420b90e73a,0.4511,
,,,,space,,0,209,209,5,1,T, , , , ,space,2000,2,5f97ef92e7ba4b02643d156d,001,2021-08-19_16h35.31.633,natb3,2021.2.3,Win32,60.15399423,5f97ef92e7ba4b02643d156d,611e07ecdcc96256ae8d5b80,611e7a2b8905a8420b90e73a,0.3844,
,,,,space,,0,210,210,310,1,J, , , , ,space,2500,2.5,5f97ef92e7ba4b02643d156d,001,2021-08-19_16h35.31.633,natb3,2021.2.3,Win32,60.15399423,5f97ef92e7ba4b02643d156d,611e07ecdcc96256ae8d5b80,611e7a2b8905a8420b90e73a,0.4673,
,,,,,,0,211,211,322,1,X, , ,1,6,,2000,2,5f97ef92e7ba4b02643d156d,001,2021-08-19_16h35.31.633,natb3,2021.2.3,Win32,60.15399423,5f97ef92e7ba4b02643d156d,611e07ecdcc96256ae8d5b80,611e7a2b8905a8420b90e73a,,
,,,,,,0,212,212,315,1,X, , , , ,,2500,2.5,5f97ef92e7ba4b02643d156d,001,2021-08-19_16h35.31.633,natb3,2021.2.3,Win32,60.15399423,5f97ef92e7ba4b02643d156d,611e07ecdcc96256ae8d5b80,611e7a2b8905a8420b90e73a,,
,,,,space,,0,213,213,317,1,C, , , , ,space,2000,2,5f97ef92e7ba4b02643d156d,001,2021-08-19_16h35.31.633,natb3,2021.2.3,Win32,60.15399423,5f97ef92e7ba4b02643d156d,611e07ecdcc96256ae8d5b80,611e7a2b8905a8420b90e73a,0.5678,
,,,,space,,0,214,214,105,1,R, , , , ,space,2500,2.5,5f97ef92e7ba4b02643d156d,001,2021-08-19_16h35.31.633,natb3,2021.2.3,Win32,60.15399423,5f97ef92e7ba4b02643d156d,611e07ecdcc96256ae8d5b80,611e7a2b8905a8420b90e73a,0.5339,
,,,,space,,0,215,215,184,1,T, , , , ,space,2000,2,5f97ef92e7ba4b02643d156d,001,2021-08-19_16h35.31.633,natb3,2021.2.3,Win32,60.15399423,5f97ef92e7ba4b02643d156d,611e07ecdcc96256ae8d5b80,611e7a2b8905a8420b90e73a,0.4677,
,,,,space,,0,216,216,174,1,B, , , , ,space,2500,2.5,5f97ef92e7ba4b02643d156d,001,2021-08-19_16h35.31.633,natb3,2021.2.3,Win32,60.15399423,5f97ef92e7ba4b02643d156d,611e07ecdcc96256ae8d5b80,611e7a2b8905a8420b90e73a,0.4045,
,,,,space,,0,217,217,247,1,Z, , , , ,space,1500,1.5,5f97ef92e7ba4b02643d156d,001,2021-08-19_16h35.31.633,natb3,2021.2.3,Win32,60.15399423,5f97ef92e7ba4b02643d156d,611e07ecdcc96256ae8d5b80,611e7a2b8905a8420b90e73a,0.6673,
,,,,space,,0,218,218,278,1,J, , , , ,space,2000,2,5f97ef92e7ba4b02643d156d,001,2021-08-19_16h35.31.633,natb3,2021.2.3,Win32,60.15399423,5f97ef92e7ba4b02643d156d,611e07ecdcc96256ae8d5b80,611e7a2b8905a8420b90e73a,0.3672,
,,,,space,,0,219,219,108,1,Y, , , , ,space,2500,2.5,5f97ef92e7ba4b02643d156d,001,2021-08-19_16h35.31.633,natb3,2021.2.3,Win32,60.15399423,5f97ef92e7ba4b02643d156d,611e07ecdcc96256ae8d5b80,611e7a2b8905a8420b90e73a,0.4008,
,,,,space,,0,220,220,75,1,U, , , , ,space,1500,1.5,5f97ef92e7ba4b02643d156d,001,2021-08-19_16h35.31.633,natb3,2021.2.3,Win32,60.15399423,5f97ef92e7ba4b02643d156d,611e07ecdcc96256ae8d5b80,611e7a2b8905a8420b90e73a,0.4201,
,,,,space,,0,221,221,297,1,U, , , , ,space,2000,2,5f97ef92e7ba4b02643d156d,001,2021-08-19_16h35.31.633,natb3,2021.2.3,Win32,60.15399423,5f97ef92e7ba4b02643d156d,611e07ecdcc96256ae8d5b80,611e7a2b8905a8420b90e73a,0.4009,
,,,,space,,0,222,222,143,1,M, , , , ,space,2500,2.5,5f97ef92e7ba4b02643d156d,001,2021-08-19_16h35.31.633,natb3,2021.2.3,Win32,60.15399423,5f97ef92e7ba4b02643d156d,611e07ecdcc96256ae8d5b80,611e7a2b8905a8420b90e73a,0.4173,
,,,,space,,0,223,223,55,1,H, , , , ,space,2500,2.5,5f97ef92e7ba4b02643d156d,001,2021-08-19_16h35.31.633,natb3,2021.2.3,Win32,60.15399423,5f97ef92e7ba4b02643d156d,611e07ecdcc96256ae8d5b80,611e7a2b8905a8420b90e73a,0.4175,
,,,,space,,0,224,224,305,1,X, , , , ,,1500,1.5,5f97ef92e7ba4b02643d156d,001,2021-08-19_16h35.31.633,natb3,2021.2.3,Win32,60.15399423,5f97ef92e7ba4b02643d156d,611e07ecdcc96256ae8d5b80,611e7a2b8905a8420b90e73a,0.3673,
,,,,space,,0,225,225,209,1,N, , , , ,space,2000,2,5f97ef92e7ba4b02643d156d,001,2021-08-19_16h35.31.633,natb3,2021.2.3,Win32,60.15399423,5f97ef92e7ba4b02643d156d,611e07ecdcc96256ae8d5b80,611e7a2b8905a8420b90e73a,0.451,
,,,,space,,0,226,226,182,1,X, , , , ,,1500,1.5,5f97ef92e7ba4b02643d156d,001,2021-08-19_16h35.31.633,natb3,2021.2.3,Win32,60.15399423,5f97ef92e7ba4b02643d156d,611e07ecdcc96256ae8d5b80,611e7a2b8905a8420b90e73a,0.3857,
,,,,,,0,227,227,299,1,X, , , , ,,2500,2.5,5f97ef92e7ba4b02643d156d,001,2021-08-19_16h35.31.633,natb3,2021.2.3,Win32,60.15399423,5f97ef92e7ba4b02643d156d,611e07ecdcc96256ae8d5b80,611e7a2b8905a8420b90e73a,,
,,,,space,,0,228,228,279,1,K, , , , ,space,2500,2.5,5f97ef92e7ba4b02643d156d,001,2021-08-19_16h35.31.633,natb3,2021.2.3,Win32,60.15399423,5f97ef92e7ba4b02643d156d,611e07ecdcc96256ae8d5b80,611e7a2b8905a8420b90e73a,0.4183,
,,,,space,,0,229,229,165,1,J, , , , ,space,2500,2.5,5f97ef92e7ba4b02643d156d,001,2021-08-19_16h35.31.633,natb3,2021.2.3,Win32,60.15399423,5f97ef92e7ba4b02643d156d,611e07ecdcc96256ae8d5b80,611e7a2b8905a8420b90e73a,0.3845,
,,,,space,,0,230,230,163,1,G, , , , ,space,2500,2.5,5f97ef92e7ba4b02643d156d,001,2021-08-19_16h35.31.633,natb3,2021.2.3,Win32,60.15399423,5f97ef92e7ba4b02643d156d,611e07ecdcc96256ae8d5b80,611e7a2b8905a8420b90e73a,0.5508,
,,,,space,,0,231,231,128,1,D, , , , ,space,2500,2.5,5f97ef92e7ba4b02643d156d,001,2021-08-19_16h35.31.633,natb3,2021.2.3,Win32,60.15399423,5f97ef92e7ba4b02643d156d,611e07ecdcc96256ae8d5b80,611e7a2b8905a8420b90e73a,0.4003,
,,,,space,,0,232,232,112,1,Q, , , , ,space,2500,2.5,5f97ef92e7ba4b02643d156d,001,2021-08-19_16h35.31.633,natb3,2021.2.3,Win32,60.15399423,5f97ef92e7ba4b02643d156d,611e07ecdcc96256ae8d5b80,611e7a2b8905a8420b90e73a,0.4677,
,,,,space,,0,233,233,42,1,U, , , , ,space,1500,1.5,5f97ef92e7ba4b02643d156d,001,2021-08-19_16h35.31.633,natb3,2021.2.3,Win32,60.15399423,5f97ef92e7ba4b02643d156d,611e07ecdcc96256ae8d5b80,611e7a2b8905a8420b90e73a,0.5342,
,,,,space,,0,234,234,11,1,P, , , , ,space,2500,2.5,5f97ef92e7ba4b02643d156d,001,2021-08-19_16h35.31.633,natb3,2021.2.3,Win32,60.15399423,5f97ef92e7ba4b02643d156d,611e07ecdcc96256ae8d5b80,611e7a2b8905a8420b90e73a,0.5007,
,,,,,,0,235,235,158,1,X, , , , ,,1500,1.5,5f97ef92e7ba4b02643d156d,001,2021-08-19_16h35.31.633,natb3,2021.2.3,Win32,60.15399423,5f97ef92e7ba4b02643d156d,611e07ecdcc96256ae8d5b80,611e7a2b8905a8420b90e73a,,
,,,,space,,0,236,236,210,1,M, , , , ,space,1500,1.5,5f97ef92e7ba4b02643d156d,001,2021-08-19_16h35.31.633,natb3,2021.2.3,Win32,60.15399423,5f97ef92e7ba4b02643d156d,611e07ecdcc96256ae8d5b80,611e7a2b8905a8420b90e73a,0.834,
,,,,space,,0,237,237,256,1,Q, , , , ,space,2000,2,5f97ef92e7ba4b02643d156d,001,2021-08-19_16h35.31.633,natb3,2021.2.3,Win32,60.15399423,5f97ef92e7ba4b02643d156d,611e07ecdcc96256ae8d5b80,611e7a2b8905a8420b90e73a,0.5852,
,,,,space,,0,238,238,284,1,V, , , , ,space,2500,2.5,5f97ef92e7ba4b02643d156d,001,2021-08-19_16h35.31.633,natb3,2021.2.3,Win32,60.15399423,5f97ef92e7ba4b02643d156d,611e07ecdcc96256ae8d5b80,611e7a2b8905a8420b90e73a,0.8006,
,,,,space,,0,239,239,188,1,I, , , , ,space,2500,2.5,5f97ef92e7ba4b02643d156d,001,2021-08-19_16h35.31.633,natb3,2021.2.3,Win32,60.15399423,5f97ef92e7ba4b02643d156d,611e07ecdcc96256ae8d5b80,611e7a2b8905a8420b90e73a,0.6037,
,,,,space,,0,240,240,212,1,Q, , , , ,space,2500,2.5,5f97ef92e7ba4b02643d156d,001,2021-08-19_16h35.31.633,natb3,2021.2.3,Win32,60.15399423,5f97ef92e7ba4b02643d156d,611e07ecdcc96256ae8d5b80,611e7a2b8905a8420b90e73a,0.4005,
,,,,space,,0,241,241,8,1,U, , , , ,space,1500,1.5,5f97ef92e7ba4b02643d156d,001,2021-08-19_16h35.31.633,natb3,2021.2.3,Win32,60.15399423,5f97ef92e7ba4b02643d156d,611e07ecdcc96256ae8d5b80,611e7a2b8905a8420b90e73a,0.4351,
,,,,space,,0,242,242,331,1,Y, , , , ,space,2500,2.5,5f97ef92e7ba4b02643d156d,001,2021-08-19_16h35.31.633,natb3,2021.2.3,Win32,60.15399423,5f97ef92e7ba4b02643d156d,611e07ecdcc96256ae8d5b80,611e7a2b8905a8420b90e73a,0.4087,
,,,,space,,0,243,243,65,1,M, , , , ,space,1500,1.5,5f97ef92e7ba4b02643d156d,001,2021-08-19_16h35.31.633,natb3,2021.2.3,Win32,60.15399423,5f97ef92e7ba4b02643d156d,611e07ecdcc96256ae8d5b80,611e7a2b8905a8420b90e73a,0.5188,
,,,,space,,0,244,244,167,1,K, , , , ,space,1500,1.5,5f97ef92e7ba4b02643d156d,001,2021-08-19_16h35.31.633,natb3,2021.2.3,Win32,60.15399423,5f97ef92e7ba4b02643d156d,611e07ecdcc96256ae8d5b80,611e7a2b8905a8420b90e73a,0.6594,
,,,,,,0,245,245,195,1,X, , , , ,,1500,1.5,5f97ef92e7ba4b02643d156d,001,2021-08-19_16h35.31.633,natb3,2021.2.3,Win32,60.15399423,5f97ef92e7ba4b02643d156d,611e07ecdcc96256ae8d5b80,611e7a2b8905a8420b90e73a,,
,,,,space,,0,246,246,124,1,P, , , , ,space,2000,2,5f97ef92e7ba4b02643d156d,001,2021-08-19_16h35.31.633,natb3,2021.2.3,Win32,60.15399423,5f97ef92e7ba4b02643d156d,611e07ecdcc96256ae8d5b80,611e7a2b8905a8420b90e73a,0.4767,
,,,,space,,0,247,247,161,1,F, , , , ,space,1500,1.5,5f97ef92e7ba4b02643d156d,001,2021-08-19_16h35.31.633,natb3,2021.2.3,Win32,60.15399423,5f97ef92e7ba4b02643d156d,611e07ecdcc96256ae8d5b80,611e7a2b8905a8420b90e73a,0.5152,
,,,,space,,0,248,248,215,1,E, , , , ,space,2500,2.5,5f97ef92e7ba4b02643d156d,001,2021-08-19_16h35.31.633,natb3,2021.2.3,Win32,60.15399423,5f97ef92e7ba4b02643d156d,611e07ecdcc96256ae8d5b80,611e7a2b8905a8420b90e73a,0.4753,
,,,,space,,0,249,249,285,1,B, , , , ,space,1500,1.5,5f97ef92e7ba4b02643d156d,001,2021-08-19_16h35.31.633,natb3,2021.2.3,Win32,60.15399423,5f97ef92e7ba4b02643d156d,611e07ecdcc96256ae8d5b80,611e7a2b8905a8420b90e73a,0.5341,
,,,,space,,0,250,250,251,1,B, , , , ,space,1500,1.5,5f97ef92e7ba4b02643d156d,001,2021-08-19_16h35.31.633,natb3,2021.2.3,Win32,60.15399423,5f97ef92e7ba4b02643d156d,611e07ecdcc96256ae8d5b80,611e7a2b8905a8420b90e73a,0.4512,
,,,,space,,0,251,251,246,1,L, , , , ,space,2500,2.5,5f97ef92e7ba4b02643d156d,001,2021-08-19_16h35.31.633,natb3,2021.2.3,Win32,60.15399423,5f97ef92e7ba4b02643d156d,611e07ecdcc96256ae8d5b80,611e7a2b8905a8420b90e73a,0.5522,
,,,,space,,0,252,252,202,1,L, , , , ,space,2500,2.5,5f97ef92e7ba4b02643d156d,001,2021-08-19_16h35.31.633,natb3,2021.2.3,Win32,60.15399423,5f97ef92e7ba4b02643d156d,611e07ecdcc96256ae8d5b80,611e7a2b8905a8420b90e73a,0.3871,
,,,,,,0,253,253,43,1,X, ,6, ,2,,2500,2.5,5f97ef92e7ba4b02643d156d,001,2021-08-19_16h35.31.633,natb3,2021.2.3,Win32,60.15399423,5f97ef92e7ba4b02643d156d,611e07ecdcc96256ae8d5b80,611e7a2b8905a8420b90e73a,,
,,,,space,,0,254,254,321,1,N, , , , ,space,2000,2,5f97ef92e7ba4b02643d156d,001,2021-08-19_16h35.31.633,natb3,2021.2.3,Win32,60.15399423,5f97ef92e7ba4b02643d156d,611e07ecdcc96256ae8d5b80,611e7a2b8905a8420b90e73a,0.5673,
,,,,space,,0,255,255,219,1,Y, , , , ,space,2000,2,5f97ef92e7ba4b02643d156d,001,2021-08-19_16h35.31.633,natb3,2021.2.3,Win32,60.15399423,5f97ef92e7ba4b02643d156d,611e07ecdcc96256ae8d5b80,611e7a2b8905a8420b90e73a,0.5678,
,,,,,,0,256,256,200,1,X,7, ,5,3,,1500,1.5,5f97ef92e7ba4b02643d156d,001,2021-08-19_16h35.31.633,natb3,2021.2.3,Win32,60.15399423,5f97ef92e7ba4b02643d156d,611e07ecdcc96256ae8d5b80,611e7a2b8905a8420b90e73a,,
,,,,space,,0,257,257,13,1,A, , , , ,space,2000,2,5f97ef92e7ba4b02643d156d,001,2021-08-19_16h35.31.633,natb3,2021.2.3,Win32,60.15399423,5f97ef92e7ba4b02643d156d,611e07ecdcc96256ae8d5b80,611e7a2b8905a8420b90e73a,0.4173,
,,,,space,,0,258,258,286,1,N, , , , ,space,1500,1.5,5f97ef92e7ba4b02643d156d,001,2021-08-19_16h35.31.633,natb3,2021.2.3,Win32,60.15399423,5f97ef92e7ba4b02643d156d,611e07ecdcc96256ae8d5b80,611e7a2b8905a8420b90e73a,0.5344,
,,,,,,0,259,259,162,1,X,1,6, ,2,,1500,1.5,5f97ef92e7ba4b02643d156d,001,2021-08-19_16h35.31.633,natb3,2021.2.3,Win32,60.15399423,5f97ef92e7ba4b02643d156d,611e07ecdcc96256ae8d5b80,611e7a2b8905a8420b90e73a,,
,,,,,,0,260,260,252,1,X,3, ,6,9,,2000,2,5f97ef92e7ba4b02643d156d,001,2021-08-19_16h35.31.633,natb3,2021.2.3,Win32,60.15399423,5f97ef92e7ba4b02643d156d,611e07ecdcc96256ae8d5b80,611e7a2b8905a8420b90e73a,,
,,,,space,,0,261,261,186,1,U, , , , ,space,2500,2.5,5f97ef92e7ba4b02643d156d,001,2021-08-19_16h35.31.633,natb3,2021.2.3,Win32,60.15399423,5f97ef92e7ba4b02643d156d,611e07ecdcc96256ae8d5b80,611e7a2b8905a8420b90e73a,0.5669,
,,,,space,,0,262,262,99,1,N, , , , ,space,2500,2.5,5f97ef92e7ba4b02643d156d,001,2021-08-19_16h35.31.633,natb3,2021.2.3,Win32,60.15399423,5f97ef92e7ba4b02643d156d,611e07ecdcc96256ae8d5b80,611e7a2b8905a8420b90e73a,0.5343,
,,,,space,,0,263,263,292,1,E, , , , ,space,2000,2,5f97ef92e7ba4b02643d156d,001,2021-08-19_16h35.31.633,natb3,2021.2.3,Win32,60.15399423,5f97ef92e7ba4b02643d156d,611e07ecdcc96256ae8d5b80,611e7a2b8905a8420b90e73a,0.5671,
,,,,space,,0,264,264,57,1,K, , , , ,space,2500,2.5,5f97ef92e7ba4b02643d156d,001,2021-08-19_16h35.31.633,natb3,2021.2.3,Win32,60.15399423,5f97ef92e7ba4b02643d156d,611e07ecdcc96256ae8d5b80,611e7a2b8905a8420b90e73a,0.6174,
,,,,,,0,265,265,277,1,X,8,5, ,2,,2000,2,5f97ef92e7ba4b02643d156d,001,2021-08-19_16h35.31.633,natb3,2021.2.3,Win32,60.15399423,5f97ef92e7ba4b02643d156d,611e07ecdcc96256ae8d5b80,611e7a2b8905a8420b90e73a,,
,,,,space,,0,266,266,140,1,B, , , , ,space,2500,2.5,5f97ef92e7ba4b02643d156d,001,2021-08-19_16h35.31.633,natb3,2021.2.3,Win32,60.15399423,5f97ef92e7ba4b02643d156d,611e07ecdcc96256ae8d5b80,611e7a2b8905a8420b90e73a,0.4504,
,,,,space,,0,267,267,100,1,M, , , , ,space,2000,2,5f97ef92e7ba4b02643d156d,001,2021-08-19_16h35.31.633,natb3,2021.2.3,Win32,60.15399423,5f97ef92e7ba4b02643d156d,611e07ecdcc96256ae8d5b80,611e7a2b8905a8420b90e73a,0.6678,
,,,,space,,0,268,268,160,1,D, , , , ,space,1500,1.5,5f97ef92e7ba4b02643d156d,001,2021-08-19_16h35.31.633,natb3,2021.2.3,Win32,60.15399423,5f97ef92e7ba4b02643d156d,611e07ecdcc96256ae8d5b80,611e7a2b8905a8420b90e73a,0.4676,
,,,,space,,0,269,269,271,1,X, , , , ,,2500,2.5,5f97ef92e7ba4b02643d156d,001,2021-08-19_16h35.31.633,natb3,2021.2.3,Win32,60.15399423,5f97ef92e7ba4b02643d156d,611e07ecdcc96256ae8d5b80,611e7a2b8905a8420b90e73a,0.4006,
,,,,space,,0,270,270,121,1,I, , , , ,space,2000,2,5f97ef92e7ba4b02643d156d,001,2021-08-19_16h35.31.633,natb3,2021.2.3,Win32,60.15399423,5f97ef92e7ba4b02643d156d,611e07ecdcc96256ae8d5b80,611e7a2b8905a8420b90e73a,0.5367,
,,,,space,,0,271,271,306,1,D, , , , ,space,2000,2,5f97ef92e7ba4b02643d156d,001,2021-08-19_16h35.31.633,natb3,2021.2.3,Win32,60.15399423,5f97ef92e7ba4b02643d156d,611e07ecdcc96256ae8d5b80,611e7a2b8905a8420b90e73a,0.5345,
,,,,space,,0,272,272,242,1,H, , , , ,space,2500,2.5,5f97ef92e7ba4b02643d156d,001,2021-08-19_16h35.31.633,natb3,2021.2.3,Win32,60.15399423,5f97ef92e7ba4b02643d156d,611e07ecdcc96256ae8d5b80,611e7a2b8905a8420b90e73a,0.567,
,,,,space,,0,273,273,106,1,T, , , , ,space,1500,1.5,5f97ef92e7ba4b02643d156d,001,2021-08-19_16h35.31.633,natb3,2021.2.3,Win32,60.15399423,5f97ef92e7ba4b02643d156d,611e07ecdcc96256ae8d5b80,611e7a2b8905a8420b90e73a,0.6509,
,,,,space,,0,274,274,328,1,R, , , , ,space,1500,1.5,5f97ef92e7ba4b02643d156d,001,2021-08-19_16h35.31.633,natb3,2021.2.3,Win32,60.15399423,5f97ef92e7ba4b02643d156d,611e07ecdcc96256ae8d5b80,611e7a2b8905a8420b90e73a,0.4342,
,,,,space,,0,275,275,62,1,V, , , , ,space,1500,1.5,5f97ef92e7ba4b02643d156d,001,2021-08-19_16h35.31.633,natb3,2021.2.3,Win32,60.15399423,5f97ef92e7ba4b02643d156d,611e07ecdcc96256ae8d5b80,611e7a2b8905a8420b90e73a,0.5507,
,,,,space,,0,276,276,83,1,D, , , , ,space,2000,2,5f97ef92e7ba4b02643d156d,001,2021-08-19_16h35.31.633,natb3,2021.2.3,Win32,60.15399423,5f97ef92e7ba4b02643d156d,611e07ecdcc96256ae8d5b80,611e7a2b8905a8420b90e73a,0.4674,
,,,,,,0,277,277,268,1,X,6, ,3, ,,2500,2.5,5f97ef92e7ba4b02643d156d,001,2021-08-19_16h35.31.633,natb3,2021.2.3,Win32,60.15399423,5f97ef92e7ba4b02643d156d,611e07ecdcc96256ae8d5b80,611e7a2b8905a8420b90e73a,,
,,,,space,,0,278,278,258,1,E, , , , ,space,1500,1.5,5f97ef92e7ba4b02643d156d,001,2021-08-19_16h35.31.633,natb3,2021.2.3,Win32,60.15399423,5f97ef92e7ba4b02643d156d,611e07ecdcc96256ae8d5b80,611e7a2b8905a8420b90e73a,0.4674,
,,,,space,,0,279,279,189,1,O, , , , ,space,1500,1.5,5f97ef92e7ba4b02643d156d,001,2021-08-19_16h35.31.633,natb3,2021.2.3,Win32,60.15399423,5f97ef92e7ba4b02643d156d,611e07ecdcc96256ae8d5b80,611e7a2b8905a8420b90e73a,0.501,
,,,,space,,0,280,280,180,1,W, , , , ,space,2000,2,5f97ef92e7ba4b02643d156d,001,2021-08-19_16h35.31.633,natb3,2021.2.3,Win32,60.15399423,5f97ef92e7ba4b02643d156d,611e07ecdcc96256ae8d5b80,611e7a2b8905a8420b90e73a,0.6505,
,,,,space,,0,281,281,113,1,W, , , , ,space,2500,2.5,5f97ef92e7ba4b02643d156d,001,2021-08-19_16h35.31.633,natb3,2021.2.3,Win32,60.15399423,5f97ef92e7ba4b02643d156d,611e07ecdcc96256ae8d5b80,611e7a2b8905a8420b90e73a,0.4341,
,,,,space,,0,282,282,110,1,I, , , , ,space,1500,1.5,5f97ef92e7ba4b02643d156d,001,2021-08-19_16h35.31.633,natb3,2021.2.3,Win32,60.15399423,5f97ef92e7ba4b02643d156d,611e07ecdcc96256ae8d5b80,611e7a2b8905a8420b90e73a,0.551,
,,,,,,0,283,283,51,1,X,7,5,8, ,,1500,1.5,5f97ef92e7ba4b02643d156d,001,2021-08-19_16h35.31.633,natb3,2021.2.3,Win32,60.15399423,5f97ef92e7ba4b02643d156d,611e07ecdcc96256ae8d5b80,611e7a2b8905a8420b90e73a,,
,,,,space,,0,284,284,260,1,R, , , , ,space,2000,2,5f97ef92e7ba4b02643d156d,001,2021-08-19_16h35.31.633,natb3,2021.2.3,Win32,60.15399423,5f97ef92e7ba4b02643d156d,611e07ecdcc96256ae8d5b80,611e7a2b8905a8420b90e73a,0.5002,
,,,,space,,0,285,285,257,1,W, , , , ,space,2000,2,5f97ef92e7ba4b02643d156d,001,2021-08-19_16h35.31.633,natb3,2021.2.3,Win32,60.15399423,5f97ef92e7ba4b02643d156d,611e07ecdcc96256ae8d5b80,611e7a2b8905a8420b90e73a,0.6671,
,,,,space,,0,286,286,324,1,Q, , , , ,space,2000,2,5f97ef92e7ba4b02643d156d,001,2021-08-19_16h35.31.633,natb3,2021.2.3,Win32,60.15399423,5f97ef92e7ba4b02643d156d,611e07ecdcc96256ae8d5b80,611e7a2b8905a8420b90e73a,0.5507,
,,,,space,,0,287,287,267,1,P, , , , ,space,2000,2,5f97ef92e7ba4b02643d156d,001,2021-08-19_16h35.31.633,natb3,2021.2.3,Win32,60.15399423,5f97ef92e7ba4b02643d156d,611e07ecdcc96256ae8d5b80,611e7a2b8905a8420b90e73a,0.5676,
,,,,,,0,288,288,291,1,X, , , , ,,2000,2,5f97ef92e7ba4b02643d156d,001,2021-08-19_16h35.31.633,natb3,2021.2.3,Win32,60.15399423,5f97ef92e7ba4b02643d156d,611e07ecdcc96256ae8d5b80,611e7a2b8905a8420b90e73a,,
,,,,space,,0,289,289,73,1,Y, , , , ,space,2000,2,5f97ef92e7ba4b02643d156d,001,2021-08-19_16h35.31.633,natb3,2021.2.3,Win32,60.15399423,5f97ef92e7ba4b02643d156d,611e07ecdcc96256ae8d5b80,611e7a2b8905a8420b90e73a,0.5339,
,,,,space,,0,290,290,240,1,F, , , , ,space,2500,2.5,5f97ef92e7ba4b02643d156d,001,2021-08-19_16h35.31.633,natb3,2021.2.3,Win32,60.15399423,5f97ef92e7ba4b02643d156d,611e07ecdcc96256ae8d5b80,611e7a2b8905a8420b90e73a,0.4345,
,,,,space,,0,291,291,26,1,C, , , , ,space,2000,2,5f97ef92e7ba4b02643d156d,001,2021-08-19_16h35.31.633,natb3,2021.2.3,Win32,60.15399423,5f97ef92e7ba4b02643d156d,611e07ecdcc96256ae8d5b80,611e7a2b8905a8420b90e73a,0.4675,
,,,,,,0,292,292,311,1,X,1,2,7,3,,2500,2.5,5f97ef92e7ba4b02643d156d,001,2021-08-19_16h35.31.633,natb3,2021.2.3,Win32,60.15399423,5f97ef92e7ba4b02643d156d,611e07ecdcc96256ae8d5b80,611e7a2b8905a8420b90e73a,,
,,,,,,0,293,293,229,1,X,8, ,2,6,,2500,2.5,5f97ef92e7ba4b02643d156d,001,2021-08-19_16h35.31.633,natb3,2021.2.3,Win32,60.15399423,5f97ef92e7ba4b02643d156d,611e07ecdcc96256ae8d5b80,611e7a2b8905a8420b90e73a,,
,,,,space,,0,294,294,193,1,S, , , , ,space,2500,2.5,5f97ef92e7ba4b02643d156d,001,2021-08-19_16h35.31.633,natb3,2021.2.3,Win32,60.15399423,5f97ef92e7ba4b02643d156d,611e07ecdcc96256ae8d5b80,611e7a2b8905a8420b90e73a,0.4839,
,,,,space,,0,295,295,86,1,G, , , , ,space,2000,2,5f97ef92e7ba4b02643d156d,001,2021-08-19_16h35.31.633,natb3,2021.2.3,Win32,60.15399423,5f97ef92e7ba4b02643d156d,611e07ecdcc96256ae8d5b80,611e7a2b8905a8420b90e73a,0.5842,
,,,,,,0,296,296,129,1,X,2,3,5, ,,1500,1.5,5f97ef92e7ba4b02643d156d,001,2021-08-19_16h35.31.633,natb3,2021.2.3,Win32,60.15399423,5f97ef92e7ba4b02643d156d,611e07ecdcc96256ae8d5b80,611e7a2b8905a8420b90e73a,,
,,,,space,,0,297,297,25,1,Z, , , , ,space,2500,2.5,5f97ef92e7ba4b02643d156d,001,2021-08-19_16h35.31.633,natb3,2021.2.3,Win32,60.15399423,5f97ef92e7ba4b02643d156d,611e07ecdcc96256ae8d5b80,611e7a2b8905a8420b90e73a,0.5508,
,,,,space,,0,298,298,20,1,H, , , , ,space,1500,1.5,5f97ef92e7ba4b02643d156d,001,2021-08-19_16h35.31.633,natb3,2021.2.3,Win32,60.15399423,5f97ef92e7ba4b02643d156d,611e07ecdcc96256ae8d5b80,611e7a2b8905a8420b90e73a,0.717,
,,,,space,,0,299,299,241,1,G, , , , ,space,2500,2.5,5f97ef92e7ba4b02643d156d,001,2021-08-19_16h35.31.633,natb3,2021.2.3,Win32,60.15399423,5f97ef92e7ba4b02643d156d,611e07ecdcc96256ae8d5b80,611e7a2b8905a8420b90e73a,0.4675,
,,,,space,,0,300,300,111,1,O, , , , ,space,2000,2,5f97ef92e7ba4b02643d156d,001,2021-08-19_16h35.31.633,natb3,2021.2.3,Win32,60.15399423,5f97ef92e7ba4b02643d156d,611e07ecdcc96256ae8d5b80,611e7a2b8905a8420b90e73a,0.484,
,,,,space,,0,301,301,61,1,C, , , , ,space,2000,2,5f97ef92e7ba4b02643d156d,001,2021-08-19_16h35.31.633,natb3,2021.2.3,Win32,60.15399423,5f97ef92e7ba4b02643d156d,611e07ecdcc96256ae8d5b80,611e7a2b8905a8420b90e73a,0.5021,
,,,,space,,0,302,302,282,1,X, , , , ,,2500,2.5,5f97ef92e7ba4b02643d156d,001,2021-08-19_16h35.31.633,natb3,2021.2.3,Win32,60.15399423,5f97ef92e7ba4b02643d156d,611e07ecdcc96256ae8d5b80,611e7a2b8905a8420b90e73a,0.4339,
,,,,space,,0,303,303,50,1,D, , , , ,space,1500,1.5,5f97ef92e7ba4b02643d156d,001,2021-08-19_16h35.31.633,natb3,2021.2.3,Win32,60.15399423,5f97ef92e7ba4b02643d156d,611e07ecdcc96256ae8d5b80,611e7a2b8905a8420b90e73a,0.4857,
,,,,space,,0,304,304,92,1,Z, , , , ,space,1500,1.5,5f97ef92e7ba4b02643d156d,001,2021-08-19_16h35.31.633,natb3,2021.2.3,Win32,60.15399423,5f97ef92e7ba4b02643d156d,611e07ecdcc96256ae8d5b80,611e7a2b8905a8420b90e73a,0.4041,
,,,,space,,0,305,305,135,1,K, , , , ,space,1500,1.5,5f97ef92e7ba4b02643d156d,001,2021-08-19_16h35.31.633,natb3,2021.2.3,Win32,60.15399423,5f97ef92e7ba4b02643d156d,611e07ecdcc96256ae8d5b80,611e7a2b8905a8420b90e73a,0.4839,
,,,,,,0,306,306,259,1,X,8, , ,3,,2500,2.5,5f97ef92e7ba4b02643d156d,001,2021-08-19_16h35.31.633,natb3,2021.2.3,Win32,60.15399423,5f97ef92e7ba4b02643d156d,611e07ecdcc96256ae8d5b80,611e7a2b8905a8420b90e73a,,
,,,,space,,0,307,307,120,1,U, , , , ,space,1500,1.5,5f97ef92e7ba4b02643d156d,001,2021-08-19_16h35.31.633,natb3,2021.2.3,Win32,60.15399423,5f97ef92e7ba4b02643d156d,611e07ecdcc96256ae8d5b80,611e7a2b8905a8420b90e73a,0.4843,
,,,,space,,0,308,308,288,1,M, , , , ,space,1500,1.5,5f97ef92e7ba4b02643d156d,001,2021-08-19_16h35.31.633,natb3,2021.2.3,Win32,60.15399423,5f97ef92e7ba4b02643d156d,611e07ecdcc96256ae8d5b80,611e7a2b8905a8420b90e73a,0.5676,
,,,,,,0,309,309,213,1,X, , , , ,,2500,2.5,5f97ef92e7ba4b02643d156d,001,2021-08-19_16h35.31.633,natb3,2021.2.3,Win32,60.15399423,5f97ef92e7ba4b02643d156d,611e07ecdcc96256ae8d5b80,611e7a2b8905a8420b90e73a,,
,,,,space,,0,310,310,194,1,D, , , , ,space,2000,2,5f97ef92e7ba4b02643d156d,001,2021-08-19_16h35.31.633,natb3,2021.2.3,Win32,60.15399423,5f97ef92e7ba4b02643d156d,611e07ecdcc96256ae8d5b80,611e7a2b8905a8420b90e73a,0.3699,
,,,,space,,0,311,311,224,1,W, , , , ,space,1500,1.5,5f97ef92e7ba4b02643d156d,001,2021-08-19_16h35.31.633,natb3,2021.2.3,Win32,60.15399423,5f97ef92e7ba4b02643d156d,611e07ecdcc96256ae8d5b80,611e7a2b8905a8420b90e73a,0.868,
,,,,space,,0,312,312,94,1,C, , , , ,space,2000,2,5f97ef92e7ba4b02643d156d,001,2021-08-19_16h35.31.633,natb3,2021.2.3,Win32,60.15399423,5f97ef92e7ba4b02643d156d,611e07ecdcc96256ae8d5b80,611e7a2b8905a8420b90e73a,0.4518,
,,,,,,0,313,313,171,1,X, , , , ,,1500,1.5,5f97ef92e7ba4b02643d156d,001,2021-08-19_16h35.31.633,natb3,2021.2.3,Win32,60.15399423,5f97ef92e7ba4b02643d156d,611e07ecdcc96256ae8d5b80,611e7a2b8905a8420b90e73a,,
,,,,,,0,314,314,166,1,X, , , , ,,2000,2,5f97ef92e7ba4b02643d156d,001,2021-08-19_16h35.31.633,natb3,2021.2.3,Win32,60.15399423,5f97ef92e7ba4b02643d156d,611e07ecdcc96256ae8d5b80,611e7a2b8905a8420b90e73a,,
,,,,space,,0,315,315,234,1,P, , , , ,space,2000,2,5f97ef92e7ba4b02643d156d,001,2021-08-19_16h35.31.633,natb3,2021.2.3,Win32,60.15399423,5f97ef92e7ba4b02643d156d,611e07ecdcc96256ae8d5b80,611e7a2b8905a8420b90e73a,0.4341,
,,,,,,0,316,316,4,1,X, , , , ,,2000,2,5f97ef92e7ba4b02643d156d,001,2021-08-19_16h35.31.633,natb3,2021.2.3,Win32,60.15399423,5f97ef92e7ba4b02643d156d,611e07ecdcc96256ae8d5b80,611e7a2b8905a8420b90e73a,,
,,,,space,,0,317,317,290,1,W, , , , ,space,1500,1.5,5f97ef92e7ba4b02643d156d,001,2021-08-19_16h35.31.633,natb3,2021.2.3,Win32,60.15399423,5f97ef92e7ba4b02643d156d,611e07ecdcc96256ae8d5b80,611e7a2b8905a8420b90e73a,0.4705,
,,,,,,0,318,318,273,1,X, , , , ,,2000,2,5f97ef92e7ba4b02643d156d,001,2021-08-19_16h35.31.633,natb3,2021.2.3,Win32,60.15399423,5f97ef92e7ba4b02643d156d,611e07ecdcc96256ae8d5b80,611e7a2b8905a8420b90e73a,,
,,,,space,,0,319,319,90,1,K, , , , ,space,2000,2,5f97ef92e7ba4b02643d156d,001,2021-08-19_16h35.31.633,natb3,2021.2.3,Win32,60.15399423,5f97ef92e7ba4b02643d156d,611e07ecdcc96256ae8d5b80,611e7a2b8905a8420b90e73a,0.4842,
,,,,space,,0,320,320,88,1,J, , , , ,space,2500,2.5,5f97ef92e7ba4b02643d156d,001,2021-08-19_16h35.31.633,natb3,2021.2.3,Win32,60.15399423,5f97ef92e7ba4b02643d156d,611e07ecdcc96256ae8d5b80,611e7a2b8905a8420b90e73a,0.5174,
,,,,,,0,321,321,18,1,X, ,2,5,8,,2500,2.5,5f97ef92e7ba4b02643d156d,001,2021-08-19_16h35.31.633,natb3,2021.2.3,Win32,60.15399423,5f97ef92e7ba4b02643d156d,611e07ecdcc96256ae8d5b80,611e7a2b8905a8420b90e73a,,
,,,,space,,0,322,322,327,1,E, , , , ,space,1500,1.5,5f97ef92e7ba4b02643d156d,001,2021-08-19_16h35.31.633,natb3,2021.2.3,Win32,60.15399423,5f97ef92e7ba4b02643d156d,611e07ecdcc96256ae8d5b80,611e7a2b8905a8420b90e73a,0.4505,
,,,,space,,0,323,323,159,1,S, , , , ,space,2500,2.5,5f97ef92e7ba4b02643d156d,001,2021-08-19_16h35.31.633,natb3,2021.2.3,Win32,60.15399423,5f97ef92e7ba4b02643d156d,611e07ecdcc96256ae8d5b80,611e7a2b8905a8420b90e73a,0.5008,
,,,,space,,0,324,324,34,1,Q, , , , ,space,2500,2.5,5f97ef92e7ba4b02643d156d,001,2021-08-19_16h35.31.633,natb3,2021.2.3,Win32,60.15399423,5f97ef92e7ba4b02643d156d,611e07ecdcc96256ae8d5b80,611e7a2b8905a8420b90e73a,0.4371,
,,,,space,,0,325,325,320,1,B, , , , ,space,1500,1.5,5f97ef92e7ba4b02643d156d,001,2021-08-19_16h35.31.633,natb3,2021.2.3,Win32,60.15399423,5f97ef92e7ba4b02643d156d,611e07ecdcc96256ae8d5b80,611e7a2b8905a8420b90e73a,0.4675,
,,,,space,,0,326,326,131,1,G, , , , ,space,1500,1.5,5f97ef92e7ba4b02643d156d,001,2021-08-19_16h35.31.633,natb3,2021.2.3,Win32,60.15399423,5f97ef92e7ba4b02643d156d,611e07ecdcc96256ae8d5b80,611e7a2b8905a8420b90e73a,0.4342,
,,,,space,,0,327,327,272,1,D, , , , ,space,2000,2,5f97ef92e7ba4b02643d156d,001,2021-08-19_16h35.31.633,natb3,2021.2.3,Win32,60.15399423,5f97ef92e7ba4b02643d156d,611e07ecdcc96256ae8d5b80,611e7a2b8905a8420b90e73a,0.4353,
,,,,space,,0,328,328,49,1,S, , , , ,space,1500,1.5,5f97ef92e7ba4b02643d156d,001,2021-08-19_16h35.31.633,natb3,2021.2.3,Win32,60.15399423,5f97ef92e7ba4b02643d156d,611e07ecdcc96256ae8d5b80,611e7a2b8905a8420b90e73a,0.4507,
,,,,space,,0,329,329,197,1,G, , , , ,space,2500,2.5,5f97ef92e7ba4b02643d156d,001,2021-08-19_16h35.31.633,natb3,2021.2.3,Win32,60.15399423,5f97ef92e7ba4b02643d156d,611e07ecdcc96256ae8d5b80,611e7a2b8905a8420b90e73a,0.4178,
,,,,space,,0,330,330,225,1,E, , , , ,space,2000,2,5f97ef92e7ba4b02643d156d,001,2021-08-19_16h35.31.633,natb3,2021.2.3,Win32,60.15399423,5f97ef92e7ba4b02643d156d,611e07ecdcc96256ae8d5b80,611e7a2b8905a8420b90e73a,0.4189,
,,,,space,,0,331,331,59,1,Z, , , , ,space,2000,2,5f97ef92e7ba4b02643d156d,001,2021-08-19_16h35.31.633,natb3,2021.2.3,Win32,60.15399423,5f97ef92e7ba4b02643d156d,611e07ecdcc96256ae8d5b80,611e7a2b8905a8420b90e73a,0.418,
,,,,space,,0,332,332,134,1,J, , , , ,space,2000,2,5f97ef92e7ba4b02643d156d,001,2021-08-19_16h35.31.633,natb3,2021.2.3,Win32,60.15399423,5f97ef92e7ba4b02643d156d,611e07ecdcc96256ae8d5b80,611e7a2b8905a8420b90e73a,0.4184,
,,,,space,,0,333,333,332,1,U, , , , ,space,2000,2,5f97ef92e7ba4b02643d156d,001,2021-08-19_16h35.31.633,natb3,2021.2.3,Win32,60.15399423,5f97ef92e7ba4b02643d156d,611e07ecdcc96256ae8d5b80,611e7a2b8905a8420b90e73a,0.4504,
,,,,space,,0,334,334,309,1,H, , , , ,space,2500,2.5,5f97ef92e7ba4b02643d156d,001,2021-08-19_16h35.31.633,natb3,2021.2.3,Win32,60.15399423,5f97ef92e7ba4b02643d156d,611e07ecdcc96256ae8d5b80,611e7a2b8905a8420b90e73a,0.4503,
,,,,space,,0,335,335,6,1,Y, , , , ,space,2500,2.5,5f97ef92e7ba4b02643d156d,001,2021-08-19_16h35.31.633,natb3,2021.2.3,Win32,60.15399423,5f97ef92e7ba4b02643d156d,611e07ecdcc96256ae8d5b80,611e7a2b8905a8420b90e73a,0.5848,
