key_resp_2.keys,key_resp_2.rt,key_resp_3.keys,key_resp_3.rt,key_resp.keys,key_resp.rt,key_resp_4.keys,trials.thisRepN,trials.thisTrialN,trials.thisN,trials.thisIndex,trials.ran,stimulus,distractor1,distractor2,distractor3,distractor4,CorrAns,isi_duration,isi_dur_in_seconds,participant,session,date,expName,psychopyVersion,OS,frameRate,PROLIFIC_PID,STUDY_ID,SESSION_ID,key_resp_4.rt
return,46.2974,space,17.8755,space,0.4654,,0,0,0,82,1,X,4,6,1,7,,2000,2,5faeaf52a1ecfa0af9c7f3f2,001,2021-08-19_16h49.06.789,natb3,2021.2.3,MacIntel,59.99880002,5faeaf52a1ecfa0af9c7f3f2,611e07ecdcc96256ae8d5b80,611e7d6267ef17dc40003a55,
,,,,,,,0,1,1,158,1,X, , , , ,,1500,1.5,5faeaf52a1ecfa0af9c7f3f2,001,2021-08-19_16h49.06.789,natb3,2021.2.3,MacIntel,59.99880002,5faeaf52a1ecfa0af9c7f3f2,611e07ecdcc96256ae8d5b80,611e7d6267ef17dc40003a55,
,,,,space,0.5399,,0,2,2,90,1,K, , , , ,space,2000,2,5faeaf52a1ecfa0af9c7f3f2,001,2021-08-19_16h49.06.789,natb3,2021.2.3,MacIntel,59.99880002,5faeaf52a1ecfa0af9c7f3f2,611e07ecdcc96256ae8d5b80,611e7d6267ef17dc40003a55,
,,,,,,,0,3,3,179,1,X, ,9, ,2,,1500,1.5,5faeaf52a1ecfa0af9c7f3f2,001,2021-08-19_16h49.06.789,natb3,2021.2.3,MacIntel,59.99880002,5faeaf52a1ecfa0af9c7f3f2,611e07ecdcc96256ae8d5b80,611e7d6267ef17dc40003a55,
,,,,space,0.9602,,0,4,4,77,1,O, , , , ,space,2000,2,5faeaf52a1ecfa0af9c7f3f2,001,2021-08-19_16h49.06.789,natb3,2021.2.3,MacIntel,59.99880002,5faeaf52a1ecfa0af9c7f3f2,611e07ecdcc96256ae8d5b80,611e7d6267ef17dc40003a55,
,,,,space,0.3968,,0,5,5,172,1,C, , , , ,space,1500,1.5,5faeaf52a1ecfa0af9c7f3f2,001,2021-08-19_16h49.06.789,natb3,2021.2.3,MacIntel,59.99880002,5faeaf52a1ecfa0af9c7f3f2,611e07ecdcc96256ae8d5b80,611e7d6267ef17dc40003a55,
,,,,,,,0,6,6,329,1,X,3,4, ,2,,2500,2.5,5faeaf52a1ecfa0af9c7f3f2,001,2021-08-19_16h49.06.789,natb3,2021.2.3,MacIntel,59.99880002,5faeaf52a1ecfa0af9c7f3f2,611e07ecdcc96256ae8d5b80,611e7d6267ef17dc40003a55,
,,,,space,0.4426,,0,7,7,50,1,D, , , , ,space,1500,1.5,5faeaf52a1ecfa0af9c7f3f2,001,2021-08-19_16h49.06.789,natb3,2021.2.3,MacIntel,59.99880002,5faeaf52a1ecfa0af9c7f3f2,611e07ecdcc96256ae8d5b80,611e7d6267ef17dc40003a55,
,,,,space,0.4316,,0,8,8,139,1,V, , , , ,space,2000,2,5faeaf52a1ecfa0af9c7f3f2,001,2021-08-19_16h49.06.789,natb3,2021.2.3,MacIntel,59.99880002,5faeaf52a1ecfa0af9c7f3f2,611e07ecdcc96256ae8d5b80,611e7d6267ef17dc40003a55,
,,,,space,0.3654,,0,9,9,216,1,R, , , , ,space,1500,1.5,5faeaf52a1ecfa0af9c7f3f2,001,2021-08-19_16h49.06.789,natb3,2021.2.3,MacIntel,59.99880002,5faeaf52a1ecfa0af9c7f3f2,611e07ecdcc96256ae8d5b80,611e7d6267ef17dc40003a55,
,,,,space,0.3877,,0,10,10,108,1,Y, , , , ,space,2500,2.5,5faeaf52a1ecfa0af9c7f3f2,001,2021-08-19_16h49.06.789,natb3,2021.2.3,MacIntel,59.99880002,5faeaf52a1ecfa0af9c7f3f2,611e07ecdcc96256ae8d5b80,611e7d6267ef17dc40003a55,
,,,,space,0.4546,,0,11,11,173,1,V, , , , ,space,1500,1.5,5faeaf52a1ecfa0af9c7f3f2,001,2021-08-19_16h49.06.789,natb3,2021.2.3,MacIntel,59.99880002,5faeaf52a1ecfa0af9c7f3f2,611e07ecdcc96256ae8d5b80,611e7d6267ef17dc40003a55,
,,,,space,0.4804,,0,12,12,131,1,G, , , , ,space,1500,1.5,5faeaf52a1ecfa0af9c7f3f2,001,2021-08-19_16h49.06.789,natb3,2021.2.3,MacIntel,59.99880002,5faeaf52a1ecfa0af9c7f3f2,611e07ecdcc96256ae8d5b80,611e7d6267ef17dc40003a55,
,,,,space,0.4308,,0,13,13,126,1,A, , , , ,space,2500,2.5,5faeaf52a1ecfa0af9c7f3f2,001,2021-08-19_16h49.06.789,natb3,2021.2.3,MacIntel,59.99880002,5faeaf52a1ecfa0af9c7f3f2,611e07ecdcc96256ae8d5b80,611e7d6267ef17dc40003a55,
,,,,space,0.456,,0,14,14,240,1,F, , , , ,space,2500,2.5,5faeaf52a1ecfa0af9c7f3f2,001,2021-08-19_16h49.06.789,natb3,2021.2.3,MacIntel,59.99880002,5faeaf52a1ecfa0af9c7f3f2,611e07ecdcc96256ae8d5b80,611e7d6267ef17dc40003a55,
,,,,space,0.3514,,0,15,15,235,1,A, , , , ,space,1500,1.5,5faeaf52a1ecfa0af9c7f3f2,001,2021-08-19_16h49.06.789,natb3,2021.2.3,MacIntel,59.99880002,5faeaf52a1ecfa0af9c7f3f2,611e07ecdcc96256ae8d5b80,611e7d6267ef17dc40003a55,
,,,,space,0.4988,,0,16,16,215,1,E, , , , ,space,2500,2.5,5faeaf52a1ecfa0af9c7f3f2,001,2021-08-19_16h49.06.789,natb3,2021.2.3,MacIntel,59.99880002,5faeaf52a1ecfa0af9c7f3f2,611e07ecdcc96256ae8d5b80,611e7d6267ef17dc40003a55,
,,,,space,0.3661,,0,17,17,227,1,T, , , , ,space,1500,1.5,5faeaf52a1ecfa0af9c7f3f2,001,2021-08-19_16h49.06.789,natb3,2021.2.3,MacIntel,59.99880002,5faeaf52a1ecfa0af9c7f3f2,611e07ecdcc96256ae8d5b80,611e7d6267ef17dc40003a55,
,,,,space,0.5694,,0,18,18,111,1,O, , , , ,space,2000,2,5faeaf52a1ecfa0af9c7f3f2,001,2021-08-19_16h49.06.789,natb3,2021.2.3,MacIntel,59.99880002,5faeaf52a1ecfa0af9c7f3f2,611e07ecdcc96256ae8d5b80,611e7d6267ef17dc40003a55,
,,,,space,0.482,,0,19,19,209,1,N, , , , ,space,2000,2,5faeaf52a1ecfa0af9c7f3f2,001,2021-08-19_16h49.06.789,natb3,2021.2.3,MacIntel,59.99880002,5faeaf52a1ecfa0af9c7f3f2,611e07ecdcc96256ae8d5b80,611e7d6267ef17dc40003a55,
,,,,space,0.4497,,0,20,20,150,1,T, , , , ,space,2500,2.5,5faeaf52a1ecfa0af9c7f3f2,001,2021-08-19_16h49.06.789,natb3,2021.2.3,MacIntel,59.99880002,5faeaf52a1ecfa0af9c7f3f2,611e07ecdcc96256ae8d5b80,611e7d6267ef17dc40003a55,
,,,,space,0.3656,,0,21,21,65,1,M, , , , ,space,1500,1.5,5faeaf52a1ecfa0af9c7f3f2,001,2021-08-19_16h49.06.789,natb3,2021.2.3,MacIntel,59.99880002,5faeaf52a1ecfa0af9c7f3f2,611e07ecdcc96256ae8d5b80,611e7d6267ef17dc40003a55,
,,,,space,0.5185,,0,22,22,323,1,M, , , , ,space,2500,2.5,5faeaf52a1ecfa0af9c7f3f2,001,2021-08-19_16h49.06.789,natb3,2021.2.3,MacIntel,59.99880002,5faeaf52a1ecfa0af9c7f3f2,611e07ecdcc96256ae8d5b80,611e7d6267ef17dc40003a55,
,,,,space,0.3683,,0,23,23,20,1,H, , , , ,space,1500,1.5,5faeaf52a1ecfa0af9c7f3f2,001,2021-08-19_16h49.06.789,natb3,2021.2.3,MacIntel,59.99880002,5faeaf52a1ecfa0af9c7f3f2,611e07ecdcc96256ae8d5b80,611e7d6267ef17dc40003a55,
,,,,space,0.4481,,0,24,24,196,1,F, , , , ,space,1500,1.5,5faeaf52a1ecfa0af9c7f3f2,001,2021-08-19_16h49.06.789,natb3,2021.2.3,MacIntel,59.99880002,5faeaf52a1ecfa0af9c7f3f2,611e07ecdcc96256ae8d5b80,611e7d6267ef17dc40003a55,
,,,,space,0.4019,,0,25,25,121,1,I, , , , ,space,2000,2,5faeaf52a1ecfa0af9c7f3f2,001,2021-08-19_16h49.06.789,natb3,2021.2.3,MacIntel,59.99880002,5faeaf52a1ecfa0af9c7f3f2,611e07ecdcc96256ae8d5b80,611e7d6267ef17dc40003a55,
,,,,space,0.399,,0,26,26,194,1,D, , , , ,space,2000,2,5faeaf52a1ecfa0af9c7f3f2,001,2021-08-19_16h49.06.789,natb3,2021.2.3,MacIntel,59.99880002,5faeaf52a1ecfa0af9c7f3f2,611e07ecdcc96256ae8d5b80,611e7d6267ef17dc40003a55,
,,,,space,0.3999,,0,27,27,106,1,T, , , , ,space,1500,1.5,5faeaf52a1ecfa0af9c7f3f2,001,2021-08-19_16h49.06.789,natb3,2021.2.3,MacIntel,59.99880002,5faeaf52a1ecfa0af9c7f3f2,611e07ecdcc96256ae8d5b80,611e7d6267ef17dc40003a55,
,,,,space,0.3133,,0,28,28,283,1,C, , , , ,space,1500,1.5,5faeaf52a1ecfa0af9c7f3f2,001,2021-08-19_16h49.06.789,natb3,2021.2.3,MacIntel,59.99880002,5faeaf52a1ecfa0af9c7f3f2,611e07ecdcc96256ae8d5b80,611e7d6267ef17dc40003a55,
,,,,space,0.407,,0,29,29,157,1,A, , , , ,space,2500,2.5,5faeaf52a1ecfa0af9c7f3f2,001,2021-08-19_16h49.06.789,natb3,2021.2.3,MacIntel,59.99880002,5faeaf52a1ecfa0af9c7f3f2,611e07ecdcc96256ae8d5b80,611e7d6267ef17dc40003a55,
,,,,space,0.3292,,0,30,30,304,1,S, , , , ,space,2000,2,5faeaf52a1ecfa0af9c7f3f2,001,2021-08-19_16h49.06.789,natb3,2021.2.3,MacIntel,59.99880002,5faeaf52a1ecfa0af9c7f3f2,611e07ecdcc96256ae8d5b80,611e7d6267ef17dc40003a55,
,,,,space,0.6018,,0,31,31,59,1,Z, , , , ,space,2000,2,5faeaf52a1ecfa0af9c7f3f2,001,2021-08-19_16h49.06.789,natb3,2021.2.3,MacIntel,59.99880002,5faeaf52a1ecfa0af9c7f3f2,611e07ecdcc96256ae8d5b80,611e7d6267ef17dc40003a55,
,,,,space,0.3298,,0,32,32,278,1,J, , , , ,space,2000,2,5faeaf52a1ecfa0af9c7f3f2,001,2021-08-19_16h49.06.789,natb3,2021.2.3,MacIntel,59.99880002,5faeaf52a1ecfa0af9c7f3f2,611e07ecdcc96256ae8d5b80,611e7d6267ef17dc40003a55,
,,,,space,0.3038,,0,33,33,142,1,N, , , , ,space,2500,2.5,5faeaf52a1ecfa0af9c7f3f2,001,2021-08-19_16h49.06.789,natb3,2021.2.3,MacIntel,59.99880002,5faeaf52a1ecfa0af9c7f3f2,611e07ecdcc96256ae8d5b80,611e7d6267ef17dc40003a55,
,,,,space,0.4205,,0,34,34,57,1,K, , , , ,space,2500,2.5,5faeaf52a1ecfa0af9c7f3f2,001,2021-08-19_16h49.06.789,natb3,2021.2.3,MacIntel,59.99880002,5faeaf52a1ecfa0af9c7f3f2,611e07ecdcc96256ae8d5b80,611e7d6267ef17dc40003a55,
,,,,space,0.4661,,0,35,35,331,1,Y, , , , ,space,2500,2.5,5faeaf52a1ecfa0af9c7f3f2,001,2021-08-19_16h49.06.789,natb3,2021.2.3,MacIntel,59.99880002,5faeaf52a1ecfa0af9c7f3f2,611e07ecdcc96256ae8d5b80,611e7d6267ef17dc40003a55,
,,,,space,0.3619,,0,36,36,187,1,X, ,3,7,4,,1500,1.5,5faeaf52a1ecfa0af9c7f3f2,001,2021-08-19_16h49.06.789,natb3,2021.2.3,MacIntel,59.99880002,5faeaf52a1ecfa0af9c7f3f2,611e07ecdcc96256ae8d5b80,611e7d6267ef17dc40003a55,
,,,,space,0.7914,,0,37,37,161,1,F, , , , ,space,1500,1.5,5faeaf52a1ecfa0af9c7f3f2,001,2021-08-19_16h49.06.789,natb3,2021.2.3,MacIntel,59.99880002,5faeaf52a1ecfa0af9c7f3f2,611e07ecdcc96256ae8d5b80,611e7d6267ef17dc40003a55,
,,,,space,0.3485,,0,38,38,104,1,E, , , , ,space,2000,2,5faeaf52a1ecfa0af9c7f3f2,001,2021-08-19_16h49.06.789,natb3,2021.2.3,MacIntel,59.99880002,5faeaf52a1ecfa0af9c7f3f2,611e07ecdcc96256ae8d5b80,611e7d6267ef17dc40003a55,
,,,,,,,0,39,39,18,1,X, ,2,5,8,,2500,2.5,5faeaf52a1ecfa0af9c7f3f2,001,2021-08-19_16h49.06.789,natb3,2021.2.3,MacIntel,59.99880002,5faeaf52a1ecfa0af9c7f3f2,611e07ecdcc96256ae8d5b80,611e7d6267ef17dc40003a55,
,,,,space,0.4578,,0,40,40,230,1,U, , , , ,space,1500,1.5,5faeaf52a1ecfa0af9c7f3f2,001,2021-08-19_16h49.06.789,natb3,2021.2.3,MacIntel,59.99880002,5faeaf52a1ecfa0af9c7f3f2,611e07ecdcc96256ae8d5b80,611e7d6267ef17dc40003a55,
,,,,space,0.3387,,0,41,41,272,1,D, , , , ,space,2000,2,5faeaf52a1ecfa0af9c7f3f2,001,2021-08-19_16h49.06.789,natb3,2021.2.3,MacIntel,59.99880002,5faeaf52a1ecfa0af9c7f3f2,611e07ecdcc96256ae8d5b80,611e7d6267ef17dc40003a55,
,,,,space,0.3918,,0,42,42,163,1,G, , , , ,space,2500,2.5,5faeaf52a1ecfa0af9c7f3f2,001,2021-08-19_16h49.06.789,natb3,2021.2.3,MacIntel,59.99880002,5faeaf52a1ecfa0af9c7f3f2,611e07ecdcc96256ae8d5b80,611e7d6267ef17dc40003a55,
,,,,space,0.3354,,0,43,43,2,1,E, , , , ,space,2500,2.5,5faeaf52a1ecfa0af9c7f3f2,001,2021-08-19_16h49.06.789,natb3,2021.2.3,MacIntel,59.99880002,5faeaf52a1ecfa0af9c7f3f2,611e07ecdcc96256ae8d5b80,611e7d6267ef17dc40003a55,
,,,,space,0.4998,,0,44,44,144,1,Q, , , , ,space,2500,2.5,5faeaf52a1ecfa0af9c7f3f2,001,2021-08-19_16h49.06.789,natb3,2021.2.3,MacIntel,59.99880002,5faeaf52a1ecfa0af9c7f3f2,611e07ecdcc96256ae8d5b80,611e7d6267ef17dc40003a55,
,,,,,,,0,45,45,35,1,X, , , , ,,2500,2.5,5faeaf52a1ecfa0af9c7f3f2,001,2021-08-19_16h49.06.789,natb3,2021.2.3,MacIntel,59.99880002,5faeaf52a1ecfa0af9c7f3f2,611e07ecdcc96256ae8d5b80,611e7d6267ef17dc40003a55,
,,,,space,0.3339,,0,46,46,308,1,G, , , , ,space,1500,1.5,5faeaf52a1ecfa0af9c7f3f2,001,2021-08-19_16h49.06.789,natb3,2021.2.3,MacIntel,59.99880002,5faeaf52a1ecfa0af9c7f3f2,611e07ecdcc96256ae8d5b80,611e7d6267ef17dc40003a55,
,,,,space,0.4027,,0,47,47,333,1,I, , , , ,space,1500,1.5,5faeaf52a1ecfa0af9c7f3f2,001,2021-08-19_16h49.06.789,natb3,2021.2.3,MacIntel,59.99880002,5faeaf52a1ecfa0af9c7f3f2,611e07ecdcc96256ae8d5b80,611e7d6267ef17dc40003a55,
,,,,space,0.399,,0,48,48,169,1,L, , , , ,space,2500,2.5,5faeaf52a1ecfa0af9c7f3f2,001,2021-08-19_16h49.06.789,natb3,2021.2.3,MacIntel,59.99880002,5faeaf52a1ecfa0af9c7f3f2,611e07ecdcc96256ae8d5b80,611e7d6267ef17dc40003a55,
,,,,space,0.3583,,0,49,49,246,1,L, , , , ,space,2500,2.5,5faeaf52a1ecfa0af9c7f3f2,001,2021-08-19_16h49.06.789,natb3,2021.2.3,MacIntel,59.99880002,5faeaf52a1ecfa0af9c7f3f2,611e07ecdcc96256ae8d5b80,611e7d6267ef17dc40003a55,
,,,,space,0.5206,,0,50,50,34,1,Q, , , , ,space,2500,2.5,5faeaf52a1ecfa0af9c7f3f2,001,2021-08-19_16h49.06.789,natb3,2021.2.3,MacIntel,59.99880002,5faeaf52a1ecfa0af9c7f3f2,611e07ecdcc96256ae8d5b80,611e7d6267ef17dc40003a55,
,,,,space,0.3836,,0,51,51,291,1,X, , , , ,,2000,2,5faeaf52a1ecfa0af9c7f3f2,001,2021-08-19_16h49.06.789,natb3,2021.2.3,MacIntel,59.99880002,5faeaf52a1ecfa0af9c7f3f2,611e07ecdcc96256ae8d5b80,611e7d6267ef17dc40003a55,
,,,,space,0.3575,,0,52,52,332,1,U, , , , ,space,2000,2,5faeaf52a1ecfa0af9c7f3f2,001,2021-08-19_16h49.06.789,natb3,2021.2.3,MacIntel,59.99880002,5faeaf52a1ecfa0af9c7f3f2,611e07ecdcc96256ae8d5b80,611e7d6267ef17dc40003a55,
,,,,space,0.323,,0,53,53,79,1,P, , , , ,space,2000,2,5faeaf52a1ecfa0af9c7f3f2,001,2021-08-19_16h49.06.789,natb3,2021.2.3,MacIntel,59.99880002,5faeaf52a1ecfa0af9c7f3f2,611e07ecdcc96256ae8d5b80,611e7d6267ef17dc40003a55,
,,,,space,0.3538,,0,54,54,156,1,P, , , , ,space,1500,1.5,5faeaf52a1ecfa0af9c7f3f2,001,2021-08-19_16h49.06.789,natb3,2021.2.3,MacIntel,59.99880002,5faeaf52a1ecfa0af9c7f3f2,611e07ecdcc96256ae8d5b80,611e7d6267ef17dc40003a55,
,,,,,,,0,55,55,27,1,X,5, ,1,3,,1500,1.5,5faeaf52a1ecfa0af9c7f3f2,001,2021-08-19_16h49.06.789,natb3,2021.2.3,MacIntel,59.99880002,5faeaf52a1ecfa0af9c7f3f2,611e07ecdcc96256ae8d5b80,611e7d6267ef17dc40003a55,
,,,,,,,0,56,56,153,1,X,4,7, ,6,,2000,2,5faeaf52a1ecfa0af9c7f3f2,001,2021-08-19_16h49.06.789,natb3,2021.2.3,MacIntel,59.99880002,5faeaf52a1ecfa0af9c7f3f2,611e07ecdcc96256ae8d5b80,611e7d6267ef17dc40003a55,
,,,,,,,0,57,57,12,1,X, , , , ,,1500,1.5,5faeaf52a1ecfa0af9c7f3f2,001,2021-08-19_16h49.06.789,natb3,2021.2.3,MacIntel,59.99880002,5faeaf52a1ecfa0af9c7f3f2,611e07ecdcc96256ae8d5b80,611e7d6267ef17dc40003a55,
,,,,,,,0,58,58,325,1,X, , , , ,,2500,2.5,5faeaf52a1ecfa0af9c7f3f2,001,2021-08-19_16h49.06.789,natb3,2021.2.3,MacIntel,59.99880002,5faeaf52a1ecfa0af9c7f3f2,611e07ecdcc96256ae8d5b80,611e7d6267ef17dc40003a55,
,,,,space,0.7155,,0,59,59,231,1,I, , , , ,space,2500,2.5,5faeaf52a1ecfa0af9c7f3f2,001,2021-08-19_16h49.06.789,natb3,2021.2.3,MacIntel,59.99880002,5faeaf52a1ecfa0af9c7f3f2,611e07ecdcc96256ae8d5b80,611e7d6267ef17dc40003a55,
,,,,space,0.515,,0,60,60,222,1,O, , , , ,space,2000,2,5faeaf52a1ecfa0af9c7f3f2,001,2021-08-19_16h49.06.789,natb3,2021.2.3,MacIntel,59.99880002,5faeaf52a1ecfa0af9c7f3f2,611e07ecdcc96256ae8d5b80,611e7d6267ef17dc40003a55,
,,,,space,0.4142,,0,61,61,118,1,X, , , , ,,2000,2,5faeaf52a1ecfa0af9c7f3f2,001,2021-08-19_16h49.06.789,natb3,2021.2.3,MacIntel,59.99880002,5faeaf52a1ecfa0af9c7f3f2,611e07ecdcc96256ae8d5b80,611e7d6267ef17dc40003a55,
,,,,space,0.5827,,0,62,62,253,1,N, , , , ,space,2500,2.5,5faeaf52a1ecfa0af9c7f3f2,001,2021-08-19_16h49.06.789,natb3,2021.2.3,MacIntel,59.99880002,5faeaf52a1ecfa0af9c7f3f2,611e07ecdcc96256ae8d5b80,611e7d6267ef17dc40003a55,
,,,,space,0.4007,,0,63,63,217,1,T, , , , ,space,2500,2.5,5faeaf52a1ecfa0af9c7f3f2,001,2021-08-19_16h49.06.789,natb3,2021.2.3,MacIntel,59.99880002,5faeaf52a1ecfa0af9c7f3f2,611e07ecdcc96256ae8d5b80,611e7d6267ef17dc40003a55,
,,,,space,0.3854,,0,64,64,241,1,G, , , , ,space,2500,2.5,5faeaf52a1ecfa0af9c7f3f2,001,2021-08-19_16h49.06.789,natb3,2021.2.3,MacIntel,59.99880002,5faeaf52a1ecfa0af9c7f3f2,611e07ecdcc96256ae8d5b80,611e7d6267ef17dc40003a55,
,,,,space,0.4177,,0,65,65,298,1,I, , , , ,space,2000,2,5faeaf52a1ecfa0af9c7f3f2,001,2021-08-19_16h49.06.789,natb3,2021.2.3,MacIntel,59.99880002,5faeaf52a1ecfa0af9c7f3f2,611e07ecdcc96256ae8d5b80,611e7d6267ef17dc40003a55,
,,,,space,0.4233,,0,66,66,247,1,Z, , , , ,space,1500,1.5,5faeaf52a1ecfa0af9c7f3f2,001,2021-08-19_16h49.06.789,natb3,2021.2.3,MacIntel,59.99880002,5faeaf52a1ecfa0af9c7f3f2,611e07ecdcc96256ae8d5b80,611e7d6267ef17dc40003a55,
,,,,space,0.4159,,0,67,67,188,1,I, , , , ,space,2500,2.5,5faeaf52a1ecfa0af9c7f3f2,001,2021-08-19_16h49.06.789,natb3,2021.2.3,MacIntel,59.99880002,5faeaf52a1ecfa0af9c7f3f2,611e07ecdcc96256ae8d5b80,611e7d6267ef17dc40003a55,
,,,,space,0.465,,0,68,68,237,1,S, , , , ,space,1500,1.5,5faeaf52a1ecfa0af9c7f3f2,001,2021-08-19_16h49.06.789,natb3,2021.2.3,MacIntel,59.99880002,5faeaf52a1ecfa0af9c7f3f2,611e07ecdcc96256ae8d5b80,611e7d6267ef17dc40003a55,
,,,,space,0.438,,0,69,69,281,1,Z, , , , ,space,1500,1.5,5faeaf52a1ecfa0af9c7f3f2,001,2021-08-19_16h49.06.789,natb3,2021.2.3,MacIntel,59.99880002,5faeaf52a1ecfa0af9c7f3f2,611e07ecdcc96256ae8d5b80,611e7d6267ef17dc40003a55,
,,,,space,0.5161,,0,70,70,47,1,P, , , , ,space,2000,2,5faeaf52a1ecfa0af9c7f3f2,001,2021-08-19_16h49.06.789,natb3,2021.2.3,MacIntel,59.99880002,5faeaf52a1ecfa0af9c7f3f2,611e07ecdcc96256ae8d5b80,611e7d6267ef17dc40003a55,
,,,,space,0.5645,,0,71,71,321,1,N, , , , ,space,2000,2,5faeaf52a1ecfa0af9c7f3f2,001,2021-08-19_16h49.06.789,natb3,2021.2.3,MacIntel,59.99880002,5faeaf52a1ecfa0af9c7f3f2,611e07ecdcc96256ae8d5b80,611e7d6267ef17dc40003a55,
,,,,space,0.5015,,0,72,72,61,1,C, , , , ,space,2000,2,5faeaf52a1ecfa0af9c7f3f2,001,2021-08-19_16h49.06.789,natb3,2021.2.3,MacIntel,59.99880002,5faeaf52a1ecfa0af9c7f3f2,611e07ecdcc96256ae8d5b80,611e7d6267ef17dc40003a55,
,,,,,,,0,73,73,203,1,X, , , , ,,2500,2.5,5faeaf52a1ecfa0af9c7f3f2,001,2021-08-19_16h49.06.789,natb3,2021.2.3,MacIntel,59.99880002,5faeaf52a1ecfa0af9c7f3f2,611e07ecdcc96256ae8d5b80,611e7d6267ef17dc40003a55,
,,,,,,,0,74,74,207,1,X,9, ,2, ,,2500,2.5,5faeaf52a1ecfa0af9c7f3f2,001,2021-08-19_16h49.06.789,natb3,2021.2.3,MacIntel,59.99880002,5faeaf52a1ecfa0af9c7f3f2,611e07ecdcc96256ae8d5b80,611e7d6267ef17dc40003a55,
,,,,space,0.4283,,0,75,75,19,1,G, , , , ,space,1500,1.5,5faeaf52a1ecfa0af9c7f3f2,001,2021-08-19_16h49.06.789,natb3,2021.2.3,MacIntel,59.99880002,5faeaf52a1ecfa0af9c7f3f2,611e07ecdcc96256ae8d5b80,611e7d6267ef17dc40003a55,
,,,,space,0.4512,,0,76,76,128,1,D, , , , ,space,2500,2.5,5faeaf52a1ecfa0af9c7f3f2,001,2021-08-19_16h49.06.789,natb3,2021.2.3,MacIntel,59.99880002,5faeaf52a1ecfa0af9c7f3f2,611e07ecdcc96256ae8d5b80,611e7d6267ef17dc40003a55,
,,,,,,,0,77,77,102,1,X, ,6, , ,,1500,1.5,5faeaf52a1ecfa0af9c7f3f2,001,2021-08-19_16h49.06.789,natb3,2021.2.3,MacIntel,59.99880002,5faeaf52a1ecfa0af9c7f3f2,611e07ecdcc96256ae8d5b80,611e7d6267ef17dc40003a55,
,,,,,,,0,78,78,255,1,X, , , , ,,1500,1.5,5faeaf52a1ecfa0af9c7f3f2,001,2021-08-19_16h49.06.789,natb3,2021.2.3,MacIntel,59.99880002,5faeaf52a1ecfa0af9c7f3f2,611e07ecdcc96256ae8d5b80,611e7d6267ef17dc40003a55,
,,,,space,0.4712,,0,79,79,76,1,I, , , , ,space,2000,2,5faeaf52a1ecfa0af9c7f3f2,001,2021-08-19_16h49.06.789,natb3,2021.2.3,MacIntel,59.99880002,5faeaf52a1ecfa0af9c7f3f2,611e07ecdcc96256ae8d5b80,611e7d6267ef17dc40003a55,
,,,,space,0.4692,,0,80,80,261,1,T, , , , ,space,2000,2,5faeaf52a1ecfa0af9c7f3f2,001,2021-08-19_16h49.06.789,natb3,2021.2.3,MacIntel,59.99880002,5faeaf52a1ecfa0af9c7f3f2,611e07ecdcc96256ae8d5b80,611e7d6267ef17dc40003a55,
,,,,space,0.6224,,0,81,81,224,1,W, , , , ,space,1500,1.5,5faeaf52a1ecfa0af9c7f3f2,001,2021-08-19_16h49.06.789,natb3,2021.2.3,MacIntel,59.99880002,5faeaf52a1ecfa0af9c7f3f2,611e07ecdcc96256ae8d5b80,611e7d6267ef17dc40003a55,
,,,,space,0.4642,,0,82,82,177,1,M, , , , ,space,2500,2.5,5faeaf52a1ecfa0af9c7f3f2,001,2021-08-19_16h49.06.789,natb3,2021.2.3,MacIntel,59.99880002,5faeaf52a1ecfa0af9c7f3f2,611e07ecdcc96256ae8d5b80,611e7d6267ef17dc40003a55,
,,,,,,,0,83,83,176,1,N, , , , ,space,1500,1.5,5faeaf52a1ecfa0af9c7f3f2,001,2021-08-19_16h49.06.789,natb3,2021.2.3,MacIntel,59.99880002,5faeaf52a1ecfa0af9c7f3f2,611e07ecdcc96256ae8d5b80,611e7d6267ef17dc40003a55,
,,,,space,0.3692,,0,84,84,114,1,E, , , , ,space,2000,2,5faeaf52a1ecfa0af9c7f3f2,001,2021-08-19_16h49.06.789,natb3,2021.2.3,MacIntel,59.99880002,5faeaf52a1ecfa0af9c7f3f2,611e07ecdcc96256ae8d5b80,611e7d6267ef17dc40003a55,
,,,,space,0.3666,,0,85,85,86,1,G, , , , ,space,2000,2,5faeaf52a1ecfa0af9c7f3f2,001,2021-08-19_16h49.06.789,natb3,2021.2.3,MacIntel,59.99880002,5faeaf52a1ecfa0af9c7f3f2,611e07ecdcc96256ae8d5b80,611e7d6267ef17dc40003a55,
,,,,space,0.4344,,0,86,86,269,1,A, , , , ,space,2500,2.5,5faeaf52a1ecfa0af9c7f3f2,001,2021-08-19_16h49.06.789,natb3,2021.2.3,MacIntel,59.99880002,5faeaf52a1ecfa0af9c7f3f2,611e07ecdcc96256ae8d5b80,611e7d6267ef17dc40003a55,
,,,,space,0.4046,,0,87,87,91,1,L, , , , ,space,2000,2,5faeaf52a1ecfa0af9c7f3f2,001,2021-08-19_16h49.06.789,natb3,2021.2.3,MacIntel,59.99880002,5faeaf52a1ecfa0af9c7f3f2,611e07ecdcc96256ae8d5b80,611e7d6267ef17dc40003a55,
,,,,space,0.4493,,0,88,88,245,1,K, , , , ,space,2000,2,5faeaf52a1ecfa0af9c7f3f2,001,2021-08-19_16h49.06.789,natb3,2021.2.3,MacIntel,59.99880002,5faeaf52a1ecfa0af9c7f3f2,611e07ecdcc96256ae8d5b80,611e7d6267ef17dc40003a55,
,,,,space,0.4744,,0,89,89,100,1,M, , , , ,space,2000,2,5faeaf52a1ecfa0af9c7f3f2,001,2021-08-19_16h49.06.789,natb3,2021.2.3,MacIntel,59.99880002,5faeaf52a1ecfa0af9c7f3f2,611e07ecdcc96256ae8d5b80,611e7d6267ef17dc40003a55,
,,,,space,0.3657,,0,90,90,55,1,H, , , , ,space,2500,2.5,5faeaf52a1ecfa0af9c7f3f2,001,2021-08-19_16h49.06.789,natb3,2021.2.3,MacIntel,59.99880002,5faeaf52a1ecfa0af9c7f3f2,611e07ecdcc96256ae8d5b80,611e7d6267ef17dc40003a55,
,,,,,,,0,91,91,252,1,X,3, ,6,9,,2000,2,5faeaf52a1ecfa0af9c7f3f2,001,2021-08-19_16h49.06.789,natb3,2021.2.3,MacIntel,59.99880002,5faeaf52a1ecfa0af9c7f3f2,611e07ecdcc96256ae8d5b80,611e7d6267ef17dc40003a55,
,,,,space,0.4226,,0,92,92,301,1,P, , , , ,space,1500,1.5,5faeaf52a1ecfa0af9c7f3f2,001,2021-08-19_16h49.06.789,natb3,2021.2.3,MacIntel,59.99880002,5faeaf52a1ecfa0af9c7f3f2,611e07ecdcc96256ae8d5b80,611e7d6267ef17dc40003a55,
,,,,space,0.4231,,0,93,93,81,1,S, , , , ,space,2000,2,5faeaf52a1ecfa0af9c7f3f2,001,2021-08-19_16h49.06.789,natb3,2021.2.3,MacIntel,59.99880002,5faeaf52a1ecfa0af9c7f3f2,611e07ecdcc96256ae8d5b80,611e7d6267ef17dc40003a55,
,,,,space,0.6502,,0,94,94,256,1,Q, , , , ,space,2000,2,5faeaf52a1ecfa0af9c7f3f2,001,2021-08-19_16h49.06.789,natb3,2021.2.3,MacIntel,59.99880002,5faeaf52a1ecfa0af9c7f3f2,611e07ecdcc96256ae8d5b80,611e7d6267ef17dc40003a55,
,,,,space,0.3472,,0,95,95,103,1,W, , , , ,space,2000,2,5faeaf52a1ecfa0af9c7f3f2,001,2021-08-19_16h49.06.789,natb3,2021.2.3,MacIntel,59.99880002,5faeaf52a1ecfa0af9c7f3f2,611e07ecdcc96256ae8d5b80,611e7d6267ef17dc40003a55,
,,,,space,0.391,,0,96,96,228,1,Y, , , , ,space,2000,2,5faeaf52a1ecfa0af9c7f3f2,001,2021-08-19_16h49.06.789,natb3,2021.2.3,MacIntel,59.99880002,5faeaf52a1ecfa0af9c7f3f2,611e07ecdcc96256ae8d5b80,611e7d6267ef17dc40003a55,
,,,,,,,0,97,97,84,1,X, , , , ,,2000,2,5faeaf52a1ecfa0af9c7f3f2,001,2021-08-19_16h49.06.789,natb3,2021.2.3,MacIntel,59.99880002,5faeaf52a1ecfa0af9c7f3f2,611e07ecdcc96256ae8d5b80,611e7d6267ef17dc40003a55,
,,,,,,,0,98,98,4,1,X, , , , ,,2000,2,5faeaf52a1ecfa0af9c7f3f2,001,2021-08-19_16h49.06.789,natb3,2021.2.3,MacIntel,59.99880002,5faeaf52a1ecfa0af9c7f3f2,611e07ecdcc96256ae8d5b80,611e7d6267ef17dc40003a55,
,,,,space,0.5039,,0,99,99,130,1,F, , , , ,space,2000,2,5faeaf52a1ecfa0af9c7f3f2,001,2021-08-19_16h49.06.789,natb3,2021.2.3,MacIntel,59.99880002,5faeaf52a1ecfa0af9c7f3f2,611e07ecdcc96256ae8d5b80,611e7d6267ef17dc40003a55,
,,,,space,0.455,,0,100,100,284,1,V, , , , ,space,2500,2.5,5faeaf52a1ecfa0af9c7f3f2,001,2021-08-19_16h49.06.789,natb3,2021.2.3,MacIntel,59.99880002,5faeaf52a1ecfa0af9c7f3f2,611e07ecdcc96256ae8d5b80,611e7d6267ef17dc40003a55,
,,,,,,,0,101,101,162,1,X,1,6, ,2,,1500,1.5,5faeaf52a1ecfa0af9c7f3f2,001,2021-08-19_16h49.06.789,natb3,2021.2.3,MacIntel,59.99880002,5faeaf52a1ecfa0af9c7f3f2,611e07ecdcc96256ae8d5b80,611e7d6267ef17dc40003a55,
,,,,,,,0,102,102,295,1,X,8,7,5, ,,2500,2.5,5faeaf52a1ecfa0af9c7f3f2,001,2021-08-19_16h49.06.789,natb3,2021.2.3,MacIntel,59.99880002,5faeaf52a1ecfa0af9c7f3f2,611e07ecdcc96256ae8d5b80,611e7d6267ef17dc40003a55,
,,,,space,0.3428,,0,103,103,275,1,G, , , , ,space,1500,1.5,5faeaf52a1ecfa0af9c7f3f2,001,2021-08-19_16h49.06.789,natb3,2021.2.3,MacIntel,59.99880002,5faeaf52a1ecfa0af9c7f3f2,611e07ecdcc96256ae8d5b80,611e7d6267ef17dc40003a55,
,,,,,,,0,104,104,33,1,X, , , , ,,1500,1.5,5faeaf52a1ecfa0af9c7f3f2,001,2021-08-19_16h49.06.789,natb3,2021.2.3,MacIntel,59.99880002,5faeaf52a1ecfa0af9c7f3f2,611e07ecdcc96256ae8d5b80,611e7d6267ef17dc40003a55,
,,,,space,0.4345,,0,105,105,94,1,C, , , , ,space,2000,2,5faeaf52a1ecfa0af9c7f3f2,001,2021-08-19_16h49.06.789,natb3,2021.2.3,MacIntel,59.99880002,5faeaf52a1ecfa0af9c7f3f2,611e07ecdcc96256ae8d5b80,611e7d6267ef17dc40003a55,
,,,,,,,0,106,106,31,1,X, , , , ,,1500,1.5,5faeaf52a1ecfa0af9c7f3f2,001,2021-08-19_16h49.06.789,natb3,2021.2.3,MacIntel,59.99880002,5faeaf52a1ecfa0af9c7f3f2,611e07ecdcc96256ae8d5b80,611e7d6267ef17dc40003a55,
,,,,,,,0,107,107,313,1,X, , , , ,,2500,2.5,5faeaf52a1ecfa0af9c7f3f2,001,2021-08-19_16h49.06.789,natb3,2021.2.3,MacIntel,59.99880002,5faeaf52a1ecfa0af9c7f3f2,611e07ecdcc96256ae8d5b80,611e7d6267ef17dc40003a55,
,,,,space,0.4156,,0,108,108,45,1,O, , , , ,space,2000,2,5faeaf52a1ecfa0af9c7f3f2,001,2021-08-19_16h49.06.789,natb3,2021.2.3,MacIntel,59.99880002,5faeaf52a1ecfa0af9c7f3f2,611e07ecdcc96256ae8d5b80,611e7d6267ef17dc40003a55,
,,,,space,0.3519,,0,109,109,327,1,E, , , , ,space,1500,1.5,5faeaf52a1ecfa0af9c7f3f2,001,2021-08-19_16h49.06.789,natb3,2021.2.3,MacIntel,59.99880002,5faeaf52a1ecfa0af9c7f3f2,611e07ecdcc96256ae8d5b80,611e7d6267ef17dc40003a55,
,,,,,,,0,110,110,107,1,X,9,3, ,2,,2000,2,5faeaf52a1ecfa0af9c7f3f2,001,2021-08-19_16h49.06.789,natb3,2021.2.3,MacIntel,59.99880002,5faeaf52a1ecfa0af9c7f3f2,611e07ecdcc96256ae8d5b80,611e7d6267ef17dc40003a55,
,,,,,,,0,111,111,74,1,X, ,4,3,2,,1500,1.5,5faeaf52a1ecfa0af9c7f3f2,001,2021-08-19_16h49.06.789,natb3,2021.2.3,MacIntel,59.99880002,5faeaf52a1ecfa0af9c7f3f2,611e07ecdcc96256ae8d5b80,611e7d6267ef17dc40003a55,
,,,,,,,0,112,112,271,1,X, , , , ,,2500,2.5,5faeaf52a1ecfa0af9c7f3f2,001,2021-08-19_16h49.06.789,natb3,2021.2.3,MacIntel,59.99880002,5faeaf52a1ecfa0af9c7f3f2,611e07ecdcc96256ae8d5b80,611e7d6267ef17dc40003a55,
,,,,space,0.3047,,0,113,113,243,1,X, , , , ,,2500,2.5,5faeaf52a1ecfa0af9c7f3f2,001,2021-08-19_16h49.06.789,natb3,2021.2.3,MacIntel,59.99880002,5faeaf52a1ecfa0af9c7f3f2,611e07ecdcc96256ae8d5b80,611e7d6267ef17dc40003a55,
,,,,space,0.415,,0,114,114,48,1,A, , , , ,space,2500,2.5,5faeaf52a1ecfa0af9c7f3f2,001,2021-08-19_16h49.06.789,natb3,2021.2.3,MacIntel,59.99880002,5faeaf52a1ecfa0af9c7f3f2,611e07ecdcc96256ae8d5b80,611e7d6267ef17dc40003a55,
,,,,space,0.3861,,0,115,115,219,1,Y, , , , ,space,2000,2,5faeaf52a1ecfa0af9c7f3f2,001,2021-08-19_16h49.06.789,natb3,2021.2.3,MacIntel,59.99880002,5faeaf52a1ecfa0af9c7f3f2,611e07ecdcc96256ae8d5b80,611e7d6267ef17dc40003a55,
,,,,space,0.3869,,0,116,116,183,1,R, , , , ,space,1500,1.5,5faeaf52a1ecfa0af9c7f3f2,001,2021-08-19_16h49.06.789,natb3,2021.2.3,MacIntel,59.99880002,5faeaf52a1ecfa0af9c7f3f2,611e07ecdcc96256ae8d5b80,611e7d6267ef17dc40003a55,
,,,,space,0.3466,,0,117,117,52,1,F, , , , ,space,1500,1.5,5faeaf52a1ecfa0af9c7f3f2,001,2021-08-19_16h49.06.789,natb3,2021.2.3,MacIntel,59.99880002,5faeaf52a1ecfa0af9c7f3f2,611e07ecdcc96256ae8d5b80,611e7d6267ef17dc40003a55,
,,,,space,0.3222,,0,118,118,181,1,E, , , , ,space,1500,1.5,5faeaf52a1ecfa0af9c7f3f2,001,2021-08-19_16h49.06.789,natb3,2021.2.3,MacIntel,59.99880002,5faeaf52a1ecfa0af9c7f3f2,611e07ecdcc96256ae8d5b80,611e7d6267ef17dc40003a55,
,,,,space,0.4652,,0,119,119,297,1,U, , , , ,space,2000,2,5faeaf52a1ecfa0af9c7f3f2,001,2021-08-19_16h49.06.789,natb3,2021.2.3,MacIntel,59.99880002,5faeaf52a1ecfa0af9c7f3f2,611e07ecdcc96256ae8d5b80,611e7d6267ef17dc40003a55,
,,,,space,0.2989,,0,120,120,289,1,Q, , , , ,space,2000,2,5faeaf52a1ecfa0af9c7f3f2,001,2021-08-19_16h49.06.789,natb3,2021.2.3,MacIntel,59.99880002,5faeaf52a1ecfa0af9c7f3f2,611e07ecdcc96256ae8d5b80,611e7d6267ef17dc40003a55,
,,,,space,0.4008,,0,121,121,282,1,X, , , , ,,2500,2.5,5faeaf52a1ecfa0af9c7f3f2,001,2021-08-19_16h49.06.789,natb3,2021.2.3,MacIntel,59.99880002,5faeaf52a1ecfa0af9c7f3f2,611e07ecdcc96256ae8d5b80,611e7d6267ef17dc40003a55,
,,,,space,0.3143,,0,122,122,16,1,D, , , , ,space,1500,1.5,5faeaf52a1ecfa0af9c7f3f2,001,2021-08-19_16h49.06.789,natb3,2021.2.3,MacIntel,59.99880002,5faeaf52a1ecfa0af9c7f3f2,611e07ecdcc96256ae8d5b80,611e7d6267ef17dc40003a55,
,,,,,,,0,123,123,175,1,X,7, ,4,2,,1500,1.5,5faeaf52a1ecfa0af9c7f3f2,001,2021-08-19_16h49.06.789,natb3,2021.2.3,MacIntel,59.99880002,5faeaf52a1ecfa0af9c7f3f2,611e07ecdcc96256ae8d5b80,611e7d6267ef17dc40003a55,
,,,,space,0.3232,,0,124,124,267,1,P, , , , ,space,2000,2,5faeaf52a1ecfa0af9c7f3f2,001,2021-08-19_16h49.06.789,natb3,2021.2.3,MacIntel,59.99880002,5faeaf52a1ecfa0af9c7f3f2,611e07ecdcc96256ae8d5b80,611e7d6267ef17dc40003a55,
,,,,space,0.4976,,0,125,125,0,1,Q, , , , ,space,1500,1.5,5faeaf52a1ecfa0af9c7f3f2,001,2021-08-19_16h49.06.789,natb3,2021.2.3,MacIntel,59.99880002,5faeaf52a1ecfa0af9c7f3f2,611e07ecdcc96256ae8d5b80,611e7d6267ef17dc40003a55,
,,,,space,0.5227,,0,126,126,286,1,N, , , , ,space,1500,1.5,5faeaf52a1ecfa0af9c7f3f2,001,2021-08-19_16h49.06.789,natb3,2021.2.3,MacIntel,59.99880002,5faeaf52a1ecfa0af9c7f3f2,611e07ecdcc96256ae8d5b80,611e7d6267ef17dc40003a55,
,,,,space,0.3971,,0,127,127,137,1,C, , , , ,space,2500,2.5,5faeaf52a1ecfa0af9c7f3f2,001,2021-08-19_16h49.06.789,natb3,2021.2.3,MacIntel,59.99880002,5faeaf52a1ecfa0af9c7f3f2,611e07ecdcc96256ae8d5b80,611e7d6267ef17dc40003a55,
,,,,space,0.3664,,0,128,128,317,1,C, , , , ,space,2000,2,5faeaf52a1ecfa0af9c7f3f2,001,2021-08-19_16h49.06.789,natb3,2021.2.3,MacIntel,59.99880002,5faeaf52a1ecfa0af9c7f3f2,611e07ecdcc96256ae8d5b80,611e7d6267ef17dc40003a55,
,,,,space,0.369,,0,129,129,124,1,P, , , , ,space,2000,2,5faeaf52a1ecfa0af9c7f3f2,001,2021-08-19_16h49.06.789,natb3,2021.2.3,MacIntel,59.99880002,5faeaf52a1ecfa0af9c7f3f2,611e07ecdcc96256ae8d5b80,611e7d6267ef17dc40003a55,
,,,,space,0.436,,0,130,130,221,1,I, , , , ,space,2500,2.5,5faeaf52a1ecfa0af9c7f3f2,001,2021-08-19_16h49.06.789,natb3,2021.2.3,MacIntel,59.99880002,5faeaf52a1ecfa0af9c7f3f2,611e07ecdcc96256ae8d5b80,611e7d6267ef17dc40003a55,
,,,,,,,0,131,131,200,1,X,7, ,5,3,,1500,1.5,5faeaf52a1ecfa0af9c7f3f2,001,2021-08-19_16h49.06.789,natb3,2021.2.3,MacIntel,59.99880002,5faeaf52a1ecfa0af9c7f3f2,611e07ecdcc96256ae8d5b80,611e7d6267ef17dc40003a55,
,,,,space,0.3568,,0,132,132,95,1,V, , , , ,space,1500,1.5,5faeaf52a1ecfa0af9c7f3f2,001,2021-08-19_16h49.06.789,natb3,2021.2.3,MacIntel,59.99880002,5faeaf52a1ecfa0af9c7f3f2,611e07ecdcc96256ae8d5b80,611e7d6267ef17dc40003a55,
,,,,,,,0,133,133,287,1,X, ,2, ,9,,2000,2,5faeaf52a1ecfa0af9c7f3f2,001,2021-08-19_16h49.06.789,natb3,2021.2.3,MacIntel,59.99880002,5faeaf52a1ecfa0af9c7f3f2,611e07ecdcc96256ae8d5b80,611e7d6267ef17dc40003a55,
,,,,,,,0,134,134,171,1,X, , , , ,,1500,1.5,5faeaf52a1ecfa0af9c7f3f2,001,2021-08-19_16h49.06.789,natb3,2021.2.3,MacIntel,59.99880002,5faeaf52a1ecfa0af9c7f3f2,611e07ecdcc96256ae8d5b80,611e7d6267ef17dc40003a55,
,,,,space,0.6975,,0,135,135,14,1,S, , , , ,space,2500,2.5,5faeaf52a1ecfa0af9c7f3f2,001,2021-08-19_16h49.06.789,natb3,2021.2.3,MacIntel,59.99880002,5faeaf52a1ecfa0af9c7f3f2,611e07ecdcc96256ae8d5b80,611e7d6267ef17dc40003a55,
,,,,space,0.42,,0,136,136,73,1,Y, , , , ,space,2000,2,5faeaf52a1ecfa0af9c7f3f2,001,2021-08-19_16h49.06.789,natb3,2021.2.3,MacIntel,59.99880002,5faeaf52a1ecfa0af9c7f3f2,611e07ecdcc96256ae8d5b80,611e7d6267ef17dc40003a55,
,,,,,,,0,137,137,166,1,X, , , , ,,2000,2,5faeaf52a1ecfa0af9c7f3f2,001,2021-08-19_16h49.06.789,natb3,2021.2.3,MacIntel,59.99880002,5faeaf52a1ecfa0af9c7f3f2,611e07ecdcc96256ae8d5b80,611e7d6267ef17dc40003a55,
,,,,,,,0,138,138,191,1,X,1, ,3,4,,2500,2.5,5faeaf52a1ecfa0af9c7f3f2,001,2021-08-19_16h49.06.789,natb3,2021.2.3,MacIntel,59.99880002,5faeaf52a1ecfa0af9c7f3f2,611e07ecdcc96256ae8d5b80,611e7d6267ef17dc40003a55,
,,,,space,0.4758,,0,139,139,97,1,B, , , , ,space,2500,2.5,5faeaf52a1ecfa0af9c7f3f2,001,2021-08-19_16h49.06.789,natb3,2021.2.3,MacIntel,59.99880002,5faeaf52a1ecfa0af9c7f3f2,611e07ecdcc96256ae8d5b80,611e7d6267ef17dc40003a55,
,,,,space,0.6645,,0,140,140,316,1,Z, , , , ,space,1500,1.5,5faeaf52a1ecfa0af9c7f3f2,001,2021-08-19_16h49.06.789,natb3,2021.2.3,MacIntel,59.99880002,5faeaf52a1ecfa0af9c7f3f2,611e07ecdcc96256ae8d5b80,611e7d6267ef17dc40003a55,
,,,,space,0.3075,,0,141,141,68,1,W, , , , ,space,2500,2.5,5faeaf52a1ecfa0af9c7f3f2,001,2021-08-19_16h49.06.789,natb3,2021.2.3,MacIntel,59.99880002,5faeaf52a1ecfa0af9c7f3f2,611e07ecdcc96256ae8d5b80,611e7d6267ef17dc40003a55,
,,,,space,0.415,,0,142,142,99,1,N, , , , ,space,2500,2.5,5faeaf52a1ecfa0af9c7f3f2,001,2021-08-19_16h49.06.789,natb3,2021.2.3,MacIntel,59.99880002,5faeaf52a1ecfa0af9c7f3f2,611e07ecdcc96256ae8d5b80,611e7d6267ef17dc40003a55,
,,,,,,,0,143,143,98,1,X, , , , ,,2500,2.5,5faeaf52a1ecfa0af9c7f3f2,001,2021-08-19_16h49.06.789,natb3,2021.2.3,MacIntel,59.99880002,5faeaf52a1ecfa0af9c7f3f2,611e07ecdcc96256ae8d5b80,611e7d6267ef17dc40003a55,
,,,,space,0.4509,,0,144,144,151,1,Y, , , , ,space,2500,2.5,5faeaf52a1ecfa0af9c7f3f2,001,2021-08-19_16h49.06.789,natb3,2021.2.3,MacIntel,59.99880002,5faeaf52a1ecfa0af9c7f3f2,611e07ecdcc96256ae8d5b80,611e7d6267ef17dc40003a55,
,,,,space,0.4024,,0,145,145,202,1,L, , , , ,space,2500,2.5,5faeaf52a1ecfa0af9c7f3f2,001,2021-08-19_16h49.06.789,natb3,2021.2.3,MacIntel,59.99880002,5faeaf52a1ecfa0af9c7f3f2,611e07ecdcc96256ae8d5b80,611e7d6267ef17dc40003a55,
,,,,space,0.4328,,0,146,146,37,1,E, , , , ,space,2500,2.5,5faeaf52a1ecfa0af9c7f3f2,001,2021-08-19_16h49.06.789,natb3,2021.2.3,MacIntel,59.99880002,5faeaf52a1ecfa0af9c7f3f2,611e07ecdcc96256ae8d5b80,611e7d6267ef17dc40003a55,
,,,,space,0.2988,,0,147,147,25,1,Z, , , , ,space,2500,2.5,5faeaf52a1ecfa0af9c7f3f2,001,2021-08-19_16h49.06.789,natb3,2021.2.3,MacIntel,59.99880002,5faeaf52a1ecfa0af9c7f3f2,611e07ecdcc96256ae8d5b80,611e7d6267ef17dc40003a55,
,,,,space,0.4522,,0,148,148,6,1,Y, , , , ,space,2500,2.5,5faeaf52a1ecfa0af9c7f3f2,001,2021-08-19_16h49.06.789,natb3,2021.2.3,MacIntel,59.99880002,5faeaf52a1ecfa0af9c7f3f2,611e07ecdcc96256ae8d5b80,611e7d6267ef17dc40003a55,
,,,,space,0.3838,,0,149,149,315,1,X, , , , ,,2500,2.5,5faeaf52a1ecfa0af9c7f3f2,001,2021-08-19_16h49.06.789,natb3,2021.2.3,MacIntel,59.99880002,5faeaf52a1ecfa0af9c7f3f2,611e07ecdcc96256ae8d5b80,611e7d6267ef17dc40003a55,
,,,,,,,0,150,150,145,1,X, , , , ,,2000,2,5faeaf52a1ecfa0af9c7f3f2,001,2021-08-19_16h49.06.789,natb3,2021.2.3,MacIntel,59.99880002,5faeaf52a1ecfa0af9c7f3f2,611e07ecdcc96256ae8d5b80,611e7d6267ef17dc40003a55,
,,,,space,0.4014,,0,151,151,5,1,T, , , , ,space,2000,2,5faeaf52a1ecfa0af9c7f3f2,001,2021-08-19_16h49.06.789,natb3,2021.2.3,MacIntel,59.99880002,5faeaf52a1ecfa0af9c7f3f2,611e07ecdcc96256ae8d5b80,611e7d6267ef17dc40003a55,
,,,,space,0.4504,,0,152,152,178,1,Q, , , , ,space,1500,1.5,5faeaf52a1ecfa0af9c7f3f2,001,2021-08-19_16h49.06.789,natb3,2021.2.3,MacIntel,59.99880002,5faeaf52a1ecfa0af9c7f3f2,611e07ecdcc96256ae8d5b80,611e7d6267ef17dc40003a55,
,,,,,,,0,153,153,66,1,X, ,4,7, ,,2000,2,5faeaf52a1ecfa0af9c7f3f2,001,2021-08-19_16h49.06.789,natb3,2021.2.3,MacIntel,59.99880002,5faeaf52a1ecfa0af9c7f3f2,611e07ecdcc96256ae8d5b80,611e7d6267ef17dc40003a55,
,,,,space,0.5436,,0,154,154,312,1,K, , , , ,space,2000,2,5faeaf52a1ecfa0af9c7f3f2,001,2021-08-19_16h49.06.789,natb3,2021.2.3,MacIntel,59.99880002,5faeaf52a1ecfa0af9c7f3f2,611e07ecdcc96256ae8d5b80,611e7d6267ef17dc40003a55,
,,,,space,0.3813,,0,155,155,149,1,R, , , , ,space,2000,2,5faeaf52a1ecfa0af9c7f3f2,001,2021-08-19_16h49.06.789,natb3,2021.2.3,MacIntel,59.99880002,5faeaf52a1ecfa0af9c7f3f2,611e07ecdcc96256ae8d5b80,611e7d6267ef17dc40003a55,
,,,,space,0.3494,,0,156,156,127,1,S, , , , ,space,2500,2.5,5faeaf52a1ecfa0af9c7f3f2,001,2021-08-19_16h49.06.789,natb3,2021.2.3,MacIntel,59.99880002,5faeaf52a1ecfa0af9c7f3f2,611e07ecdcc96256ae8d5b80,611e7d6267ef17dc40003a55,
,,,,,,,0,157,157,302,1,X, , , , ,,2000,2,5faeaf52a1ecfa0af9c7f3f2,001,2021-08-19_16h49.06.789,natb3,2021.2.3,MacIntel,59.99880002,5faeaf52a1ecfa0af9c7f3f2,611e07ecdcc96256ae8d5b80,611e7d6267ef17dc40003a55,
,,,,space,0.4402,,0,158,158,87,1,H, , , , ,space,1500,1.5,5faeaf52a1ecfa0af9c7f3f2,001,2021-08-19_16h49.06.789,natb3,2021.2.3,MacIntel,59.99880002,5faeaf52a1ecfa0af9c7f3f2,611e07ecdcc96256ae8d5b80,611e7d6267ef17dc40003a55,
,,,,space,0.5212,,0,159,159,234,1,P, , , , ,space,2000,2,5faeaf52a1ecfa0af9c7f3f2,001,2021-08-19_16h49.06.789,natb3,2021.2.3,MacIntel,59.99880002,5faeaf52a1ecfa0af9c7f3f2,611e07ecdcc96256ae8d5b80,611e7d6267ef17dc40003a55,
,,,,space,0.4239,,0,160,160,197,1,G, , , , ,space,2500,2.5,5faeaf52a1ecfa0af9c7f3f2,001,2021-08-19_16h49.06.789,natb3,2021.2.3,MacIntel,59.99880002,5faeaf52a1ecfa0af9c7f3f2,611e07ecdcc96256ae8d5b80,611e7d6267ef17dc40003a55,
,,,,space,0.4655,,0,161,161,320,1,B, , , , ,space,1500,1.5,5faeaf52a1ecfa0af9c7f3f2,001,2021-08-19_16h49.06.789,natb3,2021.2.3,MacIntel,59.99880002,5faeaf52a1ecfa0af9c7f3f2,611e07ecdcc96256ae8d5b80,611e7d6267ef17dc40003a55,
,,,,space,0.9093,,0,162,162,72,1,T, , , , ,space,1500,1.5,5faeaf52a1ecfa0af9c7f3f2,001,2021-08-19_16h49.06.789,natb3,2021.2.3,MacIntel,59.99880002,5faeaf52a1ecfa0af9c7f3f2,611e07ecdcc96256ae8d5b80,611e7d6267ef17dc40003a55,
,,,,space,0.526,,0,163,163,294,1,T, , , , ,space,2000,2,5faeaf52a1ecfa0af9c7f3f2,001,2021-08-19_16h49.06.789,natb3,2021.2.3,MacIntel,59.99880002,5faeaf52a1ecfa0af9c7f3f2,611e07ecdcc96256ae8d5b80,611e7d6267ef17dc40003a55,
,,,,space,0.3696,,0,164,164,242,1,H, , , , ,space,2500,2.5,5faeaf52a1ecfa0af9c7f3f2,001,2021-08-19_16h49.06.789,natb3,2021.2.3,MacIntel,59.99880002,5faeaf52a1ecfa0af9c7f3f2,611e07ecdcc96256ae8d5b80,611e7d6267ef17dc40003a55,
,,,,space,0.2977,,0,165,165,244,1,J, , , , ,space,1500,1.5,5faeaf52a1ecfa0af9c7f3f2,001,2021-08-19_16h49.06.789,natb3,2021.2.3,MacIntel,59.99880002,5faeaf52a1ecfa0af9c7f3f2,611e07ecdcc96256ae8d5b80,611e7d6267ef17dc40003a55,
,,,,space,0.4045,,0,166,166,80,1,A, , , , ,space,2000,2,5faeaf52a1ecfa0af9c7f3f2,001,2021-08-19_16h49.06.789,natb3,2021.2.3,MacIntel,59.99880002,5faeaf52a1ecfa0af9c7f3f2,611e07ecdcc96256ae8d5b80,611e7d6267ef17dc40003a55,
,,,,,,space,0,167,167,93,1,X,5, ,7, ,,2500,2.5,5faeaf52a1ecfa0af9c7f3f2,001,2021-08-19_16h49.06.789,natb3,2021.2.3,MacIntel,59.99880002,5faeaf52a1ecfa0af9c7f3f2,611e07ecdcc96256ae8d5b80,611e7d6267ef17dc40003a55,110.2104
,,,,space,0.3929,,0,168,168,105,1,R, , , , ,space,2500,2.5,5faeaf52a1ecfa0af9c7f3f2,001,2021-08-19_16h49.06.789,natb3,2021.2.3,MacIntel,59.99880002,5faeaf52a1ecfa0af9c7f3f2,611e07ecdcc96256ae8d5b80,611e7d6267ef17dc40003a55,
,,,,,,,0,169,169,116,1,X, , , , ,,2000,2,5faeaf52a1ecfa0af9c7f3f2,001,2021-08-19_16h49.06.789,natb3,2021.2.3,MacIntel,59.99880002,5faeaf52a1ecfa0af9c7f3f2,611e07ecdcc96256ae8d5b80,611e7d6267ef17dc40003a55,
,,,,space,0.289,,0,170,170,109,1,U, , , , ,space,1500,1.5,5faeaf52a1ecfa0af9c7f3f2,001,2021-08-19_16h49.06.789,natb3,2021.2.3,MacIntel,59.99880002,5faeaf52a1ecfa0af9c7f3f2,611e07ecdcc96256ae8d5b80,611e7d6267ef17dc40003a55,
,,,,,,,0,171,171,305,1,X, , , , ,,1500,1.5,5faeaf52a1ecfa0af9c7f3f2,001,2021-08-19_16h49.06.789,natb3,2021.2.3,MacIntel,59.99880002,5faeaf52a1ecfa0af9c7f3f2,611e07ecdcc96256ae8d5b80,611e7d6267ef17dc40003a55,
,,,,space,0.5218,,0,172,172,8,1,U, , , , ,space,1500,1.5,5faeaf52a1ecfa0af9c7f3f2,001,2021-08-19_16h49.06.789,natb3,2021.2.3,MacIntel,59.99880002,5faeaf52a1ecfa0af9c7f3f2,611e07ecdcc96256ae8d5b80,611e7d6267ef17dc40003a55,
,,,,space,0.4328,,0,173,173,279,1,K, , , , ,space,2500,2.5,5faeaf52a1ecfa0af9c7f3f2,001,2021-08-19_16h49.06.789,natb3,2021.2.3,MacIntel,59.99880002,5faeaf52a1ecfa0af9c7f3f2,611e07ecdcc96256ae8d5b80,611e7d6267ef17dc40003a55,
,,,,space,0.3538,,0,174,174,160,1,D, , , , ,space,1500,1.5,5faeaf52a1ecfa0af9c7f3f2,001,2021-08-19_16h49.06.789,natb3,2021.2.3,MacIntel,59.99880002,5faeaf52a1ecfa0af9c7f3f2,611e07ecdcc96256ae8d5b80,611e7d6267ef17dc40003a55,
,,,,space,0.3991,,0,175,175,49,1,S, , , , ,space,1500,1.5,5faeaf52a1ecfa0af9c7f3f2,001,2021-08-19_16h49.06.789,natb3,2021.2.3,MacIntel,59.99880002,5faeaf52a1ecfa0af9c7f3f2,611e07ecdcc96256ae8d5b80,611e7d6267ef17dc40003a55,
,,,,space,0.3641,,0,176,176,32,1,M, , , , ,space,1500,1.5,5faeaf52a1ecfa0af9c7f3f2,001,2021-08-19_16h49.06.789,natb3,2021.2.3,MacIntel,59.99880002,5faeaf52a1ecfa0af9c7f3f2,611e07ecdcc96256ae8d5b80,611e7d6267ef17dc40003a55,
,,,,,,,0,177,177,23,1,X,1, ,5, ,,2000,2,5faeaf52a1ecfa0af9c7f3f2,001,2021-08-19_16h49.06.789,natb3,2021.2.3,MacIntel,59.99880002,5faeaf52a1ecfa0af9c7f3f2,611e07ecdcc96256ae8d5b80,611e7d6267ef17dc40003a55,
,,,,space,0.3834,,0,178,178,164,1,H, , , , ,space,2500,2.5,5faeaf52a1ecfa0af9c7f3f2,001,2021-08-19_16h49.06.789,natb3,2021.2.3,MacIntel,59.99880002,5faeaf52a1ecfa0af9c7f3f2,611e07ecdcc96256ae8d5b80,611e7d6267ef17dc40003a55,
,,,,space,0.9574,,0,179,179,260,1,R, , , , ,space,2000,2,5faeaf52a1ecfa0af9c7f3f2,001,2021-08-19_16h49.06.789,natb3,2021.2.3,MacIntel,59.99880002,5faeaf52a1ecfa0af9c7f3f2,611e07ecdcc96256ae8d5b80,611e7d6267ef17dc40003a55,
,,,,space,0.8553,,0,180,180,70,1,E, , , , ,space,2500,2.5,5faeaf52a1ecfa0af9c7f3f2,001,2021-08-19_16h49.06.789,natb3,2021.2.3,MacIntel,59.99880002,5faeaf52a1ecfa0af9c7f3f2,611e07ecdcc96256ae8d5b80,611e7d6267ef17dc40003a55,
,,,,space,0.3533,,0,181,181,270,1,S, , , , ,space,1500,1.5,5faeaf52a1ecfa0af9c7f3f2,001,2021-08-19_16h49.06.789,natb3,2021.2.3,MacIntel,59.99880002,5faeaf52a1ecfa0af9c7f3f2,611e07ecdcc96256ae8d5b80,611e7d6267ef17dc40003a55,
,,,,space,0.3016,,0,182,182,148,1,X, , , , ,,2000,2,5faeaf52a1ecfa0af9c7f3f2,001,2021-08-19_16h49.06.789,natb3,2021.2.3,MacIntel,59.99880002,5faeaf52a1ecfa0af9c7f3f2,611e07ecdcc96256ae8d5b80,611e7d6267ef17dc40003a55,
,,,,space,0.2928,,0,183,183,143,1,M, , , , ,space,2500,2.5,5faeaf52a1ecfa0af9c7f3f2,001,2021-08-19_16h49.06.789,natb3,2021.2.3,MacIntel,59.99880002,5faeaf52a1ecfa0af9c7f3f2,611e07ecdcc96256ae8d5b80,611e7d6267ef17dc40003a55,
,,,,space,0.3524,,0,184,184,58,1,L, , , , ,space,2000,2,5faeaf52a1ecfa0af9c7f3f2,001,2021-08-19_16h49.06.789,natb3,2021.2.3,MacIntel,59.99880002,5faeaf52a1ecfa0af9c7f3f2,611e07ecdcc96256ae8d5b80,611e7d6267ef17dc40003a55,
,,,,space,0.2835,,0,185,185,170,1,Z, , , , ,space,2000,2,5faeaf52a1ecfa0af9c7f3f2,001,2021-08-19_16h49.06.789,natb3,2021.2.3,MacIntel,59.99880002,5faeaf52a1ecfa0af9c7f3f2,611e07ecdcc96256ae8d5b80,611e7d6267ef17dc40003a55,
,,,,,,,0,186,186,96,1,X, , , , ,,1500,1.5,5faeaf52a1ecfa0af9c7f3f2,001,2021-08-19_16h49.06.789,natb3,2021.2.3,MacIntel,59.99880002,5faeaf52a1ecfa0af9c7f3f2,611e07ecdcc96256ae8d5b80,611e7d6267ef17dc40003a55,
,,,,,,,0,187,187,7,1,X, , , , ,,1500,1.5,5faeaf52a1ecfa0af9c7f3f2,001,2021-08-19_16h49.06.789,natb3,2021.2.3,MacIntel,59.99880002,5faeaf52a1ecfa0af9c7f3f2,611e07ecdcc96256ae8d5b80,611e7d6267ef17dc40003a55,
,,,,space,0.3489,,0,188,188,120,1,U, , , , ,space,1500,1.5,5faeaf52a1ecfa0af9c7f3f2,001,2021-08-19_16h49.06.789,natb3,2021.2.3,MacIntel,59.99880002,5faeaf52a1ecfa0af9c7f3f2,611e07ecdcc96256ae8d5b80,611e7d6267ef17dc40003a55,
,,,,space,0.4169,,0,189,189,53,1,G, , , , ,space,2500,2.5,5faeaf52a1ecfa0af9c7f3f2,001,2021-08-19_16h49.06.789,natb3,2021.2.3,MacIntel,59.99880002,5faeaf52a1ecfa0af9c7f3f2,611e07ecdcc96256ae8d5b80,611e7d6267ef17dc40003a55,
,,,,space,0.331,,0,190,190,205,1,C, , , , ,space,2000,2,5faeaf52a1ecfa0af9c7f3f2,001,2021-08-19_16h49.06.789,natb3,2021.2.3,MacIntel,59.99880002,5faeaf52a1ecfa0af9c7f3f2,611e07ecdcc96256ae8d5b80,611e7d6267ef17dc40003a55,
,,,,,,,0,191,191,322,1,X, , ,1,6,,2000,2,5faeaf52a1ecfa0af9c7f3f2,001,2021-08-19_16h49.06.789,natb3,2021.2.3,MacIntel,59.99880002,5faeaf52a1ecfa0af9c7f3f2,611e07ecdcc96256ae8d5b80,611e7d6267ef17dc40003a55,
,,,,space,0.3273,,0,192,192,134,1,J, , , , ,space,2000,2,5faeaf52a1ecfa0af9c7f3f2,001,2021-08-19_16h49.06.789,natb3,2021.2.3,MacIntel,59.99880002,5faeaf52a1ecfa0af9c7f3f2,611e07ecdcc96256ae8d5b80,611e7d6267ef17dc40003a55,
,,,,space,0.2747,,0,193,193,42,1,U, , , , ,space,1500,1.5,5faeaf52a1ecfa0af9c7f3f2,001,2021-08-19_16h49.06.789,natb3,2021.2.3,MacIntel,59.99880002,5faeaf52a1ecfa0af9c7f3f2,611e07ecdcc96256ae8d5b80,611e7d6267ef17dc40003a55,
,,,,space,0.382,,0,194,194,165,1,J, , , , ,space,2500,2.5,5faeaf52a1ecfa0af9c7f3f2,001,2021-08-19_16h49.06.789,natb3,2021.2.3,MacIntel,59.99880002,5faeaf52a1ecfa0af9c7f3f2,611e07ecdcc96256ae8d5b80,611e7d6267ef17dc40003a55,
,,,,space,0.2993,,0,195,195,258,1,E, , , , ,space,1500,1.5,5faeaf52a1ecfa0af9c7f3f2,001,2021-08-19_16h49.06.789,natb3,2021.2.3,MacIntel,59.99880002,5faeaf52a1ecfa0af9c7f3f2,611e07ecdcc96256ae8d5b80,611e7d6267ef17dc40003a55,
,,,,space,0.3833,,0,196,196,92,1,Z, , , , ,space,1500,1.5,5faeaf52a1ecfa0af9c7f3f2,001,2021-08-19_16h49.06.789,natb3,2021.2.3,MacIntel,59.99880002,5faeaf52a1ecfa0af9c7f3f2,611e07ecdcc96256ae8d5b80,611e7d6267ef17dc40003a55,
,,,,space,0.3695,,0,197,197,226,1,R, , , , ,space,2000,2,5faeaf52a1ecfa0af9c7f3f2,001,2021-08-19_16h49.06.789,natb3,2021.2.3,MacIntel,59.99880002,5faeaf52a1ecfa0af9c7f3f2,611e07ecdcc96256ae8d5b80,611e7d6267ef17dc40003a55,
,,,,,,,0,198,198,277,1,X,8,5, ,2,,2000,2,5faeaf52a1ecfa0af9c7f3f2,001,2021-08-19_16h49.06.789,natb3,2021.2.3,MacIntel,59.99880002,5faeaf52a1ecfa0af9c7f3f2,611e07ecdcc96256ae8d5b80,611e7d6267ef17dc40003a55,
,,,,,,,0,199,199,60,1,X,7,3,5, ,,1500,1.5,5faeaf52a1ecfa0af9c7f3f2,001,2021-08-19_16h49.06.789,natb3,2021.2.3,MacIntel,59.99880002,5faeaf52a1ecfa0af9c7f3f2,611e07ecdcc96256ae8d5b80,611e7d6267ef17dc40003a55,
,,,,,,,0,200,200,233,1,X, ,2, ,5,,1500,1.5,5faeaf52a1ecfa0af9c7f3f2,001,2021-08-19_16h49.06.789,natb3,2021.2.3,MacIntel,59.99880002,5faeaf52a1ecfa0af9c7f3f2,611e07ecdcc96256ae8d5b80,611e7d6267ef17dc40003a55,
,,,,,,,0,201,201,195,1,X, , , , ,,1500,1.5,5faeaf52a1ecfa0af9c7f3f2,001,2021-08-19_16h49.06.789,natb3,2021.2.3,MacIntel,59.99880002,5faeaf52a1ecfa0af9c7f3f2,611e07ecdcc96256ae8d5b80,611e7d6267ef17dc40003a55,
,,,,,,,0,202,202,138,1,X,8,5, ,3,,2000,2,5faeaf52a1ecfa0af9c7f3f2,001,2021-08-19_16h49.06.789,natb3,2021.2.3,MacIntel,59.99880002,5faeaf52a1ecfa0af9c7f3f2,611e07ecdcc96256ae8d5b80,611e7d6267ef17dc40003a55,
,,,,space,0.4109,,0,203,203,36,1,W, , , , ,space,2000,2,5faeaf52a1ecfa0af9c7f3f2,001,2021-08-19_16h49.06.789,natb3,2021.2.3,MacIntel,59.99880002,5faeaf52a1ecfa0af9c7f3f2,611e07ecdcc96256ae8d5b80,611e7d6267ef17dc40003a55,
,,,,space,0.5168,,0,204,204,63,1,B, , , , ,space,2000,2,5faeaf52a1ecfa0af9c7f3f2,001,2021-08-19_16h49.06.789,natb3,2021.2.3,MacIntel,59.99880002,5faeaf52a1ecfa0af9c7f3f2,611e07ecdcc96256ae8d5b80,611e7d6267ef17dc40003a55,
,,,,space,0.6658,,0,205,205,64,1,N, , , , ,space,2000,2,5faeaf52a1ecfa0af9c7f3f2,001,2021-08-19_16h49.06.789,natb3,2021.2.3,MacIntel,59.99880002,5faeaf52a1ecfa0af9c7f3f2,611e07ecdcc96256ae8d5b80,611e7d6267ef17dc40003a55,
,,,,,,,0,206,206,15,1,X, , , , ,,1500,1.5,5faeaf52a1ecfa0af9c7f3f2,001,2021-08-19_16h49.06.789,natb3,2021.2.3,MacIntel,59.99880002,5faeaf52a1ecfa0af9c7f3f2,611e07ecdcc96256ae8d5b80,611e7d6267ef17dc40003a55,
,,,,space,0.3667,,0,207,207,274,1,F, , , , ,space,2000,2,5faeaf52a1ecfa0af9c7f3f2,001,2021-08-19_16h49.06.789,natb3,2021.2.3,MacIntel,59.99880002,5faeaf52a1ecfa0af9c7f3f2,611e07ecdcc96256ae8d5b80,611e7d6267ef17dc40003a55,
,,,,space,0.363,,0,208,208,211,1,X, , , , ,,2500,2.5,5faeaf52a1ecfa0af9c7f3f2,001,2021-08-19_16h49.06.789,natb3,2021.2.3,MacIntel,59.99880002,5faeaf52a1ecfa0af9c7f3f2,611e07ecdcc96256ae8d5b80,611e7d6267ef17dc40003a55,
,,,,space,0.3234,,0,209,209,78,1,X, , , , ,,2000,2,5faeaf52a1ecfa0af9c7f3f2,001,2021-08-19_16h49.06.789,natb3,2021.2.3,MacIntel,59.99880002,5faeaf52a1ecfa0af9c7f3f2,611e07ecdcc96256ae8d5b80,611e7d6267ef17dc40003a55,
,,,,space,0.4519,,0,210,210,186,1,U, , , , ,space,2500,2.5,5faeaf52a1ecfa0af9c7f3f2,001,2021-08-19_16h49.06.789,natb3,2021.2.3,MacIntel,59.99880002,5faeaf52a1ecfa0af9c7f3f2,611e07ecdcc96256ae8d5b80,611e7d6267ef17dc40003a55,
,,,,space,0.5485,,0,211,211,238,1,D, , , , ,space,1500,1.5,5faeaf52a1ecfa0af9c7f3f2,001,2021-08-19_16h49.06.789,natb3,2021.2.3,MacIntel,59.99880002,5faeaf52a1ecfa0af9c7f3f2,611e07ecdcc96256ae8d5b80,611e7d6267ef17dc40003a55,
,,,,space,0.4525,,0,212,212,266,1,O, , , , ,space,1500,1.5,5faeaf52a1ecfa0af9c7f3f2,001,2021-08-19_16h49.06.789,natb3,2021.2.3,MacIntel,59.99880002,5faeaf52a1ecfa0af9c7f3f2,611e07ecdcc96256ae8d5b80,611e7d6267ef17dc40003a55,
,,,,space,0.3904,,0,213,213,225,1,E, , , , ,space,2000,2,5faeaf52a1ecfa0af9c7f3f2,001,2021-08-19_16h49.06.789,natb3,2021.2.3,MacIntel,59.99880002,5faeaf52a1ecfa0af9c7f3f2,611e07ecdcc96256ae8d5b80,611e7d6267ef17dc40003a55,
,,,,space,0.8184,,0,214,214,204,1,Z, , , , ,space,2000,2,5faeaf52a1ecfa0af9c7f3f2,001,2021-08-19_16h49.06.789,natb3,2021.2.3,MacIntel,59.99880002,5faeaf52a1ecfa0af9c7f3f2,611e07ecdcc96256ae8d5b80,611e7d6267ef17dc40003a55,
,,,,space,0.4024,,0,215,215,152,1,U, , , , ,space,2000,2,5faeaf52a1ecfa0af9c7f3f2,001,2021-08-19_16h49.06.789,natb3,2021.2.3,MacIntel,59.99880002,5faeaf52a1ecfa0af9c7f3f2,611e07ecdcc96256ae8d5b80,611e7d6267ef17dc40003a55,
,,,,space,0.4997,,0,216,216,62,1,V, , , , ,space,1500,1.5,5faeaf52a1ecfa0af9c7f3f2,001,2021-08-19_16h49.06.789,natb3,2021.2.3,MacIntel,59.99880002,5faeaf52a1ecfa0af9c7f3f2,611e07ecdcc96256ae8d5b80,611e7d6267ef17dc40003a55,
,,,,space,0.4977,,0,217,217,190,1,P, , , , ,space,2000,2,5faeaf52a1ecfa0af9c7f3f2,001,2021-08-19_16h49.06.789,natb3,2021.2.3,MacIntel,59.99880002,5faeaf52a1ecfa0af9c7f3f2,611e07ecdcc96256ae8d5b80,611e7d6267ef17dc40003a55,
,,,,space,0.3,,0,218,218,115,1,R, , , , ,space,1500,1.5,5faeaf52a1ecfa0af9c7f3f2,001,2021-08-19_16h49.06.789,natb3,2021.2.3,MacIntel,59.99880002,5faeaf52a1ecfa0af9c7f3f2,611e07ecdcc96256ae8d5b80,611e7d6267ef17dc40003a55,
,,,,space,0.3669,,0,219,219,319,1,V, , , , ,space,2000,2,5faeaf52a1ecfa0af9c7f3f2,001,2021-08-19_16h49.06.789,natb3,2021.2.3,MacIntel,59.99880002,5faeaf52a1ecfa0af9c7f3f2,611e07ecdcc96256ae8d5b80,611e7d6267ef17dc40003a55,
,,,,,,,0,220,220,39,1,X,6,2, , ,,1500,1.5,5faeaf52a1ecfa0af9c7f3f2,001,2021-08-19_16h49.06.789,natb3,2021.2.3,MacIntel,59.99880002,5faeaf52a1ecfa0af9c7f3f2,611e07ecdcc96256ae8d5b80,611e7d6267ef17dc40003a55,
,,,,,,,0,221,221,263,1,X,4, ,6, ,,1500,1.5,5faeaf52a1ecfa0af9c7f3f2,001,2021-08-19_16h49.06.789,natb3,2021.2.3,MacIntel,59.99880002,5faeaf52a1ecfa0af9c7f3f2,611e07ecdcc96256ae8d5b80,611e7d6267ef17dc40003a55,
,,,,,,,0,222,222,273,1,X, , , , ,,2000,2,5faeaf52a1ecfa0af9c7f3f2,001,2021-08-19_16h49.06.789,natb3,2021.2.3,MacIntel,59.99880002,5faeaf52a1ecfa0af9c7f3f2,611e07ecdcc96256ae8d5b80,611e7d6267ef17dc40003a55,
,,,,space,0.4228,,0,223,223,210,1,M, , , , ,space,1500,1.5,5faeaf52a1ecfa0af9c7f3f2,001,2021-08-19_16h49.06.789,natb3,2021.2.3,MacIntel,59.99880002,5faeaf52a1ecfa0af9c7f3f2,611e07ecdcc96256ae8d5b80,611e7d6267ef17dc40003a55,
,,,,space,0.4225,,0,224,224,3,1,R, , , , ,space,2000,2,5faeaf52a1ecfa0af9c7f3f2,001,2021-08-19_16h49.06.789,natb3,2021.2.3,MacIntel,59.99880002,5faeaf52a1ecfa0af9c7f3f2,611e07ecdcc96256ae8d5b80,611e7d6267ef17dc40003a55,
,,,,space,0.3311,,0,225,225,180,1,W, , , , ,space,2000,2,5faeaf52a1ecfa0af9c7f3f2,001,2021-08-19_16h49.06.789,natb3,2021.2.3,MacIntel,59.99880002,5faeaf52a1ecfa0af9c7f3f2,611e07ecdcc96256ae8d5b80,611e7d6267ef17dc40003a55,
,,,,space,0.3865,,0,226,226,208,1,B, , , , ,space,1500,1.5,5faeaf52a1ecfa0af9c7f3f2,001,2021-08-19_16h49.06.789,natb3,2021.2.3,MacIntel,59.99880002,5faeaf52a1ecfa0af9c7f3f2,611e07ecdcc96256ae8d5b80,611e7d6267ef17dc40003a55,
,,,,,,,0,227,227,122,1,X,1, , ,8,,1500,1.5,5faeaf52a1ecfa0af9c7f3f2,001,2021-08-19_16h49.06.789,natb3,2021.2.3,MacIntel,59.99880002,5faeaf52a1ecfa0af9c7f3f2,611e07ecdcc96256ae8d5b80,611e7d6267ef17dc40003a55,
,,,,,,,0,228,228,335,1,P,,,,,space,1500,1.5,5faeaf52a1ecfa0af9c7f3f2,001,2021-08-19_16h49.06.789,natb3,2021.2.3,MacIntel,59.99880002,5faeaf52a1ecfa0af9c7f3f2,611e07ecdcc96256ae8d5b80,611e7d6267ef17dc40003a55,
,,,,space,0.4182,,0,229,229,119,1,Y, , , , ,space,2500,2.5,5faeaf52a1ecfa0af9c7f3f2,001,2021-08-19_16h49.06.789,natb3,2021.2.3,MacIntel,59.99880002,5faeaf52a1ecfa0af9c7f3f2,611e07ecdcc96256ae8d5b80,611e7d6267ef17dc40003a55,
,,,,space,0.4499,,0,230,230,135,1,K, , , , ,space,1500,1.5,5faeaf52a1ecfa0af9c7f3f2,001,2021-08-19_16h49.06.789,natb3,2021.2.3,MacIntel,59.99880002,5faeaf52a1ecfa0af9c7f3f2,611e07ecdcc96256ae8d5b80,611e7d6267ef17dc40003a55,
,,,,,,,0,231,231,213,1,X, , , , ,,2500,2.5,5faeaf52a1ecfa0af9c7f3f2,001,2021-08-19_16h49.06.789,natb3,2021.2.3,MacIntel,59.99880002,5faeaf52a1ecfa0af9c7f3f2,611e07ecdcc96256ae8d5b80,611e7d6267ef17dc40003a55,
,,,,space,0.4497,,0,232,232,307,1,F, , , , ,space,2500,2.5,5faeaf52a1ecfa0af9c7f3f2,001,2021-08-19_16h49.06.789,natb3,2021.2.3,MacIntel,59.99880002,5faeaf52a1ecfa0af9c7f3f2,611e07ecdcc96256ae8d5b80,611e7d6267ef17dc40003a55,
,,,,space,0.5191,,0,233,233,154,1,I, , , , ,space,2500,2.5,5faeaf52a1ecfa0af9c7f3f2,001,2021-08-19_16h49.06.789,natb3,2021.2.3,MacIntel,59.99880002,5faeaf52a1ecfa0af9c7f3f2,611e07ecdcc96256ae8d5b80,611e7d6267ef17dc40003a55,
,,,,,,,0,234,234,268,1,X,6, ,3, ,,2500,2.5,5faeaf52a1ecfa0af9c7f3f2,001,2021-08-19_16h49.06.789,natb3,2021.2.3,MacIntel,59.99880002,5faeaf52a1ecfa0af9c7f3f2,611e07ecdcc96256ae8d5b80,611e7d6267ef17dc40003a55,
,,,,space,0.3431,,0,235,235,85,1,F, , , , ,space,2500,2.5,5faeaf52a1ecfa0af9c7f3f2,001,2021-08-19_16h49.06.789,natb3,2021.2.3,MacIntel,59.99880002,5faeaf52a1ecfa0af9c7f3f2,611e07ecdcc96256ae8d5b80,611e7d6267ef17dc40003a55,
,,,,space,0.4659,,0,236,236,67,1,Q, , , , ,space,2000,2,5faeaf52a1ecfa0af9c7f3f2,001,2021-08-19_16h49.06.789,natb3,2021.2.3,MacIntel,59.99880002,5faeaf52a1ecfa0af9c7f3f2,611e07ecdcc96256ae8d5b80,611e7d6267ef17dc40003a55,
,,,,space,0.3991,,0,237,237,10,1,O, , , , ,space,2000,2,5faeaf52a1ecfa0af9c7f3f2,001,2021-08-19_16h49.06.789,natb3,2021.2.3,MacIntel,59.99880002,5faeaf52a1ecfa0af9c7f3f2,611e07ecdcc96256ae8d5b80,611e7d6267ef17dc40003a55,
,,,,space,0.398,,0,238,238,206,1,V, , , , ,space,2000,2,5faeaf52a1ecfa0af9c7f3f2,001,2021-08-19_16h49.06.789,natb3,2021.2.3,MacIntel,59.99880002,5faeaf52a1ecfa0af9c7f3f2,611e07ecdcc96256ae8d5b80,611e7d6267ef17dc40003a55,
,,,,space,0.335,,0,239,239,56,1,J, , , , ,space,1500,1.5,5faeaf52a1ecfa0af9c7f3f2,001,2021-08-19_16h49.06.789,natb3,2021.2.3,MacIntel,59.99880002,5faeaf52a1ecfa0af9c7f3f2,611e07ecdcc96256ae8d5b80,611e7d6267ef17dc40003a55,
,,,,,,,0,240,240,311,1,X,1,2,7,3,,2500,2.5,5faeaf52a1ecfa0af9c7f3f2,001,2021-08-19_16h49.06.789,natb3,2021.2.3,MacIntel,59.99880002,5faeaf52a1ecfa0af9c7f3f2,611e07ecdcc96256ae8d5b80,611e7d6267ef17dc40003a55,
,,,,space,0.3579,,0,241,241,276,1,H, , , , ,space,2000,2,5faeaf52a1ecfa0af9c7f3f2,001,2021-08-19_16h49.06.789,natb3,2021.2.3,MacIntel,59.99880002,5faeaf52a1ecfa0af9c7f3f2,611e07ecdcc96256ae8d5b80,611e7d6267ef17dc40003a55,
,,,,space,0.3592,,0,242,242,184,1,T, , , , ,space,2000,2,5faeaf52a1ecfa0af9c7f3f2,001,2021-08-19_16h49.06.789,natb3,2021.2.3,MacIntel,59.99880002,5faeaf52a1ecfa0af9c7f3f2,611e07ecdcc96256ae8d5b80,611e7d6267ef17dc40003a55,
,,,,space,0.5298,,0,243,243,290,1,W, , , , ,space,1500,1.5,5faeaf52a1ecfa0af9c7f3f2,001,2021-08-19_16h49.06.789,natb3,2021.2.3,MacIntel,59.99880002,5faeaf52a1ecfa0af9c7f3f2,611e07ecdcc96256ae8d5b80,611e7d6267ef17dc40003a55,
,,,,space,0.3436,,0,244,244,251,1,B, , , , ,space,1500,1.5,5faeaf52a1ecfa0af9c7f3f2,001,2021-08-19_16h49.06.789,natb3,2021.2.3,MacIntel,59.99880002,5faeaf52a1ecfa0af9c7f3f2,611e07ecdcc96256ae8d5b80,611e7d6267ef17dc40003a55,
,,,,space,0.4661,,0,245,245,262,1,Y, , , , ,space,2500,2.5,5faeaf52a1ecfa0af9c7f3f2,001,2021-08-19_16h49.06.789,natb3,2021.2.3,MacIntel,59.99880002,5faeaf52a1ecfa0af9c7f3f2,611e07ecdcc96256ae8d5b80,611e7d6267ef17dc40003a55,
,,,,space,0.4163,,0,246,246,24,1,L, , , , ,space,2500,2.5,5faeaf52a1ecfa0af9c7f3f2,001,2021-08-19_16h49.06.789,natb3,2021.2.3,MacIntel,59.99880002,5faeaf52a1ecfa0af9c7f3f2,611e07ecdcc96256ae8d5b80,611e7d6267ef17dc40003a55,
,,,,space,0.3376,,0,247,247,110,1,I, , , , ,space,1500,1.5,5faeaf52a1ecfa0af9c7f3f2,001,2021-08-19_16h49.06.789,natb3,2021.2.3,MacIntel,59.99880002,5faeaf52a1ecfa0af9c7f3f2,611e07ecdcc96256ae8d5b80,611e7d6267ef17dc40003a55,
,,,,space,0.4824,,0,248,248,101,1,Q, , , , ,space,2500,2.5,5faeaf52a1ecfa0af9c7f3f2,001,2021-08-19_16h49.06.789,natb3,2021.2.3,MacIntel,59.99880002,5faeaf52a1ecfa0af9c7f3f2,611e07ecdcc96256ae8d5b80,611e7d6267ef17dc40003a55,
,,,,space,0.3178,,0,249,249,1,1,W, , , , ,space,2000,2,5faeaf52a1ecfa0af9c7f3f2,001,2021-08-19_16h49.06.789,natb3,2021.2.3,MacIntel,59.99880002,5faeaf52a1ecfa0af9c7f3f2,611e07ecdcc96256ae8d5b80,611e7d6267ef17dc40003a55,
,,,,space,0.3738,,0,250,250,328,1,R, , , , ,space,1500,1.5,5faeaf52a1ecfa0af9c7f3f2,001,2021-08-19_16h49.06.789,natb3,2021.2.3,MacIntel,59.99880002,5faeaf52a1ecfa0af9c7f3f2,611e07ecdcc96256ae8d5b80,611e7d6267ef17dc40003a55,
,,,,,,,0,251,251,129,1,X,2,3,5, ,,1500,1.5,5faeaf52a1ecfa0af9c7f3f2,001,2021-08-19_16h49.06.789,natb3,2021.2.3,MacIntel,59.99880002,5faeaf52a1ecfa0af9c7f3f2,611e07ecdcc96256ae8d5b80,611e7d6267ef17dc40003a55,
,,,,space,0.366,,0,252,252,192,1,A, , , , ,space,2000,2,5faeaf52a1ecfa0af9c7f3f2,001,2021-08-19_16h49.06.789,natb3,2021.2.3,MacIntel,59.99880002,5faeaf52a1ecfa0af9c7f3f2,611e07ecdcc96256ae8d5b80,611e7d6267ef17dc40003a55,
,,,,space,0.3521,,0,253,253,250,1,V, , , , ,space,2000,2,5faeaf52a1ecfa0af9c7f3f2,001,2021-08-19_16h49.06.789,natb3,2021.2.3,MacIntel,59.99880002,5faeaf52a1ecfa0af9c7f3f2,611e07ecdcc96256ae8d5b80,611e7d6267ef17dc40003a55,
,,,,space,0.3327,,0,254,254,214,1,W, , , , ,space,2000,2,5faeaf52a1ecfa0af9c7f3f2,001,2021-08-19_16h49.06.789,natb3,2021.2.3,MacIntel,59.99880002,5faeaf52a1ecfa0af9c7f3f2,611e07ecdcc96256ae8d5b80,611e7d6267ef17dc40003a55,
,,,,space,0.3219,,0,255,255,324,1,Q, , , , ,space,2000,2,5faeaf52a1ecfa0af9c7f3f2,001,2021-08-19_16h49.06.789,natb3,2021.2.3,MacIntel,59.99880002,5faeaf52a1ecfa0af9c7f3f2,611e07ecdcc96256ae8d5b80,611e7d6267ef17dc40003a55,
,,,,space,0.4012,,0,256,256,71,1,R, , , , ,space,2500,2.5,5faeaf52a1ecfa0af9c7f3f2,001,2021-08-19_16h49.06.789,natb3,2021.2.3,MacIntel,59.99880002,5faeaf52a1ecfa0af9c7f3f2,611e07ecdcc96256ae8d5b80,611e7d6267ef17dc40003a55,
,,,,space,0.3686,,0,257,257,326,1,W, , , , ,space,2000,2,5faeaf52a1ecfa0af9c7f3f2,001,2021-08-19_16h49.06.789,natb3,2021.2.3,MacIntel,59.99880002,5faeaf52a1ecfa0af9c7f3f2,611e07ecdcc96256ae8d5b80,611e7d6267ef17dc40003a55,
,,,,space,0.4991,,0,258,258,9,1,I, , , , ,space,1500,1.5,5faeaf52a1ecfa0af9c7f3f2,001,2021-08-19_16h49.06.789,natb3,2021.2.3,MacIntel,59.99880002,5faeaf52a1ecfa0af9c7f3f2,611e07ecdcc96256ae8d5b80,611e7d6267ef17dc40003a55,
,,,,space,0.3408,,0,259,259,117,1,T, , , , ,space,2500,2.5,5faeaf52a1ecfa0af9c7f3f2,001,2021-08-19_16h49.06.789,natb3,2021.2.3,MacIntel,59.99880002,5faeaf52a1ecfa0af9c7f3f2,611e07ecdcc96256ae8d5b80,611e7d6267ef17dc40003a55,
,,,,space,0.3659,,0,260,260,285,1,B, , , , ,space,1500,1.5,5faeaf52a1ecfa0af9c7f3f2,001,2021-08-19_16h49.06.789,natb3,2021.2.3,MacIntel,59.99880002,5faeaf52a1ecfa0af9c7f3f2,611e07ecdcc96256ae8d5b80,611e7d6267ef17dc40003a55,
,,,,space,0.3558,,0,261,261,30,1,N, , , , ,space,2500,2.5,5faeaf52a1ecfa0af9c7f3f2,001,2021-08-19_16h49.06.789,natb3,2021.2.3,MacIntel,59.99880002,5faeaf52a1ecfa0af9c7f3f2,611e07ecdcc96256ae8d5b80,611e7d6267ef17dc40003a55,
,,,,space,0.342,,0,262,262,174,1,B, , , , ,space,2500,2.5,5faeaf52a1ecfa0af9c7f3f2,001,2021-08-19_16h49.06.789,natb3,2021.2.3,MacIntel,59.99880002,5faeaf52a1ecfa0af9c7f3f2,611e07ecdcc96256ae8d5b80,611e7d6267ef17dc40003a55,
,,,,space,0.2773,,0,263,263,43,1,X, ,6, ,2,,2500,2.5,5faeaf52a1ecfa0af9c7f3f2,001,2021-08-19_16h49.06.789,natb3,2021.2.3,MacIntel,59.99880002,5faeaf52a1ecfa0af9c7f3f2,611e07ecdcc96256ae8d5b80,611e7d6267ef17dc40003a55,
,,,,space,0.4259,,0,264,264,296,1,Y, , , , ,space,2500,2.5,5faeaf52a1ecfa0af9c7f3f2,001,2021-08-19_16h49.06.789,natb3,2021.2.3,MacIntel,59.99880002,5faeaf52a1ecfa0af9c7f3f2,611e07ecdcc96256ae8d5b80,611e7d6267ef17dc40003a55,
,,,,space,0.4076,,0,265,265,146,1,W, , , , ,space,1500,1.5,5faeaf52a1ecfa0af9c7f3f2,001,2021-08-19_16h49.06.789,natb3,2021.2.3,MacIntel,59.99880002,5faeaf52a1ecfa0af9c7f3f2,611e07ecdcc96256ae8d5b80,611e7d6267ef17dc40003a55,
,,,,space,0.4544,,0,266,266,113,1,W, , , , ,space,2500,2.5,5faeaf52a1ecfa0af9c7f3f2,001,2021-08-19_16h49.06.789,natb3,2021.2.3,MacIntel,59.99880002,5faeaf52a1ecfa0af9c7f3f2,611e07ecdcc96256ae8d5b80,611e7d6267ef17dc40003a55,
,,,,,,,0,267,267,229,1,X,8, ,2,6,,2500,2.5,5faeaf52a1ecfa0af9c7f3f2,001,2021-08-19_16h49.06.789,natb3,2021.2.3,MacIntel,59.99880002,5faeaf52a1ecfa0af9c7f3f2,611e07ecdcc96256ae8d5b80,611e7d6267ef17dc40003a55,
,,,,space,0.3895,,0,268,268,334,1,O, , , , ,space,1500,1.5,5faeaf52a1ecfa0af9c7f3f2,001,2021-08-19_16h49.06.789,natb3,2021.2.3,MacIntel,59.99880002,5faeaf52a1ecfa0af9c7f3f2,611e07ecdcc96256ae8d5b80,611e7d6267ef17dc40003a55,
,,,,space,0.3837,,0,269,269,40,1,T, , , , ,space,1500,1.5,5faeaf52a1ecfa0af9c7f3f2,001,2021-08-19_16h49.06.789,natb3,2021.2.3,MacIntel,59.99880002,5faeaf52a1ecfa0af9c7f3f2,611e07ecdcc96256ae8d5b80,611e7d6267ef17dc40003a55,
,,,,space,0.3983,,0,270,270,249,1,C, , , , ,space,2000,2,5faeaf52a1ecfa0af9c7f3f2,001,2021-08-19_16h49.06.789,natb3,2021.2.3,MacIntel,59.99880002,5faeaf52a1ecfa0af9c7f3f2,611e07ecdcc96256ae8d5b80,611e7d6267ef17dc40003a55,
,,,,space,0.3312,,0,271,271,11,1,P, , , , ,space,2500,2.5,5faeaf52a1ecfa0af9c7f3f2,001,2021-08-19_16h49.06.789,natb3,2021.2.3,MacIntel,59.99880002,5faeaf52a1ecfa0af9c7f3f2,611e07ecdcc96256ae8d5b80,611e7d6267ef17dc40003a55,
,,,,space,0.4978,,0,272,272,75,1,U, , , , ,space,1500,1.5,5faeaf52a1ecfa0af9c7f3f2,001,2021-08-19_16h49.06.789,natb3,2021.2.3,MacIntel,59.99880002,5faeaf52a1ecfa0af9c7f3f2,611e07ecdcc96256ae8d5b80,611e7d6267ef17dc40003a55,
,,,,space,0.4985,,0,273,273,310,1,J, , , , ,space,2500,2.5,5faeaf52a1ecfa0af9c7f3f2,001,2021-08-19_16h49.06.789,natb3,2021.2.3,MacIntel,59.99880002,5faeaf52a1ecfa0af9c7f3f2,611e07ecdcc96256ae8d5b80,611e7d6267ef17dc40003a55,
,,,,,,,0,274,274,218,1,X,1,3, ,8,,1500,1.5,5faeaf52a1ecfa0af9c7f3f2,001,2021-08-19_16h49.06.789,natb3,2021.2.3,MacIntel,59.99880002,5faeaf52a1ecfa0af9c7f3f2,611e07ecdcc96256ae8d5b80,611e7d6267ef17dc40003a55,
,,,,,,,0,275,275,168,1,X, , , , ,,2500,2.5,5faeaf52a1ecfa0af9c7f3f2,001,2021-08-19_16h49.06.789,natb3,2021.2.3,MacIntel,59.99880002,5faeaf52a1ecfa0af9c7f3f2,611e07ecdcc96256ae8d5b80,611e7d6267ef17dc40003a55,
,,,,space,0.4831,,0,276,276,41,1,Y, , , , ,space,2500,2.5,5faeaf52a1ecfa0af9c7f3f2,001,2021-08-19_16h49.06.789,natb3,2021.2.3,MacIntel,59.99880002,5faeaf52a1ecfa0af9c7f3f2,611e07ecdcc96256ae8d5b80,611e7d6267ef17dc40003a55,
,,,,space,0.5822,,0,277,277,280,1,L, , , , ,space,1500,1.5,5faeaf52a1ecfa0af9c7f3f2,001,2021-08-19_16h49.06.789,natb3,2021.2.3,MacIntel,59.99880002,5faeaf52a1ecfa0af9c7f3f2,611e07ecdcc96256ae8d5b80,611e7d6267ef17dc40003a55,
,,,,space,0.4312,,0,278,278,123,1,O, , , , ,space,1500,1.5,5faeaf52a1ecfa0af9c7f3f2,001,2021-08-19_16h49.06.789,natb3,2021.2.3,MacIntel,59.99880002,5faeaf52a1ecfa0af9c7f3f2,611e07ecdcc96256ae8d5b80,611e7d6267ef17dc40003a55,
,,,,space,0.3167,,0,279,279,264,1,U, , , , ,space,2000,2,5faeaf52a1ecfa0af9c7f3f2,001,2021-08-19_16h49.06.789,natb3,2021.2.3,MacIntel,59.99880002,5faeaf52a1ecfa0af9c7f3f2,611e07ecdcc96256ae8d5b80,611e7d6267ef17dc40003a55,
,,,,space,0.3501,,0,280,280,254,1,M, , , , ,space,1500,1.5,5faeaf52a1ecfa0af9c7f3f2,001,2021-08-19_16h49.06.789,natb3,2021.2.3,MacIntel,59.99880002,5faeaf52a1ecfa0af9c7f3f2,611e07ecdcc96256ae8d5b80,611e7d6267ef17dc40003a55,
,,,,space,0.4995,,0,281,281,147,1,E, , , , ,space,2000,2,5faeaf52a1ecfa0af9c7f3f2,001,2021-08-19_16h49.06.789,natb3,2021.2.3,MacIntel,59.99880002,5faeaf52a1ecfa0af9c7f3f2,611e07ecdcc96256ae8d5b80,611e7d6267ef17dc40003a55,
,,,,space,0.2843,,0,282,282,300,1,O, , , , ,space,2500,2.5,5faeaf52a1ecfa0af9c7f3f2,001,2021-08-19_16h49.06.789,natb3,2021.2.3,MacIntel,59.99880002,5faeaf52a1ecfa0af9c7f3f2,611e07ecdcc96256ae8d5b80,611e7d6267ef17dc40003a55,
,,,,space,0.3473,,0,283,283,299,1,X, , , , ,,2500,2.5,5faeaf52a1ecfa0af9c7f3f2,001,2021-08-19_16h49.06.789,natb3,2021.2.3,MacIntel,59.99880002,5faeaf52a1ecfa0af9c7f3f2,611e07ecdcc96256ae8d5b80,611e7d6267ef17dc40003a55,
,,,,space,0.3341,,0,284,284,330,1,T, , , , ,space,2500,2.5,5faeaf52a1ecfa0af9c7f3f2,001,2021-08-19_16h49.06.789,natb3,2021.2.3,MacIntel,59.99880002,5faeaf52a1ecfa0af9c7f3f2,611e07ecdcc96256ae8d5b80,611e7d6267ef17dc40003a55,
,,,,space,0.3448,,0,285,285,51,1,X,7,5,8, ,,1500,1.5,5faeaf52a1ecfa0af9c7f3f2,001,2021-08-19_16h49.06.789,natb3,2021.2.3,MacIntel,59.99880002,5faeaf52a1ecfa0af9c7f3f2,611e07ecdcc96256ae8d5b80,611e7d6267ef17dc40003a55,
,,,,space,0.708,,0,286,286,136,1,Z, , , , ,space,2500,2.5,5faeaf52a1ecfa0af9c7f3f2,001,2021-08-19_16h49.06.789,natb3,2021.2.3,MacIntel,59.99880002,5faeaf52a1ecfa0af9c7f3f2,611e07ecdcc96256ae8d5b80,611e7d6267ef17dc40003a55,
,,,,space,0.434,,0,287,287,232,1,O, , , , ,space,2500,2.5,5faeaf52a1ecfa0af9c7f3f2,001,2021-08-19_16h49.06.789,natb3,2021.2.3,MacIntel,59.99880002,5faeaf52a1ecfa0af9c7f3f2,611e07ecdcc96256ae8d5b80,611e7d6267ef17dc40003a55,
,,,,space,0.4022,,0,288,288,185,1,Y, , , , ,space,2500,2.5,5faeaf52a1ecfa0af9c7f3f2,001,2021-08-19_16h49.06.789,natb3,2021.2.3,MacIntel,59.99880002,5faeaf52a1ecfa0af9c7f3f2,611e07ecdcc96256ae8d5b80,611e7d6267ef17dc40003a55,
,,,,space,0.3356,,0,289,289,155,1,O, , , , ,space,1500,1.5,5faeaf52a1ecfa0af9c7f3f2,001,2021-08-19_16h49.06.789,natb3,2021.2.3,MacIntel,59.99880002,5faeaf52a1ecfa0af9c7f3f2,611e07ecdcc96256ae8d5b80,611e7d6267ef17dc40003a55,
,,,,,,,0,290,290,46,1,X, , , , ,,2000,2,5faeaf52a1ecfa0af9c7f3f2,001,2021-08-19_16h49.06.789,natb3,2021.2.3,MacIntel,59.99880002,5faeaf52a1ecfa0af9c7f3f2,611e07ecdcc96256ae8d5b80,611e7d6267ef17dc40003a55,
,,,,space,0.368,,0,291,291,292,1,E, , , , ,space,2000,2,5faeaf52a1ecfa0af9c7f3f2,001,2021-08-19_16h49.06.789,natb3,2021.2.3,MacIntel,59.99880002,5faeaf52a1ecfa0af9c7f3f2,611e07ecdcc96256ae8d5b80,611e7d6267ef17dc40003a55,
,,,,space,0.2993,,0,292,292,54,1,X, , , , ,,2000,2,5faeaf52a1ecfa0af9c7f3f2,001,2021-08-19_16h49.06.789,natb3,2021.2.3,MacIntel,59.99880002,5faeaf52a1ecfa0af9c7f3f2,611e07ecdcc96256ae8d5b80,611e7d6267ef17dc40003a55,
,,,,space,0.3711,,0,293,293,21,1,J, , , , ,space,1500,1.5,5faeaf52a1ecfa0af9c7f3f2,001,2021-08-19_16h49.06.789,natb3,2021.2.3,MacIntel,59.99880002,5faeaf52a1ecfa0af9c7f3f2,611e07ecdcc96256ae8d5b80,611e7d6267ef17dc40003a55,
,,,,space,0.4514,,0,294,294,199,1,J, , , , ,space,2500,2.5,5faeaf52a1ecfa0af9c7f3f2,001,2021-08-19_16h49.06.789,natb3,2021.2.3,MacIntel,59.99880002,5faeaf52a1ecfa0af9c7f3f2,611e07ecdcc96256ae8d5b80,611e7d6267ef17dc40003a55,
,,,,space,0.571,,0,295,295,22,1,K, , , , ,space,2000,2,5faeaf52a1ecfa0af9c7f3f2,001,2021-08-19_16h49.06.789,natb3,2021.2.3,MacIntel,59.99880002,5faeaf52a1ecfa0af9c7f3f2,611e07ecdcc96256ae8d5b80,611e7d6267ef17dc40003a55,
,,,,space,0.36,,0,296,296,44,1,I, , , , ,space,2500,2.5,5faeaf52a1ecfa0af9c7f3f2,001,2021-08-19_16h49.06.789,natb3,2021.2.3,MacIntel,59.99880002,5faeaf52a1ecfa0af9c7f3f2,611e07ecdcc96256ae8d5b80,611e7d6267ef17dc40003a55,
,,,,space,0.499,,0,297,297,223,1,Q, , , , ,space,2000,2,5faeaf52a1ecfa0af9c7f3f2,001,2021-08-19_16h49.06.789,natb3,2021.2.3,MacIntel,59.99880002,5faeaf52a1ecfa0af9c7f3f2,611e07ecdcc96256ae8d5b80,611e7d6267ef17dc40003a55,
,,,,space,0.369,,0,298,298,314,1,L, , , , ,space,1500,1.5,5faeaf52a1ecfa0af9c7f3f2,001,2021-08-19_16h49.06.789,natb3,2021.2.3,MacIntel,59.99880002,5faeaf52a1ecfa0af9c7f3f2,611e07ecdcc96256ae8d5b80,611e7d6267ef17dc40003a55,
,,,,space,0.3478,,0,299,299,193,1,S, , , , ,space,2500,2.5,5faeaf52a1ecfa0af9c7f3f2,001,2021-08-19_16h49.06.789,natb3,2021.2.3,MacIntel,59.99880002,5faeaf52a1ecfa0af9c7f3f2,611e07ecdcc96256ae8d5b80,611e7d6267ef17dc40003a55,
,,,,space,0.3561,,0,300,300,29,1,B, , , , ,space,1500,1.5,5faeaf52a1ecfa0af9c7f3f2,001,2021-08-19_16h49.06.789,natb3,2021.2.3,MacIntel,59.99880002,5faeaf52a1ecfa0af9c7f3f2,611e07ecdcc96256ae8d5b80,611e7d6267ef17dc40003a55,
,,,,,,,0,301,301,141,1,X,1, ,4,6,,1500,1.5,5faeaf52a1ecfa0af9c7f3f2,001,2021-08-19_16h49.06.789,natb3,2021.2.3,MacIntel,59.99880002,5faeaf52a1ecfa0af9c7f3f2,611e07ecdcc96256ae8d5b80,611e7d6267ef17dc40003a55,
,,,,,,,0,302,302,69,1,X, , , , ,,1500,1.5,5faeaf52a1ecfa0af9c7f3f2,001,2021-08-19_16h49.06.789,natb3,2021.2.3,MacIntel,59.99880002,5faeaf52a1ecfa0af9c7f3f2,611e07ecdcc96256ae8d5b80,611e7d6267ef17dc40003a55,
,,,,space,0.3991,,0,303,303,220,1,U, , , , ,space,2500,2.5,5faeaf52a1ecfa0af9c7f3f2,001,2021-08-19_16h49.06.789,natb3,2021.2.3,MacIntel,59.99880002,5faeaf52a1ecfa0af9c7f3f2,611e07ecdcc96256ae8d5b80,611e7d6267ef17dc40003a55,
,,,,space,0.4001,,0,304,304,265,1,I, , , , ,space,2000,2,5faeaf52a1ecfa0af9c7f3f2,001,2021-08-19_16h49.06.789,natb3,2021.2.3,MacIntel,59.99880002,5faeaf52a1ecfa0af9c7f3f2,611e07ecdcc96256ae8d5b80,611e7d6267ef17dc40003a55,
,,,,space,0.3395,,0,305,305,88,1,J, , , , ,space,2500,2.5,5faeaf52a1ecfa0af9c7f3f2,001,2021-08-19_16h49.06.789,natb3,2021.2.3,MacIntel,59.99880002,5faeaf52a1ecfa0af9c7f3f2,611e07ecdcc96256ae8d5b80,611e7d6267ef17dc40003a55,
,,,,space,0.3286,,0,306,306,167,1,K, , , , ,space,1500,1.5,5faeaf52a1ecfa0af9c7f3f2,001,2021-08-19_16h49.06.789,natb3,2021.2.3,MacIntel,59.99880002,5faeaf52a1ecfa0af9c7f3f2,611e07ecdcc96256ae8d5b80,611e7d6267ef17dc40003a55,
,,,,,,,0,307,307,89,1,X,3, , , ,,2000,2,5faeaf52a1ecfa0af9c7f3f2,001,2021-08-19_16h49.06.789,natb3,2021.2.3,MacIntel,59.99880002,5faeaf52a1ecfa0af9c7f3f2,611e07ecdcc96256ae8d5b80,611e7d6267ef17dc40003a55,
,,,,,,,0,308,308,133,1,X, ,4, ,6,,2500,2.5,5faeaf52a1ecfa0af9c7f3f2,001,2021-08-19_16h49.06.789,natb3,2021.2.3,MacIntel,59.99880002,5faeaf52a1ecfa0af9c7f3f2,611e07ecdcc96256ae8d5b80,611e7d6267ef17dc40003a55,
,,,,space,0.4036,,0,309,309,318,1,X, , , , ,,1500,1.5,5faeaf52a1ecfa0af9c7f3f2,001,2021-08-19_16h49.06.789,natb3,2021.2.3,MacIntel,59.99880002,5faeaf52a1ecfa0af9c7f3f2,611e07ecdcc96256ae8d5b80,611e7d6267ef17dc40003a55,
,,,,space,0.3976,,0,310,310,257,1,W, , , , ,space,2000,2,5faeaf52a1ecfa0af9c7f3f2,001,2021-08-19_16h49.06.789,natb3,2021.2.3,MacIntel,59.99880002,5faeaf52a1ecfa0af9c7f3f2,611e07ecdcc96256ae8d5b80,611e7d6267ef17dc40003a55,
,,,,space,0.465,,0,311,311,189,1,O, , , , ,space,1500,1.5,5faeaf52a1ecfa0af9c7f3f2,001,2021-08-19_16h49.06.789,natb3,2021.2.3,MacIntel,59.99880002,5faeaf52a1ecfa0af9c7f3f2,611e07ecdcc96256ae8d5b80,611e7d6267ef17dc40003a55,
,,,,space,0.4478,,0,312,312,13,1,A, , , , ,space,2000,2,5faeaf52a1ecfa0af9c7f3f2,001,2021-08-19_16h49.06.789,natb3,2021.2.3,MacIntel,59.99880002,5faeaf52a1ecfa0af9c7f3f2,611e07ecdcc96256ae8d5b80,611e7d6267ef17dc40003a55,
,,,,,,,0,313,313,182,1,X, , , , ,,1500,1.5,5faeaf52a1ecfa0af9c7f3f2,001,2021-08-19_16h49.06.789,natb3,2021.2.3,MacIntel,59.99880002,5faeaf52a1ecfa0af9c7f3f2,611e07ecdcc96256ae8d5b80,611e7d6267ef17dc40003a55,
,,,,space,0.3848,,0,314,314,212,1,Q, , , , ,space,2500,2.5,5faeaf52a1ecfa0af9c7f3f2,001,2021-08-19_16h49.06.789,natb3,2021.2.3,MacIntel,59.99880002,5faeaf52a1ecfa0af9c7f3f2,611e07ecdcc96256ae8d5b80,611e7d6267ef17dc40003a55,
,,,,,,,0,315,315,236,1,X,3, ,4,7,,2500,2.5,5faeaf52a1ecfa0af9c7f3f2,001,2021-08-19_16h49.06.789,natb3,2021.2.3,MacIntel,59.99880002,5faeaf52a1ecfa0af9c7f3f2,611e07ecdcc96256ae8d5b80,611e7d6267ef17dc40003a55,
,,,,space,0.4634,,0,316,316,306,1,D, , , , ,space,2000,2,5faeaf52a1ecfa0af9c7f3f2,001,2021-08-19_16h49.06.789,natb3,2021.2.3,MacIntel,59.99880002,5faeaf52a1ecfa0af9c7f3f2,611e07ecdcc96256ae8d5b80,611e7d6267ef17dc40003a55,
,,,,space,0.4364,,0,317,317,83,1,D, , , , ,space,2000,2,5faeaf52a1ecfa0af9c7f3f2,001,2021-08-19_16h49.06.789,natb3,2021.2.3,MacIntel,59.99880002,5faeaf52a1ecfa0af9c7f3f2,611e07ecdcc96256ae8d5b80,611e7d6267ef17dc40003a55,
,,,,space,0.686,,0,318,318,38,1,R, , , , ,space,2500,2.5,5faeaf52a1ecfa0af9c7f3f2,001,2021-08-19_16h49.06.789,natb3,2021.2.3,MacIntel,59.99880002,5faeaf52a1ecfa0af9c7f3f2,611e07ecdcc96256ae8d5b80,611e7d6267ef17dc40003a55,
,,,,space,0.3729,,0,319,319,201,1,K, , , , ,space,1500,1.5,5faeaf52a1ecfa0af9c7f3f2,001,2021-08-19_16h49.06.789,natb3,2021.2.3,MacIntel,59.99880002,5faeaf52a1ecfa0af9c7f3f2,611e07ecdcc96256ae8d5b80,611e7d6267ef17dc40003a55,
,,,,space,0.4703,,0,320,320,198,1,H, , , , ,space,2500,2.5,5faeaf52a1ecfa0af9c7f3f2,001,2021-08-19_16h49.06.789,natb3,2021.2.3,MacIntel,59.99880002,5faeaf52a1ecfa0af9c7f3f2,611e07ecdcc96256ae8d5b80,611e7d6267ef17dc40003a55,
,,,,space,0.4014,,0,321,321,26,1,C, , , , ,space,2000,2,5faeaf52a1ecfa0af9c7f3f2,001,2021-08-19_16h49.06.789,natb3,2021.2.3,MacIntel,59.99880002,5faeaf52a1ecfa0af9c7f3f2,611e07ecdcc96256ae8d5b80,611e7d6267ef17dc40003a55,
,,,,space,0.3687,,0,322,322,293,1,R, , , , ,space,2500,2.5,5faeaf52a1ecfa0af9c7f3f2,001,2021-08-19_16h49.06.789,natb3,2021.2.3,MacIntel,59.99880002,5faeaf52a1ecfa0af9c7f3f2,611e07ecdcc96256ae8d5b80,611e7d6267ef17dc40003a55,
,,,,,,,0,323,323,248,1,X, ,1,5, ,,1500,1.5,5faeaf52a1ecfa0af9c7f3f2,001,2021-08-19_16h49.06.789,natb3,2021.2.3,MacIntel,59.99880002,5faeaf52a1ecfa0af9c7f3f2,611e07ecdcc96256ae8d5b80,611e7d6267ef17dc40003a55,
,,,,space,0.4205,,0,324,324,17,1,F, , , , ,space,2500,2.5,5faeaf52a1ecfa0af9c7f3f2,001,2021-08-19_16h49.06.789,natb3,2021.2.3,MacIntel,59.99880002,5faeaf52a1ecfa0af9c7f3f2,611e07ecdcc96256ae8d5b80,611e7d6267ef17dc40003a55,
,,,,,,,0,325,325,259,1,X,8, , ,3,,2500,2.5,5faeaf52a1ecfa0af9c7f3f2,001,2021-08-19_16h49.06.789,natb3,2021.2.3,MacIntel,59.99880002,5faeaf52a1ecfa0af9c7f3f2,611e07ecdcc96256ae8d5b80,611e7d6267ef17dc40003a55,
,,,,space,0.4804,,0,326,326,288,1,M, , , , ,space,1500,1.5,5faeaf52a1ecfa0af9c7f3f2,001,2021-08-19_16h49.06.789,natb3,2021.2.3,MacIntel,59.99880002,5faeaf52a1ecfa0af9c7f3f2,611e07ecdcc96256ae8d5b80,611e7d6267ef17dc40003a55,
,,,,space,0.4222,,0,327,327,159,1,S, , , , ,space,2500,2.5,5faeaf52a1ecfa0af9c7f3f2,001,2021-08-19_16h49.06.789,natb3,2021.2.3,MacIntel,59.99880002,5faeaf52a1ecfa0af9c7f3f2,611e07ecdcc96256ae8d5b80,611e7d6267ef17dc40003a55,
,,,,space,0.7061,,0,328,328,28,1,V, , , , ,space,1500,1.5,5faeaf52a1ecfa0af9c7f3f2,001,2021-08-19_16h49.06.789,natb3,2021.2.3,MacIntel,59.99880002,5faeaf52a1ecfa0af9c7f3f2,611e07ecdcc96256ae8d5b80,611e7d6267ef17dc40003a55,
,,,,space,0.487,,0,329,329,309,1,H, , , , ,space,2500,2.5,5faeaf52a1ecfa0af9c7f3f2,001,2021-08-19_16h49.06.789,natb3,2021.2.3,MacIntel,59.99880002,5faeaf52a1ecfa0af9c7f3f2,611e07ecdcc96256ae8d5b80,611e7d6267ef17dc40003a55,
,,,,,,,0,330,330,239,1,X, , , , ,,2000,2,5faeaf52a1ecfa0af9c7f3f2,001,2021-08-19_16h49.06.789,natb3,2021.2.3,MacIntel,59.99880002,5faeaf52a1ecfa0af9c7f3f2,611e07ecdcc96256ae8d5b80,611e7d6267ef17dc40003a55,
,,,,space,0.569,,0,331,331,140,1,B, , , , ,space,2500,2.5,5faeaf52a1ecfa0af9c7f3f2,001,2021-08-19_16h49.06.789,natb3,2021.2.3,MacIntel,59.99880002,5faeaf52a1ecfa0af9c7f3f2,611e07ecdcc96256ae8d5b80,611e7d6267ef17dc40003a55,
,,,,space,0.5085,,0,332,332,112,1,Q, , , , ,space,2500,2.5,5faeaf52a1ecfa0af9c7f3f2,001,2021-08-19_16h49.06.789,natb3,2021.2.3,MacIntel,59.99880002,5faeaf52a1ecfa0af9c7f3f2,611e07ecdcc96256ae8d5b80,611e7d6267ef17dc40003a55,
,,,,space,0.4649,,0,333,333,132,1,H, , , , ,space,2500,2.5,5faeaf52a1ecfa0af9c7f3f2,001,2021-08-19_16h49.06.789,natb3,2021.2.3,MacIntel,59.99880002,5faeaf52a1ecfa0af9c7f3f2,611e07ecdcc96256ae8d5b80,611e7d6267ef17dc40003a55,
,,,,space,0.7043,,0,334,334,303,1,A, , , , ,space,2000,2,5faeaf52a1ecfa0af9c7f3f2,001,2021-08-19_16h49.06.789,natb3,2021.2.3,MacIntel,59.99880002,5faeaf52a1ecfa0af9c7f3f2,611e07ecdcc96256ae8d5b80,611e7d6267ef17dc40003a55,
,,,,,,,0,335,335,125,1,X, , , , ,,2000,2,5faeaf52a1ecfa0af9c7f3f2,001,2021-08-19_16h49.06.789,natb3,2021.2.3,MacIntel,59.99880002,5faeaf52a1ecfa0af9c7f3f2,611e07ecdcc96256ae8d5b80,611e7d6267ef17dc40003a55,
