key_resp_2.keys,key_resp_2.rt,key_resp_3.keys,key_resp_3.rt,key_resp.keys,key_resp.rt,key_resp_4.keys,trials.thisRepN,trials.thisTrialN,trials.thisN,trials.thisIndex,trials.ran,stimulus,distractor1,distractor2,distractor3,distractor4,CorrAns,isi_duration,isi_dur_in_seconds,participant,session,date,expName,psychopyVersion,OS,frameRate,PROLIFIC_PID,STUDY_ID,SESSION_ID,key_resp_4.rt
return,14.817,space,11.327,space,0.435,,0,0,0,245,1,K, , , , ,space,2000,2,5fed940030cadf7d2d05e3c4,001,2021-08-19_16h21.52,natb3,2021.2.3,MacIntel,58.82352941,5fed940030cadf7d2d05e3c4,611e07ecdcc96256ae8d5b80,611e76f808807170647fb2fc,
,,,,space,0.334,,0,1,1,275,1,G, , , , ,space,1500,1.5,5fed940030cadf7d2d05e3c4,001,2021-08-19_16h21.52,natb3,2021.2.3,MacIntel,58.82352941,5fed940030cadf7d2d05e3c4,611e07ecdcc96256ae8d5b80,611e76f808807170647fb2fc,
,,,,space,0.39,,0,2,2,292,1,E, , , , ,space,2000,2,5fed940030cadf7d2d05e3c4,001,2021-08-19_16h21.52,natb3,2021.2.3,MacIntel,58.82352941,5fed940030cadf7d2d05e3c4,611e07ecdcc96256ae8d5b80,611e76f808807170647fb2fc,
,,,,space,0.338,,0,3,3,87,1,H, , , , ,space,1500,1.5,5fed940030cadf7d2d05e3c4,001,2021-08-19_16h21.52,natb3,2021.2.3,MacIntel,58.82352941,5fed940030cadf7d2d05e3c4,611e07ecdcc96256ae8d5b80,611e76f808807170647fb2fc,
,,,,space,0.311,,0,4,4,316,1,Z, , , , ,space,1500,1.5,5fed940030cadf7d2d05e3c4,001,2021-08-19_16h21.52,natb3,2021.2.3,MacIntel,58.82352941,5fed940030cadf7d2d05e3c4,611e07ecdcc96256ae8d5b80,611e76f808807170647fb2fc,
,,,,,,,0,5,5,236,1,X,3, ,4,7,,2500,2.5,5fed940030cadf7d2d05e3c4,001,2021-08-19_16h21.52,natb3,2021.2.3,MacIntel,58.82352941,5fed940030cadf7d2d05e3c4,611e07ecdcc96256ae8d5b80,611e76f808807170647fb2fc,
,,,,space,0.436,,0,6,6,208,1,B, , , , ,space,1500,1.5,5fed940030cadf7d2d05e3c4,001,2021-08-19_16h21.52,natb3,2021.2.3,MacIntel,58.82352941,5fed940030cadf7d2d05e3c4,611e07ecdcc96256ae8d5b80,611e76f808807170647fb2fc,
,,,,space,0.299,,0,7,7,15,1,X, , , , ,,1500,1.5,5fed940030cadf7d2d05e3c4,001,2021-08-19_16h21.52,natb3,2021.2.3,MacIntel,58.82352941,5fed940030cadf7d2d05e3c4,611e07ecdcc96256ae8d5b80,611e76f808807170647fb2fc,
,,,,,,,0,8,8,211,1,X, , , , ,,2500,2.5,5fed940030cadf7d2d05e3c4,001,2021-08-19_16h21.52,natb3,2021.2.3,MacIntel,58.82352941,5fed940030cadf7d2d05e3c4,611e07ecdcc96256ae8d5b80,611e76f808807170647fb2fc,
,,,,,,,0,9,9,302,1,X, , , , ,,2000,2,5fed940030cadf7d2d05e3c4,001,2021-08-19_16h21.52,natb3,2021.2.3,MacIntel,58.82352941,5fed940030cadf7d2d05e3c4,611e07ecdcc96256ae8d5b80,611e76f808807170647fb2fc,
,,,,space,0.458,,0,10,10,230,1,U, , , , ,space,1500,1.5,5fed940030cadf7d2d05e3c4,001,2021-08-19_16h21.52,natb3,2021.2.3,MacIntel,58.82352941,5fed940030cadf7d2d05e3c4,611e07ecdcc96256ae8d5b80,611e76f808807170647fb2fc,
,,,,,,,0,11,11,191,1,X,1, ,3,4,,2500,2.5,5fed940030cadf7d2d05e3c4,001,2021-08-19_16h21.52,natb3,2021.2.3,MacIntel,58.82352941,5fed940030cadf7d2d05e3c4,611e07ecdcc96256ae8d5b80,611e76f808807170647fb2fc,
,,,,space,0.418,,0,12,12,286,1,N, , , , ,space,1500,1.5,5fed940030cadf7d2d05e3c4,001,2021-08-19_16h21.52,natb3,2021.2.3,MacIntel,58.82352941,5fed940030cadf7d2d05e3c4,611e07ecdcc96256ae8d5b80,611e76f808807170647fb2fc,
,,,,,,,0,13,13,255,1,X, , , , ,,1500,1.5,5fed940030cadf7d2d05e3c4,001,2021-08-19_16h21.52,natb3,2021.2.3,MacIntel,58.82352941,5fed940030cadf7d2d05e3c4,611e07ecdcc96256ae8d5b80,611e76f808807170647fb2fc,
,,,,,,,0,14,14,89,1,X,3, , , ,,2000,2,5fed940030cadf7d2d05e3c4,001,2021-08-19_16h21.52,natb3,2021.2.3,MacIntel,58.82352941,5fed940030cadf7d2d05e3c4,611e07ecdcc96256ae8d5b80,611e76f808807170647fb2fc,
,,,,,,,0,15,15,318,1,X, , , , ,,1500,1.5,5fed940030cadf7d2d05e3c4,001,2021-08-19_16h21.52,natb3,2021.2.3,MacIntel,58.82352941,5fed940030cadf7d2d05e3c4,611e07ecdcc96256ae8d5b80,611e76f808807170647fb2fc,
,,,,space,0.415,,0,16,16,186,1,U, , , , ,space,2500,2.5,5fed940030cadf7d2d05e3c4,001,2021-08-19_16h21.52,natb3,2021.2.3,MacIntel,58.82352941,5fed940030cadf7d2d05e3c4,611e07ecdcc96256ae8d5b80,611e76f808807170647fb2fc,
,,,,space,0.524,,0,17,17,16,1,D, , , , ,space,1500,1.5,5fed940030cadf7d2d05e3c4,001,2021-08-19_16h21.52,natb3,2021.2.3,MacIntel,58.82352941,5fed940030cadf7d2d05e3c4,611e07ecdcc96256ae8d5b80,611e76f808807170647fb2fc,
,,,,space,0.378,,0,18,18,226,1,R, , , , ,space,2000,2,5fed940030cadf7d2d05e3c4,001,2021-08-19_16h21.52,natb3,2021.2.3,MacIntel,58.82352941,5fed940030cadf7d2d05e3c4,611e07ecdcc96256ae8d5b80,611e76f808807170647fb2fc,
,,,,space,0.308,,0,19,19,203,1,X, , , , ,,2500,2.5,5fed940030cadf7d2d05e3c4,001,2021-08-19_16h21.52,natb3,2021.2.3,MacIntel,58.82352941,5fed940030cadf7d2d05e3c4,611e07ecdcc96256ae8d5b80,611e76f808807170647fb2fc,
,,,,space,0.332,,0,20,20,1,1,W, , , , ,space,2000,2,5fed940030cadf7d2d05e3c4,001,2021-08-19_16h21.52,natb3,2021.2.3,MacIntel,58.82352941,5fed940030cadf7d2d05e3c4,611e07ecdcc96256ae8d5b80,611e76f808807170647fb2fc,
,,,,,,,0,21,21,51,1,X,7,5,8, ,,1500,1.5,5fed940030cadf7d2d05e3c4,001,2021-08-19_16h21.52,natb3,2021.2.3,MacIntel,58.82352941,5fed940030cadf7d2d05e3c4,611e07ecdcc96256ae8d5b80,611e76f808807170647fb2fc,
,,,,space,0.406,,0,22,22,22,1,K, , , , ,space,2000,2,5fed940030cadf7d2d05e3c4,001,2021-08-19_16h21.52,natb3,2021.2.3,MacIntel,58.82352941,5fed940030cadf7d2d05e3c4,611e07ecdcc96256ae8d5b80,611e76f808807170647fb2fc,
,,,,,,,0,23,23,295,1,X,8,7,5, ,,2500,2.5,5fed940030cadf7d2d05e3c4,001,2021-08-19_16h21.52,natb3,2021.2.3,MacIntel,58.82352941,5fed940030cadf7d2d05e3c4,611e07ecdcc96256ae8d5b80,611e76f808807170647fb2fc,
,,,,space,0.423,,0,24,24,147,1,E, , , , ,space,2000,2,5fed940030cadf7d2d05e3c4,001,2021-08-19_16h21.52,natb3,2021.2.3,MacIntel,58.82352941,5fed940030cadf7d2d05e3c4,611e07ecdcc96256ae8d5b80,611e76f808807170647fb2fc,
,,,,,,,0,25,25,311,1,X,1,2,7,3,,2500,2.5,5fed940030cadf7d2d05e3c4,001,2021-08-19_16h21.52,natb3,2021.2.3,MacIntel,58.82352941,5fed940030cadf7d2d05e3c4,611e07ecdcc96256ae8d5b80,611e76f808807170647fb2fc,
,,,,space,0.427,,0,26,26,120,1,U, , , , ,space,1500,1.5,5fed940030cadf7d2d05e3c4,001,2021-08-19_16h21.52,natb3,2021.2.3,MacIntel,58.82352941,5fed940030cadf7d2d05e3c4,611e07ecdcc96256ae8d5b80,611e76f808807170647fb2fc,
,,,,space,0.54,,0,27,27,201,1,K, , , , ,space,1500,1.5,5fed940030cadf7d2d05e3c4,001,2021-08-19_16h21.52,natb3,2021.2.3,MacIntel,58.82352941,5fed940030cadf7d2d05e3c4,611e07ecdcc96256ae8d5b80,611e76f808807170647fb2fc,
,,,,space,0.508,,0,28,28,73,1,Y, , , , ,space,2000,2,5fed940030cadf7d2d05e3c4,001,2021-08-19_16h21.52,natb3,2021.2.3,MacIntel,58.82352941,5fed940030cadf7d2d05e3c4,611e07ecdcc96256ae8d5b80,611e76f808807170647fb2fc,
,,,,,,,0,29,29,69,1,X, , , , ,,1500,1.5,5fed940030cadf7d2d05e3c4,001,2021-08-19_16h21.52,natb3,2021.2.3,MacIntel,58.82352941,5fed940030cadf7d2d05e3c4,611e07ecdcc96256ae8d5b80,611e76f808807170647fb2fc,
,,,,space,0.359,,0,30,30,328,1,R, , , , ,space,1500,1.5,5fed940030cadf7d2d05e3c4,001,2021-08-19_16h21.52,natb3,2021.2.3,MacIntel,58.82352941,5fed940030cadf7d2d05e3c4,611e07ecdcc96256ae8d5b80,611e76f808807170647fb2fc,
,,,,space,0.348,,0,31,31,160,1,D, , , , ,space,1500,1.5,5fed940030cadf7d2d05e3c4,001,2021-08-19_16h21.52,natb3,2021.2.3,MacIntel,58.82352941,5fed940030cadf7d2d05e3c4,611e07ecdcc96256ae8d5b80,611e76f808807170647fb2fc,
,,,,space,0.397,,0,32,32,126,1,A, , , , ,space,2500,2.5,5fed940030cadf7d2d05e3c4,001,2021-08-19_16h21.52,natb3,2021.2.3,MacIntel,58.82352941,5fed940030cadf7d2d05e3c4,611e07ecdcc96256ae8d5b80,611e76f808807170647fb2fc,
,,,,,,,0,33,33,145,1,X, , , , ,,2000,2,5fed940030cadf7d2d05e3c4,001,2021-08-19_16h21.52,natb3,2021.2.3,MacIntel,58.82352941,5fed940030cadf7d2d05e3c4,611e07ecdcc96256ae8d5b80,611e76f808807170647fb2fc,
,,,,space,0.412,,0,34,34,91,1,L, , , , ,space,2000,2,5fed940030cadf7d2d05e3c4,001,2021-08-19_16h21.52,natb3,2021.2.3,MacIntel,58.82352941,5fed940030cadf7d2d05e3c4,611e07ecdcc96256ae8d5b80,611e76f808807170647fb2fc,
,,,,,,,0,35,35,229,1,X,8, ,2,6,,2500,2.5,5fed940030cadf7d2d05e3c4,001,2021-08-19_16h21.52,natb3,2021.2.3,MacIntel,58.82352941,5fed940030cadf7d2d05e3c4,611e07ecdcc96256ae8d5b80,611e76f808807170647fb2fc,
,,,,,,,0,36,36,171,1,X, , , , ,,1500,1.5,5fed940030cadf7d2d05e3c4,001,2021-08-19_16h21.52,natb3,2021.2.3,MacIntel,58.82352941,5fed940030cadf7d2d05e3c4,611e07ecdcc96256ae8d5b80,611e76f808807170647fb2fc,
,,,,space,0.357,,0,37,37,294,1,T, , , , ,space,2000,2,5fed940030cadf7d2d05e3c4,001,2021-08-19_16h21.52,natb3,2021.2.3,MacIntel,58.82352941,5fed940030cadf7d2d05e3c4,611e07ecdcc96256ae8d5b80,611e76f808807170647fb2fc,
,,,,space,0.355,,0,38,38,24,1,L, , , , ,space,2500,2.5,5fed940030cadf7d2d05e3c4,001,2021-08-19_16h21.52,natb3,2021.2.3,MacIntel,58.82352941,5fed940030cadf7d2d05e3c4,611e07ecdcc96256ae8d5b80,611e76f808807170647fb2fc,
,,,,space,0.434,,0,39,39,26,1,C, , , , ,space,2000,2,5fed940030cadf7d2d05e3c4,001,2021-08-19_16h21.52,natb3,2021.2.3,MacIntel,58.82352941,5fed940030cadf7d2d05e3c4,611e07ecdcc96256ae8d5b80,611e76f808807170647fb2fc,
,,,,space,0.398,,0,40,40,80,1,A, , , , ,space,2000,2,5fed940030cadf7d2d05e3c4,001,2021-08-19_16h21.52,natb3,2021.2.3,MacIntel,58.82352941,5fed940030cadf7d2d05e3c4,611e07ecdcc96256ae8d5b80,611e76f808807170647fb2fc,
,,,,space,0.356,,0,41,41,61,1,C, , , , ,space,2000,2,5fed940030cadf7d2d05e3c4,001,2021-08-19_16h21.52,natb3,2021.2.3,MacIntel,58.82352941,5fed940030cadf7d2d05e3c4,611e07ecdcc96256ae8d5b80,611e76f808807170647fb2fc,
,,,,,,,0,42,42,195,1,X, , , , ,,1500,1.5,5fed940030cadf7d2d05e3c4,001,2021-08-19_16h21.52,natb3,2021.2.3,MacIntel,58.82352941,5fed940030cadf7d2d05e3c4,611e07ecdcc96256ae8d5b80,611e76f808807170647fb2fc,
,,,,space,0.434,,0,43,43,38,1,R, , , , ,space,2500,2.5,5fed940030cadf7d2d05e3c4,001,2021-08-19_16h21.52,natb3,2021.2.3,MacIntel,58.82352941,5fed940030cadf7d2d05e3c4,611e07ecdcc96256ae8d5b80,611e76f808807170647fb2fc,
,,,,space,0.366,,0,44,44,105,1,R, , , , ,space,2500,2.5,5fed940030cadf7d2d05e3c4,001,2021-08-19_16h21.52,natb3,2021.2.3,MacIntel,58.82352941,5fed940030cadf7d2d05e3c4,611e07ecdcc96256ae8d5b80,611e76f808807170647fb2fc,
,,,,space,0.431,,0,45,45,30,1,N, , , , ,space,2500,2.5,5fed940030cadf7d2d05e3c4,001,2021-08-19_16h21.52,natb3,2021.2.3,MacIntel,58.82352941,5fed940030cadf7d2d05e3c4,611e07ecdcc96256ae8d5b80,611e76f808807170647fb2fc,
,,,,space,0.408,,0,46,46,139,1,V, , , , ,space,2000,2,5fed940030cadf7d2d05e3c4,001,2021-08-19_16h21.52,natb3,2021.2.3,MacIntel,58.82352941,5fed940030cadf7d2d05e3c4,611e07ecdcc96256ae8d5b80,611e76f808807170647fb2fc,
,,,,space,0.325,,0,47,47,76,1,I, , , , ,space,2000,2,5fed940030cadf7d2d05e3c4,001,2021-08-19_16h21.52,natb3,2021.2.3,MacIntel,58.82352941,5fed940030cadf7d2d05e3c4,611e07ecdcc96256ae8d5b80,611e76f808807170647fb2fc,
,,,,space,0.349,,0,48,48,217,1,T, , , , ,space,2500,2.5,5fed940030cadf7d2d05e3c4,001,2021-08-19_16h21.52,natb3,2021.2.3,MacIntel,58.82352941,5fed940030cadf7d2d05e3c4,611e07ecdcc96256ae8d5b80,611e76f808807170647fb2fc,
,,,,space,0.349,,0,49,49,177,1,M, , , , ,space,2500,2.5,5fed940030cadf7d2d05e3c4,001,2021-08-19_16h21.52,natb3,2021.2.3,MacIntel,58.82352941,5fed940030cadf7d2d05e3c4,611e07ecdcc96256ae8d5b80,611e76f808807170647fb2fc,
,,,,space,0.415,,0,50,50,172,1,C, , , , ,space,1500,1.5,5fed940030cadf7d2d05e3c4,001,2021-08-19_16h21.52,natb3,2021.2.3,MacIntel,58.82352941,5fed940030cadf7d2d05e3c4,611e07ecdcc96256ae8d5b80,611e76f808807170647fb2fc,
,,,,space,0.358,,0,51,51,156,1,P, , , , ,space,1500,1.5,5fed940030cadf7d2d05e3c4,001,2021-08-19_16h21.52,natb3,2021.2.3,MacIntel,58.82352941,5fed940030cadf7d2d05e3c4,611e07ecdcc96256ae8d5b80,611e76f808807170647fb2fc,
,,,,space,0.33,,0,52,52,3,1,R, , , , ,space,2000,2,5fed940030cadf7d2d05e3c4,001,2021-08-19_16h21.52,natb3,2021.2.3,MacIntel,58.82352941,5fed940030cadf7d2d05e3c4,611e07ecdcc96256ae8d5b80,611e76f808807170647fb2fc,
,,,,space,0.389,,0,53,53,44,1,I, , , , ,space,2500,2.5,5fed940030cadf7d2d05e3c4,001,2021-08-19_16h21.52,natb3,2021.2.3,MacIntel,58.82352941,5fed940030cadf7d2d05e3c4,611e07ecdcc96256ae8d5b80,611e76f808807170647fb2fc,
,,,,space,0.388,,0,54,54,45,1,O, , , , ,space,2000,2,5fed940030cadf7d2d05e3c4,001,2021-08-19_16h21.52,natb3,2021.2.3,MacIntel,58.82352941,5fed940030cadf7d2d05e3c4,611e07ecdcc96256ae8d5b80,611e76f808807170647fb2fc,
,,,,,,,0,55,55,122,1,X,1, , ,8,,1500,1.5,5fed940030cadf7d2d05e3c4,001,2021-08-19_16h21.52,natb3,2021.2.3,MacIntel,58.82352941,5fed940030cadf7d2d05e3c4,611e07ecdcc96256ae8d5b80,611e76f808807170647fb2fc,
,,,,,,,0,56,56,263,1,X,4, ,6, ,,1500,1.5,5fed940030cadf7d2d05e3c4,001,2021-08-19_16h21.52,natb3,2021.2.3,MacIntel,58.82352941,5fed940030cadf7d2d05e3c4,611e07ecdcc96256ae8d5b80,611e76f808807170647fb2fc,
,,,,space,0.477,,0,57,57,114,1,E, , , , ,space,2000,2,5fed940030cadf7d2d05e3c4,001,2021-08-19_16h21.52,natb3,2021.2.3,MacIntel,58.82352941,5fed940030cadf7d2d05e3c4,611e07ecdcc96256ae8d5b80,611e76f808807170647fb2fc,
,,,,space,0.463,,0,58,58,296,1,Y, , , , ,space,2500,2.5,5fed940030cadf7d2d05e3c4,001,2021-08-19_16h21.52,natb3,2021.2.3,MacIntel,58.82352941,5fed940030cadf7d2d05e3c4,611e07ecdcc96256ae8d5b80,611e76f808807170647fb2fc,
,,,,space,0.397,,0,59,59,54,1,X, , , , ,,2000,2,5fed940030cadf7d2d05e3c4,001,2021-08-19_16h21.52,natb3,2021.2.3,MacIntel,58.82352941,5fed940030cadf7d2d05e3c4,611e07ecdcc96256ae8d5b80,611e76f808807170647fb2fc,
,,,,space,0.407,,0,60,60,164,1,H, , , , ,space,2500,2.5,5fed940030cadf7d2d05e3c4,001,2021-08-19_16h21.52,natb3,2021.2.3,MacIntel,58.82352941,5fed940030cadf7d2d05e3c4,611e07ecdcc96256ae8d5b80,611e76f808807170647fb2fc,
,,,,space,0.414,,0,61,61,280,1,L, , , , ,space,1500,1.5,5fed940030cadf7d2d05e3c4,001,2021-08-19_16h21.52,natb3,2021.2.3,MacIntel,58.82352941,5fed940030cadf7d2d05e3c4,611e07ecdcc96256ae8d5b80,611e76f808807170647fb2fc,
,,,,space,0.389,,0,62,62,231,1,I, , , , ,space,2500,2.5,5fed940030cadf7d2d05e3c4,001,2021-08-19_16h21.52,natb3,2021.2.3,MacIntel,58.82352941,5fed940030cadf7d2d05e3c4,611e07ecdcc96256ae8d5b80,611e76f808807170647fb2fc,
,,,,space,0.475,,0,63,63,136,1,Z, , , , ,space,2500,2.5,5fed940030cadf7d2d05e3c4,001,2021-08-19_16h21.52,natb3,2021.2.3,MacIntel,58.82352941,5fed940030cadf7d2d05e3c4,611e07ecdcc96256ae8d5b80,611e76f808807170647fb2fc,
,,,,,,,0,64,64,287,1,X, ,2, ,9,,2000,2,5fed940030cadf7d2d05e3c4,001,2021-08-19_16h21.52,natb3,2021.2.3,MacIntel,58.82352941,5fed940030cadf7d2d05e3c4,611e07ecdcc96256ae8d5b80,611e76f808807170647fb2fc,
,,,,,,,0,65,65,82,1,X,4,6,1,7,,2000,2,5fed940030cadf7d2d05e3c4,001,2021-08-19_16h21.52,natb3,2021.2.3,MacIntel,58.82352941,5fed940030cadf7d2d05e3c4,611e07ecdcc96256ae8d5b80,611e76f808807170647fb2fc,
,,,,space,0.417,,0,66,66,10,1,O, , , , ,space,2000,2,5fed940030cadf7d2d05e3c4,001,2021-08-19_16h21.52,natb3,2021.2.3,MacIntel,58.82352941,5fed940030cadf7d2d05e3c4,611e07ecdcc96256ae8d5b80,611e76f808807170647fb2fc,
,,,,space,0.366,,0,67,67,279,1,K, , , , ,space,2500,2.5,5fed940030cadf7d2d05e3c4,001,2021-08-19_16h21.52,natb3,2021.2.3,MacIntel,58.82352941,5fed940030cadf7d2d05e3c4,611e07ecdcc96256ae8d5b80,611e76f808807170647fb2fc,
,,,,space,0.357,,0,68,68,41,1,Y, , , , ,space,2500,2.5,5fed940030cadf7d2d05e3c4,001,2021-08-19_16h21.52,natb3,2021.2.3,MacIntel,58.82352941,5fed940030cadf7d2d05e3c4,611e07ecdcc96256ae8d5b80,611e76f808807170647fb2fc,
,,,,space,0.356,,0,69,69,298,1,I, , , , ,space,2000,2,5fed940030cadf7d2d05e3c4,001,2021-08-19_16h21.52,natb3,2021.2.3,MacIntel,58.82352941,5fed940030cadf7d2d05e3c4,611e07ecdcc96256ae8d5b80,611e76f808807170647fb2fc,
,,,,space,0.417,,0,70,70,308,1,G, , , , ,space,1500,1.5,5fed940030cadf7d2d05e3c4,001,2021-08-19_16h21.52,natb3,2021.2.3,MacIntel,58.82352941,5fed940030cadf7d2d05e3c4,611e07ecdcc96256ae8d5b80,611e76f808807170647fb2fc,
,,,,space,0.414,,0,71,71,25,1,Z, , , , ,space,2500,2.5,5fed940030cadf7d2d05e3c4,001,2021-08-19_16h21.52,natb3,2021.2.3,MacIntel,58.82352941,5fed940030cadf7d2d05e3c4,611e07ecdcc96256ae8d5b80,611e76f808807170647fb2fc,
,,,,space,0.349,,0,72,72,326,1,W, , , , ,space,2000,2,5fed940030cadf7d2d05e3c4,001,2021-08-19_16h21.52,natb3,2021.2.3,MacIntel,58.82352941,5fed940030cadf7d2d05e3c4,611e07ecdcc96256ae8d5b80,611e76f808807170647fb2fc,
,,,,space,0.375,,0,73,73,144,1,Q, , , , ,space,2500,2.5,5fed940030cadf7d2d05e3c4,001,2021-08-19_16h21.52,natb3,2021.2.3,MacIntel,58.82352941,5fed940030cadf7d2d05e3c4,611e07ecdcc96256ae8d5b80,611e76f808807170647fb2fc,
,,,,space,0.347,,0,74,74,185,1,Y, , , , ,space,2500,2.5,5fed940030cadf7d2d05e3c4,001,2021-08-19_16h21.52,natb3,2021.2.3,MacIntel,58.82352941,5fed940030cadf7d2d05e3c4,611e07ecdcc96256ae8d5b80,611e76f808807170647fb2fc,
,,,,space,0.398,,0,75,75,190,1,P, , , , ,space,2000,2,5fed940030cadf7d2d05e3c4,001,2021-08-19_16h21.52,natb3,2021.2.3,MacIntel,58.82352941,5fed940030cadf7d2d05e3c4,611e07ecdcc96256ae8d5b80,611e76f808807170647fb2fc,
,,,,space,0.347,,0,76,76,101,1,Q, , , , ,space,2500,2.5,5fed940030cadf7d2d05e3c4,001,2021-08-19_16h21.52,natb3,2021.2.3,MacIntel,58.82352941,5fed940030cadf7d2d05e3c4,611e07ecdcc96256ae8d5b80,611e76f808807170647fb2fc,
,,,,,,,0,77,77,35,1,X, , , , ,,2500,2.5,5fed940030cadf7d2d05e3c4,001,2021-08-19_16h21.52,natb3,2021.2.3,MacIntel,58.82352941,5fed940030cadf7d2d05e3c4,611e07ecdcc96256ae8d5b80,611e76f808807170647fb2fc,
,,,,space,0.526,,0,78,78,244,1,J, , , , ,space,1500,1.5,5fed940030cadf7d2d05e3c4,001,2021-08-19_16h21.52,natb3,2021.2.3,MacIntel,58.82352941,5fed940030cadf7d2d05e3c4,611e07ecdcc96256ae8d5b80,611e76f808807170647fb2fc,
,,,,space,0.58,,0,79,79,20,1,H, , , , ,space,1500,1.5,5fed940030cadf7d2d05e3c4,001,2021-08-19_16h21.52,natb3,2021.2.3,MacIntel,58.82352941,5fed940030cadf7d2d05e3c4,611e07ecdcc96256ae8d5b80,611e76f808807170647fb2fc,
,,,,,,,0,80,80,7,1,X, , , , ,,1500,1.5,5fed940030cadf7d2d05e3c4,001,2021-08-19_16h21.52,natb3,2021.2.3,MacIntel,58.82352941,5fed940030cadf7d2d05e3c4,611e07ecdcc96256ae8d5b80,611e76f808807170647fb2fc,
,,,,space,0.409,,0,81,81,63,1,B, , , , ,space,2000,2,5fed940030cadf7d2d05e3c4,001,2021-08-19_16h21.52,natb3,2021.2.3,MacIntel,58.82352941,5fed940030cadf7d2d05e3c4,611e07ecdcc96256ae8d5b80,611e76f808807170647fb2fc,
,,,,space,0.374,,0,82,82,317,1,C, , , , ,space,2000,2,5fed940030cadf7d2d05e3c4,001,2021-08-19_16h21.52,natb3,2021.2.3,MacIntel,58.82352941,5fed940030cadf7d2d05e3c4,611e07ecdcc96256ae8d5b80,611e76f808807170647fb2fc,
,,,,space,0.35,,0,83,83,224,1,W, , , , ,space,1500,1.5,5fed940030cadf7d2d05e3c4,001,2021-08-19_16h21.52,natb3,2021.2.3,MacIntel,58.82352941,5fed940030cadf7d2d05e3c4,611e07ecdcc96256ae8d5b80,611e76f808807170647fb2fc,
,,,,,,,0,84,84,60,1,X,7,3,5, ,,1500,1.5,5fed940030cadf7d2d05e3c4,001,2021-08-19_16h21.52,natb3,2021.2.3,MacIntel,58.82352941,5fed940030cadf7d2d05e3c4,611e07ecdcc96256ae8d5b80,611e76f808807170647fb2fc,
,,,,space,0.409,,0,85,85,67,1,Q, , , , ,space,2000,2,5fed940030cadf7d2d05e3c4,001,2021-08-19_16h21.52,natb3,2021.2.3,MacIntel,58.82352941,5fed940030cadf7d2d05e3c4,611e07ecdcc96256ae8d5b80,611e76f808807170647fb2fc,
,,,,space,0.366,,0,86,86,284,1,V, , , , ,space,2500,2.5,5fed940030cadf7d2d05e3c4,001,2021-08-19_16h21.52,natb3,2021.2.3,MacIntel,58.82352941,5fed940030cadf7d2d05e3c4,611e07ecdcc96256ae8d5b80,611e76f808807170647fb2fc,
,,,,,,,0,87,87,78,1,X, , , , ,,2000,2,5fed940030cadf7d2d05e3c4,001,2021-08-19_16h21.52,natb3,2021.2.3,MacIntel,58.82352941,5fed940030cadf7d2d05e3c4,611e07ecdcc96256ae8d5b80,611e76f808807170647fb2fc,
,,,,,,,0,88,88,43,1,X, ,6, ,2,,2500,2.5,5fed940030cadf7d2d05e3c4,001,2021-08-19_16h21.52,natb3,2021.2.3,MacIntel,58.82352941,5fed940030cadf7d2d05e3c4,611e07ecdcc96256ae8d5b80,611e76f808807170647fb2fc,
,,,,space,0.429,,0,89,89,21,1,J, , , , ,space,1500,1.5,5fed940030cadf7d2d05e3c4,001,2021-08-19_16h21.52,natb3,2021.2.3,MacIntel,58.82352941,5fed940030cadf7d2d05e3c4,611e07ecdcc96256ae8d5b80,611e76f808807170647fb2fc,
,,,,,,,0,90,90,248,1,X, ,1,5, ,,1500,1.5,5fed940030cadf7d2d05e3c4,001,2021-08-19_16h21.52,natb3,2021.2.3,MacIntel,58.82352941,5fed940030cadf7d2d05e3c4,611e07ecdcc96256ae8d5b80,611e76f808807170647fb2fc,
,,,,space,0.461,,0,91,91,240,1,F, , , , ,space,2500,2.5,5fed940030cadf7d2d05e3c4,001,2021-08-19_16h21.52,natb3,2021.2.3,MacIntel,58.82352941,5fed940030cadf7d2d05e3c4,611e07ecdcc96256ae8d5b80,611e76f808807170647fb2fc,
,,,,,,,0,92,92,166,1,X, , , , ,,2000,2,5fed940030cadf7d2d05e3c4,001,2021-08-19_16h21.52,natb3,2021.2.3,MacIntel,58.82352941,5fed940030cadf7d2d05e3c4,611e07ecdcc96256ae8d5b80,611e76f808807170647fb2fc,
,,,,space,0.462,,0,93,93,128,1,D, , , , ,space,2500,2.5,5fed940030cadf7d2d05e3c4,001,2021-08-19_16h21.52,natb3,2021.2.3,MacIntel,58.82352941,5fed940030cadf7d2d05e3c4,611e07ecdcc96256ae8d5b80,611e76f808807170647fb2fc,
,,,,space,0.391,,0,94,94,276,1,H, , , , ,space,2000,2,5fed940030cadf7d2d05e3c4,001,2021-08-19_16h21.52,natb3,2021.2.3,MacIntel,58.82352941,5fed940030cadf7d2d05e3c4,611e07ecdcc96256ae8d5b80,611e76f808807170647fb2fc,
,,,,space,0.437,,0,95,95,306,1,D, , , , ,space,2000,2,5fed940030cadf7d2d05e3c4,001,2021-08-19_16h21.52,natb3,2021.2.3,MacIntel,58.82352941,5fed940030cadf7d2d05e3c4,611e07ecdcc96256ae8d5b80,611e76f808807170647fb2fc,
,,,,space,0.348,,0,96,96,53,1,G, , , , ,space,2500,2.5,5fed940030cadf7d2d05e3c4,001,2021-08-19_16h21.52,natb3,2021.2.3,MacIntel,58.82352941,5fed940030cadf7d2d05e3c4,611e07ecdcc96256ae8d5b80,611e76f808807170647fb2fc,
,,,,,,,0,97,97,148,1,X, , , , ,,2000,2,5fed940030cadf7d2d05e3c4,001,2021-08-19_16h21.52,natb3,2021.2.3,MacIntel,58.82352941,5fed940030cadf7d2d05e3c4,611e07ecdcc96256ae8d5b80,611e76f808807170647fb2fc,
,,,,space,0.383,,0,98,98,117,1,T, , , , ,space,2500,2.5,5fed940030cadf7d2d05e3c4,001,2021-08-19_16h21.52,natb3,2021.2.3,MacIntel,58.82352941,5fed940030cadf7d2d05e3c4,611e07ecdcc96256ae8d5b80,611e76f808807170647fb2fc,
,,,,,,,0,99,99,18,1,X, ,2,5,8,,2500,2.5,5fed940030cadf7d2d05e3c4,001,2021-08-19_16h21.52,natb3,2021.2.3,MacIntel,58.82352941,5fed940030cadf7d2d05e3c4,611e07ecdcc96256ae8d5b80,611e76f808807170647fb2fc,
,,,,space,0.412,,0,100,100,272,1,D, , , , ,space,2000,2,5fed940030cadf7d2d05e3c4,001,2021-08-19_16h21.52,natb3,2021.2.3,MacIntel,58.82352941,5fed940030cadf7d2d05e3c4,611e07ecdcc96256ae8d5b80,611e76f808807170647fb2fc,
,,,,space,0.398,,0,101,101,314,1,L, , , , ,space,1500,1.5,5fed940030cadf7d2d05e3c4,001,2021-08-19_16h21.52,natb3,2021.2.3,MacIntel,58.82352941,5fed940030cadf7d2d05e3c4,611e07ecdcc96256ae8d5b80,611e76f808807170647fb2fc,
,,,,space,0.398,,0,102,102,59,1,Z, , , , ,space,2000,2,5fed940030cadf7d2d05e3c4,001,2021-08-19_16h21.52,natb3,2021.2.3,MacIntel,58.82352941,5fed940030cadf7d2d05e3c4,611e07ecdcc96256ae8d5b80,611e76f808807170647fb2fc,
,,,,space,0.363,,0,103,103,269,1,A, , , , ,space,2500,2.5,5fed940030cadf7d2d05e3c4,001,2021-08-19_16h21.52,natb3,2021.2.3,MacIntel,58.82352941,5fed940030cadf7d2d05e3c4,611e07ecdcc96256ae8d5b80,611e76f808807170647fb2fc,
,,,,,,,0,104,104,46,1,X, , , , ,,2000,2,5fed940030cadf7d2d05e3c4,001,2021-08-19_16h21.52,natb3,2021.2.3,MacIntel,58.82352941,5fed940030cadf7d2d05e3c4,611e07ecdcc96256ae8d5b80,611e76f808807170647fb2fc,
,,,,space,0.343,,0,105,105,331,1,Y, , , , ,space,2500,2.5,5fed940030cadf7d2d05e3c4,001,2021-08-19_16h21.52,natb3,2021.2.3,MacIntel,58.82352941,5fed940030cadf7d2d05e3c4,611e07ecdcc96256ae8d5b80,611e76f808807170647fb2fc,
,,,,,,,0,106,106,107,1,X,9,3, ,2,,2000,2,5fed940030cadf7d2d05e3c4,001,2021-08-19_16h21.52,natb3,2021.2.3,MacIntel,58.82352941,5fed940030cadf7d2d05e3c4,611e07ecdcc96256ae8d5b80,611e76f808807170647fb2fc,
,,,,space,0.386,,0,107,107,193,1,S, , , , ,space,2500,2.5,5fed940030cadf7d2d05e3c4,001,2021-08-19_16h21.52,natb3,2021.2.3,MacIntel,58.82352941,5fed940030cadf7d2d05e3c4,611e07ecdcc96256ae8d5b80,611e76f808807170647fb2fc,
,,,,space,0.464,,0,108,108,28,1,V, , , , ,space,1500,1.5,5fed940030cadf7d2d05e3c4,001,2021-08-19_16h21.52,natb3,2021.2.3,MacIntel,58.82352941,5fed940030cadf7d2d05e3c4,611e07ecdcc96256ae8d5b80,611e76f808807170647fb2fc,
,,,,space,0.324,,0,109,109,40,1,T, , , , ,space,1500,1.5,5fed940030cadf7d2d05e3c4,001,2021-08-19_16h21.52,natb3,2021.2.3,MacIntel,58.82352941,5fed940030cadf7d2d05e3c4,611e07ecdcc96256ae8d5b80,611e76f808807170647fb2fc,
,,,,space,0.346,,0,110,110,115,1,R, , , , ,space,1500,1.5,5fed940030cadf7d2d05e3c4,001,2021-08-19_16h21.52,natb3,2021.2.3,MacIntel,58.82352941,5fed940030cadf7d2d05e3c4,611e07ecdcc96256ae8d5b80,611e76f808807170647fb2fc,
,,,,space,0.329,,0,111,111,312,1,K, , , , ,space,2000,2,5fed940030cadf7d2d05e3c4,001,2021-08-19_16h21.52,natb3,2021.2.3,MacIntel,58.82352941,5fed940030cadf7d2d05e3c4,611e07ecdcc96256ae8d5b80,611e76f808807170647fb2fc,
,,,,space,0.351,,0,112,112,2,1,E, , , , ,space,2500,2.5,5fed940030cadf7d2d05e3c4,001,2021-08-19_16h21.52,natb3,2021.2.3,MacIntel,58.82352941,5fed940030cadf7d2d05e3c4,611e07ecdcc96256ae8d5b80,611e76f808807170647fb2fc,
,,,,,,,0,113,113,98,1,X, , , , ,,2500,2.5,5fed940030cadf7d2d05e3c4,001,2021-08-19_16h21.52,natb3,2021.2.3,MacIntel,58.82352941,5fed940030cadf7d2d05e3c4,611e07ecdcc96256ae8d5b80,611e76f808807170647fb2fc,
,,,,space,0.348,,0,114,114,227,1,T, , , , ,space,1500,1.5,5fed940030cadf7d2d05e3c4,001,2021-08-19_16h21.52,natb3,2021.2.3,MacIntel,58.82352941,5fed940030cadf7d2d05e3c4,611e07ecdcc96256ae8d5b80,611e76f808807170647fb2fc,
,,,,,,,0,115,115,175,1,X,7, ,4,2,,1500,1.5,5fed940030cadf7d2d05e3c4,001,2021-08-19_16h21.52,natb3,2021.2.3,MacIntel,58.82352941,5fed940030cadf7d2d05e3c4,611e07ecdcc96256ae8d5b80,611e76f808807170647fb2fc,
,,,,space,0.42,,0,116,116,235,1,A, , , , ,space,1500,1.5,5fed940030cadf7d2d05e3c4,001,2021-08-19_16h21.52,natb3,2021.2.3,MacIntel,58.82352941,5fed940030cadf7d2d05e3c4,611e07ecdcc96256ae8d5b80,611e76f808807170647fb2fc,
,,,,space,0.405,,0,117,117,278,1,J, , , , ,space,2000,2,5fed940030cadf7d2d05e3c4,001,2021-08-19_16h21.52,natb3,2021.2.3,MacIntel,58.82352941,5fed940030cadf7d2d05e3c4,611e07ecdcc96256ae8d5b80,611e76f808807170647fb2fc,
,,,,space,0.394,,0,118,118,77,1,O, , , , ,space,2000,2,5fed940030cadf7d2d05e3c4,001,2021-08-19_16h21.52,natb3,2021.2.3,MacIntel,58.82352941,5fed940030cadf7d2d05e3c4,611e07ecdcc96256ae8d5b80,611e76f808807170647fb2fc,
,,,,space,0.432,,0,119,119,42,1,U, , , , ,space,1500,1.5,5fed940030cadf7d2d05e3c4,001,2021-08-19_16h21.52,natb3,2021.2.3,MacIntel,58.82352941,5fed940030cadf7d2d05e3c4,611e07ecdcc96256ae8d5b80,611e76f808807170647fb2fc,
,,,,,,,0,120,120,252,1,X,3, ,6,9,,2000,2,5fed940030cadf7d2d05e3c4,001,2021-08-19_16h21.52,natb3,2021.2.3,MacIntel,58.82352941,5fed940030cadf7d2d05e3c4,611e07ecdcc96256ae8d5b80,611e76f808807170647fb2fc,
,,,,space,0.419,,0,121,121,95,1,V, , , , ,space,1500,1.5,5fed940030cadf7d2d05e3c4,001,2021-08-19_16h21.52,natb3,2021.2.3,MacIntel,58.82352941,5fed940030cadf7d2d05e3c4,611e07ecdcc96256ae8d5b80,611e76f808807170647fb2fc,
,,,,space,0.392,,0,122,122,293,1,R, , , , ,space,2500,2.5,5fed940030cadf7d2d05e3c4,001,2021-08-19_16h21.52,natb3,2021.2.3,MacIntel,58.82352941,5fed940030cadf7d2d05e3c4,611e07ecdcc96256ae8d5b80,611e76f808807170647fb2fc,
,,,,space,0.39,,0,123,123,238,1,D, , , , ,space,1500,1.5,5fed940030cadf7d2d05e3c4,001,2021-08-19_16h21.52,natb3,2021.2.3,MacIntel,58.82352941,5fed940030cadf7d2d05e3c4,611e07ecdcc96256ae8d5b80,611e76f808807170647fb2fc,
,,,,space,0.4,,0,124,124,50,1,D, , , , ,space,1500,1.5,5fed940030cadf7d2d05e3c4,001,2021-08-19_16h21.52,natb3,2021.2.3,MacIntel,58.82352941,5fed940030cadf7d2d05e3c4,611e07ecdcc96256ae8d5b80,611e76f808807170647fb2fc,
,,,,,,,0,125,125,243,1,X, , , , ,,2500,2.5,5fed940030cadf7d2d05e3c4,001,2021-08-19_16h21.52,natb3,2021.2.3,MacIntel,58.82352941,5fed940030cadf7d2d05e3c4,611e07ecdcc96256ae8d5b80,611e76f808807170647fb2fc,
,,,,,,,0,126,126,305,1,X, , , , ,,1500,1.5,5fed940030cadf7d2d05e3c4,001,2021-08-19_16h21.52,natb3,2021.2.3,MacIntel,58.82352941,5fed940030cadf7d2d05e3c4,611e07ecdcc96256ae8d5b80,611e76f808807170647fb2fc,
,,,,space,0.379,,0,127,127,49,1,S, , , , ,space,1500,1.5,5fed940030cadf7d2d05e3c4,001,2021-08-19_16h21.52,natb3,2021.2.3,MacIntel,58.82352941,5fed940030cadf7d2d05e3c4,611e07ecdcc96256ae8d5b80,611e76f808807170647fb2fc,
,,,,space,0.453,,0,128,128,210,1,M, , , , ,space,1500,1.5,5fed940030cadf7d2d05e3c4,001,2021-08-19_16h21.52,natb3,2021.2.3,MacIntel,58.82352941,5fed940030cadf7d2d05e3c4,611e07ecdcc96256ae8d5b80,611e76f808807170647fb2fc,
,,,,space,0.405,,0,129,129,196,1,F, , , , ,space,1500,1.5,5fed940030cadf7d2d05e3c4,001,2021-08-19_16h21.52,natb3,2021.2.3,MacIntel,58.82352941,5fed940030cadf7d2d05e3c4,611e07ecdcc96256ae8d5b80,611e76f808807170647fb2fc,
,,,,space,0.41,,0,130,130,257,1,W, , , , ,space,2000,2,5fed940030cadf7d2d05e3c4,001,2021-08-19_16h21.52,natb3,2021.2.3,MacIntel,58.82352941,5fed940030cadf7d2d05e3c4,611e07ecdcc96256ae8d5b80,611e76f808807170647fb2fc,
,,,,space,0.481,,0,131,131,321,1,N, , , , ,space,2000,2,5fed940030cadf7d2d05e3c4,001,2021-08-19_16h21.52,natb3,2021.2.3,MacIntel,58.82352941,5fed940030cadf7d2d05e3c4,611e07ecdcc96256ae8d5b80,611e76f808807170647fb2fc,
,,,,space,0.38,,0,132,132,97,1,B, , , , ,space,2500,2.5,5fed940030cadf7d2d05e3c4,001,2021-08-19_16h21.52,natb3,2021.2.3,MacIntel,58.82352941,5fed940030cadf7d2d05e3c4,611e07ecdcc96256ae8d5b80,611e76f808807170647fb2fc,
,,,,space,0.397,,0,133,133,157,1,A, , , , ,space,2500,2.5,5fed940030cadf7d2d05e3c4,001,2021-08-19_16h21.52,natb3,2021.2.3,MacIntel,58.82352941,5fed940030cadf7d2d05e3c4,611e07ecdcc96256ae8d5b80,611e76f808807170647fb2fc,
,,,,space,0.325,,0,134,134,267,1,P, , , , ,space,2000,2,5fed940030cadf7d2d05e3c4,001,2021-08-19_16h21.52,natb3,2021.2.3,MacIntel,58.82352941,5fed940030cadf7d2d05e3c4,611e07ecdcc96256ae8d5b80,611e76f808807170647fb2fc,
,,,,space,0.315,,0,135,135,265,1,I, , , , ,space,2000,2,5fed940030cadf7d2d05e3c4,001,2021-08-19_16h21.52,natb3,2021.2.3,MacIntel,58.82352941,5fed940030cadf7d2d05e3c4,611e07ecdcc96256ae8d5b80,611e76f808807170647fb2fc,
,,,,space,0.385,,0,136,136,110,1,I, , , , ,space,1500,1.5,5fed940030cadf7d2d05e3c4,001,2021-08-19_16h21.52,natb3,2021.2.3,MacIntel,58.82352941,5fed940030cadf7d2d05e3c4,611e07ecdcc96256ae8d5b80,611e76f808807170647fb2fc,
,,,,space,0.33,,0,137,137,320,1,B, , , , ,space,1500,1.5,5fed940030cadf7d2d05e3c4,001,2021-08-19_16h21.52,natb3,2021.2.3,MacIntel,58.82352941,5fed940030cadf7d2d05e3c4,611e07ecdcc96256ae8d5b80,611e76f808807170647fb2fc,
,,,,,,,0,138,138,33,1,X, , , , ,,1500,1.5,5fed940030cadf7d2d05e3c4,001,2021-08-19_16h21.52,natb3,2021.2.3,MacIntel,58.82352941,5fed940030cadf7d2d05e3c4,611e07ecdcc96256ae8d5b80,611e76f808807170647fb2fc,
,,,,space,0.376,,0,139,139,250,1,V, , , , ,space,2000,2,5fed940030cadf7d2d05e3c4,001,2021-08-19_16h21.52,natb3,2021.2.3,MacIntel,58.82352941,5fed940030cadf7d2d05e3c4,611e07ecdcc96256ae8d5b80,611e76f808807170647fb2fc,
,,,,space,0.343,,0,140,140,104,1,E, , , , ,space,2000,2,5fed940030cadf7d2d05e3c4,001,2021-08-19_16h21.52,natb3,2021.2.3,MacIntel,58.82352941,5fed940030cadf7d2d05e3c4,611e07ecdcc96256ae8d5b80,611e76f808807170647fb2fc,
,,,,,,,0,141,141,23,1,X,1, ,5, ,,2000,2,5fed940030cadf7d2d05e3c4,001,2021-08-19_16h21.52,natb3,2021.2.3,MacIntel,58.82352941,5fed940030cadf7d2d05e3c4,611e07ecdcc96256ae8d5b80,611e76f808807170647fb2fc,
,,,,,,,0,142,142,179,1,X, ,9, ,2,,1500,1.5,5fed940030cadf7d2d05e3c4,001,2021-08-19_16h21.52,natb3,2021.2.3,MacIntel,58.82352941,5fed940030cadf7d2d05e3c4,611e07ecdcc96256ae8d5b80,611e76f808807170647fb2fc,
,,,,space,0.508,,0,143,143,32,1,M, , , , ,space,1500,1.5,5fed940030cadf7d2d05e3c4,001,2021-08-19_16h21.52,natb3,2021.2.3,MacIntel,58.82352941,5fed940030cadf7d2d05e3c4,611e07ecdcc96256ae8d5b80,611e76f808807170647fb2fc,
,,,,space,0.465,,0,144,144,99,1,N, , , , ,space,2500,2.5,5fed940030cadf7d2d05e3c4,001,2021-08-19_16h21.52,natb3,2021.2.3,MacIntel,58.82352941,5fed940030cadf7d2d05e3c4,611e07ecdcc96256ae8d5b80,611e76f808807170647fb2fc,
,,,,space,0.364,,0,145,145,146,1,W, , , , ,space,1500,1.5,5fed940030cadf7d2d05e3c4,001,2021-08-19_16h21.52,natb3,2021.2.3,MacIntel,58.82352941,5fed940030cadf7d2d05e3c4,611e07ecdcc96256ae8d5b80,611e76f808807170647fb2fc,
,,,,space,0.391,,0,146,146,334,1,O, , , , ,space,1500,1.5,5fed940030cadf7d2d05e3c4,001,2021-08-19_16h21.52,natb3,2021.2.3,MacIntel,58.82352941,5fed940030cadf7d2d05e3c4,611e07ecdcc96256ae8d5b80,611e76f808807170647fb2fc,
,,,,space,0.36,,0,147,147,323,1,M, , , , ,space,2500,2.5,5fed940030cadf7d2d05e3c4,001,2021-08-19_16h21.52,natb3,2021.2.3,MacIntel,58.82352941,5fed940030cadf7d2d05e3c4,611e07ecdcc96256ae8d5b80,611e76f808807170647fb2fc,
,,,,space,0.367,,0,148,148,301,1,P, , , , ,space,1500,1.5,5fed940030cadf7d2d05e3c4,001,2021-08-19_16h21.52,natb3,2021.2.3,MacIntel,58.82352941,5fed940030cadf7d2d05e3c4,611e07ecdcc96256ae8d5b80,611e76f808807170647fb2fc,
,,,,space,0.323,,0,149,149,14,1,S, , , , ,space,2500,2.5,5fed940030cadf7d2d05e3c4,001,2021-08-19_16h21.52,natb3,2021.2.3,MacIntel,58.82352941,5fed940030cadf7d2d05e3c4,611e07ecdcc96256ae8d5b80,611e76f808807170647fb2fc,
,,,,space,0.317,,0,150,150,132,1,H, , , , ,space,2500,2.5,5fed940030cadf7d2d05e3c4,001,2021-08-19_16h21.52,natb3,2021.2.3,MacIntel,58.82352941,5fed940030cadf7d2d05e3c4,611e07ecdcc96256ae8d5b80,611e76f808807170647fb2fc,
,,,,space,0.404,,0,151,151,281,1,Z, , , , ,space,1500,1.5,5fed940030cadf7d2d05e3c4,001,2021-08-19_16h21.52,natb3,2021.2.3,MacIntel,58.82352941,5fed940030cadf7d2d05e3c4,611e07ecdcc96256ae8d5b80,611e76f808807170647fb2fc,
,,,,,,,0,152,152,268,1,X,6, ,3, ,,2500,2.5,5fed940030cadf7d2d05e3c4,001,2021-08-19_16h21.52,natb3,2021.2.3,MacIntel,58.82352941,5fed940030cadf7d2d05e3c4,611e07ecdcc96256ae8d5b80,611e76f808807170647fb2fc,
,,,,space,0.429,,0,153,153,19,1,G, , , , ,space,1500,1.5,5fed940030cadf7d2d05e3c4,001,2021-08-19_16h21.52,natb3,2021.2.3,MacIntel,58.82352941,5fed940030cadf7d2d05e3c4,611e07ecdcc96256ae8d5b80,611e76f808807170647fb2fc,
,,,,space,0.417,,0,154,154,119,1,Y, , , , ,space,2500,2.5,5fed940030cadf7d2d05e3c4,001,2021-08-19_16h21.52,natb3,2021.2.3,MacIntel,58.82352941,5fed940030cadf7d2d05e3c4,611e07ecdcc96256ae8d5b80,611e76f808807170647fb2fc,
,,,,,,,0,155,155,233,1,X, ,2, ,5,,1500,1.5,5fed940030cadf7d2d05e3c4,001,2021-08-19_16h21.52,natb3,2021.2.3,MacIntel,58.82352941,5fed940030cadf7d2d05e3c4,611e07ecdcc96256ae8d5b80,611e76f808807170647fb2fc,
,,,,,,,0,156,156,218,1,X,1,3, ,8,,1500,1.5,5fed940030cadf7d2d05e3c4,001,2021-08-19_16h21.52,natb3,2021.2.3,MacIntel,58.82352941,5fed940030cadf7d2d05e3c4,611e07ecdcc96256ae8d5b80,611e76f808807170647fb2fc,
,,,,,,,0,157,157,259,1,X,8, , ,3,,2500,2.5,5fed940030cadf7d2d05e3c4,001,2021-08-19_16h21.52,natb3,2021.2.3,MacIntel,58.82352941,5fed940030cadf7d2d05e3c4,611e07ecdcc96256ae8d5b80,611e76f808807170647fb2fc,
,,,,space,0.472,,0,158,158,29,1,B, , , , ,space,1500,1.5,5fed940030cadf7d2d05e3c4,001,2021-08-19_16h21.52,natb3,2021.2.3,MacIntel,58.82352941,5fed940030cadf7d2d05e3c4,611e07ecdcc96256ae8d5b80,611e76f808807170647fb2fc,
,,,,space,0.414,,0,159,159,155,1,O, , , , ,space,1500,1.5,5fed940030cadf7d2d05e3c4,001,2021-08-19_16h21.52,natb3,2021.2.3,MacIntel,58.82352941,5fed940030cadf7d2d05e3c4,611e07ecdcc96256ae8d5b80,611e76f808807170647fb2fc,
,,,,space,0.357,,0,160,160,57,1,K, , , , ,space,2500,2.5,5fed940030cadf7d2d05e3c4,001,2021-08-19_16h21.52,natb3,2021.2.3,MacIntel,58.82352941,5fed940030cadf7d2d05e3c4,611e07ecdcc96256ae8d5b80,611e76f808807170647fb2fc,
,,,,space,0.347,,0,161,161,197,1,G, , , , ,space,2500,2.5,5fed940030cadf7d2d05e3c4,001,2021-08-19_16h21.52,natb3,2021.2.3,MacIntel,58.82352941,5fed940030cadf7d2d05e3c4,611e07ecdcc96256ae8d5b80,611e76f808807170647fb2fc,
,,,,space,0.367,,0,162,162,225,1,E, , , , ,space,2000,2,5fed940030cadf7d2d05e3c4,001,2021-08-19_16h21.52,natb3,2021.2.3,MacIntel,58.82352941,5fed940030cadf7d2d05e3c4,611e07ecdcc96256ae8d5b80,611e76f808807170647fb2fc,
,,,,space,0.307,,0,163,163,232,1,O, , , , ,space,2500,2.5,5fed940030cadf7d2d05e3c4,001,2021-08-19_16h21.52,natb3,2021.2.3,MacIntel,58.82352941,5fed940030cadf7d2d05e3c4,611e07ecdcc96256ae8d5b80,611e76f808807170647fb2fc,
,,,,space,0.348,,0,164,164,261,1,T, , , , ,space,2000,2,5fed940030cadf7d2d05e3c4,001,2021-08-19_16h21.52,natb3,2021.2.3,MacIntel,58.82352941,5fed940030cadf7d2d05e3c4,611e07ecdcc96256ae8d5b80,611e76f808807170647fb2fc,
,,,,space,0.438,,0,165,165,56,1,J, , , , ,space,1500,1.5,5fed940030cadf7d2d05e3c4,001,2021-08-19_16h21.52,natb3,2021.2.3,MacIntel,58.82352941,5fed940030cadf7d2d05e3c4,611e07ecdcc96256ae8d5b80,611e76f808807170647fb2fc,
,,,,space,0.391,,0,166,166,188,1,I, , , , ,space,2500,2.5,5fed940030cadf7d2d05e3c4,001,2021-08-19_16h21.52,natb3,2021.2.3,MacIntel,58.82352941,5fed940030cadf7d2d05e3c4,611e07ecdcc96256ae8d5b80,611e76f808807170647fb2fc,
,,,,space,0.437,space,0,167,167,135,1,K, , , , ,space,1500,1.5,5fed940030cadf7d2d05e3c4,001,2021-08-19_16h21.52,natb3,2021.2.3,MacIntel,58.82352941,5fed940030cadf7d2d05e3c4,611e07ecdcc96256ae8d5b80,611e76f808807170647fb2fc,15.606
,,,,,,,0,168,168,158,1,X, , , , ,,1500,1.5,5fed940030cadf7d2d05e3c4,001,2021-08-19_16h21.52,natb3,2021.2.3,MacIntel,58.82352941,5fed940030cadf7d2d05e3c4,611e07ecdcc96256ae8d5b80,611e76f808807170647fb2fc,
,,,,,,,0,169,169,322,1,X, , ,1,6,,2000,2,5fed940030cadf7d2d05e3c4,001,2021-08-19_16h21.52,natb3,2021.2.3,MacIntel,58.82352941,5fed940030cadf7d2d05e3c4,611e07ecdcc96256ae8d5b80,611e76f808807170647fb2fc,
,,,,,,,0,170,170,315,1,X, , , , ,,2500,2.5,5fed940030cadf7d2d05e3c4,001,2021-08-19_16h21.52,natb3,2021.2.3,MacIntel,58.82352941,5fed940030cadf7d2d05e3c4,611e07ecdcc96256ae8d5b80,611e76f808807170647fb2fc,
,,,,space,0.449,,0,171,171,212,1,Q, , , , ,space,2500,2.5,5fed940030cadf7d2d05e3c4,001,2021-08-19_16h21.52,natb3,2021.2.3,MacIntel,58.82352941,5fed940030cadf7d2d05e3c4,611e07ecdcc96256ae8d5b80,611e76f808807170647fb2fc,
,,,,,,,0,172,172,27,1,X,5, ,1,3,,1500,1.5,5fed940030cadf7d2d05e3c4,001,2021-08-19_16h21.52,natb3,2021.2.3,MacIntel,58.82352941,5fed940030cadf7d2d05e3c4,611e07ecdcc96256ae8d5b80,611e76f808807170647fb2fc,
,,,,space,0.488,,0,173,173,310,1,J, , , , ,space,2500,2.5,5fed940030cadf7d2d05e3c4,001,2021-08-19_16h21.52,natb3,2021.2.3,MacIntel,58.82352941,5fed940030cadf7d2d05e3c4,611e07ecdcc96256ae8d5b80,611e76f808807170647fb2fc,
,,,,,,,0,174,174,118,1,X, , , , ,,2000,2,5fed940030cadf7d2d05e3c4,001,2021-08-19_16h21.52,natb3,2021.2.3,MacIntel,58.82352941,5fed940030cadf7d2d05e3c4,611e07ecdcc96256ae8d5b80,611e76f808807170647fb2fc,
,,,,space,0.483,,0,175,175,152,1,U, , , , ,space,2000,2,5fed940030cadf7d2d05e3c4,001,2021-08-19_16h21.52,natb3,2021.2.3,MacIntel,58.82352941,5fed940030cadf7d2d05e3c4,611e07ecdcc96256ae8d5b80,611e76f808807170647fb2fc,
,,,,space,0.511,,0,176,176,290,1,W, , , , ,space,1500,1.5,5fed940030cadf7d2d05e3c4,001,2021-08-19_16h21.52,natb3,2021.2.3,MacIntel,58.82352941,5fed940030cadf7d2d05e3c4,611e07ecdcc96256ae8d5b80,611e76f808807170647fb2fc,
,,,,,,,0,177,177,271,1,X, , , , ,,2500,2.5,5fed940030cadf7d2d05e3c4,001,2021-08-19_16h21.52,natb3,2021.2.3,MacIntel,58.82352941,5fed940030cadf7d2d05e3c4,611e07ecdcc96256ae8d5b80,611e76f808807170647fb2fc,
,,,,,,,0,178,178,325,1,X, , , , ,,2500,2.5,5fed940030cadf7d2d05e3c4,001,2021-08-19_16h21.52,natb3,2021.2.3,MacIntel,58.82352941,5fed940030cadf7d2d05e3c4,611e07ecdcc96256ae8d5b80,611e76f808807170647fb2fc,
,,,,space,0.473,,0,179,179,307,1,F, , , , ,space,2500,2.5,5fed940030cadf7d2d05e3c4,001,2021-08-19_16h21.52,natb3,2021.2.3,MacIntel,58.82352941,5fed940030cadf7d2d05e3c4,611e07ecdcc96256ae8d5b80,611e76f808807170647fb2fc,
,,,,space,0.497,,0,180,180,216,1,R, , , , ,space,1500,1.5,5fed940030cadf7d2d05e3c4,001,2021-08-19_16h21.52,natb3,2021.2.3,MacIntel,58.82352941,5fed940030cadf7d2d05e3c4,611e07ecdcc96256ae8d5b80,611e76f808807170647fb2fc,
,,,,space,0.472,,0,181,181,309,1,H, , , , ,space,2500,2.5,5fed940030cadf7d2d05e3c4,001,2021-08-19_16h21.52,natb3,2021.2.3,MacIntel,58.82352941,5fed940030cadf7d2d05e3c4,611e07ecdcc96256ae8d5b80,611e76f808807170647fb2fc,
,,,,space,0.383,,0,182,182,106,1,T, , , , ,space,1500,1.5,5fed940030cadf7d2d05e3c4,001,2021-08-19_16h21.52,natb3,2021.2.3,MacIntel,58.82352941,5fed940030cadf7d2d05e3c4,611e07ecdcc96256ae8d5b80,611e76f808807170647fb2fc,
,,,,space,0.409,,0,183,183,5,1,T, , , , ,space,2000,2,5fed940030cadf7d2d05e3c4,001,2021-08-19_16h21.52,natb3,2021.2.3,MacIntel,58.82352941,5fed940030cadf7d2d05e3c4,611e07ecdcc96256ae8d5b80,611e76f808807170647fb2fc,
,,,,,,,0,184,184,93,1,X,5, ,7, ,,2500,2.5,5fed940030cadf7d2d05e3c4,001,2021-08-19_16h21.52,natb3,2021.2.3,MacIntel,58.82352941,5fed940030cadf7d2d05e3c4,611e07ecdcc96256ae8d5b80,611e76f808807170647fb2fc,
,,,,space,0.472,,0,185,185,192,1,A, , , , ,space,2000,2,5fed940030cadf7d2d05e3c4,001,2021-08-19_16h21.52,natb3,2021.2.3,MacIntel,58.82352941,5fed940030cadf7d2d05e3c4,611e07ecdcc96256ae8d5b80,611e76f808807170647fb2fc,
,,,,space,0.398,,0,186,186,85,1,F, , , , ,space,2500,2.5,5fed940030cadf7d2d05e3c4,001,2021-08-19_16h21.52,natb3,2021.2.3,MacIntel,58.82352941,5fed940030cadf7d2d05e3c4,611e07ecdcc96256ae8d5b80,611e76f808807170647fb2fc,
,,,,,,,0,187,187,153,1,X,4,7, ,6,,2000,2,5fed940030cadf7d2d05e3c4,001,2021-08-19_16h21.52,natb3,2021.2.3,MacIntel,58.82352941,5fed940030cadf7d2d05e3c4,611e07ecdcc96256ae8d5b80,611e76f808807170647fb2fc,
,,,,space,0.487,,0,188,188,285,1,B, , , , ,space,1500,1.5,5fed940030cadf7d2d05e3c4,001,2021-08-19_16h21.52,natb3,2021.2.3,MacIntel,58.82352941,5fed940030cadf7d2d05e3c4,611e07ecdcc96256ae8d5b80,611e76f808807170647fb2fc,
,,,,space,0.458,,0,189,189,332,1,U, , , , ,space,2000,2,5fed940030cadf7d2d05e3c4,001,2021-08-19_16h21.52,natb3,2021.2.3,MacIntel,58.82352941,5fed940030cadf7d2d05e3c4,611e07ecdcc96256ae8d5b80,611e76f808807170647fb2fc,
,,,,space,0.366,,0,190,190,262,1,Y, , , , ,space,2500,2.5,5fed940030cadf7d2d05e3c4,001,2021-08-19_16h21.52,natb3,2021.2.3,MacIntel,58.82352941,5fed940030cadf7d2d05e3c4,611e07ecdcc96256ae8d5b80,611e76f808807170647fb2fc,
,,,,space,0.39,,0,191,191,330,1,T, , , , ,space,2500,2.5,5fed940030cadf7d2d05e3c4,001,2021-08-19_16h21.52,natb3,2021.2.3,MacIntel,58.82352941,5fed940030cadf7d2d05e3c4,611e07ecdcc96256ae8d5b80,611e76f808807170647fb2fc,
,,,,space,0.364,,0,192,192,113,1,W, , , , ,space,2500,2.5,5fed940030cadf7d2d05e3c4,001,2021-08-19_16h21.52,natb3,2021.2.3,MacIntel,58.82352941,5fed940030cadf7d2d05e3c4,611e07ecdcc96256ae8d5b80,611e76f808807170647fb2fc,
,,,,,,,0,193,193,299,1,X, , , , ,,2500,2.5,5fed940030cadf7d2d05e3c4,001,2021-08-19_16h21.52,natb3,2021.2.3,MacIntel,58.82352941,5fed940030cadf7d2d05e3c4,611e07ecdcc96256ae8d5b80,611e76f808807170647fb2fc,
,,,,space,0.398,,0,194,194,228,1,Y, , , , ,space,2000,2,5fed940030cadf7d2d05e3c4,001,2021-08-19_16h21.52,natb3,2021.2.3,MacIntel,58.82352941,5fed940030cadf7d2d05e3c4,611e07ecdcc96256ae8d5b80,611e76f808807170647fb2fc,
,,,,space,0.407,,0,195,195,154,1,I, , , , ,space,2500,2.5,5fed940030cadf7d2d05e3c4,001,2021-08-19_16h21.52,natb3,2021.2.3,MacIntel,58.82352941,5fed940030cadf7d2d05e3c4,611e07ecdcc96256ae8d5b80,611e76f808807170647fb2fc,
,,,,space,0.361,,0,196,196,79,1,P, , , , ,space,2000,2,5fed940030cadf7d2d05e3c4,001,2021-08-19_16h21.52,natb3,2021.2.3,MacIntel,58.82352941,5fed940030cadf7d2d05e3c4,611e07ecdcc96256ae8d5b80,611e76f808807170647fb2fc,
,,,,space,0.368,,0,197,197,47,1,P, , , , ,space,2000,2,5fed940030cadf7d2d05e3c4,001,2021-08-19_16h21.52,natb3,2021.2.3,MacIntel,58.82352941,5fed940030cadf7d2d05e3c4,611e07ecdcc96256ae8d5b80,611e76f808807170647fb2fc,
,,,,space,0.397,,0,198,198,246,1,L, , , , ,space,2500,2.5,5fed940030cadf7d2d05e3c4,001,2021-08-19_16h21.52,natb3,2021.2.3,MacIntel,58.82352941,5fed940030cadf7d2d05e3c4,611e07ecdcc96256ae8d5b80,611e76f808807170647fb2fc,
,,,,space,0.359,,0,199,199,202,1,L, , , , ,space,2500,2.5,5fed940030cadf7d2d05e3c4,001,2021-08-19_16h21.52,natb3,2021.2.3,MacIntel,58.82352941,5fed940030cadf7d2d05e3c4,611e07ecdcc96256ae8d5b80,611e76f808807170647fb2fc,
,,,,space,0.523,,0,200,200,254,1,M, , , , ,space,1500,1.5,5fed940030cadf7d2d05e3c4,001,2021-08-19_16h21.52,natb3,2021.2.3,MacIntel,58.82352941,5fed940030cadf7d2d05e3c4,611e07ecdcc96256ae8d5b80,611e76f808807170647fb2fc,
,,,,space,0.316,,0,201,201,289,1,Q, , , , ,space,2000,2,5fed940030cadf7d2d05e3c4,001,2021-08-19_16h21.52,natb3,2021.2.3,MacIntel,58.82352941,5fed940030cadf7d2d05e3c4,611e07ecdcc96256ae8d5b80,611e76f808807170647fb2fc,
,,,,space,0.305,,0,202,202,111,1,O, , , , ,space,2000,2,5fed940030cadf7d2d05e3c4,001,2021-08-19_16h21.52,natb3,2021.2.3,MacIntel,58.82352941,5fed940030cadf7d2d05e3c4,611e07ecdcc96256ae8d5b80,611e76f808807170647fb2fc,
,,,,space,0.396,,0,203,203,204,1,Z, , , , ,space,2000,2,5fed940030cadf7d2d05e3c4,001,2021-08-19_16h21.52,natb3,2021.2.3,MacIntel,58.82352941,5fed940030cadf7d2d05e3c4,611e07ecdcc96256ae8d5b80,611e76f808807170647fb2fc,
,,,,space,0.449,,0,204,204,70,1,E, , , , ,space,2500,2.5,5fed940030cadf7d2d05e3c4,001,2021-08-19_16h21.52,natb3,2021.2.3,MacIntel,58.82352941,5fed940030cadf7d2d05e3c4,611e07ecdcc96256ae8d5b80,611e76f808807170647fb2fc,
,,,,,,,0,205,205,207,1,X,9, ,2, ,,2500,2.5,5fed940030cadf7d2d05e3c4,001,2021-08-19_16h21.52,natb3,2021.2.3,MacIntel,58.82352941,5fed940030cadf7d2d05e3c4,611e07ecdcc96256ae8d5b80,611e76f808807170647fb2fc,
,,,,space,0.421,,0,206,206,234,1,P, , , , ,space,2000,2,5fed940030cadf7d2d05e3c4,001,2021-08-19_16h21.52,natb3,2021.2.3,MacIntel,58.82352941,5fed940030cadf7d2d05e3c4,611e07ecdcc96256ae8d5b80,611e76f808807170647fb2fc,
,,,,,,,0,207,207,187,1,X, ,3,7,4,,1500,1.5,5fed940030cadf7d2d05e3c4,001,2021-08-19_16h21.52,natb3,2021.2.3,MacIntel,58.82352941,5fed940030cadf7d2d05e3c4,611e07ecdcc96256ae8d5b80,611e76f808807170647fb2fc,
,,,,space,0.455,,0,208,208,121,1,I, , , , ,space,2000,2,5fed940030cadf7d2d05e3c4,001,2021-08-19_16h21.52,natb3,2021.2.3,MacIntel,58.82352941,5fed940030cadf7d2d05e3c4,611e07ecdcc96256ae8d5b80,611e76f808807170647fb2fc,
,,,,,,,0,209,209,129,1,X,2,3,5, ,,1500,1.5,5fed940030cadf7d2d05e3c4,001,2021-08-19_16h21.52,natb3,2021.2.3,MacIntel,58.82352941,5fed940030cadf7d2d05e3c4,611e07ecdcc96256ae8d5b80,611e76f808807170647fb2fc,
,,,,space,0.405,,0,210,210,266,1,O, , , , ,space,1500,1.5,5fed940030cadf7d2d05e3c4,001,2021-08-19_16h21.52,natb3,2021.2.3,MacIntel,58.82352941,5fed940030cadf7d2d05e3c4,611e07ecdcc96256ae8d5b80,611e76f808807170647fb2fc,
,,,,space,0.386,,0,211,211,198,1,H, , , , ,space,2500,2.5,5fed940030cadf7d2d05e3c4,001,2021-08-19_16h21.52,natb3,2021.2.3,MacIntel,58.82352941,5fed940030cadf7d2d05e3c4,611e07ecdcc96256ae8d5b80,611e76f808807170647fb2fc,
,,,,space,0.447,,0,212,212,86,1,G, , , , ,space,2000,2,5fed940030cadf7d2d05e3c4,001,2021-08-19_16h21.52,natb3,2021.2.3,MacIntel,58.82352941,5fed940030cadf7d2d05e3c4,611e07ecdcc96256ae8d5b80,611e76f808807170647fb2fc,
,,,,space,0.389,,0,213,213,178,1,Q, , , , ,space,1500,1.5,5fed940030cadf7d2d05e3c4,001,2021-08-19_16h21.52,natb3,2021.2.3,MacIntel,58.82352941,5fed940030cadf7d2d05e3c4,611e07ecdcc96256ae8d5b80,611e76f808807170647fb2fc,
,,,,space,0.358,,0,214,214,124,1,P, , , , ,space,2000,2,5fed940030cadf7d2d05e3c4,001,2021-08-19_16h21.52,natb3,2021.2.3,MacIntel,58.82352941,5fed940030cadf7d2d05e3c4,611e07ecdcc96256ae8d5b80,611e76f808807170647fb2fc,
,,,,space,0.364,,0,215,215,83,1,D, , , , ,space,2000,2,5fed940030cadf7d2d05e3c4,001,2021-08-19_16h21.52,natb3,2021.2.3,MacIntel,58.82352941,5fed940030cadf7d2d05e3c4,611e07ecdcc96256ae8d5b80,611e76f808807170647fb2fc,
,,,,space,0.335,,0,216,216,0,1,Q, , , , ,space,1500,1.5,5fed940030cadf7d2d05e3c4,001,2021-08-19_16h21.52,natb3,2021.2.3,MacIntel,58.82352941,5fed940030cadf7d2d05e3c4,611e07ecdcc96256ae8d5b80,611e76f808807170647fb2fc,
,,,,space,0.348,,0,217,217,13,1,A, , , , ,space,2000,2,5fed940030cadf7d2d05e3c4,001,2021-08-19_16h21.52,natb3,2021.2.3,MacIntel,58.82352941,5fed940030cadf7d2d05e3c4,611e07ecdcc96256ae8d5b80,611e76f808807170647fb2fc,
,,,,,,,0,218,218,182,1,X, , , , ,,1500,1.5,5fed940030cadf7d2d05e3c4,001,2021-08-19_16h21.52,natb3,2021.2.3,MacIntel,58.82352941,5fed940030cadf7d2d05e3c4,611e07ecdcc96256ae8d5b80,611e76f808807170647fb2fc,
,,,,space,0.396,,0,219,219,180,1,W, , , , ,space,2000,2,5fed940030cadf7d2d05e3c4,001,2021-08-19_16h21.52,natb3,2021.2.3,MacIntel,58.82352941,5fed940030cadf7d2d05e3c4,611e07ecdcc96256ae8d5b80,611e76f808807170647fb2fc,
,,,,space,0.348,,0,220,220,169,1,L, , , , ,space,2500,2.5,5fed940030cadf7d2d05e3c4,001,2021-08-19_16h21.52,natb3,2021.2.3,MacIntel,58.82352941,5fed940030cadf7d2d05e3c4,611e07ecdcc96256ae8d5b80,611e76f808807170647fb2fc,
,,,,space,0.347,,0,221,221,256,1,Q, , , , ,space,2000,2,5fed940030cadf7d2d05e3c4,001,2021-08-19_16h21.52,natb3,2021.2.3,MacIntel,58.82352941,5fed940030cadf7d2d05e3c4,611e07ecdcc96256ae8d5b80,611e76f808807170647fb2fc,
,,,,space,0.374,,0,222,222,90,1,K, , , , ,space,2000,2,5fed940030cadf7d2d05e3c4,001,2021-08-19_16h21.52,natb3,2021.2.3,MacIntel,58.82352941,5fed940030cadf7d2d05e3c4,611e07ecdcc96256ae8d5b80,611e76f808807170647fb2fc,
,,,,space,0.357,,0,223,223,333,1,I, , , , ,space,1500,1.5,5fed940030cadf7d2d05e3c4,001,2021-08-19_16h21.52,natb3,2021.2.3,MacIntel,58.82352941,5fed940030cadf7d2d05e3c4,611e07ecdcc96256ae8d5b80,611e76f808807170647fb2fc,
,,,,,,,0,224,224,125,1,X, , , , ,,2000,2,5fed940030cadf7d2d05e3c4,001,2021-08-19_16h21.52,natb3,2021.2.3,MacIntel,58.82352941,5fed940030cadf7d2d05e3c4,611e07ecdcc96256ae8d5b80,611e76f808807170647fb2fc,
,,,,,,,0,225,225,168,1,X, , , , ,,2500,2.5,5fed940030cadf7d2d05e3c4,001,2021-08-19_16h21.52,natb3,2021.2.3,MacIntel,58.82352941,5fed940030cadf7d2d05e3c4,611e07ecdcc96256ae8d5b80,611e76f808807170647fb2fc,
,,,,space,0.399,,0,226,226,131,1,G, , , , ,space,1500,1.5,5fed940030cadf7d2d05e3c4,001,2021-08-19_16h21.52,natb3,2021.2.3,MacIntel,58.82352941,5fed940030cadf7d2d05e3c4,611e07ecdcc96256ae8d5b80,611e76f808807170647fb2fc,
,,,,space,0.344,,0,227,227,215,1,E, , , , ,space,2500,2.5,5fed940030cadf7d2d05e3c4,001,2021-08-19_16h21.52,natb3,2021.2.3,MacIntel,58.82352941,5fed940030cadf7d2d05e3c4,611e07ecdcc96256ae8d5b80,611e76f808807170647fb2fc,
,,,,space,0.333,,0,228,228,270,1,S, , , , ,space,1500,1.5,5fed940030cadf7d2d05e3c4,001,2021-08-19_16h21.52,natb3,2021.2.3,MacIntel,58.82352941,5fed940030cadf7d2d05e3c4,611e07ecdcc96256ae8d5b80,611e76f808807170647fb2fc,
,,,,space,0.345,,0,229,229,214,1,W, , , , ,space,2000,2,5fed940030cadf7d2d05e3c4,001,2021-08-19_16h21.52,natb3,2021.2.3,MacIntel,58.82352941,5fed940030cadf7d2d05e3c4,611e07ecdcc96256ae8d5b80,611e76f808807170647fb2fc,
,,,,space,0.332,,0,230,230,241,1,G, , , , ,space,2500,2.5,5fed940030cadf7d2d05e3c4,001,2021-08-19_16h21.52,natb3,2021.2.3,MacIntel,58.82352941,5fed940030cadf7d2d05e3c4,611e07ecdcc96256ae8d5b80,611e76f808807170647fb2fc,
,,,,space,0.317,,0,231,231,159,1,S, , , , ,space,2500,2.5,5fed940030cadf7d2d05e3c4,001,2021-08-19_16h21.52,natb3,2021.2.3,MacIntel,58.82352941,5fed940030cadf7d2d05e3c4,611e07ecdcc96256ae8d5b80,611e76f808807170647fb2fc,
,,,,space,0.389,,0,232,232,109,1,U, , , , ,space,1500,1.5,5fed940030cadf7d2d05e3c4,001,2021-08-19_16h21.52,natb3,2021.2.3,MacIntel,58.82352941,5fed940030cadf7d2d05e3c4,611e07ecdcc96256ae8d5b80,611e76f808807170647fb2fc,
,,,,,,,0,233,233,12,1,X, , , , ,,1500,1.5,5fed940030cadf7d2d05e3c4,001,2021-08-19_16h21.52,natb3,2021.2.3,MacIntel,58.82352941,5fed940030cadf7d2d05e3c4,611e07ecdcc96256ae8d5b80,611e76f808807170647fb2fc,
,,,,,,,0,234,234,138,1,X,8,5, ,3,,2000,2,5fed940030cadf7d2d05e3c4,001,2021-08-19_16h21.52,natb3,2021.2.3,MacIntel,58.82352941,5fed940030cadf7d2d05e3c4,611e07ecdcc96256ae8d5b80,611e76f808807170647fb2fc,
,,,,space,0.379,,0,235,235,96,1,X, , , , ,,1500,1.5,5fed940030cadf7d2d05e3c4,001,2021-08-19_16h21.52,natb3,2021.2.3,MacIntel,58.82352941,5fed940030cadf7d2d05e3c4,611e07ecdcc96256ae8d5b80,611e76f808807170647fb2fc,
,,,,,,,0,236,236,213,1,X, , , , ,,2500,2.5,5fed940030cadf7d2d05e3c4,001,2021-08-19_16h21.52,natb3,2021.2.3,MacIntel,58.82352941,5fed940030cadf7d2d05e3c4,611e07ecdcc96256ae8d5b80,611e76f808807170647fb2fc,
,,,,,,,0,237,237,273,1,X, , , , ,,2000,2,5fed940030cadf7d2d05e3c4,001,2021-08-19_16h21.52,natb3,2021.2.3,MacIntel,58.82352941,5fed940030cadf7d2d05e3c4,611e07ecdcc96256ae8d5b80,611e76f808807170647fb2fc,
,,,,space,0.47,,0,238,238,253,1,N, , , , ,space,2500,2.5,5fed940030cadf7d2d05e3c4,001,2021-08-19_16h21.52,natb3,2021.2.3,MacIntel,58.82352941,5fed940030cadf7d2d05e3c4,611e07ecdcc96256ae8d5b80,611e76f808807170647fb2fc,
,,,,space,0.357,,0,239,239,221,1,I, , , , ,space,2500,2.5,5fed940030cadf7d2d05e3c4,001,2021-08-19_16h21.52,natb3,2021.2.3,MacIntel,58.82352941,5fed940030cadf7d2d05e3c4,611e07ecdcc96256ae8d5b80,611e76f808807170647fb2fc,
,,,,space,0.441,,0,240,240,8,1,U, , , , ,space,1500,1.5,5fed940030cadf7d2d05e3c4,001,2021-08-19_16h21.52,natb3,2021.2.3,MacIntel,58.82352941,5fed940030cadf7d2d05e3c4,611e07ecdcc96256ae8d5b80,611e76f808807170647fb2fc,
,,,,space,0.348,,0,241,241,94,1,C, , , , ,space,2000,2,5fed940030cadf7d2d05e3c4,001,2021-08-19_16h21.52,natb3,2021.2.3,MacIntel,58.82352941,5fed940030cadf7d2d05e3c4,611e07ecdcc96256ae8d5b80,611e76f808807170647fb2fc,
,,,,space,0.365,,0,242,242,173,1,V, , , , ,space,1500,1.5,5fed940030cadf7d2d05e3c4,001,2021-08-19_16h21.52,natb3,2021.2.3,MacIntel,58.82352941,5fed940030cadf7d2d05e3c4,611e07ecdcc96256ae8d5b80,611e76f808807170647fb2fc,
,,,,space,0.336,,0,243,243,303,1,A, , , , ,space,2000,2,5fed940030cadf7d2d05e3c4,001,2021-08-19_16h21.52,natb3,2021.2.3,MacIntel,58.82352941,5fed940030cadf7d2d05e3c4,611e07ecdcc96256ae8d5b80,611e76f808807170647fb2fc,
,,,,space,0.397,,0,244,244,17,1,F, , , , ,space,2500,2.5,5fed940030cadf7d2d05e3c4,001,2021-08-19_16h21.52,natb3,2021.2.3,MacIntel,58.82352941,5fed940030cadf7d2d05e3c4,611e07ecdcc96256ae8d5b80,611e76f808807170647fb2fc,
,,,,space,0.344,,0,245,245,65,1,M, , , , ,space,1500,1.5,5fed940030cadf7d2d05e3c4,001,2021-08-19_16h21.52,natb3,2021.2.3,MacIntel,58.82352941,5fed940030cadf7d2d05e3c4,611e07ecdcc96256ae8d5b80,611e76f808807170647fb2fc,
,,,,space,0.314,,0,246,246,264,1,U, , , , ,space,2000,2,5fed940030cadf7d2d05e3c4,001,2021-08-19_16h21.52,natb3,2021.2.3,MacIntel,58.82352941,5fed940030cadf7d2d05e3c4,611e07ecdcc96256ae8d5b80,611e76f808807170647fb2fc,
,,,,space,0.325,,0,247,247,165,1,J, , , , ,space,2500,2.5,5fed940030cadf7d2d05e3c4,001,2021-08-19_16h21.52,natb3,2021.2.3,MacIntel,58.82352941,5fed940030cadf7d2d05e3c4,611e07ecdcc96256ae8d5b80,611e76f808807170647fb2fc,
,,,,space,0.394,,0,248,248,200,1,X,7, ,5,3,,1500,1.5,5fed940030cadf7d2d05e3c4,001,2021-08-19_16h21.52,natb3,2021.2.3,MacIntel,58.82352941,5fed940030cadf7d2d05e3c4,611e07ecdcc96256ae8d5b80,611e76f808807170647fb2fc,
,,,,space,0.366,,0,249,249,143,1,M, , , , ,space,2500,2.5,5fed940030cadf7d2d05e3c4,001,2021-08-19_16h21.52,natb3,2021.2.3,MacIntel,58.82352941,5fed940030cadf7d2d05e3c4,611e07ecdcc96256ae8d5b80,611e76f808807170647fb2fc,
,,,,space,0.358,,0,250,250,194,1,D, , , , ,space,2000,2,5fed940030cadf7d2d05e3c4,001,2021-08-19_16h21.52,natb3,2021.2.3,MacIntel,58.82352941,5fed940030cadf7d2d05e3c4,611e07ecdcc96256ae8d5b80,611e76f808807170647fb2fc,
,,,,space,0.373,,0,251,251,242,1,H, , , , ,space,2500,2.5,5fed940030cadf7d2d05e3c4,001,2021-08-19_16h21.52,natb3,2021.2.3,MacIntel,58.82352941,5fed940030cadf7d2d05e3c4,611e07ecdcc96256ae8d5b80,611e76f808807170647fb2fc,
,,,,space,0.349,,0,252,252,112,1,Q, , , , ,space,2500,2.5,5fed940030cadf7d2d05e3c4,001,2021-08-19_16h21.52,natb3,2021.2.3,MacIntel,58.82352941,5fed940030cadf7d2d05e3c4,611e07ecdcc96256ae8d5b80,611e76f808807170647fb2fc,
,,,,space,0.414,,0,253,253,327,1,E, , , , ,space,1500,1.5,5fed940030cadf7d2d05e3c4,001,2021-08-19_16h21.52,natb3,2021.2.3,MacIntel,58.82352941,5fed940030cadf7d2d05e3c4,611e07ecdcc96256ae8d5b80,611e76f808807170647fb2fc,
,,,,space,0.34,,0,254,254,304,1,S, , , , ,space,2000,2,5fed940030cadf7d2d05e3c4,001,2021-08-19_16h21.52,natb3,2021.2.3,MacIntel,58.82352941,5fed940030cadf7d2d05e3c4,611e07ecdcc96256ae8d5b80,611e76f808807170647fb2fc,
,,,,space,0.381,,0,255,255,181,1,E, , , , ,space,1500,1.5,5fed940030cadf7d2d05e3c4,001,2021-08-19_16h21.52,natb3,2021.2.3,MacIntel,58.82352941,5fed940030cadf7d2d05e3c4,611e07ecdcc96256ae8d5b80,611e76f808807170647fb2fc,
,,,,space,0.34,,0,256,256,184,1,T, , , , ,space,2000,2,5fed940030cadf7d2d05e3c4,001,2021-08-19_16h21.52,natb3,2021.2.3,MacIntel,58.82352941,5fed940030cadf7d2d05e3c4,611e07ecdcc96256ae8d5b80,611e76f808807170647fb2fc,
,,,,space,0.374,,0,257,257,142,1,N, , , , ,space,2500,2.5,5fed940030cadf7d2d05e3c4,001,2021-08-19_16h21.52,natb3,2021.2.3,MacIntel,58.82352941,5fed940030cadf7d2d05e3c4,611e07ecdcc96256ae8d5b80,611e76f808807170647fb2fc,
,,,,space,0.347,,0,258,258,319,1,V, , , , ,space,2000,2,5fed940030cadf7d2d05e3c4,001,2021-08-19_16h21.52,natb3,2021.2.3,MacIntel,58.82352941,5fed940030cadf7d2d05e3c4,611e07ecdcc96256ae8d5b80,611e76f808807170647fb2fc,
,,,,space,0.341,,0,259,259,223,1,Q, , , , ,space,2000,2,5fed940030cadf7d2d05e3c4,001,2021-08-19_16h21.52,natb3,2021.2.3,MacIntel,58.82352941,5fed940030cadf7d2d05e3c4,611e07ecdcc96256ae8d5b80,611e76f808807170647fb2fc,
,,,,,,,0,260,260,335,1,P,,,,,space,1500,1.5,5fed940030cadf7d2d05e3c4,001,2021-08-19_16h21.52,natb3,2021.2.3,MacIntel,58.82352941,5fed940030cadf7d2d05e3c4,611e07ecdcc96256ae8d5b80,611e76f808807170647fb2fc,
,,,,space,0.403,,0,261,261,64,1,N, , , , ,space,2000,2,5fed940030cadf7d2d05e3c4,001,2021-08-19_16h21.52,natb3,2021.2.3,MacIntel,58.82352941,5fed940030cadf7d2d05e3c4,611e07ecdcc96256ae8d5b80,611e76f808807170647fb2fc,
,,,,space,0.321,,0,262,262,258,1,E, , , , ,space,1500,1.5,5fed940030cadf7d2d05e3c4,001,2021-08-19_16h21.52,natb3,2021.2.3,MacIntel,58.82352941,5fed940030cadf7d2d05e3c4,611e07ecdcc96256ae8d5b80,611e76f808807170647fb2fc,
,,,,,,,0,263,263,141,1,X,1, ,4,6,,1500,1.5,5fed940030cadf7d2d05e3c4,001,2021-08-19_16h21.52,natb3,2021.2.3,MacIntel,58.82352941,5fed940030cadf7d2d05e3c4,611e07ecdcc96256ae8d5b80,611e76f808807170647fb2fc,
,,,,space,0.622,,0,264,264,92,1,Z, , , , ,space,1500,1.5,5fed940030cadf7d2d05e3c4,001,2021-08-19_16h21.52,natb3,2021.2.3,MacIntel,58.82352941,5fed940030cadf7d2d05e3c4,611e07ecdcc96256ae8d5b80,611e76f808807170647fb2fc,
,,,,space,0.332,,0,265,265,127,1,S, , , , ,space,2500,2.5,5fed940030cadf7d2d05e3c4,001,2021-08-19_16h21.52,natb3,2021.2.3,MacIntel,58.82352941,5fed940030cadf7d2d05e3c4,611e07ecdcc96256ae8d5b80,611e76f808807170647fb2fc,
,,,,space,0.308,,0,266,266,220,1,U, , , , ,space,2500,2.5,5fed940030cadf7d2d05e3c4,001,2021-08-19_16h21.52,natb3,2021.2.3,MacIntel,58.82352941,5fed940030cadf7d2d05e3c4,611e07ecdcc96256ae8d5b80,611e76f808807170647fb2fc,
,,,,space,0.341,,0,267,267,283,1,C, , , , ,space,1500,1.5,5fed940030cadf7d2d05e3c4,001,2021-08-19_16h21.52,natb3,2021.2.3,MacIntel,58.82352941,5fed940030cadf7d2d05e3c4,611e07ecdcc96256ae8d5b80,611e76f808807170647fb2fc,
,,,,space,0.326,,0,268,268,297,1,U, , , , ,space,2000,2,5fed940030cadf7d2d05e3c4,001,2021-08-19_16h21.52,natb3,2021.2.3,MacIntel,58.82352941,5fed940030cadf7d2d05e3c4,611e07ecdcc96256ae8d5b80,611e76f808807170647fb2fc,
,,,,space,0.347,,0,269,269,81,1,S, , , , ,space,2000,2,5fed940030cadf7d2d05e3c4,001,2021-08-19_16h21.52,natb3,2021.2.3,MacIntel,58.82352941,5fed940030cadf7d2d05e3c4,611e07ecdcc96256ae8d5b80,611e76f808807170647fb2fc,
,,,,space,0.348,,0,270,270,58,1,L, , , , ,space,2000,2,5fed940030cadf7d2d05e3c4,001,2021-08-19_16h21.52,natb3,2021.2.3,MacIntel,58.82352941,5fed940030cadf7d2d05e3c4,611e07ecdcc96256ae8d5b80,611e76f808807170647fb2fc,
,,,,space,0.341,,0,271,271,75,1,U, , , , ,space,1500,1.5,5fed940030cadf7d2d05e3c4,001,2021-08-19_16h21.52,natb3,2021.2.3,MacIntel,58.82352941,5fed940030cadf7d2d05e3c4,611e07ecdcc96256ae8d5b80,611e76f808807170647fb2fc,
,,,,space,0.309,,0,272,272,206,1,V, , , , ,space,2000,2,5fed940030cadf7d2d05e3c4,001,2021-08-19_16h21.52,natb3,2021.2.3,MacIntel,58.82352941,5fed940030cadf7d2d05e3c4,611e07ecdcc96256ae8d5b80,611e76f808807170647fb2fc,
,,,,space,0.324,,0,273,273,251,1,B, , , , ,space,1500,1.5,5fed940030cadf7d2d05e3c4,001,2021-08-19_16h21.52,natb3,2021.2.3,MacIntel,58.82352941,5fed940030cadf7d2d05e3c4,611e07ecdcc96256ae8d5b80,611e76f808807170647fb2fc,
,,,,space,0.366,,0,274,274,6,1,Y, , , , ,space,2500,2.5,5fed940030cadf7d2d05e3c4,001,2021-08-19_16h21.52,natb3,2021.2.3,MacIntel,58.82352941,5fed940030cadf7d2d05e3c4,611e07ecdcc96256ae8d5b80,611e76f808807170647fb2fc,
,,,,space,0.392,,0,275,275,183,1,R, , , , ,space,1500,1.5,5fed940030cadf7d2d05e3c4,001,2021-08-19_16h21.52,natb3,2021.2.3,MacIntel,58.82352941,5fed940030cadf7d2d05e3c4,611e07ecdcc96256ae8d5b80,611e76f808807170647fb2fc,
,,,,,,,0,276,276,31,1,X, , , , ,,1500,1.5,5fed940030cadf7d2d05e3c4,001,2021-08-19_16h21.52,natb3,2021.2.3,MacIntel,58.82352941,5fed940030cadf7d2d05e3c4,611e07ecdcc96256ae8d5b80,611e76f808807170647fb2fc,
,,,,,,,0,277,277,282,1,X, , , , ,,2500,2.5,5fed940030cadf7d2d05e3c4,001,2021-08-19_16h21.52,natb3,2021.2.3,MacIntel,58.82352941,5fed940030cadf7d2d05e3c4,611e07ecdcc96256ae8d5b80,611e76f808807170647fb2fc,
,,,,space,0.433,,0,278,278,288,1,M, , , , ,space,1500,1.5,5fed940030cadf7d2d05e3c4,001,2021-08-19_16h21.52,natb3,2021.2.3,MacIntel,58.82352941,5fed940030cadf7d2d05e3c4,611e07ecdcc96256ae8d5b80,611e76f808807170647fb2fc,
,,,,space,0.414,,0,279,279,71,1,R, , , , ,space,2500,2.5,5fed940030cadf7d2d05e3c4,001,2021-08-19_16h21.52,natb3,2021.2.3,MacIntel,58.82352941,5fed940030cadf7d2d05e3c4,611e07ecdcc96256ae8d5b80,611e76f808807170647fb2fc,
,,,,space,0.365,,0,280,280,237,1,S, , , , ,space,1500,1.5,5fed940030cadf7d2d05e3c4,001,2021-08-19_16h21.52,natb3,2021.2.3,MacIntel,58.82352941,5fed940030cadf7d2d05e3c4,611e07ecdcc96256ae8d5b80,611e76f808807170647fb2fc,
,,,,,,,0,281,281,329,1,X,3,4, ,2,,2500,2.5,5fed940030cadf7d2d05e3c4,001,2021-08-19_16h21.52,natb3,2021.2.3,MacIntel,58.82352941,5fed940030cadf7d2d05e3c4,611e07ecdcc96256ae8d5b80,611e76f808807170647fb2fc,
,,,,space,0.423,,0,282,282,161,1,F, , , , ,space,1500,1.5,5fed940030cadf7d2d05e3c4,001,2021-08-19_16h21.52,natb3,2021.2.3,MacIntel,58.82352941,5fed940030cadf7d2d05e3c4,611e07ecdcc96256ae8d5b80,611e76f808807170647fb2fc,
,,,,,,,0,283,283,313,1,X, , , , ,,2500,2.5,5fed940030cadf7d2d05e3c4,001,2021-08-19_16h21.52,natb3,2021.2.3,MacIntel,58.82352941,5fed940030cadf7d2d05e3c4,611e07ecdcc96256ae8d5b80,611e76f808807170647fb2fc,
,,,,space,0.371,,0,284,284,219,1,Y, , , , ,space,2000,2,5fed940030cadf7d2d05e3c4,001,2021-08-19_16h21.52,natb3,2021.2.3,MacIntel,58.82352941,5fed940030cadf7d2d05e3c4,611e07ecdcc96256ae8d5b80,611e76f808807170647fb2fc,
,,,,space,0.359,,0,285,285,134,1,J, , , , ,space,2000,2,5fed940030cadf7d2d05e3c4,001,2021-08-19_16h21.52,natb3,2021.2.3,MacIntel,58.82352941,5fed940030cadf7d2d05e3c4,611e07ecdcc96256ae8d5b80,611e76f808807170647fb2fc,
,,,,space,0.351,,0,286,286,209,1,N, , , , ,space,2000,2,5fed940030cadf7d2d05e3c4,001,2021-08-19_16h21.52,natb3,2021.2.3,MacIntel,58.82352941,5fed940030cadf7d2d05e3c4,611e07ecdcc96256ae8d5b80,611e76f808807170647fb2fc,
,,,,,,,0,287,287,102,1,X, ,6, , ,,1500,1.5,5fed940030cadf7d2d05e3c4,001,2021-08-19_16h21.52,natb3,2021.2.3,MacIntel,58.82352941,5fed940030cadf7d2d05e3c4,611e07ecdcc96256ae8d5b80,611e76f808807170647fb2fc,
,,,,,,,0,288,288,66,1,X, ,4,7, ,,2000,2,5fed940030cadf7d2d05e3c4,001,2021-08-19_16h21.52,natb3,2021.2.3,MacIntel,58.82352941,5fed940030cadf7d2d05e3c4,611e07ecdcc96256ae8d5b80,611e76f808807170647fb2fc,
,,,,,,,0,289,289,162,1,X,1,6, ,2,,1500,1.5,5fed940030cadf7d2d05e3c4,001,2021-08-19_16h21.52,natb3,2021.2.3,MacIntel,58.82352941,5fed940030cadf7d2d05e3c4,611e07ecdcc96256ae8d5b80,611e76f808807170647fb2fc,
,,,,space,0.445,,0,290,290,170,1,Z, , , , ,space,2000,2,5fed940030cadf7d2d05e3c4,001,2021-08-19_16h21.52,natb3,2021.2.3,MacIntel,58.82352941,5fed940030cadf7d2d05e3c4,611e07ecdcc96256ae8d5b80,611e76f808807170647fb2fc,
,,,,space,0.415,,0,291,291,149,1,R, , , , ,space,2000,2,5fed940030cadf7d2d05e3c4,001,2021-08-19_16h21.52,natb3,2021.2.3,MacIntel,58.82352941,5fed940030cadf7d2d05e3c4,611e07ecdcc96256ae8d5b80,611e76f808807170647fb2fc,
,,,,space,0.375,,0,292,292,324,1,Q, , , , ,space,2000,2,5fed940030cadf7d2d05e3c4,001,2021-08-19_16h21.52,natb3,2021.2.3,MacIntel,58.82352941,5fed940030cadf7d2d05e3c4,611e07ecdcc96256ae8d5b80,611e76f808807170647fb2fc,
,,,,,,,0,293,293,39,1,X,6,2, , ,,1500,1.5,5fed940030cadf7d2d05e3c4,001,2021-08-19_16h21.52,natb3,2021.2.3,MacIntel,58.82352941,5fed940030cadf7d2d05e3c4,611e07ecdcc96256ae8d5b80,611e76f808807170647fb2fc,
,,,,space,0.435,,0,294,294,34,1,Q, , , , ,space,2500,2.5,5fed940030cadf7d2d05e3c4,001,2021-08-19_16h21.52,natb3,2021.2.3,MacIntel,58.82352941,5fed940030cadf7d2d05e3c4,611e07ecdcc96256ae8d5b80,611e76f808807170647fb2fc,
,,,,space,0.448,,0,295,295,55,1,H, , , , ,space,2500,2.5,5fed940030cadf7d2d05e3c4,001,2021-08-19_16h21.52,natb3,2021.2.3,MacIntel,58.82352941,5fed940030cadf7d2d05e3c4,611e07ecdcc96256ae8d5b80,611e76f808807170647fb2fc,
,,,,space,0.318,,0,296,296,174,1,B, , , , ,space,2500,2.5,5fed940030cadf7d2d05e3c4,001,2021-08-19_16h21.52,natb3,2021.2.3,MacIntel,58.82352941,5fed940030cadf7d2d05e3c4,611e07ecdcc96256ae8d5b80,611e76f808807170647fb2fc,
,,,,,,,0,297,297,133,1,X, ,4, ,6,,2500,2.5,5fed940030cadf7d2d05e3c4,001,2021-08-19_16h21.52,natb3,2021.2.3,MacIntel,58.82352941,5fed940030cadf7d2d05e3c4,611e07ecdcc96256ae8d5b80,611e76f808807170647fb2fc,
,,,,,,,0,298,298,277,1,X,8,5, ,2,,2000,2,5fed940030cadf7d2d05e3c4,001,2021-08-19_16h21.52,natb3,2021.2.3,MacIntel,58.82352941,5fed940030cadf7d2d05e3c4,611e07ecdcc96256ae8d5b80,611e76f808807170647fb2fc,
,,,,,,,0,299,299,84,1,X, , , , ,,2000,2,5fed940030cadf7d2d05e3c4,001,2021-08-19_16h21.52,natb3,2021.2.3,MacIntel,58.82352941,5fed940030cadf7d2d05e3c4,611e07ecdcc96256ae8d5b80,611e76f808807170647fb2fc,
,,,,space,0.507,,0,300,300,247,1,Z, , , , ,space,1500,1.5,5fed940030cadf7d2d05e3c4,001,2021-08-19_16h21.52,natb3,2021.2.3,MacIntel,58.82352941,5fed940030cadf7d2d05e3c4,611e07ecdcc96256ae8d5b80,611e76f808807170647fb2fc,
,,,,space,0.49,,0,301,301,9,1,I, , , , ,space,1500,1.5,5fed940030cadf7d2d05e3c4,001,2021-08-19_16h21.52,natb3,2021.2.3,MacIntel,58.82352941,5fed940030cadf7d2d05e3c4,611e07ecdcc96256ae8d5b80,611e76f808807170647fb2fc,
,,,,space,0.359,,0,302,302,36,1,W, , , , ,space,2000,2,5fed940030cadf7d2d05e3c4,001,2021-08-19_16h21.52,natb3,2021.2.3,MacIntel,58.82352941,5fed940030cadf7d2d05e3c4,611e07ecdcc96256ae8d5b80,611e76f808807170647fb2fc,
,,,,,,,0,303,303,239,1,X, , , , ,,2000,2,5fed940030cadf7d2d05e3c4,001,2021-08-19_16h21.52,natb3,2021.2.3,MacIntel,58.82352941,5fed940030cadf7d2d05e3c4,611e07ecdcc96256ae8d5b80,611e76f808807170647fb2fc,
,,,,space,0.368,,0,304,304,52,1,F, , , , ,space,1500,1.5,5fed940030cadf7d2d05e3c4,001,2021-08-19_16h21.52,natb3,2021.2.3,MacIntel,58.82352941,5fed940030cadf7d2d05e3c4,611e07ecdcc96256ae8d5b80,611e76f808807170647fb2fc,
,,,,,,,0,305,305,291,1,X, , , , ,,2000,2,5fed940030cadf7d2d05e3c4,001,2021-08-19_16h21.52,natb3,2021.2.3,MacIntel,58.82352941,5fed940030cadf7d2d05e3c4,611e07ecdcc96256ae8d5b80,611e76f808807170647fb2fc,
,,,,,,,0,306,306,116,1,X, , , , ,,2000,2,5fed940030cadf7d2d05e3c4,001,2021-08-19_16h21.52,natb3,2021.2.3,MacIntel,58.82352941,5fed940030cadf7d2d05e3c4,611e07ecdcc96256ae8d5b80,611e76f808807170647fb2fc,
,,,,space,0.372,,0,307,307,176,1,N, , , , ,space,1500,1.5,5fed940030cadf7d2d05e3c4,001,2021-08-19_16h21.52,natb3,2021.2.3,MacIntel,58.82352941,5fed940030cadf7d2d05e3c4,611e07ecdcc96256ae8d5b80,611e76f808807170647fb2fc,
,,,,space,0.37,,0,308,308,222,1,O, , , , ,space,2000,2,5fed940030cadf7d2d05e3c4,001,2021-08-19_16h21.52,natb3,2021.2.3,MacIntel,58.82352941,5fed940030cadf7d2d05e3c4,611e07ecdcc96256ae8d5b80,611e76f808807170647fb2fc,
,,,,space,0.321,,0,309,309,163,1,G, , , , ,space,2500,2.5,5fed940030cadf7d2d05e3c4,001,2021-08-19_16h21.52,natb3,2021.2.3,MacIntel,58.82352941,5fed940030cadf7d2d05e3c4,611e07ecdcc96256ae8d5b80,611e76f808807170647fb2fc,
,,,,space,0.332,,0,310,310,150,1,T, , , , ,space,2500,2.5,5fed940030cadf7d2d05e3c4,001,2021-08-19_16h21.52,natb3,2021.2.3,MacIntel,58.82352941,5fed940030cadf7d2d05e3c4,611e07ecdcc96256ae8d5b80,611e76f808807170647fb2fc,
,,,,space,0.457,,0,311,311,123,1,O, , , , ,space,1500,1.5,5fed940030cadf7d2d05e3c4,001,2021-08-19_16h21.52,natb3,2021.2.3,MacIntel,58.82352941,5fed940030cadf7d2d05e3c4,611e07ecdcc96256ae8d5b80,611e76f808807170647fb2fc,
,,,,,,,0,312,312,74,1,X, ,4,3,2,,1500,1.5,5fed940030cadf7d2d05e3c4,001,2021-08-19_16h21.52,natb3,2021.2.3,MacIntel,58.82352941,5fed940030cadf7d2d05e3c4,611e07ecdcc96256ae8d5b80,611e76f808807170647fb2fc,
,,,,,,,0,313,313,274,1,F, , , , ,space,2000,2,5fed940030cadf7d2d05e3c4,001,2021-08-19_16h21.52,natb3,2021.2.3,MacIntel,58.82352941,5fed940030cadf7d2d05e3c4,611e07ecdcc96256ae8d5b80,611e76f808807170647fb2fc,
,,,,space,0.259,,0,314,314,62,1,V, , , , ,space,1500,1.5,5fed940030cadf7d2d05e3c4,001,2021-08-19_16h21.52,natb3,2021.2.3,MacIntel,58.82352941,5fed940030cadf7d2d05e3c4,611e07ecdcc96256ae8d5b80,611e76f808807170647fb2fc,
,,,,space,0.374,,0,315,315,100,1,M, , , , ,space,2000,2,5fed940030cadf7d2d05e3c4,001,2021-08-19_16h21.52,natb3,2021.2.3,MacIntel,58.82352941,5fed940030cadf7d2d05e3c4,611e07ecdcc96256ae8d5b80,611e76f808807170647fb2fc,
,,,,space,0.267,,0,316,316,300,1,O, , , , ,space,2500,2.5,5fed940030cadf7d2d05e3c4,001,2021-08-19_16h21.52,natb3,2021.2.3,MacIntel,58.82352941,5fed940030cadf7d2d05e3c4,611e07ecdcc96256ae8d5b80,611e76f808807170647fb2fc,
,,,,space,0.324,,0,317,317,37,1,E, , , , ,space,2500,2.5,5fed940030cadf7d2d05e3c4,001,2021-08-19_16h21.52,natb3,2021.2.3,MacIntel,58.82352941,5fed940030cadf7d2d05e3c4,611e07ecdcc96256ae8d5b80,611e76f808807170647fb2fc,
,,,,space,0.265,,0,318,318,108,1,Y, , , , ,space,2500,2.5,5fed940030cadf7d2d05e3c4,001,2021-08-19_16h21.52,natb3,2021.2.3,MacIntel,58.82352941,5fed940030cadf7d2d05e3c4,611e07ecdcc96256ae8d5b80,611e76f808807170647fb2fc,
,,,,space,0.399,,0,319,319,151,1,Y, , , , ,space,2500,2.5,5fed940030cadf7d2d05e3c4,001,2021-08-19_16h21.52,natb3,2021.2.3,MacIntel,58.82352941,5fed940030cadf7d2d05e3c4,611e07ecdcc96256ae8d5b80,611e76f808807170647fb2fc,
,,,,space,0.391,,0,320,320,205,1,C, , , , ,space,2000,2,5fed940030cadf7d2d05e3c4,001,2021-08-19_16h21.52,natb3,2021.2.3,MacIntel,58.82352941,5fed940030cadf7d2d05e3c4,611e07ecdcc96256ae8d5b80,611e76f808807170647fb2fc,
,,,,space,0.316,,0,321,321,189,1,O, , , , ,space,1500,1.5,5fed940030cadf7d2d05e3c4,001,2021-08-19_16h21.52,natb3,2021.2.3,MacIntel,58.82352941,5fed940030cadf7d2d05e3c4,611e07ecdcc96256ae8d5b80,611e76f808807170647fb2fc,
,,,,space,0.299,,0,322,322,88,1,J, , , , ,space,2500,2.5,5fed940030cadf7d2d05e3c4,001,2021-08-19_16h21.52,natb3,2021.2.3,MacIntel,58.82352941,5fed940030cadf7d2d05e3c4,611e07ecdcc96256ae8d5b80,611e76f808807170647fb2fc,
,,,,space,0.243,,0,323,323,199,1,J, , , , ,space,2500,2.5,5fed940030cadf7d2d05e3c4,001,2021-08-19_16h21.52,natb3,2021.2.3,MacIntel,58.82352941,5fed940030cadf7d2d05e3c4,611e07ecdcc96256ae8d5b80,611e76f808807170647fb2fc,
,,,,space,0.331,,0,324,324,68,1,W, , , , ,space,2500,2.5,5fed940030cadf7d2d05e3c4,001,2021-08-19_16h21.52,natb3,2021.2.3,MacIntel,58.82352941,5fed940030cadf7d2d05e3c4,611e07ecdcc96256ae8d5b80,611e76f808807170647fb2fc,
,,,,space,0.3,,0,325,325,249,1,C, , , , ,space,2000,2,5fed940030cadf7d2d05e3c4,001,2021-08-19_16h21.52,natb3,2021.2.3,MacIntel,58.82352941,5fed940030cadf7d2d05e3c4,611e07ecdcc96256ae8d5b80,611e76f808807170647fb2fc,
,,,,space,0.32,,0,326,326,103,1,W, , , , ,space,2000,2,5fed940030cadf7d2d05e3c4,001,2021-08-19_16h21.52,natb3,2021.2.3,MacIntel,58.82352941,5fed940030cadf7d2d05e3c4,611e07ecdcc96256ae8d5b80,611e76f808807170647fb2fc,
,,,,space,0.348,,0,327,327,72,1,T, , , , ,space,1500,1.5,5fed940030cadf7d2d05e3c4,001,2021-08-19_16h21.52,natb3,2021.2.3,MacIntel,58.82352941,5fed940030cadf7d2d05e3c4,611e07ecdcc96256ae8d5b80,611e76f808807170647fb2fc,
,,,,space,0.297,,0,328,328,130,1,F, , , , ,space,2000,2,5fed940030cadf7d2d05e3c4,001,2021-08-19_16h21.52,natb3,2021.2.3,MacIntel,58.82352941,5fed940030cadf7d2d05e3c4,611e07ecdcc96256ae8d5b80,611e76f808807170647fb2fc,
,,,,space,0.298,,0,329,329,11,1,P, , , , ,space,2500,2.5,5fed940030cadf7d2d05e3c4,001,2021-08-19_16h21.52,natb3,2021.2.3,MacIntel,58.82352941,5fed940030cadf7d2d05e3c4,611e07ecdcc96256ae8d5b80,611e76f808807170647fb2fc,
,,,,space,0.291,,0,330,330,48,1,A, , , , ,space,2500,2.5,5fed940030cadf7d2d05e3c4,001,2021-08-19_16h21.52,natb3,2021.2.3,MacIntel,58.82352941,5fed940030cadf7d2d05e3c4,611e07ecdcc96256ae8d5b80,611e76f808807170647fb2fc,
,,,,space,0.329,,0,331,331,167,1,K, , , , ,space,1500,1.5,5fed940030cadf7d2d05e3c4,001,2021-08-19_16h21.52,natb3,2021.2.3,MacIntel,58.82352941,5fed940030cadf7d2d05e3c4,611e07ecdcc96256ae8d5b80,611e76f808807170647fb2fc,
,,,,space,0.325,,0,332,332,137,1,C, , , , ,space,2500,2.5,5fed940030cadf7d2d05e3c4,001,2021-08-19_16h21.52,natb3,2021.2.3,MacIntel,58.82352941,5fed940030cadf7d2d05e3c4,611e07ecdcc96256ae8d5b80,611e76f808807170647fb2fc,
,,,,space,0.314,,0,333,333,260,1,R, , , , ,space,2000,2,5fed940030cadf7d2d05e3c4,001,2021-08-19_16h21.52,natb3,2021.2.3,MacIntel,58.82352941,5fed940030cadf7d2d05e3c4,611e07ecdcc96256ae8d5b80,611e76f808807170647fb2fc,
,,,,space,0.327,,0,334,334,140,1,B, , , , ,space,2500,2.5,5fed940030cadf7d2d05e3c4,001,2021-08-19_16h21.52,natb3,2021.2.3,MacIntel,58.82352941,5fed940030cadf7d2d05e3c4,611e07ecdcc96256ae8d5b80,611e76f808807170647fb2fc,
,,,,space,0.414,,0,335,335,4,1,X, , , , ,,2000,2,5fed940030cadf7d2d05e3c4,001,2021-08-19_16h21.52,natb3,2021.2.3,MacIntel,58.82352941,5fed940030cadf7d2d05e3c4,611e07ecdcc96256ae8d5b80,611e76f808807170647fb2fc,
