key_resp_2.keys,key_resp_2.rt,key_resp_3.keys,key_resp_3.rt,key_resp.keys,key_resp_4.keys,trials.thisRepN,trials.thisTrialN,trials.thisN,trials.thisIndex,trials.ran,stimulus,distractor1,distractor2,distractor3,distractor4,CorrAns,isi_duration,isi_dur_in_seconds,participant,session,date,expName,psychopyVersion,OS,frameRate,PROLIFIC_PID,STUDY_ID,SESSION_ID,key_resp.rt,key_resp_4.rt
return,8.7114,space,22.1941,,,0,0,0,41,1,Y, , , , ,space,2500,2.5,60f9e1a33b5b9499aa625fb9,001,2021-08-19_16h32.44.241,natb3,2021.2.3,Win32,59.89458553,60f9e1a33b5b9499aa625fb9,611e07ecdcc96256ae8d5b80,611e795888f0776fd6296ace,,
,,,,space,,0,1,1,272,1,D, , , , ,space,2000,2,60f9e1a33b5b9499aa625fb9,001,2021-08-19_16h32.44.241,natb3,2021.2.3,Win32,59.89458553,60f9e1a33b5b9499aa625fb9,611e07ecdcc96256ae8d5b80,611e795888f0776fd6296ace,0.3642,
,,,,space,,0,2,2,65,1,M, , , , ,space,1500,1.5,60f9e1a33b5b9499aa625fb9,001,2021-08-19_16h32.44.241,natb3,2021.2.3,Win32,59.89458553,60f9e1a33b5b9499aa625fb9,611e07ecdcc96256ae8d5b80,611e795888f0776fd6296ace,0.5362,
,,,,space,,0,3,3,42,1,U, , , , ,space,1500,1.5,60f9e1a33b5b9499aa625fb9,001,2021-08-19_16h32.44.241,natb3,2021.2.3,Win32,59.89458553,60f9e1a33b5b9499aa625fb9,611e07ecdcc96256ae8d5b80,611e795888f0776fd6296ace,0.3547,
,,,,space,,0,4,4,153,1,X,4,7, ,6,,2000,2,60f9e1a33b5b9499aa625fb9,001,2021-08-19_16h32.44.241,natb3,2021.2.3,Win32,59.89458553,60f9e1a33b5b9499aa625fb9,611e07ecdcc96256ae8d5b80,611e795888f0776fd6296ace,0.2877,
,,,,space,,0,5,5,323,1,M, , , , ,space,2500,2.5,60f9e1a33b5b9499aa625fb9,001,2021-08-19_16h32.44.241,natb3,2021.2.3,Win32,59.89458553,60f9e1a33b5b9499aa625fb9,611e07ecdcc96256ae8d5b80,611e795888f0776fd6296ace,0.2506,
,,,,space,,0,6,6,316,1,Z, , , , ,space,1500,1.5,60f9e1a33b5b9499aa625fb9,001,2021-08-19_16h32.44.241,natb3,2021.2.3,Win32,59.89458553,60f9e1a33b5b9499aa625fb9,611e07ecdcc96256ae8d5b80,611e795888f0776fd6296ace,0.285,
,,,,space,,0,7,7,86,1,G, , , , ,space,2000,2,60f9e1a33b5b9499aa625fb9,001,2021-08-19_16h32.44.241,natb3,2021.2.3,Win32,59.89458553,60f9e1a33b5b9499aa625fb9,611e07ecdcc96256ae8d5b80,611e795888f0776fd6296ace,0.358,
,,,,space,,0,8,8,37,1,E, , , , ,space,2500,2.5,60f9e1a33b5b9499aa625fb9,001,2021-08-19_16h32.44.241,natb3,2021.2.3,Win32,59.89458553,60f9e1a33b5b9499aa625fb9,611e07ecdcc96256ae8d5b80,611e795888f0776fd6296ace,0.3343,
,,,,space,,0,9,9,199,1,J, , , , ,space,2500,2.5,60f9e1a33b5b9499aa625fb9,001,2021-08-19_16h32.44.241,natb3,2021.2.3,Win32,59.89458553,60f9e1a33b5b9499aa625fb9,611e07ecdcc96256ae8d5b80,611e795888f0776fd6296ace,0.3233,
,,,,,,0,10,10,31,1,X, , , , ,,1500,1.5,60f9e1a33b5b9499aa625fb9,001,2021-08-19_16h32.44.241,natb3,2021.2.3,Win32,59.89458553,60f9e1a33b5b9499aa625fb9,611e07ecdcc96256ae8d5b80,611e795888f0776fd6296ace,,
,,,,space,,0,11,11,198,1,H, , , , ,space,2500,2.5,60f9e1a33b5b9499aa625fb9,001,2021-08-19_16h32.44.241,natb3,2021.2.3,Win32,59.89458553,60f9e1a33b5b9499aa625fb9,611e07ecdcc96256ae8d5b80,611e795888f0776fd6296ace,0.3843,
,,,,space,,0,12,12,242,1,H, , , , ,space,2500,2.5,60f9e1a33b5b9499aa625fb9,001,2021-08-19_16h32.44.241,natb3,2021.2.3,Win32,59.89458553,60f9e1a33b5b9499aa625fb9,611e07ecdcc96256ae8d5b80,611e795888f0776fd6296ace,0.3672,
,,,,space,,0,13,13,225,1,E, , , , ,space,2000,2,60f9e1a33b5b9499aa625fb9,001,2021-08-19_16h32.44.241,natb3,2021.2.3,Win32,59.89458553,60f9e1a33b5b9499aa625fb9,611e07ecdcc96256ae8d5b80,611e795888f0776fd6296ace,0.3391,
,,,,space,,0,14,14,105,1,R, , , , ,space,2500,2.5,60f9e1a33b5b9499aa625fb9,001,2021-08-19_16h32.44.241,natb3,2021.2.3,Win32,59.89458553,60f9e1a33b5b9499aa625fb9,611e07ecdcc96256ae8d5b80,611e795888f0776fd6296ace,0.3658,
,,,,space,,0,15,15,293,1,R, , , , ,space,2500,2.5,60f9e1a33b5b9499aa625fb9,001,2021-08-19_16h32.44.241,natb3,2021.2.3,Win32,59.89458553,60f9e1a33b5b9499aa625fb9,611e07ecdcc96256ae8d5b80,611e795888f0776fd6296ace,0.3938,
,,,,space,,0,16,16,19,1,G, , , , ,space,1500,1.5,60f9e1a33b5b9499aa625fb9,001,2021-08-19_16h32.44.241,natb3,2021.2.3,Win32,59.89458553,60f9e1a33b5b9499aa625fb9,611e07ecdcc96256ae8d5b80,611e795888f0776fd6296ace,0.3675,
,,,,space,,0,17,17,185,1,Y, , , , ,space,2500,2.5,60f9e1a33b5b9499aa625fb9,001,2021-08-19_16h32.44.241,natb3,2021.2.3,Win32,59.89458553,60f9e1a33b5b9499aa625fb9,611e07ecdcc96256ae8d5b80,611e795888f0776fd6296ace,0.401,
,,,,space,,0,18,18,96,1,X, , , , ,,1500,1.5,60f9e1a33b5b9499aa625fb9,001,2021-08-19_16h32.44.241,natb3,2021.2.3,Win32,59.89458553,60f9e1a33b5b9499aa625fb9,611e07ecdcc96256ae8d5b80,611e795888f0776fd6296ace,0.3532,
,,,,space,,0,19,19,93,1,X,5, ,7, ,,2500,2.5,60f9e1a33b5b9499aa625fb9,001,2021-08-19_16h32.44.241,natb3,2021.2.3,Win32,59.89458553,60f9e1a33b5b9499aa625fb9,611e07ecdcc96256ae8d5b80,611e795888f0776fd6296ace,0.2606,
,,,,space,,0,20,20,331,1,Y, , , , ,space,2500,2.5,60f9e1a33b5b9499aa625fb9,001,2021-08-19_16h32.44.241,natb3,2021.2.3,Win32,59.89458553,60f9e1a33b5b9499aa625fb9,611e07ecdcc96256ae8d5b80,611e795888f0776fd6296ace,0.3603,
,,,,space,,0,21,21,254,1,M, , , , ,space,1500,1.5,60f9e1a33b5b9499aa625fb9,001,2021-08-19_16h32.44.241,natb3,2021.2.3,Win32,59.89458553,60f9e1a33b5b9499aa625fb9,611e07ecdcc96256ae8d5b80,611e795888f0776fd6296ace,0.3,
,,,,space,,0,22,22,14,1,S, , , , ,space,2500,2.5,60f9e1a33b5b9499aa625fb9,001,2021-08-19_16h32.44.241,natb3,2021.2.3,Win32,59.89458553,60f9e1a33b5b9499aa625fb9,611e07ecdcc96256ae8d5b80,611e795888f0776fd6296ace,0.3257,
,,,,space,,0,23,23,154,1,I, , , , ,space,2500,2.5,60f9e1a33b5b9499aa625fb9,001,2021-08-19_16h32.44.241,natb3,2021.2.3,Win32,59.89458553,60f9e1a33b5b9499aa625fb9,611e07ecdcc96256ae8d5b80,611e795888f0776fd6296ace,0.3213,
,,,,space,,0,24,24,214,1,W, , , , ,space,2000,2,60f9e1a33b5b9499aa625fb9,001,2021-08-19_16h32.44.241,natb3,2021.2.3,Win32,59.89458553,60f9e1a33b5b9499aa625fb9,611e07ecdcc96256ae8d5b80,611e795888f0776fd6296ace,0.3343,
,,,,,,0,25,25,162,1,X,1,6, ,2,,1500,1.5,60f9e1a33b5b9499aa625fb9,001,2021-08-19_16h32.44.241,natb3,2021.2.3,Win32,59.89458553,60f9e1a33b5b9499aa625fb9,611e07ecdcc96256ae8d5b80,611e795888f0776fd6296ace,,
,,,,space,,0,26,26,219,1,Y, , , , ,space,2000,2,60f9e1a33b5b9499aa625fb9,001,2021-08-19_16h32.44.241,natb3,2021.2.3,Win32,59.89458553,60f9e1a33b5b9499aa625fb9,611e07ecdcc96256ae8d5b80,611e795888f0776fd6296ace,0.2718,
,,,,space,,0,27,27,239,1,X, , , , ,,2000,2,60f9e1a33b5b9499aa625fb9,001,2021-08-19_16h32.44.241,natb3,2021.2.3,Win32,59.89458553,60f9e1a33b5b9499aa625fb9,611e07ecdcc96256ae8d5b80,611e795888f0776fd6296ace,0.2882,
,,,,space,,0,28,28,81,1,S, , , , ,space,2000,2,60f9e1a33b5b9499aa625fb9,001,2021-08-19_16h32.44.241,natb3,2021.2.3,Win32,59.89458553,60f9e1a33b5b9499aa625fb9,611e07ecdcc96256ae8d5b80,611e795888f0776fd6296ace,0.4091,
,,,,space,,0,29,29,109,1,U, , , , ,space,1500,1.5,60f9e1a33b5b9499aa625fb9,001,2021-08-19_16h32.44.241,natb3,2021.2.3,Win32,59.89458553,60f9e1a33b5b9499aa625fb9,611e07ecdcc96256ae8d5b80,611e795888f0776fd6296ace,0.3336,
,,,,space,,0,30,30,115,1,R, , , , ,space,1500,1.5,60f9e1a33b5b9499aa625fb9,001,2021-08-19_16h32.44.241,natb3,2021.2.3,Win32,59.89458553,60f9e1a33b5b9499aa625fb9,611e07ecdcc96256ae8d5b80,611e795888f0776fd6296ace,0.3082,
,,,,space,,0,31,31,282,1,X, , , , ,,2500,2.5,60f9e1a33b5b9499aa625fb9,001,2021-08-19_16h32.44.241,natb3,2021.2.3,Win32,59.89458553,60f9e1a33b5b9499aa625fb9,611e07ecdcc96256ae8d5b80,611e795888f0776fd6296ace,0.3056,
,,,,space,,0,32,32,91,1,L, , , , ,space,2000,2,60f9e1a33b5b9499aa625fb9,001,2021-08-19_16h32.44.241,natb3,2021.2.3,Win32,59.89458553,60f9e1a33b5b9499aa625fb9,611e07ecdcc96256ae8d5b80,611e795888f0776fd6296ace,0.284,
,,,,space,,0,33,33,201,1,K, , , , ,space,1500,1.5,60f9e1a33b5b9499aa625fb9,001,2021-08-19_16h32.44.241,natb3,2021.2.3,Win32,59.89458553,60f9e1a33b5b9499aa625fb9,611e07ecdcc96256ae8d5b80,611e795888f0776fd6296ace,0.3326,
,,,,space,,0,34,34,260,1,R, , , , ,space,2000,2,60f9e1a33b5b9499aa625fb9,001,2021-08-19_16h32.44.241,natb3,2021.2.3,Win32,59.89458553,60f9e1a33b5b9499aa625fb9,611e07ecdcc96256ae8d5b80,611e795888f0776fd6296ace,0.3604,
,,,,space,,0,35,35,310,1,J, , , , ,space,2500,2.5,60f9e1a33b5b9499aa625fb9,001,2021-08-19_16h32.44.241,natb3,2021.2.3,Win32,59.89458553,60f9e1a33b5b9499aa625fb9,611e07ecdcc96256ae8d5b80,611e795888f0776fd6296ace,0.401,
,,,,space,,0,36,36,5,1,T, , , , ,space,2000,2,60f9e1a33b5b9499aa625fb9,001,2021-08-19_16h32.44.241,natb3,2021.2.3,Win32,59.89458553,60f9e1a33b5b9499aa625fb9,611e07ecdcc96256ae8d5b80,611e795888f0776fd6296ace,0.367,
,,,,space,,0,37,37,181,1,E, , , , ,space,1500,1.5,60f9e1a33b5b9499aa625fb9,001,2021-08-19_16h32.44.241,natb3,2021.2.3,Win32,59.89458553,60f9e1a33b5b9499aa625fb9,611e07ecdcc96256ae8d5b80,611e795888f0776fd6296ace,0.5009,
,,,,space,,0,38,38,332,1,U, , , , ,space,2000,2,60f9e1a33b5b9499aa625fb9,001,2021-08-19_16h32.44.241,natb3,2021.2.3,Win32,59.89458553,60f9e1a33b5b9499aa625fb9,611e07ecdcc96256ae8d5b80,611e795888f0776fd6296ace,0.3231,
,,,,space,,0,39,39,79,1,P, , , , ,space,2000,2,60f9e1a33b5b9499aa625fb9,001,2021-08-19_16h32.44.241,natb3,2021.2.3,Win32,59.89458553,60f9e1a33b5b9499aa625fb9,611e07ecdcc96256ae8d5b80,611e795888f0776fd6296ace,0.2759,
,,,,space,,0,40,40,261,1,T, , , , ,space,2000,2,60f9e1a33b5b9499aa625fb9,001,2021-08-19_16h32.44.241,natb3,2021.2.3,Win32,59.89458553,60f9e1a33b5b9499aa625fb9,611e07ecdcc96256ae8d5b80,611e795888f0776fd6296ace,0.3103,
,,,,space,,0,41,41,194,1,D, , , , ,space,2000,2,60f9e1a33b5b9499aa625fb9,001,2021-08-19_16h32.44.241,natb3,2021.2.3,Win32,59.89458553,60f9e1a33b5b9499aa625fb9,611e07ecdcc96256ae8d5b80,611e795888f0776fd6296ace,0.2891,
,,,,space,,0,42,42,304,1,S, , , , ,space,2000,2,60f9e1a33b5b9499aa625fb9,001,2021-08-19_16h32.44.241,natb3,2021.2.3,Win32,59.89458553,60f9e1a33b5b9499aa625fb9,611e07ecdcc96256ae8d5b80,611e795888f0776fd6296ace,0.3779,
,,,,space,,0,43,43,232,1,O, , , , ,space,2500,2.5,60f9e1a33b5b9499aa625fb9,001,2021-08-19_16h32.44.241,natb3,2021.2.3,Win32,59.89458553,60f9e1a33b5b9499aa625fb9,611e07ecdcc96256ae8d5b80,611e795888f0776fd6296ace,0.3835,
,,,,space,,0,44,44,276,1,H, , , , ,space,2000,2,60f9e1a33b5b9499aa625fb9,001,2021-08-19_16h32.44.241,natb3,2021.2.3,Win32,59.89458553,60f9e1a33b5b9499aa625fb9,611e07ecdcc96256ae8d5b80,611e795888f0776fd6296ace,0.3355,
,,,,space,,0,45,45,220,1,U, , , , ,space,2500,2.5,60f9e1a33b5b9499aa625fb9,001,2021-08-19_16h32.44.241,natb3,2021.2.3,Win32,59.89458553,60f9e1a33b5b9499aa625fb9,611e07ecdcc96256ae8d5b80,611e795888f0776fd6296ace,0.4513,
,,,,space,,0,46,46,178,1,Q, , , , ,space,1500,1.5,60f9e1a33b5b9499aa625fb9,001,2021-08-19_16h32.44.241,natb3,2021.2.3,Win32,59.89458553,60f9e1a33b5b9499aa625fb9,611e07ecdcc96256ae8d5b80,611e795888f0776fd6296ace,0.4289,
,,,,,,0,47,47,107,1,X,9,3, ,2,,2000,2,60f9e1a33b5b9499aa625fb9,001,2021-08-19_16h32.44.241,natb3,2021.2.3,Win32,59.89458553,60f9e1a33b5b9499aa625fb9,611e07ecdcc96256ae8d5b80,611e795888f0776fd6296ace,,
,,,,space,,0,48,48,224,1,W, , , , ,space,1500,1.5,60f9e1a33b5b9499aa625fb9,001,2021-08-19_16h32.44.241,natb3,2021.2.3,Win32,59.89458553,60f9e1a33b5b9499aa625fb9,611e07ecdcc96256ae8d5b80,611e795888f0776fd6296ace,0.4708,
,,,,space,,0,49,49,229,1,X,8, ,2,6,,2500,2.5,60f9e1a33b5b9499aa625fb9,001,2021-08-19_16h32.44.241,natb3,2021.2.3,Win32,59.89458553,60f9e1a33b5b9499aa625fb9,611e07ecdcc96256ae8d5b80,611e795888f0776fd6296ace,0.3721,
,,,,,,0,50,50,116,1,X, , , , ,,2000,2,60f9e1a33b5b9499aa625fb9,001,2021-08-19_16h32.44.241,natb3,2021.2.3,Win32,59.89458553,60f9e1a33b5b9499aa625fb9,611e07ecdcc96256ae8d5b80,611e795888f0776fd6296ace,,
,,,,space,,0,51,51,38,1,R, , , , ,space,2500,2.5,60f9e1a33b5b9499aa625fb9,001,2021-08-19_16h32.44.241,natb3,2021.2.3,Win32,59.89458553,60f9e1a33b5b9499aa625fb9,611e07ecdcc96256ae8d5b80,611e795888f0776fd6296ace,0.3677,
,,,,space,,0,52,52,241,1,G, , , , ,space,2500,2.5,60f9e1a33b5b9499aa625fb9,001,2021-08-19_16h32.44.241,natb3,2021.2.3,Win32,59.89458553,60f9e1a33b5b9499aa625fb9,611e07ecdcc96256ae8d5b80,611e795888f0776fd6296ace,0.3899,
,,,,space,,0,53,53,7,1,X, , , , ,,1500,1.5,60f9e1a33b5b9499aa625fb9,001,2021-08-19_16h32.44.241,natb3,2021.2.3,Win32,59.89458553,60f9e1a33b5b9499aa625fb9,611e07ecdcc96256ae8d5b80,611e795888f0776fd6296ace,0.3213,
,,,,,,0,54,54,54,1,X, , , , ,,2000,2,60f9e1a33b5b9499aa625fb9,001,2021-08-19_16h32.44.241,natb3,2021.2.3,Win32,59.89458553,60f9e1a33b5b9499aa625fb9,611e07ecdcc96256ae8d5b80,611e795888f0776fd6296ace,,
,,,,space,,0,55,55,144,1,Q, , , , ,space,2500,2.5,60f9e1a33b5b9499aa625fb9,001,2021-08-19_16h32.44.241,natb3,2021.2.3,Win32,59.89458553,60f9e1a33b5b9499aa625fb9,611e07ecdcc96256ae8d5b80,611e795888f0776fd6296ace,0.337,
,,,,space,,0,56,56,333,1,I, , , , ,space,1500,1.5,60f9e1a33b5b9499aa625fb9,001,2021-08-19_16h32.44.241,natb3,2021.2.3,Win32,59.89458553,60f9e1a33b5b9499aa625fb9,611e07ecdcc96256ae8d5b80,611e795888f0776fd6296ace,0.4167,
,,,,space,,0,57,57,126,1,A, , , , ,space,2500,2.5,60f9e1a33b5b9499aa625fb9,001,2021-08-19_16h32.44.241,natb3,2021.2.3,Win32,59.89458553,60f9e1a33b5b9499aa625fb9,611e07ecdcc96256ae8d5b80,611e795888f0776fd6296ace,0.3838,
,,,,,,0,58,58,15,1,X, , , , ,,1500,1.5,60f9e1a33b5b9499aa625fb9,001,2021-08-19_16h32.44.241,natb3,2021.2.3,Win32,59.89458553,60f9e1a33b5b9499aa625fb9,611e07ecdcc96256ae8d5b80,611e795888f0776fd6296ace,,
,,,,space,,0,59,59,328,1,R, , , , ,space,1500,1.5,60f9e1a33b5b9499aa625fb9,001,2021-08-19_16h32.44.241,natb3,2021.2.3,Win32,59.89458553,60f9e1a33b5b9499aa625fb9,611e07ecdcc96256ae8d5b80,611e795888f0776fd6296ace,0.3759,
,,,,space,,0,60,60,284,1,V, , , , ,space,2500,2.5,60f9e1a33b5b9499aa625fb9,001,2021-08-19_16h32.44.241,natb3,2021.2.3,Win32,59.89458553,60f9e1a33b5b9499aa625fb9,611e07ecdcc96256ae8d5b80,611e795888f0776fd6296ace,0.4021,
,,,,space,,0,61,61,59,1,Z, , , , ,space,2000,2,60f9e1a33b5b9499aa625fb9,001,2021-08-19_16h32.44.241,natb3,2021.2.3,Win32,59.89458553,60f9e1a33b5b9499aa625fb9,611e07ecdcc96256ae8d5b80,611e795888f0776fd6296ace,0.5171,
,,,,space,,0,62,62,170,1,Z, , , , ,space,2000,2,60f9e1a33b5b9499aa625fb9,001,2021-08-19_16h32.44.241,natb3,2021.2.3,Win32,59.89458553,60f9e1a33b5b9499aa625fb9,611e07ecdcc96256ae8d5b80,611e795888f0776fd6296ace,0.4356,
,,,,space,,0,63,63,223,1,Q, , , , ,space,2000,2,60f9e1a33b5b9499aa625fb9,001,2021-08-19_16h32.44.241,natb3,2021.2.3,Win32,59.89458553,60f9e1a33b5b9499aa625fb9,611e07ecdcc96256ae8d5b80,611e795888f0776fd6296ace,0.384,
,,,,space,,0,64,64,318,1,X, , , , ,,1500,1.5,60f9e1a33b5b9499aa625fb9,001,2021-08-19_16h32.44.241,natb3,2021.2.3,Win32,59.89458553,60f9e1a33b5b9499aa625fb9,611e07ecdcc96256ae8d5b80,611e795888f0776fd6296ace,0.2933,
,,,,space,,0,65,65,149,1,R, , , , ,space,2000,2,60f9e1a33b5b9499aa625fb9,001,2021-08-19_16h32.44.241,natb3,2021.2.3,Win32,59.89458553,60f9e1a33b5b9499aa625fb9,611e07ecdcc96256ae8d5b80,611e795888f0776fd6296ace,0.517,
,,,,space,,0,66,66,16,1,D, , , , ,space,1500,1.5,60f9e1a33b5b9499aa625fb9,001,2021-08-19_16h32.44.241,natb3,2021.2.3,Win32,59.89458553,60f9e1a33b5b9499aa625fb9,611e07ecdcc96256ae8d5b80,611e795888f0776fd6296ace,0.4035,
,,,,space,,0,67,67,290,1,W, , , , ,space,1500,1.5,60f9e1a33b5b9499aa625fb9,001,2021-08-19_16h32.44.241,natb3,2021.2.3,Win32,59.89458553,60f9e1a33b5b9499aa625fb9,611e07ecdcc96256ae8d5b80,611e795888f0776fd6296ace,0.3762,
,,,,space,,0,68,68,192,1,A, , , , ,space,2000,2,60f9e1a33b5b9499aa625fb9,001,2021-08-19_16h32.44.241,natb3,2021.2.3,Win32,59.89458553,60f9e1a33b5b9499aa625fb9,611e07ecdcc96256ae8d5b80,611e795888f0776fd6296ace,0.3506,
,,,,space,,0,69,69,164,1,H, , , , ,space,2500,2.5,60f9e1a33b5b9499aa625fb9,001,2021-08-19_16h32.44.241,natb3,2021.2.3,Win32,59.89458553,60f9e1a33b5b9499aa625fb9,611e07ecdcc96256ae8d5b80,611e795888f0776fd6296ace,0.3664,
,,,,space,,0,70,70,264,1,U, , , , ,space,2000,2,60f9e1a33b5b9499aa625fb9,001,2021-08-19_16h32.44.241,natb3,2021.2.3,Win32,59.89458553,60f9e1a33b5b9499aa625fb9,611e07ecdcc96256ae8d5b80,611e795888f0776fd6296ace,0.3416,
,,,,space,,0,71,71,303,1,A, , , , ,space,2000,2,60f9e1a33b5b9499aa625fb9,001,2021-08-19_16h32.44.241,natb3,2021.2.3,Win32,59.89458553,60f9e1a33b5b9499aa625fb9,611e07ecdcc96256ae8d5b80,611e795888f0776fd6296ace,0.3553,
,,,,space,,0,72,72,66,1,X, ,4,7, ,,2000,2,60f9e1a33b5b9499aa625fb9,001,2021-08-19_16h32.44.241,natb3,2021.2.3,Win32,59.89458553,60f9e1a33b5b9499aa625fb9,611e07ecdcc96256ae8d5b80,611e795888f0776fd6296ace,0.4176,
,,,,space,,0,73,73,101,1,Q, , , , ,space,2500,2.5,60f9e1a33b5b9499aa625fb9,001,2021-08-19_16h32.44.241,natb3,2021.2.3,Win32,59.89458553,60f9e1a33b5b9499aa625fb9,611e07ecdcc96256ae8d5b80,611e795888f0776fd6296ace,0.3163,
,,,,space,,0,74,74,268,1,X,6, ,3, ,,2500,2.5,60f9e1a33b5b9499aa625fb9,001,2021-08-19_16h32.44.241,natb3,2021.2.3,Win32,59.89458553,60f9e1a33b5b9499aa625fb9,611e07ecdcc96256ae8d5b80,611e795888f0776fd6296ace,0.35,
,,,,space,,0,75,75,257,1,W, , , , ,space,2000,2,60f9e1a33b5b9499aa625fb9,001,2021-08-19_16h32.44.241,natb3,2021.2.3,Win32,59.89458553,60f9e1a33b5b9499aa625fb9,611e07ecdcc96256ae8d5b80,611e795888f0776fd6296ace,0.3007,
,,,,space,,0,76,76,4,1,X, , , , ,,2000,2,60f9e1a33b5b9499aa625fb9,001,2021-08-19_16h32.44.241,natb3,2021.2.3,Win32,59.89458553,60f9e1a33b5b9499aa625fb9,611e07ecdcc96256ae8d5b80,611e795888f0776fd6296ace,0.3411,
,,,,space,,0,77,77,221,1,I, , , , ,space,2500,2.5,60f9e1a33b5b9499aa625fb9,001,2021-08-19_16h32.44.241,natb3,2021.2.3,Win32,59.89458553,60f9e1a33b5b9499aa625fb9,611e07ecdcc96256ae8d5b80,611e795888f0776fd6296ace,0.3017,
,,,,space,,0,78,78,335,1,P,,,,,space,1500,1.5,60f9e1a33b5b9499aa625fb9,001,2021-08-19_16h32.44.241,natb3,2021.2.3,Win32,59.89458553,60f9e1a33b5b9499aa625fb9,611e07ecdcc96256ae8d5b80,611e795888f0776fd6296ace,0.4775,
,,,,,,0,79,79,273,1,X, , , , ,,2000,2,60f9e1a33b5b9499aa625fb9,001,2021-08-19_16h32.44.241,natb3,2021.2.3,Win32,59.89458553,60f9e1a33b5b9499aa625fb9,611e07ecdcc96256ae8d5b80,611e795888f0776fd6296ace,,
,,,,space,,0,80,80,159,1,S, , , , ,space,2500,2.5,60f9e1a33b5b9499aa625fb9,001,2021-08-19_16h32.44.241,natb3,2021.2.3,Win32,59.89458553,60f9e1a33b5b9499aa625fb9,611e07ecdcc96256ae8d5b80,611e795888f0776fd6296ace,0.3004,
,,,,space,,0,81,81,227,1,T, , , , ,space,1500,1.5,60f9e1a33b5b9499aa625fb9,001,2021-08-19_16h32.44.241,natb3,2021.2.3,Win32,59.89458553,60f9e1a33b5b9499aa625fb9,611e07ecdcc96256ae8d5b80,611e795888f0776fd6296ace,0.4081,
,,,,,,0,82,82,252,1,X,3, ,6,9,,2000,2,60f9e1a33b5b9499aa625fb9,001,2021-08-19_16h32.44.241,natb3,2021.2.3,Win32,59.89458553,60f9e1a33b5b9499aa625fb9,611e07ecdcc96256ae8d5b80,611e795888f0776fd6296ace,,
,,,,space,,0,83,83,78,1,X, , , , ,,2000,2,60f9e1a33b5b9499aa625fb9,001,2021-08-19_16h32.44.241,natb3,2021.2.3,Win32,59.89458553,60f9e1a33b5b9499aa625fb9,611e07ecdcc96256ae8d5b80,611e795888f0776fd6296ace,0.3935,
,,,,,,0,84,84,69,1,X, , , , ,,1500,1.5,60f9e1a33b5b9499aa625fb9,001,2021-08-19_16h32.44.241,natb3,2021.2.3,Win32,59.89458553,60f9e1a33b5b9499aa625fb9,611e07ecdcc96256ae8d5b80,611e795888f0776fd6296ace,,
,,,,space,,0,85,85,152,1,U, , , , ,space,2000,2,60f9e1a33b5b9499aa625fb9,001,2021-08-19_16h32.44.241,natb3,2021.2.3,Win32,59.89458553,60f9e1a33b5b9499aa625fb9,611e07ecdcc96256ae8d5b80,611e795888f0776fd6296ace,0.4993,
,,,,space,,0,86,86,111,1,O, , , , ,space,2000,2,60f9e1a33b5b9499aa625fb9,001,2021-08-19_16h32.44.241,natb3,2021.2.3,Win32,59.89458553,60f9e1a33b5b9499aa625fb9,611e07ecdcc96256ae8d5b80,611e795888f0776fd6296ace,0.4507,
,,,,space,,0,87,87,124,1,P, , , , ,space,2000,2,60f9e1a33b5b9499aa625fb9,001,2021-08-19_16h32.44.241,natb3,2021.2.3,Win32,59.89458553,60f9e1a33b5b9499aa625fb9,611e07ecdcc96256ae8d5b80,611e795888f0776fd6296ace,0.3363,
,,,,space,,0,88,88,193,1,S, , , , ,space,2500,2.5,60f9e1a33b5b9499aa625fb9,001,2021-08-19_16h32.44.241,natb3,2021.2.3,Win32,59.89458553,60f9e1a33b5b9499aa625fb9,611e07ecdcc96256ae8d5b80,611e795888f0776fd6296ace,0.3996,
,,,,space,,0,89,89,21,1,J, , , , ,space,1500,1.5,60f9e1a33b5b9499aa625fb9,001,2021-08-19_16h32.44.241,natb3,2021.2.3,Win32,59.89458553,60f9e1a33b5b9499aa625fb9,611e07ecdcc96256ae8d5b80,611e795888f0776fd6296ace,0.4126,
,,,,space,,0,90,90,122,1,X,1, , ,8,,1500,1.5,60f9e1a33b5b9499aa625fb9,001,2021-08-19_16h32.44.241,natb3,2021.2.3,Win32,59.89458553,60f9e1a33b5b9499aa625fb9,611e07ecdcc96256ae8d5b80,611e795888f0776fd6296ace,0.3542,
,,,,,,0,91,91,322,1,X, , ,1,6,,2000,2,60f9e1a33b5b9499aa625fb9,001,2021-08-19_16h32.44.241,natb3,2021.2.3,Win32,59.89458553,60f9e1a33b5b9499aa625fb9,611e07ecdcc96256ae8d5b80,611e795888f0776fd6296ace,,
,,,,space,,0,92,92,30,1,N, , , , ,space,2500,2.5,60f9e1a33b5b9499aa625fb9,001,2021-08-19_16h32.44.241,natb3,2021.2.3,Win32,59.89458553,60f9e1a33b5b9499aa625fb9,611e07ecdcc96256ae8d5b80,611e795888f0776fd6296ace,0.4128,
,,,,space,,0,93,93,53,1,G, , , , ,space,2500,2.5,60f9e1a33b5b9499aa625fb9,001,2021-08-19_16h32.44.241,natb3,2021.2.3,Win32,59.89458553,60f9e1a33b5b9499aa625fb9,611e07ecdcc96256ae8d5b80,611e795888f0776fd6296ace,0.3887,
,,,,space,,0,94,94,92,1,Z, , , , ,space,1500,1.5,60f9e1a33b5b9499aa625fb9,001,2021-08-19_16h32.44.241,natb3,2021.2.3,Win32,59.89458553,60f9e1a33b5b9499aa625fb9,611e07ecdcc96256ae8d5b80,611e795888f0776fd6296ace,0.4128,
,,,,space,,0,95,95,11,1,P, , , , ,space,2500,2.5,60f9e1a33b5b9499aa625fb9,001,2021-08-19_16h32.44.241,natb3,2021.2.3,Win32,59.89458553,60f9e1a33b5b9499aa625fb9,611e07ecdcc96256ae8d5b80,611e795888f0776fd6296ace,0.4065,
,,,,,,0,96,96,18,1,X, ,2,5,8,,2500,2.5,60f9e1a33b5b9499aa625fb9,001,2021-08-19_16h32.44.241,natb3,2021.2.3,Win32,59.89458553,60f9e1a33b5b9499aa625fb9,611e07ecdcc96256ae8d5b80,611e795888f0776fd6296ace,,
,,,,space,,0,97,97,184,1,T, , , , ,space,2000,2,60f9e1a33b5b9499aa625fb9,001,2021-08-19_16h32.44.241,natb3,2021.2.3,Win32,59.89458553,60f9e1a33b5b9499aa625fb9,611e07ecdcc96256ae8d5b80,611e795888f0776fd6296ace,0.3875,
,,,,,,0,98,98,82,1,X,4,6,1,7,,2000,2,60f9e1a33b5b9499aa625fb9,001,2021-08-19_16h32.44.241,natb3,2021.2.3,Win32,59.89458553,60f9e1a33b5b9499aa625fb9,611e07ecdcc96256ae8d5b80,611e795888f0776fd6296ace,,
,,,,space,,0,99,99,47,1,P, , , , ,space,2000,2,60f9e1a33b5b9499aa625fb9,001,2021-08-19_16h32.44.241,natb3,2021.2.3,Win32,59.89458553,60f9e1a33b5b9499aa625fb9,611e07ecdcc96256ae8d5b80,611e795888f0776fd6296ace,0.3405,
,,,,,,0,100,100,299,1,X, , , , ,,2500,2.5,60f9e1a33b5b9499aa625fb9,001,2021-08-19_16h32.44.241,natb3,2021.2.3,Win32,59.89458553,60f9e1a33b5b9499aa625fb9,611e07ecdcc96256ae8d5b80,611e795888f0776fd6296ace,,
,,,,space,,0,101,101,171,1,X, , , , ,,1500,1.5,60f9e1a33b5b9499aa625fb9,001,2021-08-19_16h32.44.241,natb3,2021.2.3,Win32,59.89458553,60f9e1a33b5b9499aa625fb9,611e07ecdcc96256ae8d5b80,611e795888f0776fd6296ace,0.3224,
,,,,space,,0,102,102,300,1,O, , , , ,space,2500,2.5,60f9e1a33b5b9499aa625fb9,001,2021-08-19_16h32.44.241,natb3,2021.2.3,Win32,59.89458553,60f9e1a33b5b9499aa625fb9,611e07ecdcc96256ae8d5b80,611e795888f0776fd6296ace,0.4784,
,,,,space,,0,103,103,75,1,U, , , , ,space,1500,1.5,60f9e1a33b5b9499aa625fb9,001,2021-08-19_16h32.44.241,natb3,2021.2.3,Win32,59.89458553,60f9e1a33b5b9499aa625fb9,611e07ecdcc96256ae8d5b80,611e795888f0776fd6296ace,0.4117,
,,,,space,,0,104,104,307,1,F, , , , ,space,2500,2.5,60f9e1a33b5b9499aa625fb9,001,2021-08-19_16h32.44.241,natb3,2021.2.3,Win32,59.89458553,60f9e1a33b5b9499aa625fb9,611e07ecdcc96256ae8d5b80,611e795888f0776fd6296ace,0.4392,
,,,,space,,0,105,105,253,1,N, , , , ,space,2500,2.5,60f9e1a33b5b9499aa625fb9,001,2021-08-19_16h32.44.241,natb3,2021.2.3,Win32,59.89458553,60f9e1a33b5b9499aa625fb9,611e07ecdcc96256ae8d5b80,611e795888f0776fd6296ace,0.4828,
,,,,space,,0,106,106,127,1,S, , , , ,space,2500,2.5,60f9e1a33b5b9499aa625fb9,001,2021-08-19_16h32.44.241,natb3,2021.2.3,Win32,59.89458553,60f9e1a33b5b9499aa625fb9,611e07ecdcc96256ae8d5b80,611e795888f0776fd6296ace,0.5627,
,,,,space,,0,107,107,110,1,I, , , , ,space,1500,1.5,60f9e1a33b5b9499aa625fb9,001,2021-08-19_16h32.44.241,natb3,2021.2.3,Win32,59.89458553,60f9e1a33b5b9499aa625fb9,611e07ecdcc96256ae8d5b80,611e795888f0776fd6296ace,0.5115,
,,,,,,0,108,108,218,1,X,1,3, ,8,,1500,1.5,60f9e1a33b5b9499aa625fb9,001,2021-08-19_16h32.44.241,natb3,2021.2.3,Win32,59.89458553,60f9e1a33b5b9499aa625fb9,611e07ecdcc96256ae8d5b80,611e795888f0776fd6296ace,,
,,,,space,,0,109,109,88,1,J, , , , ,space,2500,2.5,60f9e1a33b5b9499aa625fb9,001,2021-08-19_16h32.44.241,natb3,2021.2.3,Win32,59.89458553,60f9e1a33b5b9499aa625fb9,611e07ecdcc96256ae8d5b80,611e795888f0776fd6296ace,0.324,
,,,,space,,0,110,110,208,1,B, , , , ,space,1500,1.5,60f9e1a33b5b9499aa625fb9,001,2021-08-19_16h32.44.241,natb3,2021.2.3,Win32,59.89458553,60f9e1a33b5b9499aa625fb9,611e07ecdcc96256ae8d5b80,611e795888f0776fd6296ace,0.5165,
,,,,space,,0,111,111,71,1,R, , , , ,space,2500,2.5,60f9e1a33b5b9499aa625fb9,001,2021-08-19_16h32.44.241,natb3,2021.2.3,Win32,59.89458553,60f9e1a33b5b9499aa625fb9,611e07ecdcc96256ae8d5b80,611e795888f0776fd6296ace,0.3971,
,,,,space,,0,112,112,169,1,L, , , , ,space,2500,2.5,60f9e1a33b5b9499aa625fb9,001,2021-08-19_16h32.44.241,natb3,2021.2.3,Win32,59.89458553,60f9e1a33b5b9499aa625fb9,611e07ecdcc96256ae8d5b80,611e795888f0776fd6296ace,0.4313,
,,,,space,,0,113,113,27,1,X,5, ,1,3,,1500,1.5,60f9e1a33b5b9499aa625fb9,001,2021-08-19_16h32.44.241,natb3,2021.2.3,Win32,59.89458553,60f9e1a33b5b9499aa625fb9,611e07ecdcc96256ae8d5b80,611e795888f0776fd6296ace,0.3875,
,,,,,,0,114,114,255,1,X, , , , ,,1500,1.5,60f9e1a33b5b9499aa625fb9,001,2021-08-19_16h32.44.241,natb3,2021.2.3,Win32,59.89458553,60f9e1a33b5b9499aa625fb9,611e07ecdcc96256ae8d5b80,611e795888f0776fd6296ace,,
,,,,,,0,115,115,211,1,X, , , , ,,2500,2.5,60f9e1a33b5b9499aa625fb9,001,2021-08-19_16h32.44.241,natb3,2021.2.3,Win32,59.89458553,60f9e1a33b5b9499aa625fb9,611e07ecdcc96256ae8d5b80,611e795888f0776fd6296ace,,
,,,,space,,0,116,116,327,1,E, , , , ,space,1500,1.5,60f9e1a33b5b9499aa625fb9,001,2021-08-19_16h32.44.241,natb3,2021.2.3,Win32,59.89458553,60f9e1a33b5b9499aa625fb9,611e07ecdcc96256ae8d5b80,611e795888f0776fd6296ace,0.4248,
,,,,,,0,117,117,33,1,X, , , , ,,1500,1.5,60f9e1a33b5b9499aa625fb9,001,2021-08-19_16h32.44.241,natb3,2021.2.3,Win32,59.89458553,60f9e1a33b5b9499aa625fb9,611e07ecdcc96256ae8d5b80,611e795888f0776fd6296ace,,
,,,,space,,0,118,118,70,1,E, , , , ,space,2500,2.5,60f9e1a33b5b9499aa625fb9,001,2021-08-19_16h32.44.241,natb3,2021.2.3,Win32,59.89458553,60f9e1a33b5b9499aa625fb9,611e07ecdcc96256ae8d5b80,611e795888f0776fd6296ace,0.3668,
,,,,space,,0,119,119,155,1,O, , , , ,space,1500,1.5,60f9e1a33b5b9499aa625fb9,001,2021-08-19_16h32.44.241,natb3,2021.2.3,Win32,59.89458553,60f9e1a33b5b9499aa625fb9,611e07ecdcc96256ae8d5b80,611e795888f0776fd6296ace,0.4651,
,,,,space,,0,120,120,297,1,U, , , , ,space,2000,2,60f9e1a33b5b9499aa625fb9,001,2021-08-19_16h32.44.241,natb3,2021.2.3,Win32,59.89458553,60f9e1a33b5b9499aa625fb9,611e07ecdcc96256ae8d5b80,611e795888f0776fd6296ace,0.4847,
,,,,space,,0,121,121,212,1,Q, , , , ,space,2500,2.5,60f9e1a33b5b9499aa625fb9,001,2021-08-19_16h32.44.241,natb3,2021.2.3,Win32,59.89458553,60f9e1a33b5b9499aa625fb9,611e07ecdcc96256ae8d5b80,611e795888f0776fd6296ace,0.3641,
,,,,space,,0,122,122,48,1,A, , , , ,space,2500,2.5,60f9e1a33b5b9499aa625fb9,001,2021-08-19_16h32.44.241,natb3,2021.2.3,Win32,59.89458553,60f9e1a33b5b9499aa625fb9,611e07ecdcc96256ae8d5b80,611e795888f0776fd6296ace,0.4044,
,,,,space,,0,123,123,306,1,D, , , , ,space,2000,2,60f9e1a33b5b9499aa625fb9,001,2021-08-19_16h32.44.241,natb3,2021.2.3,Win32,59.89458553,60f9e1a33b5b9499aa625fb9,611e07ecdcc96256ae8d5b80,611e795888f0776fd6296ace,0.3844,
,,,,space,,0,124,124,128,1,D, , , , ,space,2500,2.5,60f9e1a33b5b9499aa625fb9,001,2021-08-19_16h32.44.241,natb3,2021.2.3,Win32,59.89458553,60f9e1a33b5b9499aa625fb9,611e07ecdcc96256ae8d5b80,611e795888f0776fd6296ace,0.5678,
,,,,space,,0,125,125,230,1,U, , , , ,space,1500,1.5,60f9e1a33b5b9499aa625fb9,001,2021-08-19_16h32.44.241,natb3,2021.2.3,Win32,59.89458553,60f9e1a33b5b9499aa625fb9,611e07ecdcc96256ae8d5b80,611e795888f0776fd6296ace,0.4233,
,,,,space,,0,126,126,274,1,F, , , , ,space,2000,2,60f9e1a33b5b9499aa625fb9,001,2021-08-19_16h32.44.241,natb3,2021.2.3,Win32,59.89458553,60f9e1a33b5b9499aa625fb9,611e07ecdcc96256ae8d5b80,611e795888f0776fd6296ace,0.3681,
,,,,space,,0,127,127,40,1,T, , , , ,space,1500,1.5,60f9e1a33b5b9499aa625fb9,001,2021-08-19_16h32.44.241,natb3,2021.2.3,Win32,59.89458553,60f9e1a33b5b9499aa625fb9,611e07ecdcc96256ae8d5b80,611e795888f0776fd6296ace,0.5307,
,,,,space,,0,128,128,3,1,R, , , , ,space,2000,2,60f9e1a33b5b9499aa625fb9,001,2021-08-19_16h32.44.241,natb3,2021.2.3,Win32,59.89458553,60f9e1a33b5b9499aa625fb9,611e07ecdcc96256ae8d5b80,611e795888f0776fd6296ace,0.4132,
,,,,space,,0,129,129,118,1,X, , , , ,,2000,2,60f9e1a33b5b9499aa625fb9,001,2021-08-19_16h32.44.241,natb3,2021.2.3,Win32,59.89458553,60f9e1a33b5b9499aa625fb9,611e07ecdcc96256ae8d5b80,611e795888f0776fd6296ace,0.3195,
,,,,space,,0,130,130,61,1,C, , , , ,space,2000,2,60f9e1a33b5b9499aa625fb9,001,2021-08-19_16h32.44.241,natb3,2021.2.3,Win32,59.89458553,60f9e1a33b5b9499aa625fb9,611e07ecdcc96256ae8d5b80,611e795888f0776fd6296ace,0.393,
,,,,space,,0,131,131,133,1,X, ,4, ,6,,2500,2.5,60f9e1a33b5b9499aa625fb9,001,2021-08-19_16h32.44.241,natb3,2021.2.3,Win32,59.89458553,60f9e1a33b5b9499aa625fb9,611e07ecdcc96256ae8d5b80,611e795888f0776fd6296ace,0.3609,
,,,,space,,0,132,132,148,1,X, , , , ,,2000,2,60f9e1a33b5b9499aa625fb9,001,2021-08-19_16h32.44.241,natb3,2021.2.3,Win32,59.89458553,60f9e1a33b5b9499aa625fb9,611e07ecdcc96256ae8d5b80,611e795888f0776fd6296ace,0.3394,
,,,,,,0,133,133,51,1,X,7,5,8, ,,1500,1.5,60f9e1a33b5b9499aa625fb9,001,2021-08-19_16h32.44.241,natb3,2021.2.3,Win32,59.89458553,60f9e1a33b5b9499aa625fb9,611e07ecdcc96256ae8d5b80,611e795888f0776fd6296ace,,
,,,,space,,0,134,134,237,1,S, , , , ,space,1500,1.5,60f9e1a33b5b9499aa625fb9,001,2021-08-19_16h32.44.241,natb3,2021.2.3,Win32,59.89458553,60f9e1a33b5b9499aa625fb9,611e07ecdcc96256ae8d5b80,611e795888f0776fd6296ace,0.3812,
,,,,space,,0,135,135,286,1,N, , , , ,space,1500,1.5,60f9e1a33b5b9499aa625fb9,001,2021-08-19_16h32.44.241,natb3,2021.2.3,Win32,59.89458553,60f9e1a33b5b9499aa625fb9,611e07ecdcc96256ae8d5b80,611e795888f0776fd6296ace,0.3875,
,,,,,,0,136,136,125,1,X, , , , ,,2000,2,60f9e1a33b5b9499aa625fb9,001,2021-08-19_16h32.44.241,natb3,2021.2.3,Win32,59.89458553,60f9e1a33b5b9499aa625fb9,611e07ecdcc96256ae8d5b80,611e795888f0776fd6296ace,,
,,,,space,,0,137,137,246,1,L, , , , ,space,2500,2.5,60f9e1a33b5b9499aa625fb9,001,2021-08-19_16h32.44.241,natb3,2021.2.3,Win32,59.89458553,60f9e1a33b5b9499aa625fb9,611e07ecdcc96256ae8d5b80,611e795888f0776fd6296ace,0.4702,
,,,,space,,0,138,138,266,1,O, , , , ,space,1500,1.5,60f9e1a33b5b9499aa625fb9,001,2021-08-19_16h32.44.241,natb3,2021.2.3,Win32,59.89458553,60f9e1a33b5b9499aa625fb9,611e07ecdcc96256ae8d5b80,611e795888f0776fd6296ace,0.4232,
,,,,space,,0,139,139,163,1,G, , , , ,space,2500,2.5,60f9e1a33b5b9499aa625fb9,001,2021-08-19_16h32.44.241,natb3,2021.2.3,Win32,59.89458553,60f9e1a33b5b9499aa625fb9,611e07ecdcc96256ae8d5b80,611e795888f0776fd6296ace,0.4153,
,,,,space,,0,140,140,250,1,V, , , , ,space,2000,2,60f9e1a33b5b9499aa625fb9,001,2021-08-19_16h32.44.241,natb3,2021.2.3,Win32,59.89458553,60f9e1a33b5b9499aa625fb9,611e07ecdcc96256ae8d5b80,611e795888f0776fd6296ace,0.4757,
,,,,space,,0,141,141,324,1,Q, , , , ,space,2000,2,60f9e1a33b5b9499aa625fb9,001,2021-08-19_16h32.44.241,natb3,2021.2.3,Win32,59.89458553,60f9e1a33b5b9499aa625fb9,611e07ecdcc96256ae8d5b80,611e795888f0776fd6296ace,0.5132,
,,,,space,,0,142,142,289,1,Q, , , , ,space,2000,2,60f9e1a33b5b9499aa625fb9,001,2021-08-19_16h32.44.241,natb3,2021.2.3,Win32,59.89458553,60f9e1a33b5b9499aa625fb9,611e07ecdcc96256ae8d5b80,611e795888f0776fd6296ace,0.6672,
,,,,space,,0,143,143,161,1,F, , , , ,space,1500,1.5,60f9e1a33b5b9499aa625fb9,001,2021-08-19_16h32.44.241,natb3,2021.2.3,Win32,59.89458553,60f9e1a33b5b9499aa625fb9,611e07ecdcc96256ae8d5b80,611e795888f0776fd6296ace,0.4667,
,,,,space,,0,144,144,309,1,H, , , , ,space,2500,2.5,60f9e1a33b5b9499aa625fb9,001,2021-08-19_16h32.44.241,natb3,2021.2.3,Win32,59.89458553,60f9e1a33b5b9499aa625fb9,611e07ecdcc96256ae8d5b80,611e795888f0776fd6296ace,0.6811,
,,,,,,0,145,145,60,1,X,7,3,5, ,,1500,1.5,60f9e1a33b5b9499aa625fb9,001,2021-08-19_16h32.44.241,natb3,2021.2.3,Win32,59.89458553,60f9e1a33b5b9499aa625fb9,611e07ecdcc96256ae8d5b80,611e795888f0776fd6296ace,,
,,,,,,0,146,146,329,1,X,3,4, ,2,,2500,2.5,60f9e1a33b5b9499aa625fb9,001,2021-08-19_16h32.44.241,natb3,2021.2.3,Win32,59.89458553,60f9e1a33b5b9499aa625fb9,611e07ecdcc96256ae8d5b80,611e795888f0776fd6296ace,,
,,,,space,,0,147,147,245,1,K, , , , ,space,2000,2,60f9e1a33b5b9499aa625fb9,001,2021-08-19_16h32.44.241,natb3,2021.2.3,Win32,59.89458553,60f9e1a33b5b9499aa625fb9,611e07ecdcc96256ae8d5b80,611e795888f0776fd6296ace,0.4458,
,,,,space,,0,148,148,294,1,T, , , , ,space,2000,2,60f9e1a33b5b9499aa625fb9,001,2021-08-19_16h32.44.241,natb3,2021.2.3,Win32,59.89458553,60f9e1a33b5b9499aa625fb9,611e07ecdcc96256ae8d5b80,611e795888f0776fd6296ace,0.3713,
,,,,space,,0,149,149,77,1,O, , , , ,space,2000,2,60f9e1a33b5b9499aa625fb9,001,2021-08-19_16h32.44.241,natb3,2021.2.3,Win32,59.89458553,60f9e1a33b5b9499aa625fb9,611e07ecdcc96256ae8d5b80,611e795888f0776fd6296ace,0.4021,
,,,,space,,0,150,150,55,1,H, , , , ,space,2500,2.5,60f9e1a33b5b9499aa625fb9,001,2021-08-19_16h32.44.241,natb3,2021.2.3,Win32,59.89458553,60f9e1a33b5b9499aa625fb9,611e07ecdcc96256ae8d5b80,611e795888f0776fd6296ace,0.4025,
,,,,space,,0,151,151,112,1,Q, , , , ,space,2500,2.5,60f9e1a33b5b9499aa625fb9,001,2021-08-19_16h32.44.241,natb3,2021.2.3,Win32,59.89458553,60f9e1a33b5b9499aa625fb9,611e07ecdcc96256ae8d5b80,611e795888f0776fd6296ace,0.3795,
,,,,space,,0,152,152,29,1,B, , , , ,space,1500,1.5,60f9e1a33b5b9499aa625fb9,001,2021-08-19_16h32.44.241,natb3,2021.2.3,Win32,59.89458553,60f9e1a33b5b9499aa625fb9,611e07ecdcc96256ae8d5b80,611e795888f0776fd6296ace,0.3065,
,,,,space,,0,153,153,188,1,I, , , , ,space,2500,2.5,60f9e1a33b5b9499aa625fb9,001,2021-08-19_16h32.44.241,natb3,2021.2.3,Win32,59.89458553,60f9e1a33b5b9499aa625fb9,611e07ecdcc96256ae8d5b80,611e795888f0776fd6296ace,0.3924,
,,,,space,,0,154,154,120,1,U, , , , ,space,1500,1.5,60f9e1a33b5b9499aa625fb9,001,2021-08-19_16h32.44.241,natb3,2021.2.3,Win32,59.89458553,60f9e1a33b5b9499aa625fb9,611e07ecdcc96256ae8d5b80,611e795888f0776fd6296ace,0.5152,
,,,,space,,0,155,155,217,1,T, , , , ,space,2500,2.5,60f9e1a33b5b9499aa625fb9,001,2021-08-19_16h32.44.241,natb3,2021.2.3,Win32,59.89458553,60f9e1a33b5b9499aa625fb9,611e07ecdcc96256ae8d5b80,611e795888f0776fd6296ace,0.3718,
,,,,space,,0,156,156,321,1,N, , , , ,space,2000,2,60f9e1a33b5b9499aa625fb9,001,2021-08-19_16h32.44.241,natb3,2021.2.3,Win32,59.89458553,60f9e1a33b5b9499aa625fb9,611e07ecdcc96256ae8d5b80,611e795888f0776fd6296ace,0.3832,
,,,,space,,0,157,157,180,1,W, , , , ,space,2000,2,60f9e1a33b5b9499aa625fb9,001,2021-08-19_16h32.44.241,natb3,2021.2.3,Win32,59.89458553,60f9e1a33b5b9499aa625fb9,611e07ecdcc96256ae8d5b80,611e795888f0776fd6296ace,0.5019,
,,,,,,0,158,158,277,1,X,8,5, ,2,,2000,2,60f9e1a33b5b9499aa625fb9,001,2021-08-19_16h32.44.241,natb3,2021.2.3,Win32,59.89458553,60f9e1a33b5b9499aa625fb9,611e07ecdcc96256ae8d5b80,611e795888f0776fd6296ace,,
,,,,space,,0,159,159,67,1,Q, , , , ,space,2000,2,60f9e1a33b5b9499aa625fb9,001,2021-08-19_16h32.44.241,natb3,2021.2.3,Win32,59.89458553,60f9e1a33b5b9499aa625fb9,611e07ecdcc96256ae8d5b80,611e795888f0776fd6296ace,0.3693,
,,,,space,,0,160,160,172,1,C, , , , ,space,1500,1.5,60f9e1a33b5b9499aa625fb9,001,2021-08-19_16h32.44.241,natb3,2021.2.3,Win32,59.89458553,60f9e1a33b5b9499aa625fb9,611e07ecdcc96256ae8d5b80,611e795888f0776fd6296ace,0.4028,
,,,,space,,0,161,161,0,1,Q, , , , ,space,1500,1.5,60f9e1a33b5b9499aa625fb9,001,2021-08-19_16h32.44.241,natb3,2021.2.3,Win32,59.89458553,60f9e1a33b5b9499aa625fb9,611e07ecdcc96256ae8d5b80,611e795888f0776fd6296ace,0.3126,
,,,,space,,0,162,162,271,1,X, , , , ,,2500,2.5,60f9e1a33b5b9499aa625fb9,001,2021-08-19_16h32.44.241,natb3,2021.2.3,Win32,59.89458553,60f9e1a33b5b9499aa625fb9,611e07ecdcc96256ae8d5b80,611e795888f0776fd6296ace,0.3612,
,,,,space,,0,163,163,251,1,B, , , , ,space,1500,1.5,60f9e1a33b5b9499aa625fb9,001,2021-08-19_16h32.44.241,natb3,2021.2.3,Win32,59.89458553,60f9e1a33b5b9499aa625fb9,611e07ecdcc96256ae8d5b80,611e795888f0776fd6296ace,0.3651,
,,,,space,,0,164,164,278,1,J, , , , ,space,2000,2,60f9e1a33b5b9499aa625fb9,001,2021-08-19_16h32.44.241,natb3,2021.2.3,Win32,59.89458553,60f9e1a33b5b9499aa625fb9,611e07ecdcc96256ae8d5b80,611e795888f0776fd6296ace,0.3593,
,,,,space,,0,165,165,26,1,C, , , , ,space,2000,2,60f9e1a33b5b9499aa625fb9,001,2021-08-19_16h32.44.241,natb3,2021.2.3,Win32,59.89458553,60f9e1a33b5b9499aa625fb9,611e07ecdcc96256ae8d5b80,611e795888f0776fd6296ace,0.4011,
,,,,space,,0,166,166,146,1,W, , , , ,space,1500,1.5,60f9e1a33b5b9499aa625fb9,001,2021-08-19_16h32.44.241,natb3,2021.2.3,Win32,59.89458553,60f9e1a33b5b9499aa625fb9,611e07ecdcc96256ae8d5b80,611e795888f0776fd6296ace,0.3533,
,,,,space,space,0,167,167,280,1,L, , , , ,space,1500,1.5,60f9e1a33b5b9499aa625fb9,001,2021-08-19_16h32.44.241,natb3,2021.2.3,Win32,59.89458553,60f9e1a33b5b9499aa625fb9,611e07ecdcc96256ae8d5b80,611e795888f0776fd6296ace,0.3394,31.6379
,,,,space,,0,168,168,244,1,J, , , , ,space,1500,1.5,60f9e1a33b5b9499aa625fb9,001,2021-08-19_16h32.44.241,natb3,2021.2.3,Win32,59.89458553,60f9e1a33b5b9499aa625fb9,611e07ecdcc96256ae8d5b80,611e795888f0776fd6296ace,0.388,
,,,,space,,0,169,169,240,1,F, , , , ,space,2500,2.5,60f9e1a33b5b9499aa625fb9,001,2021-08-19_16h32.44.241,natb3,2021.2.3,Win32,59.89458553,60f9e1a33b5b9499aa625fb9,611e07ecdcc96256ae8d5b80,611e795888f0776fd6296ace,0.4043,
,,,,,,0,170,170,233,1,X, ,2, ,5,,1500,1.5,60f9e1a33b5b9499aa625fb9,001,2021-08-19_16h32.44.241,natb3,2021.2.3,Win32,59.89458553,60f9e1a33b5b9499aa625fb9,611e07ecdcc96256ae8d5b80,611e795888f0776fd6296ace,,
,,,,,,0,171,171,259,1,X,8, , ,3,,2500,2.5,60f9e1a33b5b9499aa625fb9,001,2021-08-19_16h32.44.241,natb3,2021.2.3,Win32,59.89458553,60f9e1a33b5b9499aa625fb9,611e07ecdcc96256ae8d5b80,611e795888f0776fd6296ace,,
,,,,space,,0,172,172,9,1,I, , , , ,space,1500,1.5,60f9e1a33b5b9499aa625fb9,001,2021-08-19_16h32.44.241,natb3,2021.2.3,Win32,59.89458553,60f9e1a33b5b9499aa625fb9,611e07ecdcc96256ae8d5b80,611e795888f0776fd6296ace,0.4121,
,,,,space,,0,173,173,267,1,P, , , , ,space,2000,2,60f9e1a33b5b9499aa625fb9,001,2021-08-19_16h32.44.241,natb3,2021.2.3,Win32,59.89458553,60f9e1a33b5b9499aa625fb9,611e07ecdcc96256ae8d5b80,611e795888f0776fd6296ace,0.36,
,,,,space,,0,174,174,179,1,X, ,9, ,2,,1500,1.5,60f9e1a33b5b9499aa625fb9,001,2021-08-19_16h32.44.241,natb3,2021.2.3,Win32,59.89458553,60f9e1a33b5b9499aa625fb9,611e07ecdcc96256ae8d5b80,611e795888f0776fd6296ace,0.35,
,,,,space,,0,175,175,90,1,K, , , , ,space,2000,2,60f9e1a33b5b9499aa625fb9,001,2021-08-19_16h32.44.241,natb3,2021.2.3,Win32,59.89458553,60f9e1a33b5b9499aa625fb9,611e07ecdcc96256ae8d5b80,611e795888f0776fd6296ace,0.4383,
,,,,space,,0,176,176,44,1,I, , , , ,space,2500,2.5,60f9e1a33b5b9499aa625fb9,001,2021-08-19_16h32.44.241,natb3,2021.2.3,Win32,59.89458553,60f9e1a33b5b9499aa625fb9,611e07ecdcc96256ae8d5b80,611e795888f0776fd6296ace,0.4203,
,,,,space,,0,177,177,52,1,F, , , , ,space,1500,1.5,60f9e1a33b5b9499aa625fb9,001,2021-08-19_16h32.44.241,natb3,2021.2.3,Win32,59.89458553,60f9e1a33b5b9499aa625fb9,611e07ecdcc96256ae8d5b80,611e795888f0776fd6296ace,0.4074,
,,,,space,,0,178,178,176,1,N, , , , ,space,1500,1.5,60f9e1a33b5b9499aa625fb9,001,2021-08-19_16h32.44.241,natb3,2021.2.3,Win32,59.89458553,60f9e1a33b5b9499aa625fb9,611e07ecdcc96256ae8d5b80,611e795888f0776fd6296ace,0.5039,
,,,,space,,0,179,179,8,1,U, , , , ,space,1500,1.5,60f9e1a33b5b9499aa625fb9,001,2021-08-19_16h32.44.241,natb3,2021.2.3,Win32,59.89458553,60f9e1a33b5b9499aa625fb9,611e07ecdcc96256ae8d5b80,611e795888f0776fd6296ace,0.5004,
,,,,space,,0,180,180,249,1,C, , , , ,space,2000,2,60f9e1a33b5b9499aa625fb9,001,2021-08-19_16h32.44.241,natb3,2021.2.3,Win32,59.89458553,60f9e1a33b5b9499aa625fb9,611e07ecdcc96256ae8d5b80,611e795888f0776fd6296ace,0.3153,
,,,,space,,0,181,181,72,1,T, , , , ,space,1500,1.5,60f9e1a33b5b9499aa625fb9,001,2021-08-19_16h32.44.241,natb3,2021.2.3,Win32,59.89458553,60f9e1a33b5b9499aa625fb9,611e07ecdcc96256ae8d5b80,611e795888f0776fd6296ace,0.3674,
,,,,space,,0,182,182,87,1,H, , , , ,space,1500,1.5,60f9e1a33b5b9499aa625fb9,001,2021-08-19_16h32.44.241,natb3,2021.2.3,Win32,59.89458553,60f9e1a33b5b9499aa625fb9,611e07ecdcc96256ae8d5b80,611e795888f0776fd6296ace,0.3892,
,,,,,,0,183,183,23,1,X,1, ,5, ,,2000,2,60f9e1a33b5b9499aa625fb9,001,2021-08-19_16h32.44.241,natb3,2021.2.3,Win32,59.89458553,60f9e1a33b5b9499aa625fb9,611e07ecdcc96256ae8d5b80,611e795888f0776fd6296ace,,
,,,,space,,0,184,184,46,1,X, , , , ,,2000,2,60f9e1a33b5b9499aa625fb9,001,2021-08-19_16h32.44.241,natb3,2021.2.3,Win32,59.89458553,60f9e1a33b5b9499aa625fb9,611e07ecdcc96256ae8d5b80,611e795888f0776fd6296ace,0.4017,
,,,,space,,0,185,185,123,1,O, , , , ,space,1500,1.5,60f9e1a33b5b9499aa625fb9,001,2021-08-19_16h32.44.241,natb3,2021.2.3,Win32,59.89458553,60f9e1a33b5b9499aa625fb9,611e07ecdcc96256ae8d5b80,611e795888f0776fd6296ace,0.399,
,,,,space,,0,186,186,196,1,F, , , , ,space,1500,1.5,60f9e1a33b5b9499aa625fb9,001,2021-08-19_16h32.44.241,natb3,2021.2.3,Win32,59.89458553,60f9e1a33b5b9499aa625fb9,611e07ecdcc96256ae8d5b80,611e795888f0776fd6296ace,0.4059,
,,,,space,,0,187,187,292,1,E, , , , ,space,2000,2,60f9e1a33b5b9499aa625fb9,001,2021-08-19_16h32.44.241,natb3,2021.2.3,Win32,59.89458553,60f9e1a33b5b9499aa625fb9,611e07ecdcc96256ae8d5b80,611e795888f0776fd6296ace,0.4157,
,,,,,,0,188,188,207,1,X,9, ,2, ,,2500,2.5,60f9e1a33b5b9499aa625fb9,001,2021-08-19_16h32.44.241,natb3,2021.2.3,Win32,59.89458553,60f9e1a33b5b9499aa625fb9,611e07ecdcc96256ae8d5b80,611e795888f0776fd6296ace,,
,,,,space,,0,189,189,6,1,Y, , , , ,space,2500,2.5,60f9e1a33b5b9499aa625fb9,001,2021-08-19_16h32.44.241,natb3,2021.2.3,Win32,59.89458553,60f9e1a33b5b9499aa625fb9,611e07ecdcc96256ae8d5b80,611e795888f0776fd6296ace,0.414,
,,,,space,,0,190,190,213,1,X, , , , ,,2500,2.5,60f9e1a33b5b9499aa625fb9,001,2021-08-19_16h32.44.241,natb3,2021.2.3,Win32,59.89458553,60f9e1a33b5b9499aa625fb9,611e07ecdcc96256ae8d5b80,611e795888f0776fd6296ace,0.4211,
,,,,,,0,191,191,291,1,X, , , , ,,2000,2,60f9e1a33b5b9499aa625fb9,001,2021-08-19_16h32.44.241,natb3,2021.2.3,Win32,59.89458553,60f9e1a33b5b9499aa625fb9,611e07ecdcc96256ae8d5b80,611e795888f0776fd6296ace,,
,,,,space,,0,192,192,132,1,H, , , , ,space,2500,2.5,60f9e1a33b5b9499aa625fb9,001,2021-08-19_16h32.44.241,natb3,2021.2.3,Win32,59.89458553,60f9e1a33b5b9499aa625fb9,611e07ecdcc96256ae8d5b80,611e795888f0776fd6296ace,0.4304,
,,,,space,,0,193,193,269,1,A, , , , ,space,2500,2.5,60f9e1a33b5b9499aa625fb9,001,2021-08-19_16h32.44.241,natb3,2021.2.3,Win32,59.89458553,60f9e1a33b5b9499aa625fb9,611e07ecdcc96256ae8d5b80,611e795888f0776fd6296ace,0.5643,
,,,,space,,0,194,194,334,1,O, , , , ,space,1500,1.5,60f9e1a33b5b9499aa625fb9,001,2021-08-19_16h32.44.241,natb3,2021.2.3,Win32,59.89458553,60f9e1a33b5b9499aa625fb9,611e07ecdcc96256ae8d5b80,611e795888f0776fd6296ace,0.3887,
,,,,space,,0,195,195,281,1,Z, , , , ,space,1500,1.5,60f9e1a33b5b9499aa625fb9,001,2021-08-19_16h32.44.241,natb3,2021.2.3,Win32,59.89458553,60f9e1a33b5b9499aa625fb9,611e07ecdcc96256ae8d5b80,611e795888f0776fd6296ace,0.3505,
,,,,,,0,196,196,287,1,X, ,2, ,9,,2000,2,60f9e1a33b5b9499aa625fb9,001,2021-08-19_16h32.44.241,natb3,2021.2.3,Win32,59.89458553,60f9e1a33b5b9499aa625fb9,611e07ecdcc96256ae8d5b80,611e795888f0776fd6296ace,,
,,,,space,,0,197,197,106,1,T, , , , ,space,1500,1.5,60f9e1a33b5b9499aa625fb9,001,2021-08-19_16h32.44.241,natb3,2021.2.3,Win32,59.89458553,60f9e1a33b5b9499aa625fb9,611e07ecdcc96256ae8d5b80,611e795888f0776fd6296ace,0.511,
,,,,,,0,198,198,98,1,X, , , , ,,2500,2.5,60f9e1a33b5b9499aa625fb9,001,2021-08-19_16h32.44.241,natb3,2021.2.3,Win32,59.89458553,60f9e1a33b5b9499aa625fb9,611e07ecdcc96256ae8d5b80,611e795888f0776fd6296ace,,
,,,,space,,0,199,199,80,1,A, , , , ,space,2000,2,60f9e1a33b5b9499aa625fb9,001,2021-08-19_16h32.44.241,natb3,2021.2.3,Win32,59.89458553,60f9e1a33b5b9499aa625fb9,611e07ecdcc96256ae8d5b80,611e795888f0776fd6296ace,0.6357,
,,,,,,0,200,200,166,1,X, , , , ,,2000,2,60f9e1a33b5b9499aa625fb9,001,2021-08-19_16h32.44.241,natb3,2021.2.3,Win32,59.89458553,60f9e1a33b5b9499aa625fb9,611e07ecdcc96256ae8d5b80,611e795888f0776fd6296ace,,
,,,,,,0,201,201,236,1,X,3, ,4,7,,2500,2.5,60f9e1a33b5b9499aa625fb9,001,2021-08-19_16h32.44.241,natb3,2021.2.3,Win32,59.89458553,60f9e1a33b5b9499aa625fb9,611e07ecdcc96256ae8d5b80,611e795888f0776fd6296ace,,
,,,,,,0,202,202,35,1,X, , , , ,,2500,2.5,60f9e1a33b5b9499aa625fb9,001,2021-08-19_16h32.44.241,natb3,2021.2.3,Win32,59.89458553,60f9e1a33b5b9499aa625fb9,611e07ecdcc96256ae8d5b80,611e795888f0776fd6296ace,,
,,,,space,,0,203,203,83,1,D, , , , ,space,2000,2,60f9e1a33b5b9499aa625fb9,001,2021-08-19_16h32.44.241,natb3,2021.2.3,Win32,59.89458553,60f9e1a33b5b9499aa625fb9,611e07ecdcc96256ae8d5b80,611e795888f0776fd6296ace,0.4114,
,,,,space,,0,204,204,10,1,O, , , , ,space,2000,2,60f9e1a33b5b9499aa625fb9,001,2021-08-19_16h32.44.241,natb3,2021.2.3,Win32,59.89458553,60f9e1a33b5b9499aa625fb9,611e07ecdcc96256ae8d5b80,611e795888f0776fd6296ace,0.4467,
,,,,space,,0,205,205,205,1,C, , , , ,space,2000,2,60f9e1a33b5b9499aa625fb9,001,2021-08-19_16h32.44.241,natb3,2021.2.3,Win32,59.89458553,60f9e1a33b5b9499aa625fb9,611e07ecdcc96256ae8d5b80,611e795888f0776fd6296ace,0.5599,
,,,,space,,0,206,206,17,1,F, , , , ,space,2500,2.5,60f9e1a33b5b9499aa625fb9,001,2021-08-19_16h32.44.241,natb3,2021.2.3,Win32,59.89458553,60f9e1a33b5b9499aa625fb9,611e07ecdcc96256ae8d5b80,611e795888f0776fd6296ace,0.4313,
,,,,space,,0,207,207,301,1,P, , , , ,space,1500,1.5,60f9e1a33b5b9499aa625fb9,001,2021-08-19_16h32.44.241,natb3,2021.2.3,Win32,59.89458553,60f9e1a33b5b9499aa625fb9,611e07ecdcc96256ae8d5b80,611e795888f0776fd6296ace,0.4846,
,,,,,,0,208,208,200,1,X,7, ,5,3,,1500,1.5,60f9e1a33b5b9499aa625fb9,001,2021-08-19_16h32.44.241,natb3,2021.2.3,Win32,59.89458553,60f9e1a33b5b9499aa625fb9,611e07ecdcc96256ae8d5b80,611e795888f0776fd6296ace,,
,,,,space,,0,209,209,317,1,C, , , , ,space,2000,2,60f9e1a33b5b9499aa625fb9,001,2021-08-19_16h32.44.241,natb3,2021.2.3,Win32,59.89458553,60f9e1a33b5b9499aa625fb9,611e07ecdcc96256ae8d5b80,611e795888f0776fd6296ace,0.488,
,,,,,,0,210,210,43,1,X, ,6, ,2,,2500,2.5,60f9e1a33b5b9499aa625fb9,001,2021-08-19_16h32.44.241,natb3,2021.2.3,Win32,59.89458553,60f9e1a33b5b9499aa625fb9,611e07ecdcc96256ae8d5b80,611e795888f0776fd6296ace,,
,,,,space,,0,211,211,140,1,B, , , , ,space,2500,2.5,60f9e1a33b5b9499aa625fb9,001,2021-08-19_16h32.44.241,natb3,2021.2.3,Win32,59.89458553,60f9e1a33b5b9499aa625fb9,611e07ecdcc96256ae8d5b80,611e795888f0776fd6296ace,0.4601,
,,,,space,,0,212,212,28,1,V, , , , ,space,1500,1.5,60f9e1a33b5b9499aa625fb9,001,2021-08-19_16h32.44.241,natb3,2021.2.3,Win32,59.89458553,60f9e1a33b5b9499aa625fb9,611e07ecdcc96256ae8d5b80,611e795888f0776fd6296ace,0.4044,
,,,,space,,0,213,213,258,1,E, , , , ,space,1500,1.5,60f9e1a33b5b9499aa625fb9,001,2021-08-19_16h32.44.241,natb3,2021.2.3,Win32,59.89458553,60f9e1a33b5b9499aa625fb9,611e07ecdcc96256ae8d5b80,611e795888f0776fd6296ace,0.3634,
,,,,space,,0,214,214,13,1,A, , , , ,space,2000,2,60f9e1a33b5b9499aa625fb9,001,2021-08-19_16h32.44.241,natb3,2021.2.3,Win32,59.89458553,60f9e1a33b5b9499aa625fb9,611e07ecdcc96256ae8d5b80,611e795888f0776fd6296ace,0.5369,
,,,,space,,0,215,215,95,1,V, , , , ,space,1500,1.5,60f9e1a33b5b9499aa625fb9,001,2021-08-19_16h32.44.241,natb3,2021.2.3,Win32,59.89458553,60f9e1a33b5b9499aa625fb9,611e07ecdcc96256ae8d5b80,611e795888f0776fd6296ace,0.5167,
,,,,space,,0,216,216,119,1,Y, , , , ,space,2500,2.5,60f9e1a33b5b9499aa625fb9,001,2021-08-19_16h32.44.241,natb3,2021.2.3,Win32,59.89458553,60f9e1a33b5b9499aa625fb9,611e07ecdcc96256ae8d5b80,611e795888f0776fd6296ace,0.3956,
,,,,space,,0,217,217,203,1,X, , , , ,,2500,2.5,60f9e1a33b5b9499aa625fb9,001,2021-08-19_16h32.44.241,natb3,2021.2.3,Win32,59.89458553,60f9e1a33b5b9499aa625fb9,611e07ecdcc96256ae8d5b80,611e795888f0776fd6296ace,0.3831,
,,,,space,,0,218,218,63,1,B, , , , ,space,2000,2,60f9e1a33b5b9499aa625fb9,001,2021-08-19_16h32.44.241,natb3,2021.2.3,Win32,59.89458553,60f9e1a33b5b9499aa625fb9,611e07ecdcc96256ae8d5b80,611e795888f0776fd6296ace,0.3892,
,,,,space,,0,219,219,136,1,Z, , , , ,space,2500,2.5,60f9e1a33b5b9499aa625fb9,001,2021-08-19_16h32.44.241,natb3,2021.2.3,Win32,59.89458553,60f9e1a33b5b9499aa625fb9,611e07ecdcc96256ae8d5b80,611e795888f0776fd6296ace,0.4381,
,,,,space,,0,220,220,139,1,V, , , , ,space,2000,2,60f9e1a33b5b9499aa625fb9,001,2021-08-19_16h32.44.241,natb3,2021.2.3,Win32,59.89458553,60f9e1a33b5b9499aa625fb9,611e07ecdcc96256ae8d5b80,611e795888f0776fd6296ace,0.4057,
,,,,space,,0,221,221,216,1,R, , , , ,space,1500,1.5,60f9e1a33b5b9499aa625fb9,001,2021-08-19_16h32.44.241,natb3,2021.2.3,Win32,59.89458553,60f9e1a33b5b9499aa625fb9,611e07ecdcc96256ae8d5b80,611e795888f0776fd6296ace,0.3538,
,,,,,,0,222,222,175,1,X,7, ,4,2,,1500,1.5,60f9e1a33b5b9499aa625fb9,001,2021-08-19_16h32.44.241,natb3,2021.2.3,Win32,59.89458553,60f9e1a33b5b9499aa625fb9,611e07ecdcc96256ae8d5b80,611e795888f0776fd6296ace,,
,,,,space,,0,223,223,173,1,V, , , , ,space,1500,1.5,60f9e1a33b5b9499aa625fb9,001,2021-08-19_16h32.44.241,natb3,2021.2.3,Win32,59.89458553,60f9e1a33b5b9499aa625fb9,611e07ecdcc96256ae8d5b80,611e795888f0776fd6296ace,0.3682,
,,,,space,,0,224,224,114,1,E, , , , ,space,2000,2,60f9e1a33b5b9499aa625fb9,001,2021-08-19_16h32.44.241,natb3,2021.2.3,Win32,59.89458553,60f9e1a33b5b9499aa625fb9,611e07ecdcc96256ae8d5b80,611e795888f0776fd6296ace,0.389,
,,,,space,,0,225,225,247,1,Z, , , , ,space,1500,1.5,60f9e1a33b5b9499aa625fb9,001,2021-08-19_16h32.44.241,natb3,2021.2.3,Win32,59.89458553,60f9e1a33b5b9499aa625fb9,611e07ecdcc96256ae8d5b80,611e795888f0776fd6296ace,0.4779,
,,,,,,0,226,226,263,1,X,4, ,6, ,,1500,1.5,60f9e1a33b5b9499aa625fb9,001,2021-08-19_16h32.44.241,natb3,2021.2.3,Win32,59.89458553,60f9e1a33b5b9499aa625fb9,611e07ecdcc96256ae8d5b80,611e795888f0776fd6296ace,,
,,,,space,,0,227,227,151,1,Y, , , , ,space,2500,2.5,60f9e1a33b5b9499aa625fb9,001,2021-08-19_16h32.44.241,natb3,2021.2.3,Win32,59.89458553,60f9e1a33b5b9499aa625fb9,611e07ecdcc96256ae8d5b80,611e795888f0776fd6296ace,0.47,
,,,,,,0,228,228,177,1,M, , , , ,space,2500,2.5,60f9e1a33b5b9499aa625fb9,001,2021-08-19_16h32.44.241,natb3,2021.2.3,Win32,59.89458553,60f9e1a33b5b9499aa625fb9,611e07ecdcc96256ae8d5b80,611e795888f0776fd6296ace,,
,,,,space,,0,229,229,137,1,C, , , , ,space,2500,2.5,60f9e1a33b5b9499aa625fb9,001,2021-08-19_16h32.44.241,natb3,2021.2.3,Win32,59.89458553,60f9e1a33b5b9499aa625fb9,611e07ecdcc96256ae8d5b80,611e795888f0776fd6296ace,0.3985,
,,,,space,,0,230,230,50,1,D, , , , ,space,1500,1.5,60f9e1a33b5b9499aa625fb9,001,2021-08-19_16h32.44.241,natb3,2021.2.3,Win32,59.89458553,60f9e1a33b5b9499aa625fb9,611e07ecdcc96256ae8d5b80,611e795888f0776fd6296ace,0.3526,
,,,,,,0,231,231,315,1,X, , , , ,,2500,2.5,60f9e1a33b5b9499aa625fb9,001,2021-08-19_16h32.44.241,natb3,2021.2.3,Win32,59.89458553,60f9e1a33b5b9499aa625fb9,611e07ecdcc96256ae8d5b80,611e795888f0776fd6296ace,,
,,,,space,,0,232,232,210,1,M, , , , ,space,1500,1.5,60f9e1a33b5b9499aa625fb9,001,2021-08-19_16h32.44.241,natb3,2021.2.3,Win32,59.89458553,60f9e1a33b5b9499aa625fb9,611e07ecdcc96256ae8d5b80,611e795888f0776fd6296ace,0.4111,
,,,,space,,0,233,233,104,1,E, , , , ,space,2000,2,60f9e1a33b5b9499aa625fb9,001,2021-08-19_16h32.44.241,natb3,2021.2.3,Win32,59.89458553,60f9e1a33b5b9499aa625fb9,611e07ecdcc96256ae8d5b80,611e795888f0776fd6296ace,0.3355,
,,,,space,,0,234,234,312,1,K, , , , ,space,2000,2,60f9e1a33b5b9499aa625fb9,001,2021-08-19_16h32.44.241,natb3,2021.2.3,Win32,59.89458553,60f9e1a33b5b9499aa625fb9,611e07ecdcc96256ae8d5b80,611e795888f0776fd6296ace,0.4181,
,,,,space,,0,235,235,330,1,T, , , , ,space,2500,2.5,60f9e1a33b5b9499aa625fb9,001,2021-08-19_16h32.44.241,natb3,2021.2.3,Win32,59.89458553,60f9e1a33b5b9499aa625fb9,611e07ecdcc96256ae8d5b80,611e795888f0776fd6296ace,0.4656,
,,,,space,,0,236,236,183,1,R, , , , ,space,1500,1.5,60f9e1a33b5b9499aa625fb9,001,2021-08-19_16h32.44.241,natb3,2021.2.3,Win32,59.89458553,60f9e1a33b5b9499aa625fb9,611e07ecdcc96256ae8d5b80,611e795888f0776fd6296ace,0.5705,
,,,,space,,0,237,237,197,1,G, , , , ,space,2500,2.5,60f9e1a33b5b9499aa625fb9,001,2021-08-19_16h32.44.241,natb3,2021.2.3,Win32,59.89458553,60f9e1a33b5b9499aa625fb9,611e07ecdcc96256ae8d5b80,611e795888f0776fd6296ace,0.4254,
,,,,space,,0,238,238,256,1,Q, , , , ,space,2000,2,60f9e1a33b5b9499aa625fb9,001,2021-08-19_16h32.44.241,natb3,2021.2.3,Win32,59.89458553,60f9e1a33b5b9499aa625fb9,611e07ecdcc96256ae8d5b80,611e795888f0776fd6296ace,0.6501,
,,,,space,,0,239,239,157,1,A, , , , ,space,2500,2.5,60f9e1a33b5b9499aa625fb9,001,2021-08-19_16h32.44.241,natb3,2021.2.3,Win32,59.89458553,60f9e1a33b5b9499aa625fb9,611e07ecdcc96256ae8d5b80,611e795888f0776fd6296ace,0.9671,
,,,,space,,0,240,240,265,1,I, , , , ,space,2000,2,60f9e1a33b5b9499aa625fb9,001,2021-08-19_16h32.44.241,natb3,2021.2.3,Win32,59.89458553,60f9e1a33b5b9499aa625fb9,611e07ecdcc96256ae8d5b80,611e795888f0776fd6296ace,0.6222,
,,,,space,,0,241,241,165,1,J, , , , ,space,2500,2.5,60f9e1a33b5b9499aa625fb9,001,2021-08-19_16h32.44.241,natb3,2021.2.3,Win32,59.89458553,60f9e1a33b5b9499aa625fb9,611e07ecdcc96256ae8d5b80,611e795888f0776fd6296ace,0.3863,
,,,,space,,0,242,242,130,1,F, , , , ,space,2000,2,60f9e1a33b5b9499aa625fb9,001,2021-08-19_16h32.44.241,natb3,2021.2.3,Win32,59.89458553,60f9e1a33b5b9499aa625fb9,611e07ecdcc96256ae8d5b80,611e795888f0776fd6296ace,0.5642,
,,,,space,,0,243,243,89,1,X,3, , , ,,2000,2,60f9e1a33b5b9499aa625fb9,001,2021-08-19_16h32.44.241,natb3,2021.2.3,Win32,59.89458553,60f9e1a33b5b9499aa625fb9,611e07ecdcc96256ae8d5b80,611e795888f0776fd6296ace,0.4363,
,,,,space,,0,244,244,56,1,J, , , , ,space,1500,1.5,60f9e1a33b5b9499aa625fb9,001,2021-08-19_16h32.44.241,natb3,2021.2.3,Win32,59.89458553,60f9e1a33b5b9499aa625fb9,611e07ecdcc96256ae8d5b80,611e795888f0776fd6296ace,0.394,
,,,,space,,0,245,245,24,1,L, , , , ,space,2500,2.5,60f9e1a33b5b9499aa625fb9,001,2021-08-19_16h32.44.241,natb3,2021.2.3,Win32,59.89458553,60f9e1a33b5b9499aa625fb9,611e07ecdcc96256ae8d5b80,611e795888f0776fd6296ace,0.4124,
,,,,space,,0,246,246,204,1,Z, , , , ,space,2000,2,60f9e1a33b5b9499aa625fb9,001,2021-08-19_16h32.44.241,natb3,2021.2.3,Win32,59.89458553,60f9e1a33b5b9499aa625fb9,611e07ecdcc96256ae8d5b80,611e795888f0776fd6296ace,0.3799,
,,,,space,,0,247,247,319,1,V, , , , ,space,2000,2,60f9e1a33b5b9499aa625fb9,001,2021-08-19_16h32.44.241,natb3,2021.2.3,Win32,59.89458553,60f9e1a33b5b9499aa625fb9,611e07ecdcc96256ae8d5b80,611e795888f0776fd6296ace,0.4054,
,,,,space,,0,248,248,314,1,L, , , , ,space,1500,1.5,60f9e1a33b5b9499aa625fb9,001,2021-08-19_16h32.44.241,natb3,2021.2.3,Win32,59.89458553,60f9e1a33b5b9499aa625fb9,611e07ecdcc96256ae8d5b80,611e795888f0776fd6296ace,0.3098,
,,,,space,,0,249,249,12,1,X, , , , ,,1500,1.5,60f9e1a33b5b9499aa625fb9,001,2021-08-19_16h32.44.241,natb3,2021.2.3,Win32,59.89458553,60f9e1a33b5b9499aa625fb9,611e07ecdcc96256ae8d5b80,611e795888f0776fd6296ace,0.3447,
,,,,space,,0,250,250,215,1,E, , , , ,space,2500,2.5,60f9e1a33b5b9499aa625fb9,001,2021-08-19_16h32.44.241,natb3,2021.2.3,Win32,59.89458553,60f9e1a33b5b9499aa625fb9,611e07ecdcc96256ae8d5b80,611e795888f0776fd6296ace,0.4259,
,,,,space,,0,251,251,32,1,M, , , , ,space,1500,1.5,60f9e1a33b5b9499aa625fb9,001,2021-08-19_16h32.44.241,natb3,2021.2.3,Win32,59.89458553,60f9e1a33b5b9499aa625fb9,611e07ecdcc96256ae8d5b80,611e795888f0776fd6296ace,0.5559,
,,,,space,,0,252,252,189,1,O, , , , ,space,1500,1.5,60f9e1a33b5b9499aa625fb9,001,2021-08-19_16h32.44.241,natb3,2021.2.3,Win32,59.89458553,60f9e1a33b5b9499aa625fb9,611e07ecdcc96256ae8d5b80,611e795888f0776fd6296ace,0.5837,
,,,,space,,0,253,253,270,1,S, , , , ,space,1500,1.5,60f9e1a33b5b9499aa625fb9,001,2021-08-19_16h32.44.241,natb3,2021.2.3,Win32,59.89458553,60f9e1a33b5b9499aa625fb9,611e07ecdcc96256ae8d5b80,611e795888f0776fd6296ace,0.5951,
,,,,space,,0,254,254,73,1,Y, , , , ,space,2000,2,60f9e1a33b5b9499aa625fb9,001,2021-08-19_16h32.44.241,natb3,2021.2.3,Win32,59.89458553,60f9e1a33b5b9499aa625fb9,611e07ecdcc96256ae8d5b80,611e795888f0776fd6296ace,0.7809,
,,,,,,0,255,255,45,1,O, , , , ,space,2000,2,60f9e1a33b5b9499aa625fb9,001,2021-08-19_16h32.44.241,natb3,2021.2.3,Win32,59.89458553,60f9e1a33b5b9499aa625fb9,611e07ecdcc96256ae8d5b80,611e795888f0776fd6296ace,,
,,,,space,,0,256,256,22,1,K, , , , ,space,2000,2,60f9e1a33b5b9499aa625fb9,001,2021-08-19_16h32.44.241,natb3,2021.2.3,Win32,59.89458553,60f9e1a33b5b9499aa625fb9,611e07ecdcc96256ae8d5b80,611e795888f0776fd6296ace,0.3601,
,,,,space,,0,257,257,64,1,N, , , , ,space,2000,2,60f9e1a33b5b9499aa625fb9,001,2021-08-19_16h32.44.241,natb3,2021.2.3,Win32,59.89458553,60f9e1a33b5b9499aa625fb9,611e07ecdcc96256ae8d5b80,611e795888f0776fd6296ace,0.351,
,,,,,,0,258,258,295,1,X,8,7,5, ,,2500,2.5,60f9e1a33b5b9499aa625fb9,001,2021-08-19_16h32.44.241,natb3,2021.2.3,Win32,59.89458553,60f9e1a33b5b9499aa625fb9,611e07ecdcc96256ae8d5b80,611e795888f0776fd6296ace,,
,,,,space,,0,259,259,97,1,B, , , , ,space,2500,2.5,60f9e1a33b5b9499aa625fb9,001,2021-08-19_16h32.44.241,natb3,2021.2.3,Win32,59.89458553,60f9e1a33b5b9499aa625fb9,611e07ecdcc96256ae8d5b80,611e795888f0776fd6296ace,0.4845,
,,,,,,0,260,260,168,1,X, , , , ,,2500,2.5,60f9e1a33b5b9499aa625fb9,001,2021-08-19_16h32.44.241,natb3,2021.2.3,Win32,59.89458553,60f9e1a33b5b9499aa625fb9,611e07ecdcc96256ae8d5b80,611e795888f0776fd6296ace,,
,,,,space,,0,261,261,231,1,I, , , , ,space,2500,2.5,60f9e1a33b5b9499aa625fb9,001,2021-08-19_16h32.44.241,natb3,2021.2.3,Win32,59.89458553,60f9e1a33b5b9499aa625fb9,611e07ecdcc96256ae8d5b80,611e795888f0776fd6296ace,0.6725,
,,,,space,,0,262,262,113,1,W, , , , ,space,2500,2.5,60f9e1a33b5b9499aa625fb9,001,2021-08-19_16h32.44.241,natb3,2021.2.3,Win32,59.89458553,60f9e1a33b5b9499aa625fb9,611e07ecdcc96256ae8d5b80,611e795888f0776fd6296ace,0.9407,
,,,,,,0,263,263,191,1,X,1, ,3,4,,2500,2.5,60f9e1a33b5b9499aa625fb9,001,2021-08-19_16h32.44.241,natb3,2021.2.3,Win32,59.89458553,60f9e1a33b5b9499aa625fb9,611e07ecdcc96256ae8d5b80,611e795888f0776fd6296ace,,
,,,,space,,0,264,264,68,1,W, , , , ,space,2500,2.5,60f9e1a33b5b9499aa625fb9,001,2021-08-19_16h32.44.241,natb3,2021.2.3,Win32,59.89458553,60f9e1a33b5b9499aa625fb9,611e07ecdcc96256ae8d5b80,611e795888f0776fd6296ace,0.4424,
,,,,,,0,265,265,100,1,M, , , , ,space,2000,2,60f9e1a33b5b9499aa625fb9,001,2021-08-19_16h32.44.241,natb3,2021.2.3,Win32,59.89458553,60f9e1a33b5b9499aa625fb9,611e07ecdcc96256ae8d5b80,611e795888f0776fd6296ace,,
,,,,space,,0,266,266,58,1,L, , , , ,space,2000,2,60f9e1a33b5b9499aa625fb9,001,2021-08-19_16h32.44.241,natb3,2021.2.3,Win32,59.89458553,60f9e1a33b5b9499aa625fb9,611e07ecdcc96256ae8d5b80,611e795888f0776fd6296ace,0.4063,
,,,,,,0,267,267,84,1,X, , , , ,,2000,2,60f9e1a33b5b9499aa625fb9,001,2021-08-19_16h32.44.241,natb3,2021.2.3,Win32,59.89458553,60f9e1a33b5b9499aa625fb9,611e07ecdcc96256ae8d5b80,611e795888f0776fd6296ace,,
,,,,space,,0,268,268,285,1,B, , , , ,space,1500,1.5,60f9e1a33b5b9499aa625fb9,001,2021-08-19_16h32.44.241,natb3,2021.2.3,Win32,59.89458553,60f9e1a33b5b9499aa625fb9,611e07ecdcc96256ae8d5b80,611e795888f0776fd6296ace,0.4414,
,,,,space,,0,269,269,182,1,X, , , , ,,1500,1.5,60f9e1a33b5b9499aa625fb9,001,2021-08-19_16h32.44.241,natb3,2021.2.3,Win32,59.89458553,60f9e1a33b5b9499aa625fb9,611e07ecdcc96256ae8d5b80,611e795888f0776fd6296ace,0.4878,
,,,,space,,0,270,270,158,1,X, , , , ,,1500,1.5,60f9e1a33b5b9499aa625fb9,001,2021-08-19_16h32.44.241,natb3,2021.2.3,Win32,59.89458553,60f9e1a33b5b9499aa625fb9,611e07ecdcc96256ae8d5b80,611e795888f0776fd6296ace,0.383,
,,,,space,,0,271,271,275,1,G, , , , ,space,1500,1.5,60f9e1a33b5b9499aa625fb9,001,2021-08-19_16h32.44.241,natb3,2021.2.3,Win32,59.89458553,60f9e1a33b5b9499aa625fb9,611e07ecdcc96256ae8d5b80,611e795888f0776fd6296ace,0.4497,
,,,,,,0,272,272,74,1,X, ,4,3,2,,1500,1.5,60f9e1a33b5b9499aa625fb9,001,2021-08-19_16h32.44.241,natb3,2021.2.3,Win32,59.89458553,60f9e1a33b5b9499aa625fb9,611e07ecdcc96256ae8d5b80,611e795888f0776fd6296ace,,
,,,,space,,0,273,273,206,1,V, , , , ,space,2000,2,60f9e1a33b5b9499aa625fb9,001,2021-08-19_16h32.44.241,natb3,2021.2.3,Win32,59.89458553,60f9e1a33b5b9499aa625fb9,611e07ecdcc96256ae8d5b80,611e795888f0776fd6296ace,0.3837,
,,,,,,0,274,274,305,1,X, , , , ,,1500,1.5,60f9e1a33b5b9499aa625fb9,001,2021-08-19_16h32.44.241,natb3,2021.2.3,Win32,59.89458553,60f9e1a33b5b9499aa625fb9,611e07ecdcc96256ae8d5b80,611e795888f0776fd6296ace,,
,,,,space,,0,275,275,117,1,T, , , , ,space,2500,2.5,60f9e1a33b5b9499aa625fb9,001,2021-08-19_16h32.44.241,natb3,2021.2.3,Win32,59.89458553,60f9e1a33b5b9499aa625fb9,611e07ecdcc96256ae8d5b80,611e795888f0776fd6296ace,0.4347,
,,,,space,,0,276,276,147,1,E, , , , ,space,2000,2,60f9e1a33b5b9499aa625fb9,001,2021-08-19_16h32.44.241,natb3,2021.2.3,Win32,59.89458553,60f9e1a33b5b9499aa625fb9,611e07ecdcc96256ae8d5b80,611e795888f0776fd6296ace,0.6514,
,,,,,,0,277,277,131,1,G, , , , ,space,1500,1.5,60f9e1a33b5b9499aa625fb9,001,2021-08-19_16h32.44.241,natb3,2021.2.3,Win32,59.89458553,60f9e1a33b5b9499aa625fb9,611e07ecdcc96256ae8d5b80,611e795888f0776fd6296ace,,
,,,,space,,0,278,278,85,1,F, , , , ,space,2500,2.5,60f9e1a33b5b9499aa625fb9,001,2021-08-19_16h32.44.241,natb3,2021.2.3,Win32,59.89458553,60f9e1a33b5b9499aa625fb9,611e07ecdcc96256ae8d5b80,611e795888f0776fd6296ace,0.3512,
,,,,space,,0,279,279,103,1,W, , , , ,space,2000,2,60f9e1a33b5b9499aa625fb9,001,2021-08-19_16h32.44.241,natb3,2021.2.3,Win32,59.89458553,60f9e1a33b5b9499aa625fb9,611e07ecdcc96256ae8d5b80,611e795888f0776fd6296ace,0.3246,
,,,,space,,0,280,280,302,1,X, , , , ,,2000,2,60f9e1a33b5b9499aa625fb9,001,2021-08-19_16h32.44.241,natb3,2021.2.3,Win32,59.89458553,60f9e1a33b5b9499aa625fb9,611e07ecdcc96256ae8d5b80,611e795888f0776fd6296ace,0.334,
,,,,space,,0,281,281,279,1,K, , , , ,space,2500,2.5,60f9e1a33b5b9499aa625fb9,001,2021-08-19_16h32.44.241,natb3,2021.2.3,Win32,59.89458553,60f9e1a33b5b9499aa625fb9,611e07ecdcc96256ae8d5b80,611e795888f0776fd6296ace,0.4265,
,,,,space,,0,282,282,99,1,N, , , , ,space,2500,2.5,60f9e1a33b5b9499aa625fb9,001,2021-08-19_16h32.44.241,natb3,2021.2.3,Win32,59.89458553,60f9e1a33b5b9499aa625fb9,611e07ecdcc96256ae8d5b80,611e795888f0776fd6296ace,0.3599,
,,,,space,,0,283,283,156,1,P, , , , ,space,1500,1.5,60f9e1a33b5b9499aa625fb9,001,2021-08-19_16h32.44.241,natb3,2021.2.3,Win32,59.89458553,60f9e1a33b5b9499aa625fb9,611e07ecdcc96256ae8d5b80,611e795888f0776fd6296ace,0.4063,
,,,,space,,0,284,284,234,1,P, , , , ,space,2000,2,60f9e1a33b5b9499aa625fb9,001,2021-08-19_16h32.44.241,natb3,2021.2.3,Win32,59.89458553,60f9e1a33b5b9499aa625fb9,611e07ecdcc96256ae8d5b80,611e795888f0776fd6296ace,0.367,
,,,,space,,0,285,285,186,1,U, , , , ,space,2500,2.5,60f9e1a33b5b9499aa625fb9,001,2021-08-19_16h32.44.241,natb3,2021.2.3,Win32,59.89458553,60f9e1a33b5b9499aa625fb9,611e07ecdcc96256ae8d5b80,611e795888f0776fd6296ace,0.5675,
,,,,space,,0,286,286,160,1,D, , , , ,space,1500,1.5,60f9e1a33b5b9499aa625fb9,001,2021-08-19_16h32.44.241,natb3,2021.2.3,Win32,59.89458553,60f9e1a33b5b9499aa625fb9,611e07ecdcc96256ae8d5b80,611e795888f0776fd6296ace,0.3118,
,,,,space,,0,287,287,121,1,I, , , , ,space,2000,2,60f9e1a33b5b9499aa625fb9,001,2021-08-19_16h32.44.241,natb3,2021.2.3,Win32,59.89458553,60f9e1a33b5b9499aa625fb9,611e07ecdcc96256ae8d5b80,611e795888f0776fd6296ace,0.4009,
,,,,space,,0,288,288,226,1,R, , , , ,space,2000,2,60f9e1a33b5b9499aa625fb9,001,2021-08-19_16h32.44.241,natb3,2021.2.3,Win32,59.89458553,60f9e1a33b5b9499aa625fb9,611e07ecdcc96256ae8d5b80,611e795888f0776fd6296ace,0.4163,
,,,,space,,0,289,289,145,1,X, , , , ,,2000,2,60f9e1a33b5b9499aa625fb9,001,2021-08-19_16h32.44.241,natb3,2021.2.3,Win32,59.89458553,60f9e1a33b5b9499aa625fb9,611e07ecdcc96256ae8d5b80,611e795888f0776fd6296ace,0.3531,
,,,,,,0,290,290,313,1,X, , , , ,,2500,2.5,60f9e1a33b5b9499aa625fb9,001,2021-08-19_16h32.44.241,natb3,2021.2.3,Win32,59.89458553,60f9e1a33b5b9499aa625fb9,611e07ecdcc96256ae8d5b80,611e795888f0776fd6296ace,,
,,,,space,,0,291,291,238,1,D, , , , ,space,1500,1.5,60f9e1a33b5b9499aa625fb9,001,2021-08-19_16h32.44.241,natb3,2021.2.3,Win32,59.89458553,60f9e1a33b5b9499aa625fb9,611e07ecdcc96256ae8d5b80,611e795888f0776fd6296ace,0.6874,
,,,,,,0,292,292,195,1,X, , , , ,,1500,1.5,60f9e1a33b5b9499aa625fb9,001,2021-08-19_16h32.44.241,natb3,2021.2.3,Win32,59.89458553,60f9e1a33b5b9499aa625fb9,611e07ecdcc96256ae8d5b80,611e795888f0776fd6296ace,,
,,,,,,0,293,293,325,1,X, , , , ,,2500,2.5,60f9e1a33b5b9499aa625fb9,001,2021-08-19_16h32.44.241,natb3,2021.2.3,Win32,59.89458553,60f9e1a33b5b9499aa625fb9,611e07ecdcc96256ae8d5b80,611e795888f0776fd6296ace,,
,,,,space,,0,294,294,222,1,O, , , , ,space,2000,2,60f9e1a33b5b9499aa625fb9,001,2021-08-19_16h32.44.241,natb3,2021.2.3,Win32,59.89458553,60f9e1a33b5b9499aa625fb9,611e07ecdcc96256ae8d5b80,611e795888f0776fd6296ace,0.5674,
,,,,space,,0,295,295,57,1,K, , , , ,space,2500,2.5,60f9e1a33b5b9499aa625fb9,001,2021-08-19_16h32.44.241,natb3,2021.2.3,Win32,59.89458553,60f9e1a33b5b9499aa625fb9,611e07ecdcc96256ae8d5b80,611e795888f0776fd6296ace,0.4562,
,,,,,,0,296,296,129,1,X,2,3,5, ,,1500,1.5,60f9e1a33b5b9499aa625fb9,001,2021-08-19_16h32.44.241,natb3,2021.2.3,Win32,59.89458553,60f9e1a33b5b9499aa625fb9,611e07ecdcc96256ae8d5b80,611e795888f0776fd6296ace,,
,,,,,,0,297,297,187,1,X, ,3,7,4,,1500,1.5,60f9e1a33b5b9499aa625fb9,001,2021-08-19_16h32.44.241,natb3,2021.2.3,Win32,59.89458553,60f9e1a33b5b9499aa625fb9,611e07ecdcc96256ae8d5b80,611e795888f0776fd6296ace,,
,,,,,,0,298,298,39,1,X,6,2, , ,,1500,1.5,60f9e1a33b5b9499aa625fb9,001,2021-08-19_16h32.44.241,natb3,2021.2.3,Win32,59.89458553,60f9e1a33b5b9499aa625fb9,611e07ecdcc96256ae8d5b80,611e795888f0776fd6296ace,,
,,,,space,,0,299,299,174,1,B, , , , ,space,2500,2.5,60f9e1a33b5b9499aa625fb9,001,2021-08-19_16h32.44.241,natb3,2021.2.3,Win32,59.89458553,60f9e1a33b5b9499aa625fb9,611e07ecdcc96256ae8d5b80,611e795888f0776fd6296ace,0.526,
,,,,space,,0,300,300,320,1,B, , , , ,space,1500,1.5,60f9e1a33b5b9499aa625fb9,001,2021-08-19_16h32.44.241,natb3,2021.2.3,Win32,59.89458553,60f9e1a33b5b9499aa625fb9,611e07ecdcc96256ae8d5b80,611e795888f0776fd6296ace,0.85,
,,,,space,,0,301,301,228,1,Y, , , , ,space,2000,2,60f9e1a33b5b9499aa625fb9,001,2021-08-19_16h32.44.241,natb3,2021.2.3,Win32,59.89458553,60f9e1a33b5b9499aa625fb9,611e07ecdcc96256ae8d5b80,611e795888f0776fd6296ace,0.7759,
,,,,space,,0,302,302,49,1,S, , , , ,space,1500,1.5,60f9e1a33b5b9499aa625fb9,001,2021-08-19_16h32.44.241,natb3,2021.2.3,Win32,59.89458553,60f9e1a33b5b9499aa625fb9,611e07ecdcc96256ae8d5b80,611e795888f0776fd6296ace,0.7903,
,,,,space,,0,303,303,94,1,C, , , , ,space,2000,2,60f9e1a33b5b9499aa625fb9,001,2021-08-19_16h32.44.241,natb3,2021.2.3,Win32,59.89458553,60f9e1a33b5b9499aa625fb9,611e07ecdcc96256ae8d5b80,611e795888f0776fd6296ace,0.4773,
,,,,,,0,304,304,288,1,M, , , , ,space,1500,1.5,60f9e1a33b5b9499aa625fb9,001,2021-08-19_16h32.44.241,natb3,2021.2.3,Win32,59.89458553,60f9e1a33b5b9499aa625fb9,611e07ecdcc96256ae8d5b80,611e795888f0776fd6296ace,,
,,,,,,0,305,305,141,1,X,1, ,4,6,,1500,1.5,60f9e1a33b5b9499aa625fb9,001,2021-08-19_16h32.44.241,natb3,2021.2.3,Win32,59.89458553,60f9e1a33b5b9499aa625fb9,611e07ecdcc96256ae8d5b80,611e795888f0776fd6296ace,,
,,,,space,,0,306,306,308,1,G, , , , ,space,1500,1.5,60f9e1a33b5b9499aa625fb9,001,2021-08-19_16h32.44.241,natb3,2021.2.3,Win32,59.89458553,60f9e1a33b5b9499aa625fb9,611e07ecdcc96256ae8d5b80,611e795888f0776fd6296ace,0.5929,
,,,,space,,0,307,307,190,1,P, , , , ,space,2000,2,60f9e1a33b5b9499aa625fb9,001,2021-08-19_16h32.44.241,natb3,2021.2.3,Win32,59.89458553,60f9e1a33b5b9499aa625fb9,611e07ecdcc96256ae8d5b80,611e795888f0776fd6296ace,0.4336,
,,,,,,0,308,308,243,1,X, , , , ,,2500,2.5,60f9e1a33b5b9499aa625fb9,001,2021-08-19_16h32.44.241,natb3,2021.2.3,Win32,59.89458553,60f9e1a33b5b9499aa625fb9,611e07ecdcc96256ae8d5b80,611e795888f0776fd6296ace,,
,,,,space,,0,309,309,167,1,K, , , , ,space,1500,1.5,60f9e1a33b5b9499aa625fb9,001,2021-08-19_16h32.44.241,natb3,2021.2.3,Win32,59.89458553,60f9e1a33b5b9499aa625fb9,611e07ecdcc96256ae8d5b80,611e795888f0776fd6296ace,0.7907,
,,,,space,,0,310,310,36,1,W, , , , ,space,2000,2,60f9e1a33b5b9499aa625fb9,001,2021-08-19_16h32.44.241,natb3,2021.2.3,Win32,59.89458553,60f9e1a33b5b9499aa625fb9,611e07ecdcc96256ae8d5b80,611e795888f0776fd6296ace,0.5572,
,,,,,,0,311,311,311,1,X,1,2,7,3,,2500,2.5,60f9e1a33b5b9499aa625fb9,001,2021-08-19_16h32.44.241,natb3,2021.2.3,Win32,59.89458553,60f9e1a33b5b9499aa625fb9,611e07ecdcc96256ae8d5b80,611e795888f0776fd6296ace,,
,,,,space,,0,312,312,143,1,M, , , , ,space,2500,2.5,60f9e1a33b5b9499aa625fb9,001,2021-08-19_16h32.44.241,natb3,2021.2.3,Win32,59.89458553,60f9e1a33b5b9499aa625fb9,611e07ecdcc96256ae8d5b80,611e795888f0776fd6296ace,0.516,
,,,,space,,0,313,313,62,1,V, , , , ,space,1500,1.5,60f9e1a33b5b9499aa625fb9,001,2021-08-19_16h32.44.241,natb3,2021.2.3,Win32,59.89458553,60f9e1a33b5b9499aa625fb9,611e07ecdcc96256ae8d5b80,611e795888f0776fd6296ace,0.4506,
,,,,space,,0,314,314,202,1,L, , , , ,space,2500,2.5,60f9e1a33b5b9499aa625fb9,001,2021-08-19_16h32.44.241,natb3,2021.2.3,Win32,59.89458553,60f9e1a33b5b9499aa625fb9,611e07ecdcc96256ae8d5b80,611e795888f0776fd6296ace,0.4662,
,,,,,,0,315,315,138,1,X,8,5, ,3,,2000,2,60f9e1a33b5b9499aa625fb9,001,2021-08-19_16h32.44.241,natb3,2021.2.3,Win32,59.89458553,60f9e1a33b5b9499aa625fb9,611e07ecdcc96256ae8d5b80,611e795888f0776fd6296ace,,
,,,,space,,0,316,316,135,1,K, , , , ,space,1500,1.5,60f9e1a33b5b9499aa625fb9,001,2021-08-19_16h32.44.241,natb3,2021.2.3,Win32,59.89458553,60f9e1a33b5b9499aa625fb9,611e07ecdcc96256ae8d5b80,611e795888f0776fd6296ace,0.4514,
,,,,space,,0,317,317,235,1,A, , , , ,space,1500,1.5,60f9e1a33b5b9499aa625fb9,001,2021-08-19_16h32.44.241,natb3,2021.2.3,Win32,59.89458553,60f9e1a33b5b9499aa625fb9,611e07ecdcc96256ae8d5b80,611e795888f0776fd6296ace,0.3956,
,,,,space,,0,318,318,134,1,J, , , , ,space,2000,2,60f9e1a33b5b9499aa625fb9,001,2021-08-19_16h32.44.241,natb3,2021.2.3,Win32,59.89458553,60f9e1a33b5b9499aa625fb9,611e07ecdcc96256ae8d5b80,611e795888f0776fd6296ace,0.3794,
,,,,space,,0,319,319,2,1,E, , , , ,space,2500,2.5,60f9e1a33b5b9499aa625fb9,001,2021-08-19_16h32.44.241,natb3,2021.2.3,Win32,59.89458553,60f9e1a33b5b9499aa625fb9,611e07ecdcc96256ae8d5b80,611e795888f0776fd6296ace,0.5223,
,,,,space,,0,320,320,296,1,Y, , , , ,space,2500,2.5,60f9e1a33b5b9499aa625fb9,001,2021-08-19_16h32.44.241,natb3,2021.2.3,Win32,59.89458553,60f9e1a33b5b9499aa625fb9,611e07ecdcc96256ae8d5b80,611e795888f0776fd6296ace,0.3339,
,,,,space,,0,321,321,108,1,Y, , , , ,space,2500,2.5,60f9e1a33b5b9499aa625fb9,001,2021-08-19_16h32.44.241,natb3,2021.2.3,Win32,59.89458553,60f9e1a33b5b9499aa625fb9,611e07ecdcc96256ae8d5b80,611e795888f0776fd6296ace,0.4336,
,,,,space,,0,322,322,76,1,I, , , , ,space,2000,2,60f9e1a33b5b9499aa625fb9,001,2021-08-19_16h32.44.241,natb3,2021.2.3,Win32,59.89458553,60f9e1a33b5b9499aa625fb9,611e07ecdcc96256ae8d5b80,611e795888f0776fd6296ace,0.4108,
,,,,,,0,323,323,248,1,X, ,1,5, ,,1500,1.5,60f9e1a33b5b9499aa625fb9,001,2021-08-19_16h32.44.241,natb3,2021.2.3,Win32,59.89458553,60f9e1a33b5b9499aa625fb9,611e07ecdcc96256ae8d5b80,611e795888f0776fd6296ace,,
,,,,space,,0,324,324,34,1,Q, , , , ,space,2500,2.5,60f9e1a33b5b9499aa625fb9,001,2021-08-19_16h32.44.241,natb3,2021.2.3,Win32,59.89458553,60f9e1a33b5b9499aa625fb9,611e07ecdcc96256ae8d5b80,611e795888f0776fd6296ace,0.5177,
,,,,space,,0,325,325,326,1,W, , , , ,space,2000,2,60f9e1a33b5b9499aa625fb9,001,2021-08-19_16h32.44.241,natb3,2021.2.3,Win32,59.89458553,60f9e1a33b5b9499aa625fb9,611e07ecdcc96256ae8d5b80,611e795888f0776fd6296ace,0.4842,
,,,,space,,0,326,326,262,1,Y, , , , ,space,2500,2.5,60f9e1a33b5b9499aa625fb9,001,2021-08-19_16h32.44.241,natb3,2021.2.3,Win32,59.89458553,60f9e1a33b5b9499aa625fb9,611e07ecdcc96256ae8d5b80,611e795888f0776fd6296ace,0.6424,
,,,,space,,0,327,327,150,1,T, , , , ,space,2500,2.5,60f9e1a33b5b9499aa625fb9,001,2021-08-19_16h32.44.241,natb3,2021.2.3,Win32,59.89458553,60f9e1a33b5b9499aa625fb9,611e07ecdcc96256ae8d5b80,611e795888f0776fd6296ace,0.6738,
,,,,space,,0,328,328,283,1,C, , , , ,space,1500,1.5,60f9e1a33b5b9499aa625fb9,001,2021-08-19_16h32.44.241,natb3,2021.2.3,Win32,59.89458553,60f9e1a33b5b9499aa625fb9,611e07ecdcc96256ae8d5b80,611e795888f0776fd6296ace,0.5667,
,,,,,,0,329,329,102,1,X, ,6, , ,,1500,1.5,60f9e1a33b5b9499aa625fb9,001,2021-08-19_16h32.44.241,natb3,2021.2.3,Win32,59.89458553,60f9e1a33b5b9499aa625fb9,611e07ecdcc96256ae8d5b80,611e795888f0776fd6296ace,,
,,,,space,,0,330,330,298,1,I, , , , ,space,2000,2,60f9e1a33b5b9499aa625fb9,001,2021-08-19_16h32.44.241,natb3,2021.2.3,Win32,59.89458553,60f9e1a33b5b9499aa625fb9,611e07ecdcc96256ae8d5b80,611e795888f0776fd6296ace,0.4663,
,,,,space,,0,331,331,25,1,Z, , , , ,space,2500,2.5,60f9e1a33b5b9499aa625fb9,001,2021-08-19_16h32.44.241,natb3,2021.2.3,Win32,59.89458553,60f9e1a33b5b9499aa625fb9,611e07ecdcc96256ae8d5b80,611e795888f0776fd6296ace,0.8481,
,,,,space,,0,332,332,20,1,H, , , , ,space,1500,1.5,60f9e1a33b5b9499aa625fb9,001,2021-08-19_16h32.44.241,natb3,2021.2.3,Win32,59.89458553,60f9e1a33b5b9499aa625fb9,611e07ecdcc96256ae8d5b80,611e795888f0776fd6296ace,0.8654,
,,,,space,,0,333,333,209,1,N, , , , ,space,2000,2,60f9e1a33b5b9499aa625fb9,001,2021-08-19_16h32.44.241,natb3,2021.2.3,Win32,59.89458553,60f9e1a33b5b9499aa625fb9,611e07ecdcc96256ae8d5b80,611e795888f0776fd6296ace,0.6795,
,,,,space,,0,334,334,142,1,N, , , , ,space,2500,2.5,60f9e1a33b5b9499aa625fb9,001,2021-08-19_16h32.44.241,natb3,2021.2.3,Win32,59.89458553,60f9e1a33b5b9499aa625fb9,611e07ecdcc96256ae8d5b80,611e795888f0776fd6296ace,0.7607,
,,,,space,,0,335,335,1,1,W, , , , ,space,2000,2,60f9e1a33b5b9499aa625fb9,001,2021-08-19_16h32.44.241,natb3,2021.2.3,Win32,59.89458553,60f9e1a33b5b9499aa625fb9,611e07ecdcc96256ae8d5b80,611e795888f0776fd6296ace,0.6883,
