key_resp_2.keys,key_resp_2.rt,key_resp_3.keys,key_resp_3.rt,key_resp.keys,key_resp.rt,key_resp_4.keys,trials.thisRepN,trials.thisTrialN,trials.thisN,trials.thisIndex,trials.ran,stimulus,distractor1,distractor2,distractor3,distractor4,CorrAns,isi_duration,isi_dur_in_seconds,participant,session,date,expName,psychopyVersion,OS,frameRate,PROLIFIC_PID,STUDY_ID,SESSION_ID,key_resp_4.rt
return,12.6819,space,27.2732,space,0.6144,,0,0,0,100,1,M, , , , ,space,2000,2,60fd7559dfb3bc7f863f47a3,001,2021-08-19_16h48.46.316,natb3,2021.2.3,Win32,39.84222479,60fd7559dfb3bc7f863f47a3,611e07ecdcc96256ae8d5b80,611e7b7cbe3611cac16fbdbf,
,,,,,,,0,1,1,15,1,X, , , , ,,1500,1.5,60fd7559dfb3bc7f863f47a3,001,2021-08-19_16h48.46.316,natb3,2021.2.3,Win32,39.84222479,60fd7559dfb3bc7f863f47a3,611e07ecdcc96256ae8d5b80,611e7b7cbe3611cac16fbdbf,
,,,,space,0.3792,,0,2,2,19,1,G, , , , ,space,1500,1.5,60fd7559dfb3bc7f863f47a3,001,2021-08-19_16h48.46.316,natb3,2021.2.3,Win32,39.84222479,60fd7559dfb3bc7f863f47a3,611e07ecdcc96256ae8d5b80,611e7b7cbe3611cac16fbdbf,
,,,,,,,0,3,3,291,1,X, , , , ,,2000,2,60fd7559dfb3bc7f863f47a3,001,2021-08-19_16h48.46.316,natb3,2021.2.3,Win32,39.84222479,60fd7559dfb3bc7f863f47a3,611e07ecdcc96256ae8d5b80,611e7b7cbe3611cac16fbdbf,
,,,,space,0.4709,,0,4,4,34,1,Q, , , , ,space,2500,2.5,60fd7559dfb3bc7f863f47a3,001,2021-08-19_16h48.46.316,natb3,2021.2.3,Win32,39.84222479,60fd7559dfb3bc7f863f47a3,611e07ecdcc96256ae8d5b80,611e7b7cbe3611cac16fbdbf,
,,,,space,0.3977,,0,5,5,221,1,I, , , , ,space,2500,2.5,60fd7559dfb3bc7f863f47a3,001,2021-08-19_16h48.46.316,natb3,2021.2.3,Win32,39.84222479,60fd7559dfb3bc7f863f47a3,611e07ecdcc96256ae8d5b80,611e7b7cbe3611cac16fbdbf,
,,,,,,,0,6,6,191,1,X,1, ,3,4,,2500,2.5,60fd7559dfb3bc7f863f47a3,001,2021-08-19_16h48.46.316,natb3,2021.2.3,Win32,39.84222479,60fd7559dfb3bc7f863f47a3,611e07ecdcc96256ae8d5b80,611e7b7cbe3611cac16fbdbf,
,,,,,,,0,7,7,287,1,X, ,2, ,9,,2000,2,60fd7559dfb3bc7f863f47a3,001,2021-08-19_16h48.46.316,natb3,2021.2.3,Win32,39.84222479,60fd7559dfb3bc7f863f47a3,611e07ecdcc96256ae8d5b80,611e7b7cbe3611cac16fbdbf,
,,,,space,0.5197,,0,8,8,206,1,V, , , , ,space,2000,2,60fd7559dfb3bc7f863f47a3,001,2021-08-19_16h48.46.316,natb3,2021.2.3,Win32,39.84222479,60fd7559dfb3bc7f863f47a3,611e07ecdcc96256ae8d5b80,611e7b7cbe3611cac16fbdbf,
,,,,space,0.3997,,0,9,9,98,1,X, , , , ,,2500,2.5,60fd7559dfb3bc7f863f47a3,001,2021-08-19_16h48.46.316,natb3,2021.2.3,Win32,39.84222479,60fd7559dfb3bc7f863f47a3,611e07ecdcc96256ae8d5b80,611e7b7cbe3611cac16fbdbf,
,,,,space,0.4204,,0,10,10,28,1,V, , , , ,space,1500,1.5,60fd7559dfb3bc7f863f47a3,001,2021-08-19_16h48.46.316,natb3,2021.2.3,Win32,39.84222479,60fd7559dfb3bc7f863f47a3,611e07ecdcc96256ae8d5b80,611e7b7cbe3611cac16fbdbf,
,,,,,,,0,11,11,211,1,X, , , , ,,2500,2.5,60fd7559dfb3bc7f863f47a3,001,2021-08-19_16h48.46.316,natb3,2021.2.3,Win32,39.84222479,60fd7559dfb3bc7f863f47a3,611e07ecdcc96256ae8d5b80,611e7b7cbe3611cac16fbdbf,
,,,,space,0.4722,,0,12,12,58,1,L, , , , ,space,2000,2,60fd7559dfb3bc7f863f47a3,001,2021-08-19_16h48.46.316,natb3,2021.2.3,Win32,39.84222479,60fd7559dfb3bc7f863f47a3,611e07ecdcc96256ae8d5b80,611e7b7cbe3611cac16fbdbf,
,,,,space,0.497,,0,13,13,193,1,S, , , , ,space,2500,2.5,60fd7559dfb3bc7f863f47a3,001,2021-08-19_16h48.46.316,natb3,2021.2.3,Win32,39.84222479,60fd7559dfb3bc7f863f47a3,611e07ecdcc96256ae8d5b80,611e7b7cbe3611cac16fbdbf,
,,,,space,0.4735,,0,14,14,32,1,M, , , , ,space,1500,1.5,60fd7559dfb3bc7f863f47a3,001,2021-08-19_16h48.46.316,natb3,2021.2.3,Win32,39.84222479,60fd7559dfb3bc7f863f47a3,611e07ecdcc96256ae8d5b80,611e7b7cbe3611cac16fbdbf,
,,,,,,,0,15,15,247,1,Z, , , , ,space,1500,1.5,60fd7559dfb3bc7f863f47a3,001,2021-08-19_16h48.46.316,natb3,2021.2.3,Win32,39.84222479,60fd7559dfb3bc7f863f47a3,611e07ecdcc96256ae8d5b80,611e7b7cbe3611cac16fbdbf,
,,,,space,0.4682,,0,16,16,140,1,B, , , , ,space,2500,2.5,60fd7559dfb3bc7f863f47a3,001,2021-08-19_16h48.46.316,natb3,2021.2.3,Win32,39.84222479,60fd7559dfb3bc7f863f47a3,611e07ecdcc96256ae8d5b80,611e7b7cbe3611cac16fbdbf,
,,,,space,0.4865,,0,17,17,124,1,P, , , , ,space,2000,2,60fd7559dfb3bc7f863f47a3,001,2021-08-19_16h48.46.316,natb3,2021.2.3,Win32,39.84222479,60fd7559dfb3bc7f863f47a3,611e07ecdcc96256ae8d5b80,611e7b7cbe3611cac16fbdbf,
,,,,space,0.4994,,0,18,18,194,1,D, , , , ,space,2000,2,60fd7559dfb3bc7f863f47a3,001,2021-08-19_16h48.46.316,natb3,2021.2.3,Win32,39.84222479,60fd7559dfb3bc7f863f47a3,611e07ecdcc96256ae8d5b80,611e7b7cbe3611cac16fbdbf,
,,,,space,0.5286,,0,19,19,99,1,N, , , , ,space,2500,2.5,60fd7559dfb3bc7f863f47a3,001,2021-08-19_16h48.46.316,natb3,2021.2.3,Win32,39.84222479,60fd7559dfb3bc7f863f47a3,611e07ecdcc96256ae8d5b80,611e7b7cbe3611cac16fbdbf,
,,,,,,,0,20,20,236,1,X,3, ,4,7,,2500,2.5,60fd7559dfb3bc7f863f47a3,001,2021-08-19_16h48.46.316,natb3,2021.2.3,Win32,39.84222479,60fd7559dfb3bc7f863f47a3,611e07ecdcc96256ae8d5b80,611e7b7cbe3611cac16fbdbf,
,,,,space,0.5205,,0,21,21,327,1,E, , , , ,space,1500,1.5,60fd7559dfb3bc7f863f47a3,001,2021-08-19_16h48.46.316,natb3,2021.2.3,Win32,39.84222479,60fd7559dfb3bc7f863f47a3,611e07ecdcc96256ae8d5b80,611e7b7cbe3611cac16fbdbf,
,,,,,,,0,22,22,74,1,X, ,4,3,2,,1500,1.5,60fd7559dfb3bc7f863f47a3,001,2021-08-19_16h48.46.316,natb3,2021.2.3,Win32,39.84222479,60fd7559dfb3bc7f863f47a3,611e07ecdcc96256ae8d5b80,611e7b7cbe3611cac16fbdbf,
,,,,space,0.6863,,0,23,23,72,1,T, , , , ,space,1500,1.5,60fd7559dfb3bc7f863f47a3,001,2021-08-19_16h48.46.316,natb3,2021.2.3,Win32,39.84222479,60fd7559dfb3bc7f863f47a3,611e07ecdcc96256ae8d5b80,611e7b7cbe3611cac16fbdbf,
,,,,space,0.4998,,0,24,24,197,1,G, , , , ,space,2500,2.5,60fd7559dfb3bc7f863f47a3,001,2021-08-19_16h48.46.316,natb3,2021.2.3,Win32,39.84222479,60fd7559dfb3bc7f863f47a3,611e07ecdcc96256ae8d5b80,611e7b7cbe3611cac16fbdbf,
,,,,,,,0,25,25,118,1,X, , , , ,,2000,2,60fd7559dfb3bc7f863f47a3,001,2021-08-19_16h48.46.316,natb3,2021.2.3,Win32,39.84222479,60fd7559dfb3bc7f863f47a3,611e07ecdcc96256ae8d5b80,611e7b7cbe3611cac16fbdbf,
,,,,,,,0,26,26,302,1,X, , , , ,,2000,2,60fd7559dfb3bc7f863f47a3,001,2021-08-19_16h48.46.316,natb3,2021.2.3,Win32,39.84222479,60fd7559dfb3bc7f863f47a3,611e07ecdcc96256ae8d5b80,611e7b7cbe3611cac16fbdbf,
,,,,space,0.4041,,0,27,27,237,1,S, , , , ,space,1500,1.5,60fd7559dfb3bc7f863f47a3,001,2021-08-19_16h48.46.316,natb3,2021.2.3,Win32,39.84222479,60fd7559dfb3bc7f863f47a3,611e07ecdcc96256ae8d5b80,611e7b7cbe3611cac16fbdbf,
,,,,space,0.6466,,0,28,28,3,1,R, , , , ,space,2000,2,60fd7559dfb3bc7f863f47a3,001,2021-08-19_16h48.46.316,natb3,2021.2.3,Win32,39.84222479,60fd7559dfb3bc7f863f47a3,611e07ecdcc96256ae8d5b80,611e7b7cbe3611cac16fbdbf,
,,,,space,0.5757,,0,29,29,9,1,I, , , , ,space,1500,1.5,60fd7559dfb3bc7f863f47a3,001,2021-08-19_16h48.46.316,natb3,2021.2.3,Win32,39.84222479,60fd7559dfb3bc7f863f47a3,611e07ecdcc96256ae8d5b80,611e7b7cbe3611cac16fbdbf,
,,,,space,0.496,,0,30,30,245,1,K, , , , ,space,2000,2,60fd7559dfb3bc7f863f47a3,001,2021-08-19_16h48.46.316,natb3,2021.2.3,Win32,39.84222479,60fd7559dfb3bc7f863f47a3,611e07ecdcc96256ae8d5b80,611e7b7cbe3611cac16fbdbf,
,,,,space,0.4186,,0,31,31,212,1,Q, , , , ,space,2500,2.5,60fd7559dfb3bc7f863f47a3,001,2021-08-19_16h48.46.316,natb3,2021.2.3,Win32,39.84222479,60fd7559dfb3bc7f863f47a3,611e07ecdcc96256ae8d5b80,611e7b7cbe3611cac16fbdbf,
,,,,,,,0,32,32,277,1,X,8,5, ,2,,2000,2,60fd7559dfb3bc7f863f47a3,001,2021-08-19_16h48.46.316,natb3,2021.2.3,Win32,39.84222479,60fd7559dfb3bc7f863f47a3,611e07ecdcc96256ae8d5b80,611e7b7cbe3611cac16fbdbf,
,,,,space,0.415,,0,33,33,256,1,Q, , , , ,space,2000,2,60fd7559dfb3bc7f863f47a3,001,2021-08-19_16h48.46.316,natb3,2021.2.3,Win32,39.84222479,60fd7559dfb3bc7f863f47a3,611e07ecdcc96256ae8d5b80,611e7b7cbe3611cac16fbdbf,
,,,,space,0.4224,,0,34,34,132,1,H, , , , ,space,2500,2.5,60fd7559dfb3bc7f863f47a3,001,2021-08-19_16h48.46.316,natb3,2021.2.3,Win32,39.84222479,60fd7559dfb3bc7f863f47a3,611e07ecdcc96256ae8d5b80,611e7b7cbe3611cac16fbdbf,
,,,,,,,0,35,35,148,1,X, , , , ,,2000,2,60fd7559dfb3bc7f863f47a3,001,2021-08-19_16h48.46.316,natb3,2021.2.3,Win32,39.84222479,60fd7559dfb3bc7f863f47a3,611e07ecdcc96256ae8d5b80,611e7b7cbe3611cac16fbdbf,
,,,,space,0.4512,,0,36,36,17,1,F, , , , ,space,2500,2.5,60fd7559dfb3bc7f863f47a3,001,2021-08-19_16h48.46.316,natb3,2021.2.3,Win32,39.84222479,60fd7559dfb3bc7f863f47a3,611e07ecdcc96256ae8d5b80,611e7b7cbe3611cac16fbdbf,
,,,,space,0.5768,,0,37,37,144,1,Q, , , , ,space,2500,2.5,60fd7559dfb3bc7f863f47a3,001,2021-08-19_16h48.46.316,natb3,2021.2.3,Win32,39.84222479,60fd7559dfb3bc7f863f47a3,611e07ecdcc96256ae8d5b80,611e7b7cbe3611cac16fbdbf,
,,,,space,0.7955,,0,38,38,316,1,Z, , , , ,space,1500,1.5,60fd7559dfb3bc7f863f47a3,001,2021-08-19_16h48.46.316,natb3,2021.2.3,Win32,39.84222479,60fd7559dfb3bc7f863f47a3,611e07ecdcc96256ae8d5b80,611e7b7cbe3611cac16fbdbf,
,,,,space,0.802,,0,39,39,59,1,Z, , , , ,space,2000,2,60fd7559dfb3bc7f863f47a3,001,2021-08-19_16h48.46.316,natb3,2021.2.3,Win32,39.84222479,60fd7559dfb3bc7f863f47a3,611e07ecdcc96256ae8d5b80,611e7b7cbe3611cac16fbdbf,
,,,,,,,0,40,40,175,1,X,7, ,4,2,,1500,1.5,60fd7559dfb3bc7f863f47a3,001,2021-08-19_16h48.46.316,natb3,2021.2.3,Win32,39.84222479,60fd7559dfb3bc7f863f47a3,611e07ecdcc96256ae8d5b80,611e7b7cbe3611cac16fbdbf,
,,,,space,0.4443,,0,41,41,1,1,W, , , , ,space,2000,2,60fd7559dfb3bc7f863f47a3,001,2021-08-19_16h48.46.316,natb3,2021.2.3,Win32,39.84222479,60fd7559dfb3bc7f863f47a3,611e07ecdcc96256ae8d5b80,611e7b7cbe3611cac16fbdbf,
,,,,space,0.4994,,0,42,42,196,1,F, , , , ,space,1500,1.5,60fd7559dfb3bc7f863f47a3,001,2021-08-19_16h48.46.316,natb3,2021.2.3,Win32,39.84222479,60fd7559dfb3bc7f863f47a3,611e07ecdcc96256ae8d5b80,611e7b7cbe3611cac16fbdbf,
,,,,space,0.3774,,0,43,43,192,1,A, , , , ,space,2000,2,60fd7559dfb3bc7f863f47a3,001,2021-08-19_16h48.46.316,natb3,2021.2.3,Win32,39.84222479,60fd7559dfb3bc7f863f47a3,611e07ecdcc96256ae8d5b80,611e7b7cbe3611cac16fbdbf,
,,,,,,,0,44,44,12,1,X, , , , ,,1500,1.5,60fd7559dfb3bc7f863f47a3,001,2021-08-19_16h48.46.316,natb3,2021.2.3,Win32,39.84222479,60fd7559dfb3bc7f863f47a3,611e07ecdcc96256ae8d5b80,611e7b7cbe3611cac16fbdbf,
,,,,space,0.4956,,0,45,45,79,1,P, , , , ,space,2000,2,60fd7559dfb3bc7f863f47a3,001,2021-08-19_16h48.46.316,natb3,2021.2.3,Win32,39.84222479,60fd7559dfb3bc7f863f47a3,611e07ecdcc96256ae8d5b80,611e7b7cbe3611cac16fbdbf,
,,,,space,0.7454,,0,46,46,56,1,J, , , , ,space,1500,1.5,60fd7559dfb3bc7f863f47a3,001,2021-08-19_16h48.46.316,natb3,2021.2.3,Win32,39.84222479,60fd7559dfb3bc7f863f47a3,611e07ecdcc96256ae8d5b80,611e7b7cbe3611cac16fbdbf,
,,,,space,0.5916,,0,47,47,71,1,R, , , , ,space,2500,2.5,60fd7559dfb3bc7f863f47a3,001,2021-08-19_16h48.46.316,natb3,2021.2.3,Win32,39.84222479,60fd7559dfb3bc7f863f47a3,611e07ecdcc96256ae8d5b80,611e7b7cbe3611cac16fbdbf,
,,,,space,0.5996,,0,48,48,80,1,A, , , , ,space,2000,2,60fd7559dfb3bc7f863f47a3,001,2021-08-19_16h48.46.316,natb3,2021.2.3,Win32,39.84222479,60fd7559dfb3bc7f863f47a3,611e07ecdcc96256ae8d5b80,611e7b7cbe3611cac16fbdbf,
,,,,space,0.8257,,0,49,49,154,1,I, , , , ,space,2500,2.5,60fd7559dfb3bc7f863f47a3,001,2021-08-19_16h48.46.316,natb3,2021.2.3,Win32,39.84222479,60fd7559dfb3bc7f863f47a3,611e07ecdcc96256ae8d5b80,611e7b7cbe3611cac16fbdbf,
,,,,space,0.5247,,0,50,50,142,1,N, , , , ,space,2500,2.5,60fd7559dfb3bc7f863f47a3,001,2021-08-19_16h48.46.316,natb3,2021.2.3,Win32,39.84222479,60fd7559dfb3bc7f863f47a3,611e07ecdcc96256ae8d5b80,611e7b7cbe3611cac16fbdbf,
,,,,space,0.6749,,0,51,51,317,1,C, , , , ,space,2000,2,60fd7559dfb3bc7f863f47a3,001,2021-08-19_16h48.46.316,natb3,2021.2.3,Win32,39.84222479,60fd7559dfb3bc7f863f47a3,611e07ecdcc96256ae8d5b80,611e7b7cbe3611cac16fbdbf,
,,,,,,,0,52,52,7,1,X, , , , ,,1500,1.5,60fd7559dfb3bc7f863f47a3,001,2021-08-19_16h48.46.316,natb3,2021.2.3,Win32,39.84222479,60fd7559dfb3bc7f863f47a3,611e07ecdcc96256ae8d5b80,611e7b7cbe3611cac16fbdbf,
,,,,space,0.4378,,0,53,53,25,1,Z, , , , ,space,2500,2.5,60fd7559dfb3bc7f863f47a3,001,2021-08-19_16h48.46.316,natb3,2021.2.3,Win32,39.84222479,60fd7559dfb3bc7f863f47a3,611e07ecdcc96256ae8d5b80,611e7b7cbe3611cac16fbdbf,
,,,,space,0.391,,0,54,54,23,1,X,1, ,5, ,,2000,2,60fd7559dfb3bc7f863f47a3,001,2021-08-19_16h48.46.316,natb3,2021.2.3,Win32,39.84222479,60fd7559dfb3bc7f863f47a3,611e07ecdcc96256ae8d5b80,611e7b7cbe3611cac16fbdbf,
,,,,space,0.4546,,0,55,55,120,1,U, , , , ,space,1500,1.5,60fd7559dfb3bc7f863f47a3,001,2021-08-19_16h48.46.316,natb3,2021.2.3,Win32,39.84222479,60fd7559dfb3bc7f863f47a3,611e07ecdcc96256ae8d5b80,611e7b7cbe3611cac16fbdbf,
,,,,space,0.5197,,0,56,56,321,1,N, , , , ,space,2000,2,60fd7559dfb3bc7f863f47a3,001,2021-08-19_16h48.46.316,natb3,2021.2.3,Win32,39.84222479,60fd7559dfb3bc7f863f47a3,611e07ecdcc96256ae8d5b80,611e7b7cbe3611cac16fbdbf,
,,,,,,,0,57,57,82,1,X,4,6,1,7,,2000,2,60fd7559dfb3bc7f863f47a3,001,2021-08-19_16h48.46.316,natb3,2021.2.3,Win32,39.84222479,60fd7559dfb3bc7f863f47a3,611e07ecdcc96256ae8d5b80,611e7b7cbe3611cac16fbdbf,
,,,,,,,0,58,58,268,1,X,6, ,3, ,,2500,2.5,60fd7559dfb3bc7f863f47a3,001,2021-08-19_16h48.46.316,natb3,2021.2.3,Win32,39.84222479,60fd7559dfb3bc7f863f47a3,611e07ecdcc96256ae8d5b80,611e7b7cbe3611cac16fbdbf,
,,,,,,,0,59,59,39,1,X,6,2, , ,,1500,1.5,60fd7559dfb3bc7f863f47a3,001,2021-08-19_16h48.46.316,natb3,2021.2.3,Win32,39.84222479,60fd7559dfb3bc7f863f47a3,611e07ecdcc96256ae8d5b80,611e7b7cbe3611cac16fbdbf,
,,,,space,0.5451,,0,60,60,41,1,Y, , , , ,space,2500,2.5,60fd7559dfb3bc7f863f47a3,001,2021-08-19_16h48.46.316,natb3,2021.2.3,Win32,39.84222479,60fd7559dfb3bc7f863f47a3,611e07ecdcc96256ae8d5b80,611e7b7cbe3611cac16fbdbf,
,,,,space,0.4519,,0,61,61,227,1,T, , , , ,space,1500,1.5,60fd7559dfb3bc7f863f47a3,001,2021-08-19_16h48.46.316,natb3,2021.2.3,Win32,39.84222479,60fd7559dfb3bc7f863f47a3,611e07ecdcc96256ae8d5b80,611e7b7cbe3611cac16fbdbf,
,,,,space,0.4491,,0,62,62,201,1,K, , , , ,space,1500,1.5,60fd7559dfb3bc7f863f47a3,001,2021-08-19_16h48.46.316,natb3,2021.2.3,Win32,39.84222479,60fd7559dfb3bc7f863f47a3,611e07ecdcc96256ae8d5b80,611e7b7cbe3611cac16fbdbf,
,,,,,,,0,63,63,200,1,X,7, ,5,3,,1500,1.5,60fd7559dfb3bc7f863f47a3,001,2021-08-19_16h48.46.316,natb3,2021.2.3,Win32,39.84222479,60fd7559dfb3bc7f863f47a3,611e07ecdcc96256ae8d5b80,611e7b7cbe3611cac16fbdbf,
,,,,,,,0,64,64,325,1,X, , , , ,,2500,2.5,60fd7559dfb3bc7f863f47a3,001,2021-08-19_16h48.46.316,natb3,2021.2.3,Win32,39.84222479,60fd7559dfb3bc7f863f47a3,611e07ecdcc96256ae8d5b80,611e7b7cbe3611cac16fbdbf,
,,,,,,,0,65,65,315,1,X, , , , ,,2500,2.5,60fd7559dfb3bc7f863f47a3,001,2021-08-19_16h48.46.316,natb3,2021.2.3,Win32,39.84222479,60fd7559dfb3bc7f863f47a3,611e07ecdcc96256ae8d5b80,611e7b7cbe3611cac16fbdbf,
,,,,space,0.5547,,0,66,66,147,1,E, , , , ,space,2000,2,60fd7559dfb3bc7f863f47a3,001,2021-08-19_16h48.46.316,natb3,2021.2.3,Win32,39.84222479,60fd7559dfb3bc7f863f47a3,611e07ecdcc96256ae8d5b80,611e7b7cbe3611cac16fbdbf,
,,,,space,0.4999,,0,67,67,222,1,O, , , , ,space,2000,2,60fd7559dfb3bc7f863f47a3,001,2021-08-19_16h48.46.316,natb3,2021.2.3,Win32,39.84222479,60fd7559dfb3bc7f863f47a3,611e07ecdcc96256ae8d5b80,611e7b7cbe3611cac16fbdbf,
,,,,space,0.4009,,0,68,68,240,1,F, , , , ,space,2500,2.5,60fd7559dfb3bc7f863f47a3,001,2021-08-19_16h48.46.316,natb3,2021.2.3,Win32,39.84222479,60fd7559dfb3bc7f863f47a3,611e07ecdcc96256ae8d5b80,611e7b7cbe3611cac16fbdbf,
,,,,space,0.3988,,0,69,69,249,1,C, , , , ,space,2000,2,60fd7559dfb3bc7f863f47a3,001,2021-08-19_16h48.46.316,natb3,2021.2.3,Win32,39.84222479,60fd7559dfb3bc7f863f47a3,611e07ecdcc96256ae8d5b80,611e7b7cbe3611cac16fbdbf,
,,,,space,0.4266,,0,70,70,22,1,K, , , , ,space,2000,2,60fd7559dfb3bc7f863f47a3,001,2021-08-19_16h48.46.316,natb3,2021.2.3,Win32,39.84222479,60fd7559dfb3bc7f863f47a3,611e07ecdcc96256ae8d5b80,611e7b7cbe3611cac16fbdbf,
,,,,space,0.3992,,0,71,71,276,1,H, , , , ,space,2000,2,60fd7559dfb3bc7f863f47a3,001,2021-08-19_16h48.46.316,natb3,2021.2.3,Win32,39.84222479,60fd7559dfb3bc7f863f47a3,611e07ecdcc96256ae8d5b80,611e7b7cbe3611cac16fbdbf,
,,,,space,0.4433,,0,72,72,16,1,D, , , , ,space,1500,1.5,60fd7559dfb3bc7f863f47a3,001,2021-08-19_16h48.46.316,natb3,2021.2.3,Win32,39.84222479,60fd7559dfb3bc7f863f47a3,611e07ecdcc96256ae8d5b80,611e7b7cbe3611cac16fbdbf,
,,,,space,0.3733,,0,73,73,33,1,X, , , , ,,1500,1.5,60fd7559dfb3bc7f863f47a3,001,2021-08-19_16h48.46.316,natb3,2021.2.3,Win32,39.84222479,60fd7559dfb3bc7f863f47a3,611e07ecdcc96256ae8d5b80,611e7b7cbe3611cac16fbdbf,
,,,,space,0.4019,,0,74,74,143,1,M, , , , ,space,2500,2.5,60fd7559dfb3bc7f863f47a3,001,2021-08-19_16h48.46.316,natb3,2021.2.3,Win32,39.84222479,60fd7559dfb3bc7f863f47a3,611e07ecdcc96256ae8d5b80,611e7b7cbe3611cac16fbdbf,
,,,,,,,0,75,75,195,1,X, , , , ,,1500,1.5,60fd7559dfb3bc7f863f47a3,001,2021-08-19_16h48.46.316,natb3,2021.2.3,Win32,39.84222479,60fd7559dfb3bc7f863f47a3,611e07ecdcc96256ae8d5b80,611e7b7cbe3611cac16fbdbf,
,,,,space,0.4771,,0,76,76,300,1,O, , , , ,space,2500,2.5,60fd7559dfb3bc7f863f47a3,001,2021-08-19_16h48.46.316,natb3,2021.2.3,Win32,39.84222479,60fd7559dfb3bc7f863f47a3,611e07ecdcc96256ae8d5b80,611e7b7cbe3611cac16fbdbf,
,,,,space,0.495,,0,77,77,21,1,J, , , , ,space,1500,1.5,60fd7559dfb3bc7f863f47a3,001,2021-08-19_16h48.46.316,natb3,2021.2.3,Win32,39.84222479,60fd7559dfb3bc7f863f47a3,611e07ecdcc96256ae8d5b80,611e7b7cbe3611cac16fbdbf,
,,,,space,0.4975,,0,78,78,2,1,E, , , , ,space,2500,2.5,60fd7559dfb3bc7f863f47a3,001,2021-08-19_16h48.46.316,natb3,2021.2.3,Win32,39.84222479,60fd7559dfb3bc7f863f47a3,611e07ecdcc96256ae8d5b80,611e7b7cbe3611cac16fbdbf,
,,,,space,0.5195,,0,79,79,296,1,Y, , , , ,space,2500,2.5,60fd7559dfb3bc7f863f47a3,001,2021-08-19_16h48.46.316,natb3,2021.2.3,Win32,39.84222479,60fd7559dfb3bc7f863f47a3,611e07ecdcc96256ae8d5b80,611e7b7cbe3611cac16fbdbf,
,,,,space,0.4486,,0,80,80,119,1,Y, , , , ,space,2500,2.5,60fd7559dfb3bc7f863f47a3,001,2021-08-19_16h48.46.316,natb3,2021.2.3,Win32,39.84222479,60fd7559dfb3bc7f863f47a3,611e07ecdcc96256ae8d5b80,611e7b7cbe3611cac16fbdbf,
,,,,,,,0,81,81,171,1,X, , , , ,,1500,1.5,60fd7559dfb3bc7f863f47a3,001,2021-08-19_16h48.46.316,natb3,2021.2.3,Win32,39.84222479,60fd7559dfb3bc7f863f47a3,611e07ecdcc96256ae8d5b80,611e7b7cbe3611cac16fbdbf,
,,,,space,0.4723,,0,82,82,94,1,C, , , , ,space,2000,2,60fd7559dfb3bc7f863f47a3,001,2021-08-19_16h48.46.316,natb3,2021.2.3,Win32,39.84222479,60fd7559dfb3bc7f863f47a3,611e07ecdcc96256ae8d5b80,611e7b7cbe3611cac16fbdbf,
,,,,space,0.5502,,0,83,83,81,1,S, , , , ,space,2000,2,60fd7559dfb3bc7f863f47a3,001,2021-08-19_16h48.46.316,natb3,2021.2.3,Win32,39.84222479,60fd7559dfb3bc7f863f47a3,611e07ecdcc96256ae8d5b80,611e7b7cbe3611cac16fbdbf,
,,,,space,0.5481,,0,84,84,13,1,A, , , , ,space,2000,2,60fd7559dfb3bc7f863f47a3,001,2021-08-19_16h48.46.316,natb3,2021.2.3,Win32,39.84222479,60fd7559dfb3bc7f863f47a3,611e07ecdcc96256ae8d5b80,611e7b7cbe3611cac16fbdbf,
,,,,space,0.4692,,0,85,85,244,1,J, , , , ,space,1500,1.5,60fd7559dfb3bc7f863f47a3,001,2021-08-19_16h48.46.316,natb3,2021.2.3,Win32,39.84222479,60fd7559dfb3bc7f863f47a3,611e07ecdcc96256ae8d5b80,611e7b7cbe3611cac16fbdbf,
,,,,space,0.4844,,0,86,86,47,1,P, , , , ,space,2000,2,60fd7559dfb3bc7f863f47a3,001,2021-08-19_16h48.46.316,natb3,2021.2.3,Win32,39.84222479,60fd7559dfb3bc7f863f47a3,611e07ecdcc96256ae8d5b80,611e7b7cbe3611cac16fbdbf,
,,,,space,0.4457,,0,87,87,275,1,G, , , , ,space,1500,1.5,60fd7559dfb3bc7f863f47a3,001,2021-08-19_16h48.46.316,natb3,2021.2.3,Win32,39.84222479,60fd7559dfb3bc7f863f47a3,611e07ecdcc96256ae8d5b80,611e7b7cbe3611cac16fbdbf,
,,,,,,,0,88,88,102,1,X, ,6, , ,,1500,1.5,60fd7559dfb3bc7f863f47a3,001,2021-08-19_16h48.46.316,natb3,2021.2.3,Win32,39.84222479,60fd7559dfb3bc7f863f47a3,611e07ecdcc96256ae8d5b80,611e7b7cbe3611cac16fbdbf,
,,,,,,,0,89,89,166,1,X, , , , ,,2000,2,60fd7559dfb3bc7f863f47a3,001,2021-08-19_16h48.46.316,natb3,2021.2.3,Win32,39.84222479,60fd7559dfb3bc7f863f47a3,611e07ecdcc96256ae8d5b80,611e7b7cbe3611cac16fbdbf,
,,,,space,0.6979,,0,90,90,254,1,M, , , , ,space,1500,1.5,60fd7559dfb3bc7f863f47a3,001,2021-08-19_16h48.46.316,natb3,2021.2.3,Win32,39.84222479,60fd7559dfb3bc7f863f47a3,611e07ecdcc96256ae8d5b80,611e7b7cbe3611cac16fbdbf,
,,,,space,0.5439,,0,91,91,332,1,U, , , , ,space,2000,2,60fd7559dfb3bc7f863f47a3,001,2021-08-19_16h48.46.316,natb3,2021.2.3,Win32,39.84222479,60fd7559dfb3bc7f863f47a3,611e07ecdcc96256ae8d5b80,611e7b7cbe3611cac16fbdbf,
,,,,,,,0,92,92,51,1,X,7,5,8, ,,1500,1.5,60fd7559dfb3bc7f863f47a3,001,2021-08-19_16h48.46.316,natb3,2021.2.3,Win32,39.84222479,60fd7559dfb3bc7f863f47a3,611e07ecdcc96256ae8d5b80,611e7b7cbe3611cac16fbdbf,
,,,,space,0.6656,,0,93,93,257,1,W, , , , ,space,2000,2,60fd7559dfb3bc7f863f47a3,001,2021-08-19_16h48.46.316,natb3,2021.2.3,Win32,39.84222479,60fd7559dfb3bc7f863f47a3,611e07ecdcc96256ae8d5b80,611e7b7cbe3611cac16fbdbf,
,,,,space,0.5978,,0,94,94,189,1,O, , , , ,space,1500,1.5,60fd7559dfb3bc7f863f47a3,001,2021-08-19_16h48.46.316,natb3,2021.2.3,Win32,39.84222479,60fd7559dfb3bc7f863f47a3,611e07ecdcc96256ae8d5b80,611e7b7cbe3611cac16fbdbf,
,,,,,,,0,95,95,152,1,U, , , , ,space,2000,2,60fd7559dfb3bc7f863f47a3,001,2021-08-19_16h48.46.316,natb3,2021.2.3,Win32,39.84222479,60fd7559dfb3bc7f863f47a3,611e07ecdcc96256ae8d5b80,611e7b7cbe3611cac16fbdbf,
,,,,,,,0,96,96,24,1,L, , , , ,space,2500,2.5,60fd7559dfb3bc7f863f47a3,001,2021-08-19_16h48.46.316,natb3,2021.2.3,Win32,39.84222479,60fd7559dfb3bc7f863f47a3,611e07ecdcc96256ae8d5b80,611e7b7cbe3611cac16fbdbf,
,,,,,,,0,97,97,40,1,T, , , , ,space,1500,1.5,60fd7559dfb3bc7f863f47a3,001,2021-08-19_16h48.46.316,natb3,2021.2.3,Win32,39.84222479,60fd7559dfb3bc7f863f47a3,611e07ecdcc96256ae8d5b80,611e7b7cbe3611cac16fbdbf,
,,,,,,,0,98,98,158,1,X, , , , ,,1500,1.5,60fd7559dfb3bc7f863f47a3,001,2021-08-19_16h48.46.316,natb3,2021.2.3,Win32,39.84222479,60fd7559dfb3bc7f863f47a3,611e07ecdcc96256ae8d5b80,611e7b7cbe3611cac16fbdbf,
,,,,,,,0,99,99,146,1,W, , , , ,space,1500,1.5,60fd7559dfb3bc7f863f47a3,001,2021-08-19_16h48.46.316,natb3,2021.2.3,Win32,39.84222479,60fd7559dfb3bc7f863f47a3,611e07ecdcc96256ae8d5b80,611e7b7cbe3611cac16fbdbf,
,,,,,,,0,100,100,331,1,Y, , , , ,space,2500,2.5,60fd7559dfb3bc7f863f47a3,001,2021-08-19_16h48.46.316,natb3,2021.2.3,Win32,39.84222479,60fd7559dfb3bc7f863f47a3,611e07ecdcc96256ae8d5b80,611e7b7cbe3611cac16fbdbf,
,,,,,,,0,101,101,68,1,W, , , , ,space,2500,2.5,60fd7559dfb3bc7f863f47a3,001,2021-08-19_16h48.46.316,natb3,2021.2.3,Win32,39.84222479,60fd7559dfb3bc7f863f47a3,611e07ecdcc96256ae8d5b80,611e7b7cbe3611cac16fbdbf,
,,,,,,,0,102,102,5,1,T, , , , ,space,2000,2,60fd7559dfb3bc7f863f47a3,001,2021-08-19_16h48.46.316,natb3,2021.2.3,Win32,39.84222479,60fd7559dfb3bc7f863f47a3,611e07ecdcc96256ae8d5b80,611e7b7cbe3611cac16fbdbf,
,,,,,,,0,103,103,230,1,U, , , , ,space,1500,1.5,60fd7559dfb3bc7f863f47a3,001,2021-08-19_16h48.46.316,natb3,2021.2.3,Win32,39.84222479,60fd7559dfb3bc7f863f47a3,611e07ecdcc96256ae8d5b80,611e7b7cbe3611cac16fbdbf,
,,,,,,,0,104,104,242,1,H, , , , ,space,2500,2.5,60fd7559dfb3bc7f863f47a3,001,2021-08-19_16h48.46.316,natb3,2021.2.3,Win32,39.84222479,60fd7559dfb3bc7f863f47a3,611e07ecdcc96256ae8d5b80,611e7b7cbe3611cac16fbdbf,
,,,,,,,0,105,105,231,1,I, , , , ,space,2500,2.5,60fd7559dfb3bc7f863f47a3,001,2021-08-19_16h48.46.316,natb3,2021.2.3,Win32,39.84222479,60fd7559dfb3bc7f863f47a3,611e07ecdcc96256ae8d5b80,611e7b7cbe3611cac16fbdbf,
,,,,,,,0,106,106,65,1,M, , , , ,space,1500,1.5,60fd7559dfb3bc7f863f47a3,001,2021-08-19_16h48.46.316,natb3,2021.2.3,Win32,39.84222479,60fd7559dfb3bc7f863f47a3,611e07ecdcc96256ae8d5b80,611e7b7cbe3611cac16fbdbf,
,,,,,,,0,107,107,318,1,X, , , , ,,1500,1.5,60fd7559dfb3bc7f863f47a3,001,2021-08-19_16h48.46.316,natb3,2021.2.3,Win32,39.84222479,60fd7559dfb3bc7f863f47a3,611e07ecdcc96256ae8d5b80,611e7b7cbe3611cac16fbdbf,
,,,,,,,0,108,108,234,1,P, , , , ,space,2000,2,60fd7559dfb3bc7f863f47a3,001,2021-08-19_16h48.46.316,natb3,2021.2.3,Win32,39.84222479,60fd7559dfb3bc7f863f47a3,611e07ecdcc96256ae8d5b80,611e7b7cbe3611cac16fbdbf,
,,,,,,,0,109,109,232,1,O, , , , ,space,2500,2.5,60fd7559dfb3bc7f863f47a3,001,2021-08-19_16h48.46.316,natb3,2021.2.3,Win32,39.84222479,60fd7559dfb3bc7f863f47a3,611e07ecdcc96256ae8d5b80,611e7b7cbe3611cac16fbdbf,
,,,,,,,0,110,110,282,1,X, , , , ,,2500,2.5,60fd7559dfb3bc7f863f47a3,001,2021-08-19_16h48.46.316,natb3,2021.2.3,Win32,39.84222479,60fd7559dfb3bc7f863f47a3,611e07ecdcc96256ae8d5b80,611e7b7cbe3611cac16fbdbf,
,,,,,,,0,111,111,235,1,A, , , , ,space,1500,1.5,60fd7559dfb3bc7f863f47a3,001,2021-08-19_16h48.46.316,natb3,2021.2.3,Win32,39.84222479,60fd7559dfb3bc7f863f47a3,611e07ecdcc96256ae8d5b80,611e7b7cbe3611cac16fbdbf,
,,,,,,,0,112,112,162,1,X,1,6, ,2,,1500,1.5,60fd7559dfb3bc7f863f47a3,001,2021-08-19_16h48.46.316,natb3,2021.2.3,Win32,39.84222479,60fd7559dfb3bc7f863f47a3,611e07ecdcc96256ae8d5b80,611e7b7cbe3611cac16fbdbf,
,,,,,,,0,113,113,67,1,Q, , , , ,space,2000,2,60fd7559dfb3bc7f863f47a3,001,2021-08-19_16h48.46.316,natb3,2021.2.3,Win32,39.84222479,60fd7559dfb3bc7f863f47a3,611e07ecdcc96256ae8d5b80,611e7b7cbe3611cac16fbdbf,
,,,,,,,0,114,114,199,1,J, , , , ,space,2500,2.5,60fd7559dfb3bc7f863f47a3,001,2021-08-19_16h48.46.316,natb3,2021.2.3,Win32,39.84222479,60fd7559dfb3bc7f863f47a3,611e07ecdcc96256ae8d5b80,611e7b7cbe3611cac16fbdbf,
,,,,,,,0,115,115,180,1,W, , , , ,space,2000,2,60fd7559dfb3bc7f863f47a3,001,2021-08-19_16h48.46.316,natb3,2021.2.3,Win32,39.84222479,60fd7559dfb3bc7f863f47a3,611e07ecdcc96256ae8d5b80,611e7b7cbe3611cac16fbdbf,
,,,,,,,0,116,116,128,1,D, , , , ,space,2500,2.5,60fd7559dfb3bc7f863f47a3,001,2021-08-19_16h48.46.316,natb3,2021.2.3,Win32,39.84222479,60fd7559dfb3bc7f863f47a3,611e07ecdcc96256ae8d5b80,611e7b7cbe3611cac16fbdbf,
,,,,,,,0,117,117,114,1,E, , , , ,space,2000,2,60fd7559dfb3bc7f863f47a3,001,2021-08-19_16h48.46.316,natb3,2021.2.3,Win32,39.84222479,60fd7559dfb3bc7f863f47a3,611e07ecdcc96256ae8d5b80,611e7b7cbe3611cac16fbdbf,
,,,,,,,0,118,118,46,1,X, , , , ,,2000,2,60fd7559dfb3bc7f863f47a3,001,2021-08-19_16h48.46.316,natb3,2021.2.3,Win32,39.84222479,60fd7559dfb3bc7f863f47a3,611e07ecdcc96256ae8d5b80,611e7b7cbe3611cac16fbdbf,
,,,,,,,0,119,119,290,1,W, , , , ,space,1500,1.5,60fd7559dfb3bc7f863f47a3,001,2021-08-19_16h48.46.316,natb3,2021.2.3,Win32,39.84222479,60fd7559dfb3bc7f863f47a3,611e07ecdcc96256ae8d5b80,611e7b7cbe3611cac16fbdbf,
,,,,,,,0,120,120,108,1,Y, , , , ,space,2500,2.5,60fd7559dfb3bc7f863f47a3,001,2021-08-19_16h48.46.316,natb3,2021.2.3,Win32,39.84222479,60fd7559dfb3bc7f863f47a3,611e07ecdcc96256ae8d5b80,611e7b7cbe3611cac16fbdbf,
,,,,,,,0,121,121,203,1,X, , , , ,,2500,2.5,60fd7559dfb3bc7f863f47a3,001,2021-08-19_16h48.46.316,natb3,2021.2.3,Win32,39.84222479,60fd7559dfb3bc7f863f47a3,611e07ecdcc96256ae8d5b80,611e7b7cbe3611cac16fbdbf,
,,,,,,,0,122,122,304,1,S, , , , ,space,2000,2,60fd7559dfb3bc7f863f47a3,001,2021-08-19_16h48.46.316,natb3,2021.2.3,Win32,39.84222479,60fd7559dfb3bc7f863f47a3,611e07ecdcc96256ae8d5b80,611e7b7cbe3611cac16fbdbf,
,,,,,,,0,123,123,18,1,X, ,2,5,8,,2500,2.5,60fd7559dfb3bc7f863f47a3,001,2021-08-19_16h48.46.316,natb3,2021.2.3,Win32,39.84222479,60fd7559dfb3bc7f863f47a3,611e07ecdcc96256ae8d5b80,611e7b7cbe3611cac16fbdbf,
,,,,,,,0,124,124,30,1,N, , , , ,space,2500,2.5,60fd7559dfb3bc7f863f47a3,001,2021-08-19_16h48.46.316,natb3,2021.2.3,Win32,39.84222479,60fd7559dfb3bc7f863f47a3,611e07ecdcc96256ae8d5b80,611e7b7cbe3611cac16fbdbf,
,,,,,,,0,125,125,238,1,D, , , , ,space,1500,1.5,60fd7559dfb3bc7f863f47a3,001,2021-08-19_16h48.46.316,natb3,2021.2.3,Win32,39.84222479,60fd7559dfb3bc7f863f47a3,611e07ecdcc96256ae8d5b80,611e7b7cbe3611cac16fbdbf,
,,,,,,,0,126,126,107,1,X,9,3, ,2,,2000,2,60fd7559dfb3bc7f863f47a3,001,2021-08-19_16h48.46.316,natb3,2021.2.3,Win32,39.84222479,60fd7559dfb3bc7f863f47a3,611e07ecdcc96256ae8d5b80,611e7b7cbe3611cac16fbdbf,
,,,,,,,0,127,127,110,1,I, , , , ,space,1500,1.5,60fd7559dfb3bc7f863f47a3,001,2021-08-19_16h48.46.316,natb3,2021.2.3,Win32,39.84222479,60fd7559dfb3bc7f863f47a3,611e07ecdcc96256ae8d5b80,611e7b7cbe3611cac16fbdbf,
,,,,,,,0,128,128,299,1,X, , , , ,,2500,2.5,60fd7559dfb3bc7f863f47a3,001,2021-08-19_16h48.46.316,natb3,2021.2.3,Win32,39.84222479,60fd7559dfb3bc7f863f47a3,611e07ecdcc96256ae8d5b80,611e7b7cbe3611cac16fbdbf,
,,,,,,,0,129,129,307,1,F, , , , ,space,2500,2.5,60fd7559dfb3bc7f863f47a3,001,2021-08-19_16h48.46.316,natb3,2021.2.3,Win32,39.84222479,60fd7559dfb3bc7f863f47a3,611e07ecdcc96256ae8d5b80,611e7b7cbe3611cac16fbdbf,
,,,,,,,0,130,130,309,1,H, , , , ,space,2500,2.5,60fd7559dfb3bc7f863f47a3,001,2021-08-19_16h48.46.316,natb3,2021.2.3,Win32,39.84222479,60fd7559dfb3bc7f863f47a3,611e07ecdcc96256ae8d5b80,611e7b7cbe3611cac16fbdbf,
,,,,,,,0,131,131,263,1,X,4, ,6, ,,1500,1.5,60fd7559dfb3bc7f863f47a3,001,2021-08-19_16h48.46.316,natb3,2021.2.3,Win32,39.84222479,60fd7559dfb3bc7f863f47a3,611e07ecdcc96256ae8d5b80,611e7b7cbe3611cac16fbdbf,
,,,,,,,0,132,132,320,1,B, , , , ,space,1500,1.5,60fd7559dfb3bc7f863f47a3,001,2021-08-19_16h48.46.316,natb3,2021.2.3,Win32,39.84222479,60fd7559dfb3bc7f863f47a3,611e07ecdcc96256ae8d5b80,611e7b7cbe3611cac16fbdbf,
,,,,,,,0,133,133,220,1,U, , , , ,space,2500,2.5,60fd7559dfb3bc7f863f47a3,001,2021-08-19_16h48.46.316,natb3,2021.2.3,Win32,39.84222479,60fd7559dfb3bc7f863f47a3,611e07ecdcc96256ae8d5b80,611e7b7cbe3611cac16fbdbf,
,,,,,,,0,134,134,280,1,L, , , , ,space,1500,1.5,60fd7559dfb3bc7f863f47a3,001,2021-08-19_16h48.46.316,natb3,2021.2.3,Win32,39.84222479,60fd7559dfb3bc7f863f47a3,611e07ecdcc96256ae8d5b80,611e7b7cbe3611cac16fbdbf,
,,,,,,,0,135,135,258,1,E, , , , ,space,1500,1.5,60fd7559dfb3bc7f863f47a3,001,2021-08-19_16h48.46.316,natb3,2021.2.3,Win32,39.84222479,60fd7559dfb3bc7f863f47a3,611e07ecdcc96256ae8d5b80,611e7b7cbe3611cac16fbdbf,
,,,,,,,0,136,136,183,1,R, , , , ,space,1500,1.5,60fd7559dfb3bc7f863f47a3,001,2021-08-19_16h48.46.316,natb3,2021.2.3,Win32,39.84222479,60fd7559dfb3bc7f863f47a3,611e07ecdcc96256ae8d5b80,611e7b7cbe3611cac16fbdbf,
,,,,,,,0,137,137,169,1,L, , , , ,space,2500,2.5,60fd7559dfb3bc7f863f47a3,001,2021-08-19_16h48.46.316,natb3,2021.2.3,Win32,39.84222479,60fd7559dfb3bc7f863f47a3,611e07ecdcc96256ae8d5b80,611e7b7cbe3611cac16fbdbf,
,,,,,,,0,138,138,8,1,U, , , , ,space,1500,1.5,60fd7559dfb3bc7f863f47a3,001,2021-08-19_16h48.46.316,natb3,2021.2.3,Win32,39.84222479,60fd7559dfb3bc7f863f47a3,611e07ecdcc96256ae8d5b80,611e7b7cbe3611cac16fbdbf,
,,,,,,,0,139,139,145,1,X, , , , ,,2000,2,60fd7559dfb3bc7f863f47a3,001,2021-08-19_16h48.46.316,natb3,2021.2.3,Win32,39.84222479,60fd7559dfb3bc7f863f47a3,611e07ecdcc96256ae8d5b80,611e7b7cbe3611cac16fbdbf,
,,,,,,,0,140,140,70,1,E, , , , ,space,2500,2.5,60fd7559dfb3bc7f863f47a3,001,2021-08-19_16h48.46.316,natb3,2021.2.3,Win32,39.84222479,60fd7559dfb3bc7f863f47a3,611e07ecdcc96256ae8d5b80,611e7b7cbe3611cac16fbdbf,
,,,,,,,0,141,141,62,1,V, , , , ,space,1500,1.5,60fd7559dfb3bc7f863f47a3,001,2021-08-19_16h48.46.316,natb3,2021.2.3,Win32,39.84222479,60fd7559dfb3bc7f863f47a3,611e07ecdcc96256ae8d5b80,611e7b7cbe3611cac16fbdbf,
,,,,,,,0,142,142,269,1,A, , , , ,space,2500,2.5,60fd7559dfb3bc7f863f47a3,001,2021-08-19_16h48.46.316,natb3,2021.2.3,Win32,39.84222479,60fd7559dfb3bc7f863f47a3,611e07ecdcc96256ae8d5b80,611e7b7cbe3611cac16fbdbf,
,,,,,,,0,143,143,243,1,X, , , , ,,2500,2.5,60fd7559dfb3bc7f863f47a3,001,2021-08-19_16h48.46.316,natb3,2021.2.3,Win32,39.84222479,60fd7559dfb3bc7f863f47a3,611e07ecdcc96256ae8d5b80,611e7b7cbe3611cac16fbdbf,
,,,,,,,0,144,144,313,1,X, , , , ,,2500,2.5,60fd7559dfb3bc7f863f47a3,001,2021-08-19_16h48.46.316,natb3,2021.2.3,Win32,39.84222479,60fd7559dfb3bc7f863f47a3,611e07ecdcc96256ae8d5b80,611e7b7cbe3611cac16fbdbf,
,,,,,,,0,145,145,57,1,K, , , , ,space,2500,2.5,60fd7559dfb3bc7f863f47a3,001,2021-08-19_16h48.46.316,natb3,2021.2.3,Win32,39.84222479,60fd7559dfb3bc7f863f47a3,611e07ecdcc96256ae8d5b80,611e7b7cbe3611cac16fbdbf,
,,,,,,,0,146,146,219,1,Y, , , , ,space,2000,2,60fd7559dfb3bc7f863f47a3,001,2021-08-19_16h48.46.316,natb3,2021.2.3,Win32,39.84222479,60fd7559dfb3bc7f863f47a3,611e07ecdcc96256ae8d5b80,611e7b7cbe3611cac16fbdbf,
,,,,,,,0,147,147,215,1,E, , , , ,space,2500,2.5,60fd7559dfb3bc7f863f47a3,001,2021-08-19_16h48.46.316,natb3,2021.2.3,Win32,39.84222479,60fd7559dfb3bc7f863f47a3,611e07ecdcc96256ae8d5b80,611e7b7cbe3611cac16fbdbf,
,,,,,,,0,148,148,248,1,X, ,1,5, ,,1500,1.5,60fd7559dfb3bc7f863f47a3,001,2021-08-19_16h48.46.316,natb3,2021.2.3,Win32,39.84222479,60fd7559dfb3bc7f863f47a3,611e07ecdcc96256ae8d5b80,611e7b7cbe3611cac16fbdbf,
,,,,,,,0,149,149,90,1,K, , , , ,space,2000,2,60fd7559dfb3bc7f863f47a3,001,2021-08-19_16h48.46.316,natb3,2021.2.3,Win32,39.84222479,60fd7559dfb3bc7f863f47a3,611e07ecdcc96256ae8d5b80,611e7b7cbe3611cac16fbdbf,
,,,,,,,0,150,150,176,1,N, , , , ,space,1500,1.5,60fd7559dfb3bc7f863f47a3,001,2021-08-19_16h48.46.316,natb3,2021.2.3,Win32,39.84222479,60fd7559dfb3bc7f863f47a3,611e07ecdcc96256ae8d5b80,611e7b7cbe3611cac16fbdbf,
,,,,,,,0,151,151,225,1,E, , , , ,space,2000,2,60fd7559dfb3bc7f863f47a3,001,2021-08-19_16h48.46.316,natb3,2021.2.3,Win32,39.84222479,60fd7559dfb3bc7f863f47a3,611e07ecdcc96256ae8d5b80,611e7b7cbe3611cac16fbdbf,
,,,,,,,0,152,152,289,1,Q, , , , ,space,2000,2,60fd7559dfb3bc7f863f47a3,001,2021-08-19_16h48.46.316,natb3,2021.2.3,Win32,39.84222479,60fd7559dfb3bc7f863f47a3,611e07ecdcc96256ae8d5b80,611e7b7cbe3611cac16fbdbf,
,,,,,,,0,153,153,50,1,D, , , , ,space,1500,1.5,60fd7559dfb3bc7f863f47a3,001,2021-08-19_16h48.46.316,natb3,2021.2.3,Win32,39.84222479,60fd7559dfb3bc7f863f47a3,611e07ecdcc96256ae8d5b80,611e7b7cbe3611cac16fbdbf,
,,,,,,,0,154,154,136,1,Z, , , , ,space,2500,2.5,60fd7559dfb3bc7f863f47a3,001,2021-08-19_16h48.46.316,natb3,2021.2.3,Win32,39.84222479,60fd7559dfb3bc7f863f47a3,611e07ecdcc96256ae8d5b80,611e7b7cbe3611cac16fbdbf,
,,,,,,,0,155,155,297,1,U, , , , ,space,2000,2,60fd7559dfb3bc7f863f47a3,001,2021-08-19_16h48.46.316,natb3,2021.2.3,Win32,39.84222479,60fd7559dfb3bc7f863f47a3,611e07ecdcc96256ae8d5b80,611e7b7cbe3611cac16fbdbf,
,,,,,,,0,156,156,333,1,I, , , , ,space,1500,1.5,60fd7559dfb3bc7f863f47a3,001,2021-08-19_16h48.46.316,natb3,2021.2.3,Win32,39.84222479,60fd7559dfb3bc7f863f47a3,611e07ecdcc96256ae8d5b80,611e7b7cbe3611cac16fbdbf,
,,,,,,,0,157,157,279,1,K, , , , ,space,2500,2.5,60fd7559dfb3bc7f863f47a3,001,2021-08-19_16h48.46.316,natb3,2021.2.3,Win32,39.84222479,60fd7559dfb3bc7f863f47a3,611e07ecdcc96256ae8d5b80,611e7b7cbe3611cac16fbdbf,
,,,,,,,0,158,158,293,1,R, , , , ,space,2500,2.5,60fd7559dfb3bc7f863f47a3,001,2021-08-19_16h48.46.316,natb3,2021.2.3,Win32,39.84222479,60fd7559dfb3bc7f863f47a3,611e07ecdcc96256ae8d5b80,611e7b7cbe3611cac16fbdbf,
,,,,,,,0,159,159,265,1,I, , , , ,space,2000,2,60fd7559dfb3bc7f863f47a3,001,2021-08-19_16h48.46.316,natb3,2021.2.3,Win32,39.84222479,60fd7559dfb3bc7f863f47a3,611e07ecdcc96256ae8d5b80,611e7b7cbe3611cac16fbdbf,
,,,,,,,0,160,160,267,1,P, , , , ,space,2000,2,60fd7559dfb3bc7f863f47a3,001,2021-08-19_16h48.46.316,natb3,2021.2.3,Win32,39.84222479,60fd7559dfb3bc7f863f47a3,611e07ecdcc96256ae8d5b80,611e7b7cbe3611cac16fbdbf,
,,,,,,,0,161,161,139,1,V, , , , ,space,2000,2,60fd7559dfb3bc7f863f47a3,001,2021-08-19_16h48.46.316,natb3,2021.2.3,Win32,39.84222479,60fd7559dfb3bc7f863f47a3,611e07ecdcc96256ae8d5b80,611e7b7cbe3611cac16fbdbf,
,,,,,,,0,162,162,121,1,I, , , , ,space,2000,2,60fd7559dfb3bc7f863f47a3,001,2021-08-19_16h48.46.316,natb3,2021.2.3,Win32,39.84222479,60fd7559dfb3bc7f863f47a3,611e07ecdcc96256ae8d5b80,611e7b7cbe3611cac16fbdbf,
,,,,,,,0,163,163,274,1,F, , , , ,space,2000,2,60fd7559dfb3bc7f863f47a3,001,2021-08-19_16h48.46.316,natb3,2021.2.3,Win32,39.84222479,60fd7559dfb3bc7f863f47a3,611e07ecdcc96256ae8d5b80,611e7b7cbe3611cac16fbdbf,
,,,,,,,0,164,164,20,1,H, , , , ,space,1500,1.5,60fd7559dfb3bc7f863f47a3,001,2021-08-19_16h48.46.316,natb3,2021.2.3,Win32,39.84222479,60fd7559dfb3bc7f863f47a3,611e07ecdcc96256ae8d5b80,611e7b7cbe3611cac16fbdbf,
,,,,,,,0,165,165,95,1,V, , , , ,space,1500,1.5,60fd7559dfb3bc7f863f47a3,001,2021-08-19_16h48.46.316,natb3,2021.2.3,Win32,39.84222479,60fd7559dfb3bc7f863f47a3,611e07ecdcc96256ae8d5b80,611e7b7cbe3611cac16fbdbf,
,,,,,,,0,166,166,42,1,U, , , , ,space,1500,1.5,60fd7559dfb3bc7f863f47a3,001,2021-08-19_16h48.46.316,natb3,2021.2.3,Win32,39.84222479,60fd7559dfb3bc7f863f47a3,611e07ecdcc96256ae8d5b80,611e7b7cbe3611cac16fbdbf,
,,,,,,space,0,167,167,312,1,K, , , , ,space,2000,2,60fd7559dfb3bc7f863f47a3,001,2021-08-19_16h48.46.316,natb3,2021.2.3,Win32,39.84222479,60fd7559dfb3bc7f863f47a3,611e07ecdcc96256ae8d5b80,611e7b7cbe3611cac16fbdbf,128.9541
,,,,,,,0,168,168,29,1,B, , , , ,space,1500,1.5,60fd7559dfb3bc7f863f47a3,001,2021-08-19_16h48.46.316,natb3,2021.2.3,Win32,39.84222479,60fd7559dfb3bc7f863f47a3,611e07ecdcc96256ae8d5b80,611e7b7cbe3611cac16fbdbf,
,,,,,,,0,169,169,133,1,X, ,4, ,6,,2500,2.5,60fd7559dfb3bc7f863f47a3,001,2021-08-19_16h48.46.316,natb3,2021.2.3,Win32,39.84222479,60fd7559dfb3bc7f863f47a3,611e07ecdcc96256ae8d5b80,611e7b7cbe3611cac16fbdbf,
,,,,space,0.5197,,0,170,170,224,1,W, , , , ,space,1500,1.5,60fd7559dfb3bc7f863f47a3,001,2021-08-19_16h48.46.316,natb3,2021.2.3,Win32,39.84222479,60fd7559dfb3bc7f863f47a3,611e07ecdcc96256ae8d5b80,611e7b7cbe3611cac16fbdbf,
,,,,space,0.5737,,0,171,171,49,1,S, , , , ,space,1500,1.5,60fd7559dfb3bc7f863f47a3,001,2021-08-19_16h48.46.316,natb3,2021.2.3,Win32,39.84222479,60fd7559dfb3bc7f863f47a3,611e07ecdcc96256ae8d5b80,611e7b7cbe3611cac16fbdbf,
,,,,space,0.5229,,0,172,172,285,1,B, , , , ,space,1500,1.5,60fd7559dfb3bc7f863f47a3,001,2021-08-19_16h48.46.316,natb3,2021.2.3,Win32,39.84222479,60fd7559dfb3bc7f863f47a3,611e07ecdcc96256ae8d5b80,611e7b7cbe3611cac16fbdbf,
,,,,space,0.8683,,0,173,173,204,1,Z, , , , ,space,2000,2,60fd7559dfb3bc7f863f47a3,001,2021-08-19_16h48.46.316,natb3,2021.2.3,Win32,39.84222479,60fd7559dfb3bc7f863f47a3,611e07ecdcc96256ae8d5b80,611e7b7cbe3611cac16fbdbf,
,,,,space,0.6213,,0,174,174,26,1,C, , , , ,space,2000,2,60fd7559dfb3bc7f863f47a3,001,2021-08-19_16h48.46.316,natb3,2021.2.3,Win32,39.84222479,60fd7559dfb3bc7f863f47a3,611e07ecdcc96256ae8d5b80,611e7b7cbe3611cac16fbdbf,
,,,,,,,0,175,175,27,1,X,5, ,1,3,,1500,1.5,60fd7559dfb3bc7f863f47a3,001,2021-08-19_16h48.46.316,natb3,2021.2.3,Win32,39.84222479,60fd7559dfb3bc7f863f47a3,611e07ecdcc96256ae8d5b80,611e7b7cbe3611cac16fbdbf,
,,,,space,0.4887,,0,176,176,131,1,G, , , , ,space,1500,1.5,60fd7559dfb3bc7f863f47a3,001,2021-08-19_16h48.46.316,natb3,2021.2.3,Win32,39.84222479,60fd7559dfb3bc7f863f47a3,611e07ecdcc96256ae8d5b80,611e7b7cbe3611cac16fbdbf,
,,,,space,0.5516,,0,177,177,284,1,V, , , , ,space,2500,2.5,60fd7559dfb3bc7f863f47a3,001,2021-08-19_16h48.46.316,natb3,2021.2.3,Win32,39.84222479,60fd7559dfb3bc7f863f47a3,611e07ecdcc96256ae8d5b80,611e7b7cbe3611cac16fbdbf,
,,,,space,0.524,,0,178,178,306,1,D, , , , ,space,2000,2,60fd7559dfb3bc7f863f47a3,001,2021-08-19_16h48.46.316,natb3,2021.2.3,Win32,39.84222479,60fd7559dfb3bc7f863f47a3,611e07ecdcc96256ae8d5b80,611e7b7cbe3611cac16fbdbf,
,,,,space,0.4757,,0,179,179,278,1,J, , , , ,space,2000,2,60fd7559dfb3bc7f863f47a3,001,2021-08-19_16h48.46.316,natb3,2021.2.3,Win32,39.84222479,60fd7559dfb3bc7f863f47a3,611e07ecdcc96256ae8d5b80,611e7b7cbe3611cac16fbdbf,
,,,,space,0.4015,,0,180,180,190,1,P, , , , ,space,2000,2,60fd7559dfb3bc7f863f47a3,001,2021-08-19_16h48.46.316,natb3,2021.2.3,Win32,39.84222479,60fd7559dfb3bc7f863f47a3,611e07ecdcc96256ae8d5b80,611e7b7cbe3611cac16fbdbf,
,,,,space,0.4722,,0,181,181,113,1,W, , , , ,space,2500,2.5,60fd7559dfb3bc7f863f47a3,001,2021-08-19_16h48.46.316,natb3,2021.2.3,Win32,39.84222479,60fd7559dfb3bc7f863f47a3,611e07ecdcc96256ae8d5b80,611e7b7cbe3611cac16fbdbf,
,,,,,,,0,182,182,31,1,X, , , , ,,1500,1.5,60fd7559dfb3bc7f863f47a3,001,2021-08-19_16h48.46.316,natb3,2021.2.3,Win32,39.84222479,60fd7559dfb3bc7f863f47a3,611e07ecdcc96256ae8d5b80,611e7b7cbe3611cac16fbdbf,
,,,,,,,0,183,183,37,1,E, , , , ,space,2500,2.5,60fd7559dfb3bc7f863f47a3,001,2021-08-19_16h48.46.316,natb3,2021.2.3,Win32,39.84222479,60fd7559dfb3bc7f863f47a3,611e07ecdcc96256ae8d5b80,611e7b7cbe3611cac16fbdbf,
,,,,space,0.6441,,0,184,184,228,1,Y, , , , ,space,2000,2,60fd7559dfb3bc7f863f47a3,001,2021-08-19_16h48.46.316,natb3,2021.2.3,Win32,39.84222479,60fd7559dfb3bc7f863f47a3,611e07ecdcc96256ae8d5b80,611e7b7cbe3611cac16fbdbf,
,,,,space,0.6535,,0,185,185,135,1,K, , , , ,space,1500,1.5,60fd7559dfb3bc7f863f47a3,001,2021-08-19_16h48.46.316,natb3,2021.2.3,Win32,39.84222479,60fd7559dfb3bc7f863f47a3,611e07ecdcc96256ae8d5b80,611e7b7cbe3611cac16fbdbf,
,,,,space,0.4988,,0,186,186,270,1,S, , , , ,space,1500,1.5,60fd7559dfb3bc7f863f47a3,001,2021-08-19_16h48.46.316,natb3,2021.2.3,Win32,39.84222479,60fd7559dfb3bc7f863f47a3,611e07ecdcc96256ae8d5b80,611e7b7cbe3611cac16fbdbf,
,,,,space,0.6013,,0,187,187,84,1,X, , , , ,,2000,2,60fd7559dfb3bc7f863f47a3,001,2021-08-19_16h48.46.316,natb3,2021.2.3,Win32,39.84222479,60fd7559dfb3bc7f863f47a3,611e07ecdcc96256ae8d5b80,611e7b7cbe3611cac16fbdbf,
,,,,space,0.4227,,0,188,188,262,1,Y, , , , ,space,2500,2.5,60fd7559dfb3bc7f863f47a3,001,2021-08-19_16h48.46.316,natb3,2021.2.3,Win32,39.84222479,60fd7559dfb3bc7f863f47a3,611e07ecdcc96256ae8d5b80,611e7b7cbe3611cac16fbdbf,
,,,,space,0.4471,,0,189,189,207,1,X,9, ,2, ,,2500,2.5,60fd7559dfb3bc7f863f47a3,001,2021-08-19_16h48.46.316,natb3,2021.2.3,Win32,39.84222479,60fd7559dfb3bc7f863f47a3,611e07ecdcc96256ae8d5b80,611e7b7cbe3611cac16fbdbf,
,,,,space,0.5949,,0,190,190,75,1,U, , , , ,space,1500,1.5,60fd7559dfb3bc7f863f47a3,001,2021-08-19_16h48.46.316,natb3,2021.2.3,Win32,39.84222479,60fd7559dfb3bc7f863f47a3,611e07ecdcc96256ae8d5b80,611e7b7cbe3611cac16fbdbf,
,,,,,,,0,191,191,311,1,X,1,2,7,3,,2500,2.5,60fd7559dfb3bc7f863f47a3,001,2021-08-19_16h48.46.316,natb3,2021.2.3,Win32,39.84222479,60fd7559dfb3bc7f863f47a3,611e07ecdcc96256ae8d5b80,611e7b7cbe3611cac16fbdbf,
,,,,,,,0,192,192,266,1,O, , , , ,space,1500,1.5,60fd7559dfb3bc7f863f47a3,001,2021-08-19_16h48.46.316,natb3,2021.2.3,Win32,39.84222479,60fd7559dfb3bc7f863f47a3,611e07ecdcc96256ae8d5b80,611e7b7cbe3611cac16fbdbf,
,,,,space,0.4983,,0,193,193,83,1,D, , , , ,space,2000,2,60fd7559dfb3bc7f863f47a3,001,2021-08-19_16h48.46.316,natb3,2021.2.3,Win32,39.84222479,60fd7559dfb3bc7f863f47a3,611e07ecdcc96256ae8d5b80,611e7b7cbe3611cac16fbdbf,
,,,,space,0.4982,,0,194,194,164,1,H, , , , ,space,2500,2.5,60fd7559dfb3bc7f863f47a3,001,2021-08-19_16h48.46.316,natb3,2021.2.3,Win32,39.84222479,60fd7559dfb3bc7f863f47a3,611e07ecdcc96256ae8d5b80,611e7b7cbe3611cac16fbdbf,
,,,,space,0.4739,,0,195,195,198,1,H, , , , ,space,2500,2.5,60fd7559dfb3bc7f863f47a3,001,2021-08-19_16h48.46.316,natb3,2021.2.3,Win32,39.84222479,60fd7559dfb3bc7f863f47a3,611e07ecdcc96256ae8d5b80,611e7b7cbe3611cac16fbdbf,
,,,,space,0.4452,,0,196,196,123,1,O, , , , ,space,1500,1.5,60fd7559dfb3bc7f863f47a3,001,2021-08-19_16h48.46.316,natb3,2021.2.3,Win32,39.84222479,60fd7559dfb3bc7f863f47a3,611e07ecdcc96256ae8d5b80,611e7b7cbe3611cac16fbdbf,
,,,,space,0.8001,,0,197,197,288,1,M, , , , ,space,1500,1.5,60fd7559dfb3bc7f863f47a3,001,2021-08-19_16h48.46.316,natb3,2021.2.3,Win32,39.84222479,60fd7559dfb3bc7f863f47a3,611e07ecdcc96256ae8d5b80,611e7b7cbe3611cac16fbdbf,
,,,,space,0.5489,,0,198,198,106,1,T, , , , ,space,1500,1.5,60fd7559dfb3bc7f863f47a3,001,2021-08-19_16h48.46.316,natb3,2021.2.3,Win32,39.84222479,60fd7559dfb3bc7f863f47a3,611e07ecdcc96256ae8d5b80,611e7b7cbe3611cac16fbdbf,
,,,,space,0.6278,,0,199,199,294,1,T, , , , ,space,2000,2,60fd7559dfb3bc7f863f47a3,001,2021-08-19_16h48.46.316,natb3,2021.2.3,Win32,39.84222479,60fd7559dfb3bc7f863f47a3,611e07ecdcc96256ae8d5b80,611e7b7cbe3611cac16fbdbf,
,,,,space,0.696,,0,200,200,226,1,R, , , , ,space,2000,2,60fd7559dfb3bc7f863f47a3,001,2021-08-19_16h48.46.316,natb3,2021.2.3,Win32,39.84222479,60fd7559dfb3bc7f863f47a3,611e07ecdcc96256ae8d5b80,611e7b7cbe3611cac16fbdbf,
,,,,,,,0,201,201,187,1,X, ,3,7,4,,1500,1.5,60fd7559dfb3bc7f863f47a3,001,2021-08-19_16h48.46.316,natb3,2021.2.3,Win32,39.84222479,60fd7559dfb3bc7f863f47a3,611e07ecdcc96256ae8d5b80,611e7b7cbe3611cac16fbdbf,
,,,,space,0.7028,,0,202,202,165,1,J, , , , ,space,2500,2.5,60fd7559dfb3bc7f863f47a3,001,2021-08-19_16h48.46.316,natb3,2021.2.3,Win32,39.84222479,60fd7559dfb3bc7f863f47a3,611e07ecdcc96256ae8d5b80,611e7b7cbe3611cac16fbdbf,
,,,,space,0.4276,,0,203,203,86,1,G, , , , ,space,2000,2,60fd7559dfb3bc7f863f47a3,001,2021-08-19_16h48.46.316,natb3,2021.2.3,Win32,39.84222479,60fd7559dfb3bc7f863f47a3,611e07ecdcc96256ae8d5b80,611e7b7cbe3611cac16fbdbf,
,,,,space,0.5756,,0,204,204,298,1,I, , , , ,space,2000,2,60fd7559dfb3bc7f863f47a3,001,2021-08-19_16h48.46.316,natb3,2021.2.3,Win32,39.84222479,60fd7559dfb3bc7f863f47a3,611e07ecdcc96256ae8d5b80,611e7b7cbe3611cac16fbdbf,
,,,,,,,0,205,205,259,1,X,8, , ,3,,2500,2.5,60fd7559dfb3bc7f863f47a3,001,2021-08-19_16h48.46.316,natb3,2021.2.3,Win32,39.84222479,60fd7559dfb3bc7f863f47a3,611e07ecdcc96256ae8d5b80,611e7b7cbe3611cac16fbdbf,
,,,,,,,0,206,206,239,1,X, , , , ,,2000,2,60fd7559dfb3bc7f863f47a3,001,2021-08-19_16h48.46.316,natb3,2021.2.3,Win32,39.84222479,60fd7559dfb3bc7f863f47a3,611e07ecdcc96256ae8d5b80,611e7b7cbe3611cac16fbdbf,
,,,,,,,0,207,207,122,1,X,1, , ,8,,1500,1.5,60fd7559dfb3bc7f863f47a3,001,2021-08-19_16h48.46.316,natb3,2021.2.3,Win32,39.84222479,60fd7559dfb3bc7f863f47a3,611e07ecdcc96256ae8d5b80,611e7b7cbe3611cac16fbdbf,
,,,,space,0.5216,,0,208,208,253,1,N, , , , ,space,2500,2.5,60fd7559dfb3bc7f863f47a3,001,2021-08-19_16h48.46.316,natb3,2021.2.3,Win32,39.84222479,60fd7559dfb3bc7f863f47a3,611e07ecdcc96256ae8d5b80,611e7b7cbe3611cac16fbdbf,
,,,,space,0.9229,,0,209,209,272,1,D, , , , ,space,2000,2,60fd7559dfb3bc7f863f47a3,001,2021-08-19_16h48.46.316,natb3,2021.2.3,Win32,39.84222479,60fd7559dfb3bc7f863f47a3,611e07ecdcc96256ae8d5b80,611e7b7cbe3611cac16fbdbf,
,,,,space,0.5791,,0,210,210,87,1,H, , , , ,space,1500,1.5,60fd7559dfb3bc7f863f47a3,001,2021-08-19_16h48.46.316,natb3,2021.2.3,Win32,39.84222479,60fd7559dfb3bc7f863f47a3,611e07ecdcc96256ae8d5b80,611e7b7cbe3611cac16fbdbf,
,,,,space,0.6508,,0,211,211,246,1,L, , , , ,space,2500,2.5,60fd7559dfb3bc7f863f47a3,001,2021-08-19_16h48.46.316,natb3,2021.2.3,Win32,39.84222479,60fd7559dfb3bc7f863f47a3,611e07ecdcc96256ae8d5b80,611e7b7cbe3611cac16fbdbf,
,,,,,,,0,212,212,78,1,X, , , , ,,2000,2,60fd7559dfb3bc7f863f47a3,001,2021-08-19_16h48.46.316,natb3,2021.2.3,Win32,39.84222479,60fd7559dfb3bc7f863f47a3,611e07ecdcc96256ae8d5b80,611e7b7cbe3611cac16fbdbf,
,,,,space,0.4526,,0,213,213,45,1,O, , , , ,space,2000,2,60fd7559dfb3bc7f863f47a3,001,2021-08-19_16h48.46.316,natb3,2021.2.3,Win32,39.84222479,60fd7559dfb3bc7f863f47a3,611e07ecdcc96256ae8d5b80,611e7b7cbe3611cac16fbdbf,
,,,,space,0.6985,,0,214,214,213,1,X, , , , ,,2500,2.5,60fd7559dfb3bc7f863f47a3,001,2021-08-19_16h48.46.316,natb3,2021.2.3,Win32,39.84222479,60fd7559dfb3bc7f863f47a3,611e07ecdcc96256ae8d5b80,611e7b7cbe3611cac16fbdbf,
,,,,space,0.4236,,0,215,215,283,1,C, , , , ,space,1500,1.5,60fd7559dfb3bc7f863f47a3,001,2021-08-19_16h48.46.316,natb3,2021.2.3,Win32,39.84222479,60fd7559dfb3bc7f863f47a3,611e07ecdcc96256ae8d5b80,611e7b7cbe3611cac16fbdbf,
,,,,space,0.6229,,0,216,216,178,1,Q, , , , ,space,1500,1.5,60fd7559dfb3bc7f863f47a3,001,2021-08-19_16h48.46.316,natb3,2021.2.3,Win32,39.84222479,60fd7559dfb3bc7f863f47a3,611e07ecdcc96256ae8d5b80,611e7b7cbe3611cac16fbdbf,
,,,,,,,0,217,217,54,1,X, , , , ,,2000,2,60fd7559dfb3bc7f863f47a3,001,2021-08-19_16h48.46.316,natb3,2021.2.3,Win32,39.84222479,60fd7559dfb3bc7f863f47a3,611e07ecdcc96256ae8d5b80,611e7b7cbe3611cac16fbdbf,
,,,,space,0.5226,,0,218,218,292,1,E, , , , ,space,2000,2,60fd7559dfb3bc7f863f47a3,001,2021-08-19_16h48.46.316,natb3,2021.2.3,Win32,39.84222479,60fd7559dfb3bc7f863f47a3,611e07ecdcc96256ae8d5b80,611e7b7cbe3611cac16fbdbf,
,,,,space,0.4703,,0,219,219,91,1,L, , , , ,space,2000,2,60fd7559dfb3bc7f863f47a3,001,2021-08-19_16h48.46.316,natb3,2021.2.3,Win32,39.84222479,60fd7559dfb3bc7f863f47a3,611e07ecdcc96256ae8d5b80,611e7b7cbe3611cac16fbdbf,
,,,,space,0.4771,,0,220,220,163,1,G, , , , ,space,2500,2.5,60fd7559dfb3bc7f863f47a3,001,2021-08-19_16h48.46.316,natb3,2021.2.3,Win32,39.84222479,60fd7559dfb3bc7f863f47a3,611e07ecdcc96256ae8d5b80,611e7b7cbe3611cac16fbdbf,
,,,,space,0.5232,,0,221,221,11,1,P, , , , ,space,2500,2.5,60fd7559dfb3bc7f863f47a3,001,2021-08-19_16h48.46.316,natb3,2021.2.3,Win32,39.84222479,60fd7559dfb3bc7f863f47a3,611e07ecdcc96256ae8d5b80,611e7b7cbe3611cac16fbdbf,
,,,,,,,0,222,222,89,1,X,3, , , ,,2000,2,60fd7559dfb3bc7f863f47a3,001,2021-08-19_16h48.46.316,natb3,2021.2.3,Win32,39.84222479,60fd7559dfb3bc7f863f47a3,611e07ecdcc96256ae8d5b80,611e7b7cbe3611cac16fbdbf,
,,,,space,0.4719,,0,223,223,210,1,M, , , , ,space,1500,1.5,60fd7559dfb3bc7f863f47a3,001,2021-08-19_16h48.46.316,natb3,2021.2.3,Win32,39.84222479,60fd7559dfb3bc7f863f47a3,611e07ecdcc96256ae8d5b80,611e7b7cbe3611cac16fbdbf,
,,,,space,0.5725,,0,224,224,64,1,N, , , , ,space,2000,2,60fd7559dfb3bc7f863f47a3,001,2021-08-19_16h48.46.316,natb3,2021.2.3,Win32,39.84222479,60fd7559dfb3bc7f863f47a3,611e07ecdcc96256ae8d5b80,611e7b7cbe3611cac16fbdbf,
,,,,space,0.5502,,0,225,225,69,1,X, , , , ,,1500,1.5,60fd7559dfb3bc7f863f47a3,001,2021-08-19_16h48.46.316,natb3,2021.2.3,Win32,39.84222479,60fd7559dfb3bc7f863f47a3,611e07ecdcc96256ae8d5b80,611e7b7cbe3611cac16fbdbf,
,,,,space,0.9453,,0,226,226,310,1,J, , , , ,space,2500,2.5,60fd7559dfb3bc7f863f47a3,001,2021-08-19_16h48.46.316,natb3,2021.2.3,Win32,39.84222479,60fd7559dfb3bc7f863f47a3,611e07ecdcc96256ae8d5b80,611e7b7cbe3611cac16fbdbf,
,,,,,,,0,227,227,116,1,X, , , , ,,2000,2,60fd7559dfb3bc7f863f47a3,001,2021-08-19_16h48.46.316,natb3,2021.2.3,Win32,39.84222479,60fd7559dfb3bc7f863f47a3,611e07ecdcc96256ae8d5b80,611e7b7cbe3611cac16fbdbf,
,,,,space,0.5261,,0,228,228,137,1,C, , , , ,space,2500,2.5,60fd7559dfb3bc7f863f47a3,001,2021-08-19_16h48.46.316,natb3,2021.2.3,Win32,39.84222479,60fd7559dfb3bc7f863f47a3,611e07ecdcc96256ae8d5b80,611e7b7cbe3611cac16fbdbf,
,,,,space,0.6696,,0,229,229,149,1,R, , , , ,space,2000,2,60fd7559dfb3bc7f863f47a3,001,2021-08-19_16h48.46.316,natb3,2021.2.3,Win32,39.84222479,60fd7559dfb3bc7f863f47a3,611e07ecdcc96256ae8d5b80,611e7b7cbe3611cac16fbdbf,
,,,,space,0.4001,,0,230,230,326,1,W, , , , ,space,2000,2,60fd7559dfb3bc7f863f47a3,001,2021-08-19_16h48.46.316,natb3,2021.2.3,Win32,39.84222479,60fd7559dfb3bc7f863f47a3,611e07ecdcc96256ae8d5b80,611e7b7cbe3611cac16fbdbf,
,,,,space,0.526,,0,231,231,103,1,W, , , , ,space,2000,2,60fd7559dfb3bc7f863f47a3,001,2021-08-19_16h48.46.316,natb3,2021.2.3,Win32,39.84222479,60fd7559dfb3bc7f863f47a3,611e07ecdcc96256ae8d5b80,611e7b7cbe3611cac16fbdbf,
,,,,,,,0,232,232,273,1,X, , , , ,,2000,2,60fd7559dfb3bc7f863f47a3,001,2021-08-19_16h48.46.316,natb3,2021.2.3,Win32,39.84222479,60fd7559dfb3bc7f863f47a3,611e07ecdcc96256ae8d5b80,611e7b7cbe3611cac16fbdbf,
,,,,,,,0,233,233,255,1,X, , , , ,,1500,1.5,60fd7559dfb3bc7f863f47a3,001,2021-08-19_16h48.46.316,natb3,2021.2.3,Win32,39.84222479,60fd7559dfb3bc7f863f47a3,611e07ecdcc96256ae8d5b80,611e7b7cbe3611cac16fbdbf,
,,,,space,0.8739,,0,234,234,216,1,R, , , , ,space,1500,1.5,60fd7559dfb3bc7f863f47a3,001,2021-08-19_16h48.46.316,natb3,2021.2.3,Win32,39.84222479,60fd7559dfb3bc7f863f47a3,611e07ecdcc96256ae8d5b80,611e7b7cbe3611cac16fbdbf,
,,,,space,0.6515,,0,235,235,167,1,K, , , , ,space,1500,1.5,60fd7559dfb3bc7f863f47a3,001,2021-08-19_16h48.46.316,natb3,2021.2.3,Win32,39.84222479,60fd7559dfb3bc7f863f47a3,611e07ecdcc96256ae8d5b80,611e7b7cbe3611cac16fbdbf,
,,,,,,,0,236,236,129,1,X,2,3,5, ,,1500,1.5,60fd7559dfb3bc7f863f47a3,001,2021-08-19_16h48.46.316,natb3,2021.2.3,Win32,39.84222479,60fd7559dfb3bc7f863f47a3,611e07ecdcc96256ae8d5b80,611e7b7cbe3611cac16fbdbf,
,,,,,,,0,237,237,6,1,Y, , , , ,space,2500,2.5,60fd7559dfb3bc7f863f47a3,001,2021-08-19_16h48.46.316,natb3,2021.2.3,Win32,39.84222479,60fd7559dfb3bc7f863f47a3,611e07ecdcc96256ae8d5b80,611e7b7cbe3611cac16fbdbf,
,,,,space,0.4726,,0,238,238,130,1,F, , , , ,space,2000,2,60fd7559dfb3bc7f863f47a3,001,2021-08-19_16h48.46.316,natb3,2021.2.3,Win32,39.84222479,60fd7559dfb3bc7f863f47a3,611e07ecdcc96256ae8d5b80,611e7b7cbe3611cac16fbdbf,
,,,,,,,0,239,239,35,1,X, , , , ,,2500,2.5,60fd7559dfb3bc7f863f47a3,001,2021-08-19_16h48.46.316,natb3,2021.2.3,Win32,39.84222479,60fd7559dfb3bc7f863f47a3,611e07ecdcc96256ae8d5b80,611e7b7cbe3611cac16fbdbf,
,,,,space,0.8512,,0,240,240,157,1,A, , , , ,space,2500,2.5,60fd7559dfb3bc7f863f47a3,001,2021-08-19_16h48.46.316,natb3,2021.2.3,Win32,39.84222479,60fd7559dfb3bc7f863f47a3,611e07ecdcc96256ae8d5b80,611e7b7cbe3611cac16fbdbf,
,,,,space,0.5266,,0,241,241,101,1,Q, , , , ,space,2500,2.5,60fd7559dfb3bc7f863f47a3,001,2021-08-19_16h48.46.316,natb3,2021.2.3,Win32,39.84222479,60fd7559dfb3bc7f863f47a3,611e07ecdcc96256ae8d5b80,611e7b7cbe3611cac16fbdbf,
,,,,,,,0,242,242,173,1,V, , , , ,space,1500,1.5,60fd7559dfb3bc7f863f47a3,001,2021-08-19_16h48.46.316,natb3,2021.2.3,Win32,39.84222479,60fd7559dfb3bc7f863f47a3,611e07ecdcc96256ae8d5b80,611e7b7cbe3611cac16fbdbf,
,,,,space,0.8207,,0,243,243,305,1,X, , , , ,,1500,1.5,60fd7559dfb3bc7f863f47a3,001,2021-08-19_16h48.46.316,natb3,2021.2.3,Win32,39.84222479,60fd7559dfb3bc7f863f47a3,611e07ecdcc96256ae8d5b80,611e7b7cbe3611cac16fbdbf,
,,,,space,0.6469,,0,244,244,88,1,J, , , , ,space,2500,2.5,60fd7559dfb3bc7f863f47a3,001,2021-08-19_16h48.46.316,natb3,2021.2.3,Win32,39.84222479,60fd7559dfb3bc7f863f47a3,611e07ecdcc96256ae8d5b80,611e7b7cbe3611cac16fbdbf,
,,,,,,,0,245,245,252,1,X,3, ,6,9,,2000,2,60fd7559dfb3bc7f863f47a3,001,2021-08-19_16h48.46.316,natb3,2021.2.3,Win32,39.84222479,60fd7559dfb3bc7f863f47a3,611e07ecdcc96256ae8d5b80,611e7b7cbe3611cac16fbdbf,
,,,,space,0.4894,,0,246,246,319,1,V, , , , ,space,2000,2,60fd7559dfb3bc7f863f47a3,001,2021-08-19_16h48.46.316,natb3,2021.2.3,Win32,39.84222479,60fd7559dfb3bc7f863f47a3,611e07ecdcc96256ae8d5b80,611e7b7cbe3611cac16fbdbf,
,,,,space,0.386,,0,247,247,208,1,B, , , , ,space,1500,1.5,60fd7559dfb3bc7f863f47a3,001,2021-08-19_16h48.46.316,natb3,2021.2.3,Win32,39.84222479,60fd7559dfb3bc7f863f47a3,611e07ecdcc96256ae8d5b80,611e7b7cbe3611cac16fbdbf,
,,,,space,0.398,,0,248,248,159,1,S, , , , ,space,2500,2.5,60fd7559dfb3bc7f863f47a3,001,2021-08-19_16h48.46.316,natb3,2021.2.3,Win32,39.84222479,60fd7559dfb3bc7f863f47a3,611e07ecdcc96256ae8d5b80,611e7b7cbe3611cac16fbdbf,
,,,,space,0.479,,0,249,249,77,1,O, , , , ,space,2000,2,60fd7559dfb3bc7f863f47a3,001,2021-08-19_16h48.46.316,natb3,2021.2.3,Win32,39.84222479,60fd7559dfb3bc7f863f47a3,611e07ecdcc96256ae8d5b80,611e7b7cbe3611cac16fbdbf,
,,,,space,0.4727,,0,250,250,314,1,L, , , , ,space,1500,1.5,60fd7559dfb3bc7f863f47a3,001,2021-08-19_16h48.46.316,natb3,2021.2.3,Win32,39.84222479,60fd7559dfb3bc7f863f47a3,611e07ecdcc96256ae8d5b80,611e7b7cbe3611cac16fbdbf,
,,,,space,0.3931,,0,251,251,156,1,P, , , , ,space,1500,1.5,60fd7559dfb3bc7f863f47a3,001,2021-08-19_16h48.46.316,natb3,2021.2.3,Win32,39.84222479,60fd7559dfb3bc7f863f47a3,611e07ecdcc96256ae8d5b80,611e7b7cbe3611cac16fbdbf,
,,,,space,0.372,,0,252,252,264,1,U, , , , ,space,2000,2,60fd7559dfb3bc7f863f47a3,001,2021-08-19_16h48.46.316,natb3,2021.2.3,Win32,39.84222479,60fd7559dfb3bc7f863f47a3,611e07ecdcc96256ae8d5b80,611e7b7cbe3611cac16fbdbf,
,,,,space,0.3711,,0,253,253,303,1,A, , , , ,space,2000,2,60fd7559dfb3bc7f863f47a3,001,2021-08-19_16h48.46.316,natb3,2021.2.3,Win32,39.84222479,60fd7559dfb3bc7f863f47a3,611e07ecdcc96256ae8d5b80,611e7b7cbe3611cac16fbdbf,
,,,,space,0.3036,,0,254,254,324,1,Q, , , , ,space,2000,2,60fd7559dfb3bc7f863f47a3,001,2021-08-19_16h48.46.316,natb3,2021.2.3,Win32,39.84222479,60fd7559dfb3bc7f863f47a3,611e07ecdcc96256ae8d5b80,611e7b7cbe3611cac16fbdbf,
,,,,space,0.3256,,0,255,255,10,1,O, , , , ,space,2000,2,60fd7559dfb3bc7f863f47a3,001,2021-08-19_16h48.46.316,natb3,2021.2.3,Win32,39.84222479,60fd7559dfb3bc7f863f47a3,611e07ecdcc96256ae8d5b80,611e7b7cbe3611cac16fbdbf,
,,,,space,0.3949,,0,256,256,73,1,Y, , , , ,space,2000,2,60fd7559dfb3bc7f863f47a3,001,2021-08-19_16h48.46.316,natb3,2021.2.3,Win32,39.84222479,60fd7559dfb3bc7f863f47a3,611e07ecdcc96256ae8d5b80,611e7b7cbe3611cac16fbdbf,
,,,,,,,0,257,257,233,1,X, ,2, ,5,,1500,1.5,60fd7559dfb3bc7f863f47a3,001,2021-08-19_16h48.46.316,natb3,2021.2.3,Win32,39.84222479,60fd7559dfb3bc7f863f47a3,611e07ecdcc96256ae8d5b80,611e7b7cbe3611cac16fbdbf,
,,,,,,,0,258,258,93,1,X,5, ,7, ,,2500,2.5,60fd7559dfb3bc7f863f47a3,001,2021-08-19_16h48.46.316,natb3,2021.2.3,Win32,39.84222479,60fd7559dfb3bc7f863f47a3,611e07ecdcc96256ae8d5b80,611e7b7cbe3611cac16fbdbf,
,,,,space,0.4621,,0,259,259,109,1,U, , , , ,space,1500,1.5,60fd7559dfb3bc7f863f47a3,001,2021-08-19_16h48.46.316,natb3,2021.2.3,Win32,39.84222479,60fd7559dfb3bc7f863f47a3,611e07ecdcc96256ae8d5b80,611e7b7cbe3611cac16fbdbf,
,,,,space,0.4305,,0,260,260,223,1,Q, , , , ,space,2000,2,60fd7559dfb3bc7f863f47a3,001,2021-08-19_16h48.46.316,natb3,2021.2.3,Win32,39.84222479,60fd7559dfb3bc7f863f47a3,611e07ecdcc96256ae8d5b80,611e7b7cbe3611cac16fbdbf,
,,,,,,,0,261,261,329,1,X,3,4, ,2,,2500,2.5,60fd7559dfb3bc7f863f47a3,001,2021-08-19_16h48.46.316,natb3,2021.2.3,Win32,39.84222479,60fd7559dfb3bc7f863f47a3,611e07ecdcc96256ae8d5b80,611e7b7cbe3611cac16fbdbf,
,,,,,,,0,262,262,168,1,X, , , , ,,2500,2.5,60fd7559dfb3bc7f863f47a3,001,2021-08-19_16h48.46.316,natb3,2021.2.3,Win32,39.84222479,60fd7559dfb3bc7f863f47a3,611e07ecdcc96256ae8d5b80,611e7b7cbe3611cac16fbdbf,
,,,,space,0.4932,,0,263,263,105,1,R, , , , ,space,2500,2.5,60fd7559dfb3bc7f863f47a3,001,2021-08-19_16h48.46.316,natb3,2021.2.3,Win32,39.84222479,60fd7559dfb3bc7f863f47a3,611e07ecdcc96256ae8d5b80,611e7b7cbe3611cac16fbdbf,
,,,,space,0.4527,,0,264,264,53,1,G, , , , ,space,2500,2.5,60fd7559dfb3bc7f863f47a3,001,2021-08-19_16h48.46.316,natb3,2021.2.3,Win32,39.84222479,60fd7559dfb3bc7f863f47a3,611e07ecdcc96256ae8d5b80,611e7b7cbe3611cac16fbdbf,
,,,,space,0.4458,,0,265,265,63,1,B, , , , ,space,2000,2,60fd7559dfb3bc7f863f47a3,001,2021-08-19_16h48.46.316,natb3,2021.2.3,Win32,39.84222479,60fd7559dfb3bc7f863f47a3,611e07ecdcc96256ae8d5b80,611e7b7cbe3611cac16fbdbf,
,,,,space,0.423,,0,266,266,241,1,G, , , , ,space,2500,2.5,60fd7559dfb3bc7f863f47a3,001,2021-08-19_16h48.46.316,natb3,2021.2.3,Win32,39.84222479,60fd7559dfb3bc7f863f47a3,611e07ecdcc96256ae8d5b80,611e7b7cbe3611cac16fbdbf,
,,,,space,0.5722,,0,267,267,205,1,C, , , , ,space,2000,2,60fd7559dfb3bc7f863f47a3,001,2021-08-19_16h48.46.316,natb3,2021.2.3,Win32,39.84222479,60fd7559dfb3bc7f863f47a3,611e07ecdcc96256ae8d5b80,611e7b7cbe3611cac16fbdbf,
,,,,,,,0,268,268,322,1,X, , ,1,6,,2000,2,60fd7559dfb3bc7f863f47a3,001,2021-08-19_16h48.46.316,natb3,2021.2.3,Win32,39.84222479,60fd7559dfb3bc7f863f47a3,611e07ecdcc96256ae8d5b80,611e7b7cbe3611cac16fbdbf,
,,,,space,0.4684,,0,269,269,85,1,F, , , , ,space,2500,2.5,60fd7559dfb3bc7f863f47a3,001,2021-08-19_16h48.46.316,natb3,2021.2.3,Win32,39.84222479,60fd7559dfb3bc7f863f47a3,611e07ecdcc96256ae8d5b80,611e7b7cbe3611cac16fbdbf,
,,,,,,,0,270,270,295,1,X,8,7,5, ,,2500,2.5,60fd7559dfb3bc7f863f47a3,001,2021-08-19_16h48.46.316,natb3,2021.2.3,Win32,39.84222479,60fd7559dfb3bc7f863f47a3,611e07ecdcc96256ae8d5b80,611e7b7cbe3611cac16fbdbf,
,,,,space,0.3948,,0,271,271,301,1,P, , , , ,space,1500,1.5,60fd7559dfb3bc7f863f47a3,001,2021-08-19_16h48.46.316,natb3,2021.2.3,Win32,39.84222479,60fd7559dfb3bc7f863f47a3,611e07ecdcc96256ae8d5b80,611e7b7cbe3611cac16fbdbf,
,,,,space,0.4731,,0,272,272,126,1,A, , , , ,space,2500,2.5,60fd7559dfb3bc7f863f47a3,001,2021-08-19_16h48.46.316,natb3,2021.2.3,Win32,39.84222479,60fd7559dfb3bc7f863f47a3,611e07ecdcc96256ae8d5b80,611e7b7cbe3611cac16fbdbf,
,,,,space,0.4455,,0,273,273,161,1,F, , , , ,space,1500,1.5,60fd7559dfb3bc7f863f47a3,001,2021-08-19_16h48.46.316,natb3,2021.2.3,Win32,39.84222479,60fd7559dfb3bc7f863f47a3,611e07ecdcc96256ae8d5b80,611e7b7cbe3611cac16fbdbf,
,,,,space,0.9044,,0,274,274,261,1,T, , , , ,space,2000,2,60fd7559dfb3bc7f863f47a3,001,2021-08-19_16h48.46.316,natb3,2021.2.3,Win32,39.84222479,60fd7559dfb3bc7f863f47a3,611e07ecdcc96256ae8d5b80,611e7b7cbe3611cac16fbdbf,
,,,,space,0.4423,,0,275,275,308,1,G, , , , ,space,1500,1.5,60fd7559dfb3bc7f863f47a3,001,2021-08-19_16h48.46.316,natb3,2021.2.3,Win32,39.84222479,60fd7559dfb3bc7f863f47a3,611e07ecdcc96256ae8d5b80,611e7b7cbe3611cac16fbdbf,
,,,,space,0.7979,,0,276,276,188,1,I, , , , ,space,2500,2.5,60fd7559dfb3bc7f863f47a3,001,2021-08-19_16h48.46.316,natb3,2021.2.3,Win32,39.84222479,60fd7559dfb3bc7f863f47a3,611e07ecdcc96256ae8d5b80,611e7b7cbe3611cac16fbdbf,
,,,,space,0.599,,0,277,277,150,1,T, , , , ,space,2500,2.5,60fd7559dfb3bc7f863f47a3,001,2021-08-19_16h48.46.316,natb3,2021.2.3,Win32,39.84222479,60fd7559dfb3bc7f863f47a3,611e07ecdcc96256ae8d5b80,611e7b7cbe3611cac16fbdbf,
,,,,space,0.5015,,0,278,278,181,1,E, , , , ,space,1500,1.5,60fd7559dfb3bc7f863f47a3,001,2021-08-19_16h48.46.316,natb3,2021.2.3,Win32,39.84222479,60fd7559dfb3bc7f863f47a3,611e07ecdcc96256ae8d5b80,611e7b7cbe3611cac16fbdbf,
,,,,space,0.7239,,0,279,279,202,1,L, , , , ,space,2500,2.5,60fd7559dfb3bc7f863f47a3,001,2021-08-19_16h48.46.316,natb3,2021.2.3,Win32,39.84222479,60fd7559dfb3bc7f863f47a3,611e07ecdcc96256ae8d5b80,611e7b7cbe3611cac16fbdbf,
,,,,space,0.689,,0,280,280,179,1,X, ,9, ,2,,1500,1.5,60fd7559dfb3bc7f863f47a3,001,2021-08-19_16h48.46.316,natb3,2021.2.3,Win32,39.84222479,60fd7559dfb3bc7f863f47a3,611e07ecdcc96256ae8d5b80,611e7b7cbe3611cac16fbdbf,
,,,,,,,0,281,281,96,1,X, , , , ,,1500,1.5,60fd7559dfb3bc7f863f47a3,001,2021-08-19_16h48.46.316,natb3,2021.2.3,Win32,39.84222479,60fd7559dfb3bc7f863f47a3,611e07ecdcc96256ae8d5b80,611e7b7cbe3611cac16fbdbf,
,,,,space,0.4536,,0,282,282,260,1,R, , , , ,space,2000,2,60fd7559dfb3bc7f863f47a3,001,2021-08-19_16h48.46.316,natb3,2021.2.3,Win32,39.84222479,60fd7559dfb3bc7f863f47a3,611e07ecdcc96256ae8d5b80,611e7b7cbe3611cac16fbdbf,
,,,,space,0.4471,,0,283,283,214,1,W, , , , ,space,2000,2,60fd7559dfb3bc7f863f47a3,001,2021-08-19_16h48.46.316,natb3,2021.2.3,Win32,39.84222479,60fd7559dfb3bc7f863f47a3,611e07ecdcc96256ae8d5b80,611e7b7cbe3611cac16fbdbf,
,,,,,,,0,284,284,43,1,X, ,6, ,2,,2500,2.5,60fd7559dfb3bc7f863f47a3,001,2021-08-19_16h48.46.316,natb3,2021.2.3,Win32,39.84222479,60fd7559dfb3bc7f863f47a3,611e07ecdcc96256ae8d5b80,611e7b7cbe3611cac16fbdbf,
,,,,space,0.4926,,0,285,285,97,1,B, , , , ,space,2500,2.5,60fd7559dfb3bc7f863f47a3,001,2021-08-19_16h48.46.316,natb3,2021.2.3,Win32,39.84222479,60fd7559dfb3bc7f863f47a3,611e07ecdcc96256ae8d5b80,611e7b7cbe3611cac16fbdbf,
,,,,space,0.4528,,0,286,286,76,1,I, , , , ,space,2000,2,60fd7559dfb3bc7f863f47a3,001,2021-08-19_16h48.46.316,natb3,2021.2.3,Win32,39.84222479,60fd7559dfb3bc7f863f47a3,611e07ecdcc96256ae8d5b80,611e7b7cbe3611cac16fbdbf,
,,,,,,,0,287,287,138,1,X,8,5, ,3,,2000,2,60fd7559dfb3bc7f863f47a3,001,2021-08-19_16h48.46.316,natb3,2021.2.3,Win32,39.84222479,60fd7559dfb3bc7f863f47a3,611e07ecdcc96256ae8d5b80,611e7b7cbe3611cac16fbdbf,
,,,,space,0.8456,,0,288,288,185,1,Y, , , , ,space,2500,2.5,60fd7559dfb3bc7f863f47a3,001,2021-08-19_16h48.46.316,natb3,2021.2.3,Win32,39.84222479,60fd7559dfb3bc7f863f47a3,611e07ecdcc96256ae8d5b80,611e7b7cbe3611cac16fbdbf,
,,,,space,0.3945,,0,289,289,117,1,T, , , , ,space,2500,2.5,60fd7559dfb3bc7f863f47a3,001,2021-08-19_16h48.46.316,natb3,2021.2.3,Win32,39.84222479,60fd7559dfb3bc7f863f47a3,611e07ecdcc96256ae8d5b80,611e7b7cbe3611cac16fbdbf,
,,,,,,,0,290,290,335,1,P,,,,,space,1500,1.5,60fd7559dfb3bc7f863f47a3,001,2021-08-19_16h48.46.316,natb3,2021.2.3,Win32,39.84222479,60fd7559dfb3bc7f863f47a3,611e07ecdcc96256ae8d5b80,611e7b7cbe3611cac16fbdbf,
,,,,,,,0,291,291,153,1,X,4,7, ,6,,2000,2,60fd7559dfb3bc7f863f47a3,001,2021-08-19_16h48.46.316,natb3,2021.2.3,Win32,39.84222479,60fd7559dfb3bc7f863f47a3,611e07ecdcc96256ae8d5b80,611e7b7cbe3611cac16fbdbf,
,,,,space,0.5328,,0,292,292,186,1,U, , , , ,space,2500,2.5,60fd7559dfb3bc7f863f47a3,001,2021-08-19_16h48.46.316,natb3,2021.2.3,Win32,39.84222479,60fd7559dfb3bc7f863f47a3,611e07ecdcc96256ae8d5b80,611e7b7cbe3611cac16fbdbf,
,,,,space,0.5001,,0,293,293,48,1,A, , , , ,space,2500,2.5,60fd7559dfb3bc7f863f47a3,001,2021-08-19_16h48.46.316,natb3,2021.2.3,Win32,39.84222479,60fd7559dfb3bc7f863f47a3,611e07ecdcc96256ae8d5b80,611e7b7cbe3611cac16fbdbf,
,,,,,,,0,294,294,125,1,X, , , , ,,2000,2,60fd7559dfb3bc7f863f47a3,001,2021-08-19_16h48.46.316,natb3,2021.2.3,Win32,39.84222479,60fd7559dfb3bc7f863f47a3,611e07ecdcc96256ae8d5b80,611e7b7cbe3611cac16fbdbf,
,,,,space,0.4752,,0,295,295,251,1,B, , , , ,space,1500,1.5,60fd7559dfb3bc7f863f47a3,001,2021-08-19_16h48.46.316,natb3,2021.2.3,Win32,39.84222479,60fd7559dfb3bc7f863f47a3,611e07ecdcc96256ae8d5b80,611e7b7cbe3611cac16fbdbf,
,,,,,,,0,296,296,229,1,X,8, ,2,6,,2500,2.5,60fd7559dfb3bc7f863f47a3,001,2021-08-19_16h48.46.316,natb3,2021.2.3,Win32,39.84222479,60fd7559dfb3bc7f863f47a3,611e07ecdcc96256ae8d5b80,611e7b7cbe3611cac16fbdbf,
,,,,space,0.4689,,0,297,297,184,1,T, , , , ,space,2000,2,60fd7559dfb3bc7f863f47a3,001,2021-08-19_16h48.46.316,natb3,2021.2.3,Win32,39.84222479,60fd7559dfb3bc7f863f47a3,611e07ecdcc96256ae8d5b80,611e7b7cbe3611cac16fbdbf,
,,,,space,0.6241,,0,298,298,151,1,Y, , , , ,space,2500,2.5,60fd7559dfb3bc7f863f47a3,001,2021-08-19_16h48.46.316,natb3,2021.2.3,Win32,39.84222479,60fd7559dfb3bc7f863f47a3,611e07ecdcc96256ae8d5b80,611e7b7cbe3611cac16fbdbf,
,,,,space,0.6757,,0,299,299,14,1,S, , , , ,space,2500,2.5,60fd7559dfb3bc7f863f47a3,001,2021-08-19_16h48.46.316,natb3,2021.2.3,Win32,39.84222479,60fd7559dfb3bc7f863f47a3,611e07ecdcc96256ae8d5b80,611e7b7cbe3611cac16fbdbf,
,,,,space,0.871,,0,300,300,104,1,E, , , , ,space,2000,2,60fd7559dfb3bc7f863f47a3,001,2021-08-19_16h48.46.316,natb3,2021.2.3,Win32,39.84222479,60fd7559dfb3bc7f863f47a3,611e07ecdcc96256ae8d5b80,611e7b7cbe3611cac16fbdbf,
,,,,space,0.4995,,0,301,301,38,1,R, , , , ,space,2500,2.5,60fd7559dfb3bc7f863f47a3,001,2021-08-19_16h48.46.316,natb3,2021.2.3,Win32,39.84222479,60fd7559dfb3bc7f863f47a3,611e07ecdcc96256ae8d5b80,611e7b7cbe3611cac16fbdbf,
,,,,,,,0,302,302,66,1,X, ,4,7, ,,2000,2,60fd7559dfb3bc7f863f47a3,001,2021-08-19_16h48.46.316,natb3,2021.2.3,Win32,39.84222479,60fd7559dfb3bc7f863f47a3,611e07ecdcc96256ae8d5b80,611e7b7cbe3611cac16fbdbf,
,,,,space,0.4467,,0,303,303,61,1,C, , , , ,space,2000,2,60fd7559dfb3bc7f863f47a3,001,2021-08-19_16h48.46.316,natb3,2021.2.3,Win32,39.84222479,60fd7559dfb3bc7f863f47a3,611e07ecdcc96256ae8d5b80,611e7b7cbe3611cac16fbdbf,
,,,,,,,0,304,304,141,1,X,1, ,4,6,,1500,1.5,60fd7559dfb3bc7f863f47a3,001,2021-08-19_16h48.46.316,natb3,2021.2.3,Win32,39.84222479,60fd7559dfb3bc7f863f47a3,611e07ecdcc96256ae8d5b80,611e7b7cbe3611cac16fbdbf,
,,,,space,0.6459,,0,305,305,177,1,M, , , , ,space,2500,2.5,60fd7559dfb3bc7f863f47a3,001,2021-08-19_16h48.46.316,natb3,2021.2.3,Win32,39.84222479,60fd7559dfb3bc7f863f47a3,611e07ecdcc96256ae8d5b80,611e7b7cbe3611cac16fbdbf,
,,,,space,0.4736,,0,306,306,217,1,T, , , , ,space,2500,2.5,60fd7559dfb3bc7f863f47a3,001,2021-08-19_16h48.46.316,natb3,2021.2.3,Win32,39.84222479,60fd7559dfb3bc7f863f47a3,611e07ecdcc96256ae8d5b80,611e7b7cbe3611cac16fbdbf,
,,,,space,0.5756,,0,307,307,155,1,O, , , , ,space,1500,1.5,60fd7559dfb3bc7f863f47a3,001,2021-08-19_16h48.46.316,natb3,2021.2.3,Win32,39.84222479,60fd7559dfb3bc7f863f47a3,611e07ecdcc96256ae8d5b80,611e7b7cbe3611cac16fbdbf,
,,,,,,,0,308,308,92,1,Z, , , , ,space,1500,1.5,60fd7559dfb3bc7f863f47a3,001,2021-08-19_16h48.46.316,natb3,2021.2.3,Win32,39.84222479,60fd7559dfb3bc7f863f47a3,611e07ecdcc96256ae8d5b80,611e7b7cbe3611cac16fbdbf,
,,,,space,0.3479,,0,309,309,44,1,I, , , , ,space,2500,2.5,60fd7559dfb3bc7f863f47a3,001,2021-08-19_16h48.46.316,natb3,2021.2.3,Win32,39.84222479,60fd7559dfb3bc7f863f47a3,611e07ecdcc96256ae8d5b80,611e7b7cbe3611cac16fbdbf,
,,,,space,0.3971,,0,310,310,182,1,X, , , , ,,1500,1.5,60fd7559dfb3bc7f863f47a3,001,2021-08-19_16h48.46.316,natb3,2021.2.3,Win32,39.84222479,60fd7559dfb3bc7f863f47a3,611e07ecdcc96256ae8d5b80,611e7b7cbe3611cac16fbdbf,
,,,,space,0.3981,,0,311,311,174,1,B, , , , ,space,2500,2.5,60fd7559dfb3bc7f863f47a3,001,2021-08-19_16h48.46.316,natb3,2021.2.3,Win32,39.84222479,60fd7559dfb3bc7f863f47a3,611e07ecdcc96256ae8d5b80,611e7b7cbe3611cac16fbdbf,
,,,,space,0.3952,,0,312,312,112,1,Q, , , , ,space,2500,2.5,60fd7559dfb3bc7f863f47a3,001,2021-08-19_16h48.46.316,natb3,2021.2.3,Win32,39.84222479,60fd7559dfb3bc7f863f47a3,611e07ecdcc96256ae8d5b80,611e7b7cbe3611cac16fbdbf,
,,,,,,,0,313,313,4,1,X, , , , ,,2000,2,60fd7559dfb3bc7f863f47a3,001,2021-08-19_16h48.46.316,natb3,2021.2.3,Win32,39.84222479,60fd7559dfb3bc7f863f47a3,611e07ecdcc96256ae8d5b80,611e7b7cbe3611cac16fbdbf,
,,,,space,0.4537,,0,314,314,250,1,V, , , , ,space,2000,2,60fd7559dfb3bc7f863f47a3,001,2021-08-19_16h48.46.316,natb3,2021.2.3,Win32,39.84222479,60fd7559dfb3bc7f863f47a3,611e07ecdcc96256ae8d5b80,611e7b7cbe3611cac16fbdbf,
,,,,space,0.5005,,0,315,315,55,1,H, , , , ,space,2500,2.5,60fd7559dfb3bc7f863f47a3,001,2021-08-19_16h48.46.316,natb3,2021.2.3,Win32,39.84222479,60fd7559dfb3bc7f863f47a3,611e07ecdcc96256ae8d5b80,611e7b7cbe3611cac16fbdbf,
,,,,space,0.4176,,0,316,316,36,1,W, , , , ,space,2000,2,60fd7559dfb3bc7f863f47a3,001,2021-08-19_16h48.46.316,natb3,2021.2.3,Win32,39.84222479,60fd7559dfb3bc7f863f47a3,611e07ecdcc96256ae8d5b80,611e7b7cbe3611cac16fbdbf,
,,,,space,0.4246,,0,317,317,209,1,N, , , , ,space,2000,2,60fd7559dfb3bc7f863f47a3,001,2021-08-19_16h48.46.316,natb3,2021.2.3,Win32,39.84222479,60fd7559dfb3bc7f863f47a3,611e07ecdcc96256ae8d5b80,611e7b7cbe3611cac16fbdbf,
,,,,space,0.3985,,0,318,318,115,1,R, , , , ,space,1500,1.5,60fd7559dfb3bc7f863f47a3,001,2021-08-19_16h48.46.316,natb3,2021.2.3,Win32,39.84222479,60fd7559dfb3bc7f863f47a3,611e07ecdcc96256ae8d5b80,611e7b7cbe3611cac16fbdbf,
,,,,space,0.4577,,0,319,319,127,1,S, , , , ,space,2500,2.5,60fd7559dfb3bc7f863f47a3,001,2021-08-19_16h48.46.316,natb3,2021.2.3,Win32,39.84222479,60fd7559dfb3bc7f863f47a3,611e07ecdcc96256ae8d5b80,611e7b7cbe3611cac16fbdbf,
,,,,space,0.5236,,0,320,320,330,1,T, , , , ,space,2500,2.5,60fd7559dfb3bc7f863f47a3,001,2021-08-19_16h48.46.316,natb3,2021.2.3,Win32,39.84222479,60fd7559dfb3bc7f863f47a3,611e07ecdcc96256ae8d5b80,611e7b7cbe3611cac16fbdbf,
,,,,,,,0,321,321,218,1,X,1,3, ,8,,1500,1.5,60fd7559dfb3bc7f863f47a3,001,2021-08-19_16h48.46.316,natb3,2021.2.3,Win32,39.84222479,60fd7559dfb3bc7f863f47a3,611e07ecdcc96256ae8d5b80,611e7b7cbe3611cac16fbdbf,
,,,,space,0.3897,,0,322,322,52,1,F, , , , ,space,1500,1.5,60fd7559dfb3bc7f863f47a3,001,2021-08-19_16h48.46.316,natb3,2021.2.3,Win32,39.84222479,60fd7559dfb3bc7f863f47a3,611e07ecdcc96256ae8d5b80,611e7b7cbe3611cac16fbdbf,
,,,,space,0.4933,,0,323,323,170,1,Z, , , , ,space,2000,2,60fd7559dfb3bc7f863f47a3,001,2021-08-19_16h48.46.316,natb3,2021.2.3,Win32,39.84222479,60fd7559dfb3bc7f863f47a3,611e07ecdcc96256ae8d5b80,611e7b7cbe3611cac16fbdbf,
,,,,,,,0,324,324,271,1,X, , , , ,,2500,2.5,60fd7559dfb3bc7f863f47a3,001,2021-08-19_16h48.46.316,natb3,2021.2.3,Win32,39.84222479,60fd7559dfb3bc7f863f47a3,611e07ecdcc96256ae8d5b80,611e7b7cbe3611cac16fbdbf,
,,,,space,0.5486,,0,325,325,286,1,N, , , , ,space,1500,1.5,60fd7559dfb3bc7f863f47a3,001,2021-08-19_16h48.46.316,natb3,2021.2.3,Win32,39.84222479,60fd7559dfb3bc7f863f47a3,611e07ecdcc96256ae8d5b80,611e7b7cbe3611cac16fbdbf,
,,,,,,,0,326,326,60,1,X,7,3,5, ,,1500,1.5,60fd7559dfb3bc7f863f47a3,001,2021-08-19_16h48.46.316,natb3,2021.2.3,Win32,39.84222479,60fd7559dfb3bc7f863f47a3,611e07ecdcc96256ae8d5b80,611e7b7cbe3611cac16fbdbf,
,,,,space,0.4199,,0,327,327,111,1,O, , , , ,space,2000,2,60fd7559dfb3bc7f863f47a3,001,2021-08-19_16h48.46.316,natb3,2021.2.3,Win32,39.84222479,60fd7559dfb3bc7f863f47a3,611e07ecdcc96256ae8d5b80,611e7b7cbe3611cac16fbdbf,
,,,,space,0.4723,,0,328,328,328,1,R, , , , ,space,1500,1.5,60fd7559dfb3bc7f863f47a3,001,2021-08-19_16h48.46.316,natb3,2021.2.3,Win32,39.84222479,60fd7559dfb3bc7f863f47a3,611e07ecdcc96256ae8d5b80,611e7b7cbe3611cac16fbdbf,
,,,,space,0.4731,,0,329,329,334,1,O, , , , ,space,1500,1.5,60fd7559dfb3bc7f863f47a3,001,2021-08-19_16h48.46.316,natb3,2021.2.3,Win32,39.84222479,60fd7559dfb3bc7f863f47a3,611e07ecdcc96256ae8d5b80,611e7b7cbe3611cac16fbdbf,
,,,,space,0.3553,,0,330,330,172,1,C, , , , ,space,1500,1.5,60fd7559dfb3bc7f863f47a3,001,2021-08-19_16h48.46.316,natb3,2021.2.3,Win32,39.84222479,60fd7559dfb3bc7f863f47a3,611e07ecdcc96256ae8d5b80,611e7b7cbe3611cac16fbdbf,
,,,,space,0.3484,,0,331,331,160,1,D, , , , ,space,1500,1.5,60fd7559dfb3bc7f863f47a3,001,2021-08-19_16h48.46.316,natb3,2021.2.3,Win32,39.84222479,60fd7559dfb3bc7f863f47a3,611e07ecdcc96256ae8d5b80,611e7b7cbe3611cac16fbdbf,
,,,,space,0.5425,,0,332,332,323,1,M, , , , ,space,2500,2.5,60fd7559dfb3bc7f863f47a3,001,2021-08-19_16h48.46.316,natb3,2021.2.3,Win32,39.84222479,60fd7559dfb3bc7f863f47a3,611e07ecdcc96256ae8d5b80,611e7b7cbe3611cac16fbdbf,
,,,,space,0.8469,,0,333,333,0,1,Q, , , , ,space,1500,1.5,60fd7559dfb3bc7f863f47a3,001,2021-08-19_16h48.46.316,natb3,2021.2.3,Win32,39.84222479,60fd7559dfb3bc7f863f47a3,611e07ecdcc96256ae8d5b80,611e7b7cbe3611cac16fbdbf,
,,,,space,0.3473,,0,334,334,281,1,Z, , , , ,space,1500,1.5,60fd7559dfb3bc7f863f47a3,001,2021-08-19_16h48.46.316,natb3,2021.2.3,Win32,39.84222479,60fd7559dfb3bc7f863f47a3,611e07ecdcc96256ae8d5b80,611e7b7cbe3611cac16fbdbf,
,,,,space,0.3994,,0,335,335,134,1,J, , , , ,space,2000,2,60fd7559dfb3bc7f863f47a3,001,2021-08-19_16h48.46.316,natb3,2021.2.3,Win32,39.84222479,60fd7559dfb3bc7f863f47a3,611e07ecdcc96256ae8d5b80,611e7b7cbe3611cac16fbdbf,
