key_resp_2.keys,key_resp_2.rt,key_resp_3.keys,key_resp_3.rt,key_resp.keys,key_resp.rt,key_resp_4.keys,trials.thisRepN,trials.thisTrialN,trials.thisN,trials.thisIndex,trials.ran,stimulus,distractor1,distractor2,distractor3,distractor4,CorrAns,isi_duration,isi_dur_in_seconds,participant,session,date,expName,psychopyVersion,OS,frameRate,PROLIFIC_PID,STUDY_ID,SESSION_ID,key_resp_4.rt
return,9.2943,space,8.0502,space,0.5907,,0,0,0,241,1,G, , , , ,space,2500,2.5,60fe690b1b3a998bee3507a8,001,2021-08-19_16h46.28.621,natb3,2021.2.3,Win32,60.07088364,60fe690b1b3a998bee3507a8,611e07ecdcc96256ae8d5b80,611e7cbe1ac0f1ad385a0618,
,,,,space,0.3161,,0,1,1,320,1,B, , , , ,space,1500,1.5,60fe690b1b3a998bee3507a8,001,2021-08-19_16h46.28.621,natb3,2021.2.3,Win32,60.07088364,60fe690b1b3a998bee3507a8,611e07ecdcc96256ae8d5b80,611e7cbe1ac0f1ad385a0618,
,,,,,,,0,2,2,168,1,X, , , , ,,2500,2.5,60fe690b1b3a998bee3507a8,001,2021-08-19_16h46.28.621,natb3,2021.2.3,Win32,60.07088364,60fe690b1b3a998bee3507a8,611e07ecdcc96256ae8d5b80,611e7cbe1ac0f1ad385a0618,
,,,,space,0.495,,0,3,3,224,1,W, , , , ,space,1500,1.5,60fe690b1b3a998bee3507a8,001,2021-08-19_16h46.28.621,natb3,2021.2.3,Win32,60.07088364,60fe690b1b3a998bee3507a8,611e07ecdcc96256ae8d5b80,611e7cbe1ac0f1ad385a0618,
,,,,space,0.3558,,0,4,4,50,1,D, , , , ,space,1500,1.5,60fe690b1b3a998bee3507a8,001,2021-08-19_16h46.28.621,natb3,2021.2.3,Win32,60.07088364,60fe690b1b3a998bee3507a8,611e07ecdcc96256ae8d5b80,611e7cbe1ac0f1ad385a0618,
,,,,,,,0,5,5,295,1,X,8,7,5, ,,2500,2.5,60fe690b1b3a998bee3507a8,001,2021-08-19_16h46.28.621,natb3,2021.2.3,Win32,60.07088364,60fe690b1b3a998bee3507a8,611e07ecdcc96256ae8d5b80,611e7cbe1ac0f1ad385a0618,
,,,,,,,0,6,6,325,1,X, , , , ,,2500,2.5,60fe690b1b3a998bee3507a8,001,2021-08-19_16h46.28.621,natb3,2021.2.3,Win32,60.07088364,60fe690b1b3a998bee3507a8,611e07ecdcc96256ae8d5b80,611e7cbe1ac0f1ad385a0618,
,,,,,,,0,7,7,218,1,X,1,3, ,8,,1500,1.5,60fe690b1b3a998bee3507a8,001,2021-08-19_16h46.28.621,natb3,2021.2.3,Win32,60.07088364,60fe690b1b3a998bee3507a8,611e07ecdcc96256ae8d5b80,611e7cbe1ac0f1ad385a0618,
,,,,space,0.4766,,0,8,8,258,1,E, , , , ,space,1500,1.5,60fe690b1b3a998bee3507a8,001,2021-08-19_16h46.28.621,natb3,2021.2.3,Win32,60.07088364,60fe690b1b3a998bee3507a8,611e07ecdcc96256ae8d5b80,611e7cbe1ac0f1ad385a0618,
,,,,space,0.3527,,0,9,9,274,1,F, , , , ,space,2000,2,60fe690b1b3a998bee3507a8,001,2021-08-19_16h46.28.621,natb3,2021.2.3,Win32,60.07088364,60fe690b1b3a998bee3507a8,611e07ecdcc96256ae8d5b80,611e7cbe1ac0f1ad385a0618,
,,,,space,0.3848,,0,10,10,128,1,D, , , , ,space,2500,2.5,60fe690b1b3a998bee3507a8,001,2021-08-19_16h46.28.621,natb3,2021.2.3,Win32,60.07088364,60fe690b1b3a998bee3507a8,611e07ecdcc96256ae8d5b80,611e7cbe1ac0f1ad385a0618,
,,,,space,0.3518,,0,11,11,119,1,Y, , , , ,space,2500,2.5,60fe690b1b3a998bee3507a8,001,2021-08-19_16h46.28.621,natb3,2021.2.3,Win32,60.07088364,60fe690b1b3a998bee3507a8,611e07ecdcc96256ae8d5b80,611e7cbe1ac0f1ad385a0618,
,,,,,,,0,12,12,213,1,X, , , , ,,2500,2.5,60fe690b1b3a998bee3507a8,001,2021-08-19_16h46.28.621,natb3,2021.2.3,Win32,60.07088364,60fe690b1b3a998bee3507a8,611e07ecdcc96256ae8d5b80,611e7cbe1ac0f1ad385a0618,
,,,,space,0.3488,,0,13,13,208,1,B, , , , ,space,1500,1.5,60fe690b1b3a998bee3507a8,001,2021-08-19_16h46.28.621,natb3,2021.2.3,Win32,60.07088364,60fe690b1b3a998bee3507a8,611e07ecdcc96256ae8d5b80,611e7cbe1ac0f1ad385a0618,
,,,,space,0.4557,,0,14,14,146,1,W, , , , ,space,1500,1.5,60fe690b1b3a998bee3507a8,001,2021-08-19_16h46.28.621,natb3,2021.2.3,Win32,60.07088364,60fe690b1b3a998bee3507a8,611e07ecdcc96256ae8d5b80,611e7cbe1ac0f1ad385a0618,
,,,,space,0.3428,,0,15,15,177,1,M, , , , ,space,2500,2.5,60fe690b1b3a998bee3507a8,001,2021-08-19_16h46.28.621,natb3,2021.2.3,Win32,60.07088364,60fe690b1b3a998bee3507a8,611e07ecdcc96256ae8d5b80,611e7cbe1ac0f1ad385a0618,
,,,,space,0.3022,,0,16,16,237,1,S, , , , ,space,1500,1.5,60fe690b1b3a998bee3507a8,001,2021-08-19_16h46.28.621,natb3,2021.2.3,Win32,60.07088364,60fe690b1b3a998bee3507a8,611e07ecdcc96256ae8d5b80,611e7cbe1ac0f1ad385a0618,
,,,,space,0.3692,,0,17,17,309,1,H, , , , ,space,2500,2.5,60fe690b1b3a998bee3507a8,001,2021-08-19_16h46.28.621,natb3,2021.2.3,Win32,60.07088364,60fe690b1b3a998bee3507a8,611e07ecdcc96256ae8d5b80,611e7cbe1ac0f1ad385a0618,
,,,,space,0.2996,,0,18,18,109,1,U, , , , ,space,1500,1.5,60fe690b1b3a998bee3507a8,001,2021-08-19_16h46.28.621,natb3,2021.2.3,Win32,60.07088364,60fe690b1b3a998bee3507a8,611e07ecdcc96256ae8d5b80,611e7cbe1ac0f1ad385a0618,
,,,,space,0.3522,,0,19,19,306,1,D, , , , ,space,2000,2,60fe690b1b3a998bee3507a8,001,2021-08-19_16h46.28.621,natb3,2021.2.3,Win32,60.07088364,60fe690b1b3a998bee3507a8,611e07ecdcc96256ae8d5b80,611e7cbe1ac0f1ad385a0618,
,,,,space,0.3795,,0,20,20,113,1,W, , , , ,space,2500,2.5,60fe690b1b3a998bee3507a8,001,2021-08-19_16h46.28.621,natb3,2021.2.3,Win32,60.07088364,60fe690b1b3a998bee3507a8,611e07ecdcc96256ae8d5b80,611e7cbe1ac0f1ad385a0618,
,,,,space,0.328,,0,21,21,240,1,F, , , , ,space,2500,2.5,60fe690b1b3a998bee3507a8,001,2021-08-19_16h46.28.621,natb3,2021.2.3,Win32,60.07088364,60fe690b1b3a998bee3507a8,611e07ecdcc96256ae8d5b80,611e7cbe1ac0f1ad385a0618,
,,,,space,0.4355,,0,22,22,201,1,K, , , , ,space,1500,1.5,60fe690b1b3a998bee3507a8,001,2021-08-19_16h46.28.621,natb3,2021.2.3,Win32,60.07088364,60fe690b1b3a998bee3507a8,611e07ecdcc96256ae8d5b80,611e7cbe1ac0f1ad385a0618,
,,,,space,0.3837,,0,23,23,111,1,O, , , , ,space,2000,2,60fe690b1b3a998bee3507a8,001,2021-08-19_16h46.28.621,natb3,2021.2.3,Win32,60.07088364,60fe690b1b3a998bee3507a8,611e07ecdcc96256ae8d5b80,611e7cbe1ac0f1ad385a0618,
,,,,space,0.3045,,0,24,24,226,1,R, , , , ,space,2000,2,60fe690b1b3a998bee3507a8,001,2021-08-19_16h46.28.621,natb3,2021.2.3,Win32,60.07088364,60fe690b1b3a998bee3507a8,611e07ecdcc96256ae8d5b80,611e7cbe1ac0f1ad385a0618,
,,,,space,0.3561,,0,25,25,192,1,A, , , , ,space,2000,2,60fe690b1b3a998bee3507a8,001,2021-08-19_16h46.28.621,natb3,2021.2.3,Win32,60.07088364,60fe690b1b3a998bee3507a8,611e07ecdcc96256ae8d5b80,611e7cbe1ac0f1ad385a0618,
,,,,space,0.3378,,0,26,26,125,1,X, , , , ,,2000,2,60fe690b1b3a998bee3507a8,001,2021-08-19_16h46.28.621,natb3,2021.2.3,Win32,60.07088364,60fe690b1b3a998bee3507a8,611e07ecdcc96256ae8d5b80,611e7cbe1ac0f1ad385a0618,
,,,,,,,0,27,27,273,1,X, , , , ,,2000,2,60fe690b1b3a998bee3507a8,001,2021-08-19_16h46.28.621,natb3,2021.2.3,Win32,60.07088364,60fe690b1b3a998bee3507a8,611e07ecdcc96256ae8d5b80,611e7cbe1ac0f1ad385a0618,
,,,,space,0.5246,,0,28,28,304,1,S, , , , ,space,2000,2,60fe690b1b3a998bee3507a8,001,2021-08-19_16h46.28.621,natb3,2021.2.3,Win32,60.07088364,60fe690b1b3a998bee3507a8,611e07ecdcc96256ae8d5b80,611e7cbe1ac0f1ad385a0618,
,,,,space,0.3179,,0,29,29,321,1,N, , , , ,space,2000,2,60fe690b1b3a998bee3507a8,001,2021-08-19_16h46.28.621,natb3,2021.2.3,Win32,60.07088364,60fe690b1b3a998bee3507a8,611e07ecdcc96256ae8d5b80,611e7cbe1ac0f1ad385a0618,
,,,,space,0.352,,0,30,30,98,1,X, , , , ,,2500,2.5,60fe690b1b3a998bee3507a8,001,2021-08-19_16h46.28.621,natb3,2021.2.3,Win32,60.07088364,60fe690b1b3a998bee3507a8,611e07ecdcc96256ae8d5b80,611e7cbe1ac0f1ad385a0618,
,,,,,,,0,31,31,263,1,X,4, ,6, ,,1500,1.5,60fe690b1b3a998bee3507a8,001,2021-08-19_16h46.28.621,natb3,2021.2.3,Win32,60.07088364,60fe690b1b3a998bee3507a8,611e07ecdcc96256ae8d5b80,611e7cbe1ac0f1ad385a0618,
,,,,,,,0,32,32,102,1,X, ,6, , ,,1500,1.5,60fe690b1b3a998bee3507a8,001,2021-08-19_16h46.28.621,natb3,2021.2.3,Win32,60.07088364,60fe690b1b3a998bee3507a8,611e07ecdcc96256ae8d5b80,611e7cbe1ac0f1ad385a0618,
,,,,,,,0,33,33,93,1,X,5, ,7, ,,2500,2.5,60fe690b1b3a998bee3507a8,001,2021-08-19_16h46.28.621,natb3,2021.2.3,Win32,60.07088364,60fe690b1b3a998bee3507a8,611e07ecdcc96256ae8d5b80,611e7cbe1ac0f1ad385a0618,
,,,,space,0.588,,0,34,34,209,1,N, , , , ,space,2000,2,60fe690b1b3a998bee3507a8,001,2021-08-19_16h46.28.621,natb3,2021.2.3,Win32,60.07088364,60fe690b1b3a998bee3507a8,611e07ecdcc96256ae8d5b80,611e7cbe1ac0f1ad385a0618,
,,,,space,0.3519,,0,35,35,253,1,N, , , , ,space,2500,2.5,60fe690b1b3a998bee3507a8,001,2021-08-19_16h46.28.621,natb3,2021.2.3,Win32,60.07088364,60fe690b1b3a998bee3507a8,611e07ecdcc96256ae8d5b80,611e7cbe1ac0f1ad385a0618,
,,,,space,0.5802,,0,36,36,56,1,J, , , , ,space,1500,1.5,60fe690b1b3a998bee3507a8,001,2021-08-19_16h46.28.621,natb3,2021.2.3,Win32,60.07088364,60fe690b1b3a998bee3507a8,611e07ecdcc96256ae8d5b80,611e7cbe1ac0f1ad385a0618,
,,,,,,,0,37,37,107,1,X,9,3, ,2,,2000,2,60fe690b1b3a998bee3507a8,001,2021-08-19_16h46.28.621,natb3,2021.2.3,Win32,60.07088364,60fe690b1b3a998bee3507a8,611e07ecdcc96256ae8d5b80,611e7cbe1ac0f1ad385a0618,
,,,,,,,0,38,38,315,1,X, , , , ,,2500,2.5,60fe690b1b3a998bee3507a8,001,2021-08-19_16h46.28.621,natb3,2021.2.3,Win32,60.07088364,60fe690b1b3a998bee3507a8,611e07ecdcc96256ae8d5b80,611e7cbe1ac0f1ad385a0618,
,,,,space,0.3848,,0,39,39,225,1,E, , , , ,space,2000,2,60fe690b1b3a998bee3507a8,001,2021-08-19_16h46.28.621,natb3,2021.2.3,Win32,60.07088364,60fe690b1b3a998bee3507a8,611e07ecdcc96256ae8d5b80,611e7cbe1ac0f1ad385a0618,
,,,,,,,0,40,40,203,1,X, , , , ,,2500,2.5,60fe690b1b3a998bee3507a8,001,2021-08-19_16h46.28.621,natb3,2021.2.3,Win32,60.07088364,60fe690b1b3a998bee3507a8,611e07ecdcc96256ae8d5b80,611e7cbe1ac0f1ad385a0618,
,,,,,,,0,41,41,243,1,X, , , , ,,2500,2.5,60fe690b1b3a998bee3507a8,001,2021-08-19_16h46.28.621,natb3,2021.2.3,Win32,60.07088364,60fe690b1b3a998bee3507a8,611e07ecdcc96256ae8d5b80,611e7cbe1ac0f1ad385a0618,
,,,,space,0.4017,,0,42,42,223,1,Q, , , , ,space,2000,2,60fe690b1b3a998bee3507a8,001,2021-08-19_16h46.28.621,natb3,2021.2.3,Win32,60.07088364,60fe690b1b3a998bee3507a8,611e07ecdcc96256ae8d5b80,611e7cbe1ac0f1ad385a0618,
,,,,space,0.3358,,0,43,43,59,1,Z, , , , ,space,2000,2,60fe690b1b3a998bee3507a8,001,2021-08-19_16h46.28.621,natb3,2021.2.3,Win32,60.07088364,60fe690b1b3a998bee3507a8,611e07ecdcc96256ae8d5b80,611e7cbe1ac0f1ad385a0618,
,,,,space,0.3887,,0,44,44,169,1,L, , , , ,space,2500,2.5,60fe690b1b3a998bee3507a8,001,2021-08-19_16h46.28.621,natb3,2021.2.3,Win32,60.07088364,60fe690b1b3a998bee3507a8,611e07ecdcc96256ae8d5b80,611e7cbe1ac0f1ad385a0618,
,,,,space,0.3906,,0,45,45,260,1,R, , , , ,space,2000,2,60fe690b1b3a998bee3507a8,001,2021-08-19_16h46.28.621,natb3,2021.2.3,Win32,60.07088364,60fe690b1b3a998bee3507a8,611e07ecdcc96256ae8d5b80,611e7cbe1ac0f1ad385a0618,
,,,,space,0.313,,0,46,46,115,1,R, , , , ,space,1500,1.5,60fe690b1b3a998bee3507a8,001,2021-08-19_16h46.28.621,natb3,2021.2.3,Win32,60.07088364,60fe690b1b3a998bee3507a8,611e07ecdcc96256ae8d5b80,611e7cbe1ac0f1ad385a0618,
,,,,space,0.3496,,0,47,47,242,1,H, , , , ,space,2500,2.5,60fe690b1b3a998bee3507a8,001,2021-08-19_16h46.28.621,natb3,2021.2.3,Win32,60.07088364,60fe690b1b3a998bee3507a8,611e07ecdcc96256ae8d5b80,611e7cbe1ac0f1ad385a0618,
,,,,space,0.4537,,0,48,48,283,1,C, , , , ,space,1500,1.5,60fe690b1b3a998bee3507a8,001,2021-08-19_16h46.28.621,natb3,2021.2.3,Win32,60.07088364,60fe690b1b3a998bee3507a8,611e07ecdcc96256ae8d5b80,611e7cbe1ac0f1ad385a0618,
,,,,space,0.4102,,0,49,49,161,1,F, , , , ,space,1500,1.5,60fe690b1b3a998bee3507a8,001,2021-08-19_16h46.28.621,natb3,2021.2.3,Win32,60.07088364,60fe690b1b3a998bee3507a8,611e07ecdcc96256ae8d5b80,611e7cbe1ac0f1ad385a0618,
,,,,space,0.369,,0,50,50,324,1,Q, , , , ,space,2000,2,60fe690b1b3a998bee3507a8,001,2021-08-19_16h46.28.621,natb3,2021.2.3,Win32,60.07088364,60fe690b1b3a998bee3507a8,611e07ecdcc96256ae8d5b80,611e7cbe1ac0f1ad385a0618,
,,,,,,,0,51,51,7,1,X, , , , ,,1500,1.5,60fe690b1b3a998bee3507a8,001,2021-08-19_16h46.28.621,natb3,2021.2.3,Win32,60.07088364,60fe690b1b3a998bee3507a8,611e07ecdcc96256ae8d5b80,611e7cbe1ac0f1ad385a0618,
,,,,space,0.4524,,0,52,52,202,1,L, , , , ,space,2500,2.5,60fe690b1b3a998bee3507a8,001,2021-08-19_16h46.28.621,natb3,2021.2.3,Win32,60.07088364,60fe690b1b3a998bee3507a8,611e07ecdcc96256ae8d5b80,611e7cbe1ac0f1ad385a0618,
,,,,space,0.3524,,0,53,53,0,1,Q, , , , ,space,1500,1.5,60fe690b1b3a998bee3507a8,001,2021-08-19_16h46.28.621,natb3,2021.2.3,Win32,60.07088364,60fe690b1b3a998bee3507a8,611e07ecdcc96256ae8d5b80,611e7cbe1ac0f1ad385a0618,
,,,,space,0.3683,,0,54,54,130,1,F, , , , ,space,2000,2,60fe690b1b3a998bee3507a8,001,2021-08-19_16h46.28.621,natb3,2021.2.3,Win32,60.07088364,60fe690b1b3a998bee3507a8,611e07ecdcc96256ae8d5b80,611e7cbe1ac0f1ad385a0618,
,,,,,,,0,55,55,179,1,X, ,9, ,2,,1500,1.5,60fe690b1b3a998bee3507a8,001,2021-08-19_16h46.28.621,natb3,2021.2.3,Win32,60.07088364,60fe690b1b3a998bee3507a8,611e07ecdcc96256ae8d5b80,611e7cbe1ac0f1ad385a0618,
,,,,,,,0,56,56,287,1,X, ,2, ,9,,2000,2,60fe690b1b3a998bee3507a8,001,2021-08-19_16h46.28.621,natb3,2021.2.3,Win32,60.07088364,60fe690b1b3a998bee3507a8,611e07ecdcc96256ae8d5b80,611e7cbe1ac0f1ad385a0618,
,,,,,,,0,57,57,277,1,X,8,5, ,2,,2000,2,60fe690b1b3a998bee3507a8,001,2021-08-19_16h46.28.621,natb3,2021.2.3,Win32,60.07088364,60fe690b1b3a998bee3507a8,611e07ecdcc96256ae8d5b80,611e7cbe1ac0f1ad385a0618,
,,,,space,0.3598,,0,58,58,143,1,M, , , , ,space,2500,2.5,60fe690b1b3a998bee3507a8,001,2021-08-19_16h46.28.621,natb3,2021.2.3,Win32,60.07088364,60fe690b1b3a998bee3507a8,611e07ecdcc96256ae8d5b80,611e7cbe1ac0f1ad385a0618,
,,,,space,0.4021,,0,59,59,160,1,D, , , , ,space,1500,1.5,60fe690b1b3a998bee3507a8,001,2021-08-19_16h46.28.621,natb3,2021.2.3,Win32,60.07088364,60fe690b1b3a998bee3507a8,611e07ecdcc96256ae8d5b80,611e7cbe1ac0f1ad385a0618,
,,,,space,0.2867,,0,60,60,288,1,M, , , , ,space,1500,1.5,60fe690b1b3a998bee3507a8,001,2021-08-19_16h46.28.621,natb3,2021.2.3,Win32,60.07088364,60fe690b1b3a998bee3507a8,611e07ecdcc96256ae8d5b80,611e7cbe1ac0f1ad385a0618,
,,,,,,,0,61,61,46,1,X, , , , ,,2000,2,60fe690b1b3a998bee3507a8,001,2021-08-19_16h46.28.621,natb3,2021.2.3,Win32,60.07088364,60fe690b1b3a998bee3507a8,611e07ecdcc96256ae8d5b80,611e7cbe1ac0f1ad385a0618,
,,,,space,0.4173,,0,62,62,228,1,Y, , , , ,space,2000,2,60fe690b1b3a998bee3507a8,001,2021-08-19_16h46.28.621,natb3,2021.2.3,Win32,60.07088364,60fe690b1b3a998bee3507a8,611e07ecdcc96256ae8d5b80,611e7cbe1ac0f1ad385a0618,
,,,,space,0.3357,,0,63,63,57,1,K, , , , ,space,2500,2.5,60fe690b1b3a998bee3507a8,001,2021-08-19_16h46.28.621,natb3,2021.2.3,Win32,60.07088364,60fe690b1b3a998bee3507a8,611e07ecdcc96256ae8d5b80,611e7cbe1ac0f1ad385a0618,
,,,,space,0.3726,,0,64,64,79,1,P, , , , ,space,2000,2,60fe690b1b3a998bee3507a8,001,2021-08-19_16h46.28.621,natb3,2021.2.3,Win32,60.07088364,60fe690b1b3a998bee3507a8,611e07ecdcc96256ae8d5b80,611e7cbe1ac0f1ad385a0618,
,,,,,,,0,65,65,175,1,X,7, ,4,2,,1500,1.5,60fe690b1b3a998bee3507a8,001,2021-08-19_16h46.28.621,natb3,2021.2.3,Win32,60.07088364,60fe690b1b3a998bee3507a8,611e07ecdcc96256ae8d5b80,611e7cbe1ac0f1ad385a0618,
,,,,space,0.3098,,0,66,66,197,1,G, , , , ,space,2500,2.5,60fe690b1b3a998bee3507a8,001,2021-08-19_16h46.28.621,natb3,2021.2.3,Win32,60.07088364,60fe690b1b3a998bee3507a8,611e07ecdcc96256ae8d5b80,611e7cbe1ac0f1ad385a0618,
,,,,space,0.3795,,0,67,67,92,1,Z, , , , ,space,1500,1.5,60fe690b1b3a998bee3507a8,001,2021-08-19_16h46.28.621,natb3,2021.2.3,Win32,60.07088364,60fe690b1b3a998bee3507a8,611e07ecdcc96256ae8d5b80,611e7cbe1ac0f1ad385a0618,
,,,,,,,0,68,68,31,1,X, , , , ,,1500,1.5,60fe690b1b3a998bee3507a8,001,2021-08-19_16h46.28.621,natb3,2021.2.3,Win32,60.07088364,60fe690b1b3a998bee3507a8,611e07ecdcc96256ae8d5b80,611e7cbe1ac0f1ad385a0618,
,,,,space,0.3809,,0,69,69,137,1,C, , , , ,space,2500,2.5,60fe690b1b3a998bee3507a8,001,2021-08-19_16h46.28.621,natb3,2021.2.3,Win32,60.07088364,60fe690b1b3a998bee3507a8,611e07ecdcc96256ae8d5b80,611e7cbe1ac0f1ad385a0618,
,,,,space,0.3627,,0,70,70,183,1,R, , , , ,space,1500,1.5,60fe690b1b3a998bee3507a8,001,2021-08-19_16h46.28.621,natb3,2021.2.3,Win32,60.07088364,60fe690b1b3a998bee3507a8,611e07ecdcc96256ae8d5b80,611e7cbe1ac0f1ad385a0618,
,,,,,,,0,71,71,259,1,X,8, , ,3,,2500,2.5,60fe690b1b3a998bee3507a8,001,2021-08-19_16h46.28.621,natb3,2021.2.3,Win32,60.07088364,60fe690b1b3a998bee3507a8,611e07ecdcc96256ae8d5b80,611e7cbe1ac0f1ad385a0618,
,,,,space,0.3611,,0,72,72,292,1,E, , , , ,space,2000,2,60fe690b1b3a998bee3507a8,001,2021-08-19_16h46.28.621,natb3,2021.2.3,Win32,60.07088364,60fe690b1b3a998bee3507a8,611e07ecdcc96256ae8d5b80,611e7cbe1ac0f1ad385a0618,
,,,,space,0.2376,,0,73,73,286,1,N, , , , ,space,1500,1.5,60fe690b1b3a998bee3507a8,001,2021-08-19_16h46.28.621,natb3,2021.2.3,Win32,60.07088364,60fe690b1b3a998bee3507a8,611e07ecdcc96256ae8d5b80,611e7cbe1ac0f1ad385a0618,
,,,,space,0.2355,,0,74,74,155,1,O, , , , ,space,1500,1.5,60fe690b1b3a998bee3507a8,001,2021-08-19_16h46.28.621,natb3,2021.2.3,Win32,60.07088364,60fe690b1b3a998bee3507a8,611e07ecdcc96256ae8d5b80,611e7cbe1ac0f1ad385a0618,
,,,,space,0.2859,,0,75,75,106,1,T, , , , ,space,1500,1.5,60fe690b1b3a998bee3507a8,001,2021-08-19_16h46.28.621,natb3,2021.2.3,Win32,60.07088364,60fe690b1b3a998bee3507a8,611e07ecdcc96256ae8d5b80,611e7cbe1ac0f1ad385a0618,
,,,,space,0.3685,,0,76,76,212,1,Q, , , , ,space,2500,2.5,60fe690b1b3a998bee3507a8,001,2021-08-19_16h46.28.621,natb3,2021.2.3,Win32,60.07088364,60fe690b1b3a998bee3507a8,611e07ecdcc96256ae8d5b80,611e7cbe1ac0f1ad385a0618,
,,,,space,0.3177,,0,77,77,10,1,O, , , , ,space,2000,2,60fe690b1b3a998bee3507a8,001,2021-08-19_16h46.28.621,natb3,2021.2.3,Win32,60.07088364,60fe690b1b3a998bee3507a8,611e07ecdcc96256ae8d5b80,611e7cbe1ac0f1ad385a0618,
,,,,space,0.3273,,0,78,78,4,1,X, , , , ,,2000,2,60fe690b1b3a998bee3507a8,001,2021-08-19_16h46.28.621,natb3,2021.2.3,Win32,60.07088364,60fe690b1b3a998bee3507a8,611e07ecdcc96256ae8d5b80,611e7cbe1ac0f1ad385a0618,
,,,,space,0.3932,,0,79,79,154,1,I, , , , ,space,2500,2.5,60fe690b1b3a998bee3507a8,001,2021-08-19_16h46.28.621,natb3,2021.2.3,Win32,60.07088364,60fe690b1b3a998bee3507a8,611e07ecdcc96256ae8d5b80,611e7cbe1ac0f1ad385a0618,
,,,,space,0.3516,,0,80,80,172,1,C, , , , ,space,1500,1.5,60fe690b1b3a998bee3507a8,001,2021-08-19_16h46.28.621,natb3,2021.2.3,Win32,60.07088364,60fe690b1b3a998bee3507a8,611e07ecdcc96256ae8d5b80,611e7cbe1ac0f1ad385a0618,
,,,,space,0.3947,,0,81,81,246,1,L, , , , ,space,2500,2.5,60fe690b1b3a998bee3507a8,001,2021-08-19_16h46.28.621,natb3,2021.2.3,Win32,60.07088364,60fe690b1b3a998bee3507a8,611e07ecdcc96256ae8d5b80,611e7cbe1ac0f1ad385a0618,
,,,,space,0.3147,,0,82,82,190,1,P, , , , ,space,2000,2,60fe690b1b3a998bee3507a8,001,2021-08-19_16h46.28.621,natb3,2021.2.3,Win32,60.07088364,60fe690b1b3a998bee3507a8,611e07ecdcc96256ae8d5b80,611e7cbe1ac0f1ad385a0618,
,,,,space,0.3649,,0,83,83,323,1,M, , , , ,space,2500,2.5,60fe690b1b3a998bee3507a8,001,2021-08-19_16h46.28.621,natb3,2021.2.3,Win32,60.07088364,60fe690b1b3a998bee3507a8,611e07ecdcc96256ae8d5b80,611e7cbe1ac0f1ad385a0618,
,,,,space,0.5353,,0,84,84,13,1,A, , , , ,space,2000,2,60fe690b1b3a998bee3507a8,001,2021-08-19_16h46.28.621,natb3,2021.2.3,Win32,60.07088364,60fe690b1b3a998bee3507a8,611e07ecdcc96256ae8d5b80,611e7cbe1ac0f1ad385a0618,
,,,,space,0.3553,,0,85,85,221,1,I, , , , ,space,2500,2.5,60fe690b1b3a998bee3507a8,001,2021-08-19_16h46.28.621,natb3,2021.2.3,Win32,60.07088364,60fe690b1b3a998bee3507a8,611e07ecdcc96256ae8d5b80,611e7cbe1ac0f1ad385a0618,
,,,,space,0.5145,,0,86,86,254,1,M, , , , ,space,1500,1.5,60fe690b1b3a998bee3507a8,001,2021-08-19_16h46.28.621,natb3,2021.2.3,Win32,60.07088364,60fe690b1b3a998bee3507a8,611e07ecdcc96256ae8d5b80,611e7cbe1ac0f1ad385a0618,
,,,,space,0.3187,,0,87,87,198,1,H, , , , ,space,2500,2.5,60fe690b1b3a998bee3507a8,001,2021-08-19_16h46.28.621,natb3,2021.2.3,Win32,60.07088364,60fe690b1b3a998bee3507a8,611e07ecdcc96256ae8d5b80,611e7cbe1ac0f1ad385a0618,
,,,,space,0.3116,,0,88,88,300,1,O, , , , ,space,2500,2.5,60fe690b1b3a998bee3507a8,001,2021-08-19_16h46.28.621,natb3,2021.2.3,Win32,60.07088364,60fe690b1b3a998bee3507a8,611e07ecdcc96256ae8d5b80,611e7cbe1ac0f1ad385a0618,
,,,,space,0.3179,,0,89,89,152,1,U, , , , ,space,2000,2,60fe690b1b3a998bee3507a8,001,2021-08-19_16h46.28.621,natb3,2021.2.3,Win32,60.07088364,60fe690b1b3a998bee3507a8,611e07ecdcc96256ae8d5b80,611e7cbe1ac0f1ad385a0618,
,,,,space,0.352,,0,90,90,150,1,T, , , , ,space,2500,2.5,60fe690b1b3a998bee3507a8,001,2021-08-19_16h46.28.621,natb3,2021.2.3,Win32,60.07088364,60fe690b1b3a998bee3507a8,611e07ecdcc96256ae8d5b80,611e7cbe1ac0f1ad385a0618,
,,,,space,0.3679,,0,91,91,85,1,F, , , , ,space,2500,2.5,60fe690b1b3a998bee3507a8,001,2021-08-19_16h46.28.621,natb3,2021.2.3,Win32,60.07088364,60fe690b1b3a998bee3507a8,611e07ecdcc96256ae8d5b80,611e7cbe1ac0f1ad385a0618,
,,,,space,0.6955,,0,92,92,255,1,X, , , , ,,1500,1.5,60fe690b1b3a998bee3507a8,001,2021-08-19_16h46.28.621,natb3,2021.2.3,Win32,60.07088364,60fe690b1b3a998bee3507a8,611e07ecdcc96256ae8d5b80,611e7cbe1ac0f1ad385a0618,
,,,,,,,0,93,93,66,1,X, ,4,7, ,,2000,2,60fe690b1b3a998bee3507a8,001,2021-08-19_16h46.28.621,natb3,2021.2.3,Win32,60.07088364,60fe690b1b3a998bee3507a8,611e07ecdcc96256ae8d5b80,611e7cbe1ac0f1ad385a0618,
,,,,space,0.3854,,0,94,94,53,1,G, , , , ,space,2500,2.5,60fe690b1b3a998bee3507a8,001,2021-08-19_16h46.28.621,natb3,2021.2.3,Win32,60.07088364,60fe690b1b3a998bee3507a8,611e07ecdcc96256ae8d5b80,611e7cbe1ac0f1ad385a0618,
,,,,space,0.4107,,0,95,95,88,1,J, , , , ,space,2500,2.5,60fe690b1b3a998bee3507a8,001,2021-08-19_16h46.28.621,natb3,2021.2.3,Win32,60.07088364,60fe690b1b3a998bee3507a8,611e07ecdcc96256ae8d5b80,611e7cbe1ac0f1ad385a0618,
,,,,space,0.4021,,0,96,96,205,1,C, , , , ,space,2000,2,60fe690b1b3a998bee3507a8,001,2021-08-19_16h46.28.621,natb3,2021.2.3,Win32,60.07088364,60fe690b1b3a998bee3507a8,611e07ecdcc96256ae8d5b80,611e7cbe1ac0f1ad385a0618,
,,,,space,0.3177,,0,97,97,173,1,V, , , , ,space,1500,1.5,60fe690b1b3a998bee3507a8,001,2021-08-19_16h46.28.621,natb3,2021.2.3,Win32,60.07088364,60fe690b1b3a998bee3507a8,611e07ecdcc96256ae8d5b80,611e7cbe1ac0f1ad385a0618,
,,,,,,,0,98,98,82,1,X,4,6,1,7,,2000,2,60fe690b1b3a998bee3507a8,001,2021-08-19_16h46.28.621,natb3,2021.2.3,Win32,60.07088364,60fe690b1b3a998bee3507a8,611e07ecdcc96256ae8d5b80,611e7cbe1ac0f1ad385a0618,
,,,,,,,0,99,99,211,1,X, , , , ,,2500,2.5,60fe690b1b3a998bee3507a8,001,2021-08-19_16h46.28.621,natb3,2021.2.3,Win32,60.07088364,60fe690b1b3a998bee3507a8,611e07ecdcc96256ae8d5b80,611e7cbe1ac0f1ad385a0618,
,,,,space,0.4521,,0,100,100,28,1,V, , , , ,space,1500,1.5,60fe690b1b3a998bee3507a8,001,2021-08-19_16h46.28.621,natb3,2021.2.3,Win32,60.07088364,60fe690b1b3a998bee3507a8,611e07ecdcc96256ae8d5b80,611e7cbe1ac0f1ad385a0618,
,,,,,,,0,101,101,129,1,X,2,3,5, ,,1500,1.5,60fe690b1b3a998bee3507a8,001,2021-08-19_16h46.28.621,natb3,2021.2.3,Win32,60.07088364,60fe690b1b3a998bee3507a8,611e07ecdcc96256ae8d5b80,611e7cbe1ac0f1ad385a0618,
,,,,space,0.3792,,0,102,102,17,1,F, , , , ,space,2500,2.5,60fe690b1b3a998bee3507a8,001,2021-08-19_16h46.28.621,natb3,2021.2.3,Win32,60.07088364,60fe690b1b3a998bee3507a8,611e07ecdcc96256ae8d5b80,611e7cbe1ac0f1ad385a0618,
,,,,,,,0,103,103,311,1,X,1,2,7,3,,2500,2.5,60fe690b1b3a998bee3507a8,001,2021-08-19_16h46.28.621,natb3,2021.2.3,Win32,60.07088364,60fe690b1b3a998bee3507a8,611e07ecdcc96256ae8d5b80,611e7cbe1ac0f1ad385a0618,
,,,,space,0.6247,,0,104,104,159,1,S, , , , ,space,2500,2.5,60fe690b1b3a998bee3507a8,001,2021-08-19_16h46.28.621,natb3,2021.2.3,Win32,60.07088364,60fe690b1b3a998bee3507a8,611e07ecdcc96256ae8d5b80,611e7cbe1ac0f1ad385a0618,
,,,,space,0.536,,0,105,105,100,1,M, , , , ,space,2000,2,60fe690b1b3a998bee3507a8,001,2021-08-19_16h46.28.621,natb3,2021.2.3,Win32,60.07088364,60fe690b1b3a998bee3507a8,611e07ecdcc96256ae8d5b80,611e7cbe1ac0f1ad385a0618,
,,,,space,0.7018,,0,106,106,52,1,F, , , , ,space,1500,1.5,60fe690b1b3a998bee3507a8,001,2021-08-19_16h46.28.621,natb3,2021.2.3,Win32,60.07088364,60fe690b1b3a998bee3507a8,611e07ecdcc96256ae8d5b80,611e7cbe1ac0f1ad385a0618,
,,,,space,0.3009,,0,107,107,94,1,C, , , , ,space,2000,2,60fe690b1b3a998bee3507a8,001,2021-08-19_16h46.28.621,natb3,2021.2.3,Win32,60.07088364,60fe690b1b3a998bee3507a8,611e07ecdcc96256ae8d5b80,611e7cbe1ac0f1ad385a0618,
,,,,space,0.3674,,0,108,108,220,1,U, , , , ,space,2500,2.5,60fe690b1b3a998bee3507a8,001,2021-08-19_16h46.28.621,natb3,2021.2.3,Win32,60.07088364,60fe690b1b3a998bee3507a8,611e07ecdcc96256ae8d5b80,611e7cbe1ac0f1ad385a0618,
,,,,,,,0,109,109,239,1,X, , , , ,,2000,2,60fe690b1b3a998bee3507a8,001,2021-08-19_16h46.28.621,natb3,2021.2.3,Win32,60.07088364,60fe690b1b3a998bee3507a8,611e07ecdcc96256ae8d5b80,611e7cbe1ac0f1ad385a0618,
,,,,space,0.3359,,0,110,110,71,1,R, , , , ,space,2500,2.5,60fe690b1b3a998bee3507a8,001,2021-08-19_16h46.28.621,natb3,2021.2.3,Win32,60.07088364,60fe690b1b3a998bee3507a8,611e07ecdcc96256ae8d5b80,611e7cbe1ac0f1ad385a0618,
,,,,space,0.3807,,0,111,111,231,1,I, , , , ,space,2500,2.5,60fe690b1b3a998bee3507a8,001,2021-08-19_16h46.28.621,natb3,2021.2.3,Win32,60.07088364,60fe690b1b3a998bee3507a8,611e07ecdcc96256ae8d5b80,611e7cbe1ac0f1ad385a0618,
,,,,space,0.3521,,0,112,112,32,1,M, , , , ,space,1500,1.5,60fe690b1b3a998bee3507a8,001,2021-08-19_16h46.28.621,natb3,2021.2.3,Win32,60.07088364,60fe690b1b3a998bee3507a8,611e07ecdcc96256ae8d5b80,611e7cbe1ac0f1ad385a0618,
,,,,,,,0,113,113,229,1,X,8, ,2,6,,2500,2.5,60fe690b1b3a998bee3507a8,001,2021-08-19_16h46.28.621,natb3,2021.2.3,Win32,60.07088364,60fe690b1b3a998bee3507a8,611e07ecdcc96256ae8d5b80,611e7cbe1ac0f1ad385a0618,
,,,,space,0.4037,,0,114,114,83,1,D, , , , ,space,2000,2,60fe690b1b3a998bee3507a8,001,2021-08-19_16h46.28.621,natb3,2021.2.3,Win32,60.07088364,60fe690b1b3a998bee3507a8,611e07ecdcc96256ae8d5b80,611e7cbe1ac0f1ad385a0618,
,,,,space,0.3859,,0,115,115,276,1,H, , , , ,space,2000,2,60fe690b1b3a998bee3507a8,001,2021-08-19_16h46.28.621,natb3,2021.2.3,Win32,60.07088364,60fe690b1b3a998bee3507a8,611e07ecdcc96256ae8d5b80,611e7cbe1ac0f1ad385a0618,
,,,,space,0.4166,,0,116,116,41,1,Y, , , , ,space,2500,2.5,60fe690b1b3a998bee3507a8,001,2021-08-19_16h46.28.621,natb3,2021.2.3,Win32,60.07088364,60fe690b1b3a998bee3507a8,611e07ecdcc96256ae8d5b80,611e7cbe1ac0f1ad385a0618,
,,,,space,0.3603,,0,117,117,279,1,K, , , , ,space,2500,2.5,60fe690b1b3a998bee3507a8,001,2021-08-19_16h46.28.621,natb3,2021.2.3,Win32,60.07088364,60fe690b1b3a998bee3507a8,611e07ecdcc96256ae8d5b80,611e7cbe1ac0f1ad385a0618,
,,,,,,,0,118,118,78,1,X, , , , ,,2000,2,60fe690b1b3a998bee3507a8,001,2021-08-19_16h46.28.621,natb3,2021.2.3,Win32,60.07088364,60fe690b1b3a998bee3507a8,611e07ecdcc96256ae8d5b80,611e7cbe1ac0f1ad385a0618,
,,,,space,0.3854,,0,119,119,58,1,L, , , , ,space,2000,2,60fe690b1b3a998bee3507a8,001,2021-08-19_16h46.28.621,natb3,2021.2.3,Win32,60.07088364,60fe690b1b3a998bee3507a8,611e07ecdcc96256ae8d5b80,611e7cbe1ac0f1ad385a0618,
,,,,space,0.3815,,0,120,120,61,1,C, , , , ,space,2000,2,60fe690b1b3a998bee3507a8,001,2021-08-19_16h46.28.621,natb3,2021.2.3,Win32,60.07088364,60fe690b1b3a998bee3507a8,611e07ecdcc96256ae8d5b80,611e7cbe1ac0f1ad385a0618,
,,,,space,0.4347,,0,121,121,73,1,Y, , , , ,space,2000,2,60fe690b1b3a998bee3507a8,001,2021-08-19_16h46.28.621,natb3,2021.2.3,Win32,60.07088364,60fe690b1b3a998bee3507a8,611e07ecdcc96256ae8d5b80,611e7cbe1ac0f1ad385a0618,
,,,,,,,0,122,122,302,1,X, , , , ,,2000,2,60fe690b1b3a998bee3507a8,001,2021-08-19_16h46.28.621,natb3,2021.2.3,Win32,60.07088364,60fe690b1b3a998bee3507a8,611e07ecdcc96256ae8d5b80,611e7cbe1ac0f1ad385a0618,
,,,,space,0.5578,,0,123,123,139,1,V, , , , ,space,2000,2,60fe690b1b3a998bee3507a8,001,2021-08-19_16h46.28.621,natb3,2021.2.3,Win32,60.07088364,60fe690b1b3a998bee3507a8,611e07ecdcc96256ae8d5b80,611e7cbe1ac0f1ad385a0618,
,,,,space,0.384,,0,124,124,99,1,N, , , , ,space,2500,2.5,60fe690b1b3a998bee3507a8,001,2021-08-19_16h46.28.621,natb3,2021.2.3,Win32,60.07088364,60fe690b1b3a998bee3507a8,611e07ecdcc96256ae8d5b80,611e7cbe1ac0f1ad385a0618,
,,,,space,0.4521,,0,125,125,77,1,O, , , , ,space,2000,2,60fe690b1b3a998bee3507a8,001,2021-08-19_16h46.28.621,natb3,2021.2.3,Win32,60.07088364,60fe690b1b3a998bee3507a8,611e07ecdcc96256ae8d5b80,611e7cbe1ac0f1ad385a0618,
,,,,space,0.4104,,0,126,126,301,1,P, , , , ,space,1500,1.5,60fe690b1b3a998bee3507a8,001,2021-08-19_16h46.28.621,natb3,2021.2.3,Win32,60.07088364,60fe690b1b3a998bee3507a8,611e07ecdcc96256ae8d5b80,611e7cbe1ac0f1ad385a0618,
,,,,space,0.4618,,0,127,127,174,1,B, , , , ,space,2500,2.5,60fe690b1b3a998bee3507a8,001,2021-08-19_16h46.28.621,natb3,2021.2.3,Win32,60.07088364,60fe690b1b3a998bee3507a8,611e07ecdcc96256ae8d5b80,611e7cbe1ac0f1ad385a0618,
,,,,space,0.4043,,0,128,128,165,1,J, , , , ,space,2500,2.5,60fe690b1b3a998bee3507a8,001,2021-08-19_16h46.28.621,natb3,2021.2.3,Win32,60.07088364,60fe690b1b3a998bee3507a8,611e07ecdcc96256ae8d5b80,611e7cbe1ac0f1ad385a0618,
,,,,space,0.3618,,0,129,129,247,1,Z, , , , ,space,1500,1.5,60fe690b1b3a998bee3507a8,001,2021-08-19_16h46.28.621,natb3,2021.2.3,Win32,60.07088364,60fe690b1b3a998bee3507a8,611e07ecdcc96256ae8d5b80,611e7cbe1ac0f1ad385a0618,
,,,,,,,0,130,130,162,1,X,1,6, ,2,,1500,1.5,60fe690b1b3a998bee3507a8,001,2021-08-19_16h46.28.621,natb3,2021.2.3,Win32,60.07088364,60fe690b1b3a998bee3507a8,611e07ecdcc96256ae8d5b80,611e7cbe1ac0f1ad385a0618,
,,,,space,0.4264,,0,131,131,126,1,A, , , , ,space,2500,2.5,60fe690b1b3a998bee3507a8,001,2021-08-19_16h46.28.621,natb3,2021.2.3,Win32,60.07088364,60fe690b1b3a998bee3507a8,611e07ecdcc96256ae8d5b80,611e7cbe1ac0f1ad385a0618,
,,,,space,0.366,,0,132,132,181,1,E, , , , ,space,1500,1.5,60fe690b1b3a998bee3507a8,001,2021-08-19_16h46.28.621,natb3,2021.2.3,Win32,60.07088364,60fe690b1b3a998bee3507a8,611e07ecdcc96256ae8d5b80,611e7cbe1ac0f1ad385a0618,
,,,,,,,0,133,133,248,1,X, ,1,5, ,,1500,1.5,60fe690b1b3a998bee3507a8,001,2021-08-19_16h46.28.621,natb3,2021.2.3,Win32,60.07088364,60fe690b1b3a998bee3507a8,611e07ecdcc96256ae8d5b80,611e7cbe1ac0f1ad385a0618,
,,,,space,0.3174,,0,134,134,176,1,N, , , , ,space,1500,1.5,60fe690b1b3a998bee3507a8,001,2021-08-19_16h46.28.621,natb3,2021.2.3,Win32,60.07088364,60fe690b1b3a998bee3507a8,611e07ecdcc96256ae8d5b80,611e7cbe1ac0f1ad385a0618,
,,,,space,0.4059,,0,135,135,298,1,I, , , , ,space,2000,2,60fe690b1b3a998bee3507a8,001,2021-08-19_16h46.28.621,natb3,2021.2.3,Win32,60.07088364,60fe690b1b3a998bee3507a8,611e07ecdcc96256ae8d5b80,611e7cbe1ac0f1ad385a0618,
,,,,,,,0,136,136,15,1,X, , , , ,,1500,1.5,60fe690b1b3a998bee3507a8,001,2021-08-19_16h46.28.621,natb3,2021.2.3,Win32,60.07088364,60fe690b1b3a998bee3507a8,611e07ecdcc96256ae8d5b80,611e7cbe1ac0f1ad385a0618,
,,,,space,0.36,,0,137,137,45,1,O, , , , ,space,2000,2,60fe690b1b3a998bee3507a8,001,2021-08-19_16h46.28.621,natb3,2021.2.3,Win32,60.07088364,60fe690b1b3a998bee3507a8,611e07ecdcc96256ae8d5b80,611e7cbe1ac0f1ad385a0618,
,,,,space,0.3185,,0,138,138,303,1,A, , , , ,space,2000,2,60fe690b1b3a998bee3507a8,001,2021-08-19_16h46.28.621,natb3,2021.2.3,Win32,60.07088364,60fe690b1b3a998bee3507a8,611e07ecdcc96256ae8d5b80,611e7cbe1ac0f1ad385a0618,
,,,,space,0.3438,,0,139,139,142,1,N, , , , ,space,2500,2.5,60fe690b1b3a998bee3507a8,001,2021-08-19_16h46.28.621,natb3,2021.2.3,Win32,60.07088364,60fe690b1b3a998bee3507a8,611e07ecdcc96256ae8d5b80,611e7cbe1ac0f1ad385a0618,
,,,,space,0.4216,,0,140,140,34,1,Q, , , , ,space,2500,2.5,60fe690b1b3a998bee3507a8,001,2021-08-19_16h46.28.621,natb3,2021.2.3,Win32,60.07088364,60fe690b1b3a998bee3507a8,611e07ecdcc96256ae8d5b80,611e7cbe1ac0f1ad385a0618,
,,,,space,0.4038,,0,141,141,332,1,U, , , , ,space,2000,2,60fe690b1b3a998bee3507a8,001,2021-08-19_16h46.28.621,natb3,2021.2.3,Win32,60.07088364,60fe690b1b3a998bee3507a8,611e07ecdcc96256ae8d5b80,611e7cbe1ac0f1ad385a0618,
,,,,,,,0,142,142,166,1,X, , , , ,,2000,2,60fe690b1b3a998bee3507a8,001,2021-08-19_16h46.28.621,natb3,2021.2.3,Win32,60.07088364,60fe690b1b3a998bee3507a8,611e07ecdcc96256ae8d5b80,611e7cbe1ac0f1ad385a0618,
,,,,space,0.3521,,0,143,143,275,1,G, , , , ,space,1500,1.5,60fe690b1b3a998bee3507a8,001,2021-08-19_16h46.28.621,natb3,2021.2.3,Win32,60.07088364,60fe690b1b3a998bee3507a8,611e07ecdcc96256ae8d5b80,611e7cbe1ac0f1ad385a0618,
,,,,space,0.3156,,0,144,144,256,1,Q, , , , ,space,2000,2,60fe690b1b3a998bee3507a8,001,2021-08-19_16h46.28.621,natb3,2021.2.3,Win32,60.07088364,60fe690b1b3a998bee3507a8,611e07ecdcc96256ae8d5b80,611e7cbe1ac0f1ad385a0618,
,,,,space,0.3611,,0,145,145,333,1,I, , , , ,space,1500,1.5,60fe690b1b3a998bee3507a8,001,2021-08-19_16h46.28.621,natb3,2021.2.3,Win32,60.07088364,60fe690b1b3a998bee3507a8,611e07ecdcc96256ae8d5b80,611e7cbe1ac0f1ad385a0618,
,,,,space,0.3992,,0,146,146,48,1,A, , , , ,space,2500,2.5,60fe690b1b3a998bee3507a8,001,2021-08-19_16h46.28.621,natb3,2021.2.3,Win32,60.07088364,60fe690b1b3a998bee3507a8,611e07ecdcc96256ae8d5b80,611e7cbe1ac0f1ad385a0618,
,,,,,,,0,147,147,182,1,X, , , , ,,1500,1.5,60fe690b1b3a998bee3507a8,001,2021-08-19_16h46.28.621,natb3,2021.2.3,Win32,60.07088364,60fe690b1b3a998bee3507a8,611e07ecdcc96256ae8d5b80,611e7cbe1ac0f1ad385a0618,
,,,,space,0.4338,,0,148,148,316,1,Z, , , , ,space,1500,1.5,60fe690b1b3a998bee3507a8,001,2021-08-19_16h46.28.621,natb3,2021.2.3,Win32,60.07088364,60fe690b1b3a998bee3507a8,611e07ecdcc96256ae8d5b80,611e7cbe1ac0f1ad385a0618,
,,,,space,0.4032,,0,149,149,216,1,R, , , , ,space,1500,1.5,60fe690b1b3a998bee3507a8,001,2021-08-19_16h46.28.621,natb3,2021.2.3,Win32,60.07088364,60fe690b1b3a998bee3507a8,611e07ecdcc96256ae8d5b80,611e7cbe1ac0f1ad385a0618,
,,,,space,0.4352,,0,150,150,270,1,S, , , , ,space,1500,1.5,60fe690b1b3a998bee3507a8,001,2021-08-19_16h46.28.621,natb3,2021.2.3,Win32,60.07088364,60fe690b1b3a998bee3507a8,611e07ecdcc96256ae8d5b80,611e7cbe1ac0f1ad385a0618,
,,,,space,0.3189,,0,151,151,307,1,F, , , , ,space,2500,2.5,60fe690b1b3a998bee3507a8,001,2021-08-19_16h46.28.621,natb3,2021.2.3,Win32,60.07088364,60fe690b1b3a998bee3507a8,611e07ecdcc96256ae8d5b80,611e7cbe1ac0f1ad385a0618,
,,,,space,0.385,,0,152,152,16,1,D, , , , ,space,1500,1.5,60fe690b1b3a998bee3507a8,001,2021-08-19_16h46.28.621,natb3,2021.2.3,Win32,60.07088364,60fe690b1b3a998bee3507a8,611e07ecdcc96256ae8d5b80,611e7cbe1ac0f1ad385a0618,
,,,,space,0.3687,,0,153,153,227,1,T, , , , ,space,1500,1.5,60fe690b1b3a998bee3507a8,001,2021-08-19_16h46.28.621,natb3,2021.2.3,Win32,60.07088364,60fe690b1b3a998bee3507a8,611e07ecdcc96256ae8d5b80,611e7cbe1ac0f1ad385a0618,
,,,,space,0.4187,,0,154,154,121,1,I, , , , ,space,2000,2,60fe690b1b3a998bee3507a8,001,2021-08-19_16h46.28.621,natb3,2021.2.3,Win32,60.07088364,60fe690b1b3a998bee3507a8,611e07ecdcc96256ae8d5b80,611e7cbe1ac0f1ad385a0618,
,,,,space,0.4097,,0,155,155,12,1,X, , , , ,,1500,1.5,60fe690b1b3a998bee3507a8,001,2021-08-19_16h46.28.621,natb3,2021.2.3,Win32,60.07088364,60fe690b1b3a998bee3507a8,611e07ecdcc96256ae8d5b80,611e7cbe1ac0f1ad385a0618,
,,,,,,,0,156,156,33,1,X, , , , ,,1500,1.5,60fe690b1b3a998bee3507a8,001,2021-08-19_16h46.28.621,natb3,2021.2.3,Win32,60.07088364,60fe690b1b3a998bee3507a8,611e07ecdcc96256ae8d5b80,611e7cbe1ac0f1ad385a0618,
,,,,,,,0,157,157,89,1,X,3, , , ,,2000,2,60fe690b1b3a998bee3507a8,001,2021-08-19_16h46.28.621,natb3,2021.2.3,Win32,60.07088364,60fe690b1b3a998bee3507a8,611e07ecdcc96256ae8d5b80,611e7cbe1ac0f1ad385a0618,
,,,,space,0.4138,,0,158,158,131,1,G, , , , ,space,1500,1.5,60fe690b1b3a998bee3507a8,001,2021-08-19_16h46.28.621,natb3,2021.2.3,Win32,60.07088364,60fe690b1b3a998bee3507a8,611e07ecdcc96256ae8d5b80,611e7cbe1ac0f1ad385a0618,
,,,,space,0.4234,,0,159,159,42,1,U, , , , ,space,1500,1.5,60fe690b1b3a998bee3507a8,001,2021-08-19_16h46.28.621,natb3,2021.2.3,Win32,60.07088364,60fe690b1b3a998bee3507a8,611e07ecdcc96256ae8d5b80,611e7cbe1ac0f1ad385a0618,
,,,,,,,0,160,160,148,1,X, , , , ,,2000,2,60fe690b1b3a998bee3507a8,001,2021-08-19_16h46.28.621,natb3,2021.2.3,Win32,60.07088364,60fe690b1b3a998bee3507a8,611e07ecdcc96256ae8d5b80,611e7cbe1ac0f1ad385a0618,
,,,,space,0.5361,,0,161,161,204,1,Z, , , , ,space,2000,2,60fe690b1b3a998bee3507a8,001,2021-08-19_16h46.28.621,natb3,2021.2.3,Win32,60.07088364,60fe690b1b3a998bee3507a8,611e07ecdcc96256ae8d5b80,611e7cbe1ac0f1ad385a0618,
,,,,space,0.368,,0,162,162,297,1,U, , , , ,space,2000,2,60fe690b1b3a998bee3507a8,001,2021-08-19_16h46.28.621,natb3,2021.2.3,Win32,60.07088364,60fe690b1b3a998bee3507a8,611e07ecdcc96256ae8d5b80,611e7cbe1ac0f1ad385a0618,
,,,,space,0.4362,,0,163,163,157,1,A, , , , ,space,2500,2.5,60fe690b1b3a998bee3507a8,001,2021-08-19_16h46.28.621,natb3,2021.2.3,Win32,60.07088364,60fe690b1b3a998bee3507a8,611e07ecdcc96256ae8d5b80,611e7cbe1ac0f1ad385a0618,
,,,,space,0.3693,,0,164,164,123,1,O, , , , ,space,1500,1.5,60fe690b1b3a998bee3507a8,001,2021-08-19_16h46.28.621,natb3,2021.2.3,Win32,60.07088364,60fe690b1b3a998bee3507a8,611e07ecdcc96256ae8d5b80,611e7cbe1ac0f1ad385a0618,
,,,,space,0.3367,,0,165,165,164,1,H, , , , ,space,2500,2.5,60fe690b1b3a998bee3507a8,001,2021-08-19_16h46.28.621,natb3,2021.2.3,Win32,60.07088364,60fe690b1b3a998bee3507a8,611e07ecdcc96256ae8d5b80,611e7cbe1ac0f1ad385a0618,
,,,,space,0.367,,0,166,166,330,1,T, , , , ,space,2500,2.5,60fe690b1b3a998bee3507a8,001,2021-08-19_16h46.28.621,natb3,2021.2.3,Win32,60.07088364,60fe690b1b3a998bee3507a8,611e07ecdcc96256ae8d5b80,611e7cbe1ac0f1ad385a0618,
,,,,space,0.3521,space,0,167,167,37,1,E, , , , ,space,2500,2.5,60fe690b1b3a998bee3507a8,001,2021-08-19_16h46.28.621,natb3,2021.2.3,Win32,60.07088364,60fe690b1b3a998bee3507a8,611e07ecdcc96256ae8d5b80,611e7cbe1ac0f1ad385a0618,4.9736
,,,,,,,0,168,168,23,1,X,1, ,5, ,,2000,2,60fe690b1b3a998bee3507a8,001,2021-08-19_16h46.28.621,natb3,2021.2.3,Win32,60.07088364,60fe690b1b3a998bee3507a8,611e07ecdcc96256ae8d5b80,611e7cbe1ac0f1ad385a0618,
,,,,space,0.3579,,0,169,169,80,1,A, , , , ,space,2000,2,60fe690b1b3a998bee3507a8,001,2021-08-19_16h46.28.621,natb3,2021.2.3,Win32,60.07088364,60fe690b1b3a998bee3507a8,611e07ecdcc96256ae8d5b80,611e7cbe1ac0f1ad385a0618,
,,,,,,,0,170,170,35,1,X, , , , ,,2500,2.5,60fe690b1b3a998bee3507a8,001,2021-08-19_16h46.28.621,natb3,2021.2.3,Win32,60.07088364,60fe690b1b3a998bee3507a8,611e07ecdcc96256ae8d5b80,611e7cbe1ac0f1ad385a0618,
,,,,,,,0,171,171,207,1,X,9, ,2, ,,2500,2.5,60fe690b1b3a998bee3507a8,001,2021-08-19_16h46.28.621,natb3,2021.2.3,Win32,60.07088364,60fe690b1b3a998bee3507a8,611e07ecdcc96256ae8d5b80,611e7cbe1ac0f1ad385a0618,
,,,,space,0.3667,,0,172,172,19,1,G, , , , ,space,1500,1.5,60fe690b1b3a998bee3507a8,001,2021-08-19_16h46.28.621,natb3,2021.2.3,Win32,60.07088364,60fe690b1b3a998bee3507a8,611e07ecdcc96256ae8d5b80,611e7cbe1ac0f1ad385a0618,
,,,,space,0.5352,,0,173,173,25,1,Z, , , , ,space,2500,2.5,60fe690b1b3a998bee3507a8,001,2021-08-19_16h46.28.621,natb3,2021.2.3,Win32,60.07088364,60fe690b1b3a998bee3507a8,611e07ecdcc96256ae8d5b80,611e7cbe1ac0f1ad385a0618,
,,,,space,0.4379,,0,174,174,81,1,S, , , , ,space,2000,2,60fe690b1b3a998bee3507a8,001,2021-08-19_16h46.28.621,natb3,2021.2.3,Win32,60.07088364,60fe690b1b3a998bee3507a8,611e07ecdcc96256ae8d5b80,611e7cbe1ac0f1ad385a0618,
,,,,space,0.5124,,0,175,175,328,1,R, , , , ,space,1500,1.5,60fe690b1b3a998bee3507a8,001,2021-08-19_16h46.28.621,natb3,2021.2.3,Win32,60.07088364,60fe690b1b3a998bee3507a8,611e07ecdcc96256ae8d5b80,611e7cbe1ac0f1ad385a0618,
,,,,,,,0,176,176,191,1,X,1, ,3,4,,2500,2.5,60fe690b1b3a998bee3507a8,001,2021-08-19_16h46.28.621,natb3,2021.2.3,Win32,60.07088364,60fe690b1b3a998bee3507a8,611e07ecdcc96256ae8d5b80,611e7cbe1ac0f1ad385a0618,
,,,,space,0.4172,,0,177,177,29,1,B, , , , ,space,1500,1.5,60fe690b1b3a998bee3507a8,001,2021-08-19_16h46.28.621,natb3,2021.2.3,Win32,60.07088364,60fe690b1b3a998bee3507a8,611e07ecdcc96256ae8d5b80,611e7cbe1ac0f1ad385a0618,
,,,,space,0.3362,,0,178,178,55,1,H, , , , ,space,2500,2.5,60fe690b1b3a998bee3507a8,001,2021-08-19_16h46.28.621,natb3,2021.2.3,Win32,60.07088364,60fe690b1b3a998bee3507a8,611e07ecdcc96256ae8d5b80,611e7cbe1ac0f1ad385a0618,
,,,,space,0.4287,,0,179,179,14,1,S, , , , ,space,2500,2.5,60fe690b1b3a998bee3507a8,001,2021-08-19_16h46.28.621,natb3,2021.2.3,Win32,60.07088364,60fe690b1b3a998bee3507a8,611e07ecdcc96256ae8d5b80,611e7cbe1ac0f1ad385a0618,
,,,,,,,0,180,180,299,1,X, , , , ,,2500,2.5,60fe690b1b3a998bee3507a8,001,2021-08-19_16h46.28.621,natb3,2021.2.3,Win32,60.07088364,60fe690b1b3a998bee3507a8,611e07ecdcc96256ae8d5b80,611e7cbe1ac0f1ad385a0618,
,,,,space,0.3523,,0,181,181,266,1,O, , , , ,space,1500,1.5,60fe690b1b3a998bee3507a8,001,2021-08-19_16h46.28.621,natb3,2021.2.3,Win32,60.07088364,60fe690b1b3a998bee3507a8,611e07ecdcc96256ae8d5b80,611e7cbe1ac0f1ad385a0618,
,,,,space,0.376,,0,182,182,145,1,X, , , , ,,2000,2,60fe690b1b3a998bee3507a8,001,2021-08-19_16h46.28.621,natb3,2021.2.3,Win32,60.07088364,60fe690b1b3a998bee3507a8,611e07ecdcc96256ae8d5b80,611e7cbe1ac0f1ad385a0618,
,,,,space,0.385,,0,183,183,294,1,T, , , , ,space,2000,2,60fe690b1b3a998bee3507a8,001,2021-08-19_16h46.28.621,natb3,2021.2.3,Win32,60.07088364,60fe690b1b3a998bee3507a8,611e07ecdcc96256ae8d5b80,611e7cbe1ac0f1ad385a0618,
,,,,,,,0,184,184,138,1,X,8,5, ,3,,2000,2,60fe690b1b3a998bee3507a8,001,2021-08-19_16h46.28.621,natb3,2021.2.3,Win32,60.07088364,60fe690b1b3a998bee3507a8,611e07ecdcc96256ae8d5b80,611e7cbe1ac0f1ad385a0618,
,,,,space,0.3848,,0,185,185,217,1,T, , , , ,space,2500,2.5,60fe690b1b3a998bee3507a8,001,2021-08-19_16h46.28.621,natb3,2021.2.3,Win32,60.07088364,60fe690b1b3a998bee3507a8,611e07ecdcc96256ae8d5b80,611e7cbe1ac0f1ad385a0618,
,,,,,,,0,186,186,335,1,P,,,,,space,1500,1.5,60fe690b1b3a998bee3507a8,001,2021-08-19_16h46.28.621,natb3,2021.2.3,Win32,60.07088364,60fe690b1b3a998bee3507a8,611e07ecdcc96256ae8d5b80,611e7cbe1ac0f1ad385a0618,
,,,,,,,0,187,187,96,1,X, , , , ,,1500,1.5,60fe690b1b3a998bee3507a8,001,2021-08-19_16h46.28.621,natb3,2021.2.3,Win32,60.07088364,60fe690b1b3a998bee3507a8,611e07ecdcc96256ae8d5b80,611e7cbe1ac0f1ad385a0618,
,,,,space,0.3529,,0,188,188,104,1,E, , , , ,space,2000,2,60fe690b1b3a998bee3507a8,001,2021-08-19_16h46.28.621,natb3,2021.2.3,Win32,60.07088364,60fe690b1b3a998bee3507a8,611e07ecdcc96256ae8d5b80,611e7cbe1ac0f1ad385a0618,
,,,,space,0.4531,,0,189,189,234,1,P, , , , ,space,2000,2,60fe690b1b3a998bee3507a8,001,2021-08-19_16h46.28.621,natb3,2021.2.3,Win32,60.07088364,60fe690b1b3a998bee3507a8,611e07ecdcc96256ae8d5b80,611e7cbe1ac0f1ad385a0618,
,,,,space,0.5201,,0,190,190,127,1,S, , , , ,space,2500,2.5,60fe690b1b3a998bee3507a8,001,2021-08-19_16h46.28.621,natb3,2021.2.3,Win32,60.07088364,60fe690b1b3a998bee3507a8,611e07ecdcc96256ae8d5b80,611e7cbe1ac0f1ad385a0618,
,,,,space,0.3875,,0,191,191,1,1,W, , , , ,space,2000,2,60fe690b1b3a998bee3507a8,001,2021-08-19_16h46.28.621,natb3,2021.2.3,Win32,60.07088364,60fe690b1b3a998bee3507a8,611e07ecdcc96256ae8d5b80,611e7cbe1ac0f1ad385a0618,
,,,,space,0.5688,,0,192,192,314,1,L, , , , ,space,1500,1.5,60fe690b1b3a998bee3507a8,001,2021-08-19_16h46.28.621,natb3,2021.2.3,Win32,60.07088364,60fe690b1b3a998bee3507a8,611e07ecdcc96256ae8d5b80,611e7cbe1ac0f1ad385a0618,
,,,,,,,0,193,193,69,1,X, , , , ,,1500,1.5,60fe690b1b3a998bee3507a8,001,2021-08-19_16h46.28.621,natb3,2021.2.3,Win32,60.07088364,60fe690b1b3a998bee3507a8,611e07ecdcc96256ae8d5b80,611e7cbe1ac0f1ad385a0618,
,,,,,,,0,194,194,84,1,X, , , , ,,2000,2,60fe690b1b3a998bee3507a8,001,2021-08-19_16h46.28.621,natb3,2021.2.3,Win32,60.07088364,60fe690b1b3a998bee3507a8,611e07ecdcc96256ae8d5b80,611e7cbe1ac0f1ad385a0618,
,,,,,,,0,195,195,116,1,X, , , , ,,2000,2,60fe690b1b3a998bee3507a8,001,2021-08-19_16h46.28.621,natb3,2021.2.3,Win32,60.07088364,60fe690b1b3a998bee3507a8,611e07ecdcc96256ae8d5b80,611e7cbe1ac0f1ad385a0618,
,,,,space,0.4223,,0,196,196,188,1,I, , , , ,space,2500,2.5,60fe690b1b3a998bee3507a8,001,2021-08-19_16h46.28.621,natb3,2021.2.3,Win32,60.07088364,60fe690b1b3a998bee3507a8,611e07ecdcc96256ae8d5b80,611e7cbe1ac0f1ad385a0618,
,,,,,,,0,197,197,200,1,X,7, ,5,3,,1500,1.5,60fe690b1b3a998bee3507a8,001,2021-08-19_16h46.28.621,natb3,2021.2.3,Win32,60.07088364,60fe690b1b3a998bee3507a8,611e07ecdcc96256ae8d5b80,611e7cbe1ac0f1ad385a0618,
,,,,space,0.4255,,0,198,198,326,1,W, , , , ,space,2000,2,60fe690b1b3a998bee3507a8,001,2021-08-19_16h46.28.621,natb3,2021.2.3,Win32,60.07088364,60fe690b1b3a998bee3507a8,611e07ecdcc96256ae8d5b80,611e7cbe1ac0f1ad385a0618,
,,,,space,0.419,,0,199,199,272,1,D, , , , ,space,2000,2,60fe690b1b3a998bee3507a8,001,2021-08-19_16h46.28.621,natb3,2021.2.3,Win32,60.07088364,60fe690b1b3a998bee3507a8,611e07ecdcc96256ae8d5b80,611e7cbe1ac0f1ad385a0618,
,,,,space,0.3395,,0,200,200,245,1,K, , , , ,space,2000,2,60fe690b1b3a998bee3507a8,001,2021-08-19_16h46.28.621,natb3,2021.2.3,Win32,60.07088364,60fe690b1b3a998bee3507a8,611e07ecdcc96256ae8d5b80,611e7cbe1ac0f1ad385a0618,
,,,,,,,0,201,201,39,1,X,6,2, , ,,1500,1.5,60fe690b1b3a998bee3507a8,001,2021-08-19_16h46.28.621,natb3,2021.2.3,Win32,60.07088364,60fe690b1b3a998bee3507a8,611e07ecdcc96256ae8d5b80,611e7cbe1ac0f1ad385a0618,
,,,,space,0.3493,,0,202,202,261,1,T, , , , ,space,2000,2,60fe690b1b3a998bee3507a8,001,2021-08-19_16h46.28.621,natb3,2021.2.3,Win32,60.07088364,60fe690b1b3a998bee3507a8,611e07ecdcc96256ae8d5b80,611e7cbe1ac0f1ad385a0618,
,,,,space,0.5853,,0,203,203,310,1,J, , , , ,space,2500,2.5,60fe690b1b3a998bee3507a8,001,2021-08-19_16h46.28.621,natb3,2021.2.3,Win32,60.07088364,60fe690b1b3a998bee3507a8,611e07ecdcc96256ae8d5b80,611e7cbe1ac0f1ad385a0618,
,,,,space,0.3687,,0,204,204,3,1,R, , , , ,space,2000,2,60fe690b1b3a998bee3507a8,001,2021-08-19_16h46.28.621,natb3,2021.2.3,Win32,60.07088364,60fe690b1b3a998bee3507a8,611e07ecdcc96256ae8d5b80,611e7cbe1ac0f1ad385a0618,
,,,,space,0.3683,,0,205,205,214,1,W, , , , ,space,2000,2,60fe690b1b3a998bee3507a8,001,2021-08-19_16h46.28.621,natb3,2021.2.3,Win32,60.07088364,60fe690b1b3a998bee3507a8,611e07ecdcc96256ae8d5b80,611e7cbe1ac0f1ad385a0618,
,,,,space,0.823,,0,206,206,230,1,U, , , , ,space,1500,1.5,60fe690b1b3a998bee3507a8,001,2021-08-19_16h46.28.621,natb3,2021.2.3,Win32,60.07088364,60fe690b1b3a998bee3507a8,611e07ecdcc96256ae8d5b80,611e7cbe1ac0f1ad385a0618,
,,,,,,,0,207,207,54,1,X, , , , ,,2000,2,60fe690b1b3a998bee3507a8,001,2021-08-19_16h46.28.621,natb3,2021.2.3,Win32,60.07088364,60fe690b1b3a998bee3507a8,611e07ecdcc96256ae8d5b80,611e7cbe1ac0f1ad385a0618,
,,,,space,0.3727,,0,208,208,163,1,G, , , , ,space,2500,2.5,60fe690b1b3a998bee3507a8,001,2021-08-19_16h46.28.621,natb3,2021.2.3,Win32,60.07088364,60fe690b1b3a998bee3507a8,611e07ecdcc96256ae8d5b80,611e7cbe1ac0f1ad385a0618,
,,,,,,,0,209,209,233,1,X, ,2, ,5,,1500,1.5,60fe690b1b3a998bee3507a8,001,2021-08-19_16h46.28.621,natb3,2021.2.3,Win32,60.07088364,60fe690b1b3a998bee3507a8,611e07ecdcc96256ae8d5b80,611e7cbe1ac0f1ad385a0618,
,,,,space,0.368,,0,210,210,36,1,W, , , , ,space,2000,2,60fe690b1b3a998bee3507a8,001,2021-08-19_16h46.28.621,natb3,2021.2.3,Win32,60.07088364,60fe690b1b3a998bee3507a8,611e07ecdcc96256ae8d5b80,611e7cbe1ac0f1ad385a0618,
,,,,space,0.5018,,0,211,211,108,1,Y, , , , ,space,2500,2.5,60fe690b1b3a998bee3507a8,001,2021-08-19_16h46.28.621,natb3,2021.2.3,Win32,60.07088364,60fe690b1b3a998bee3507a8,611e07ecdcc96256ae8d5b80,611e7cbe1ac0f1ad385a0618,
,,,,space,0.3895,,0,212,212,87,1,H, , , , ,space,1500,1.5,60fe690b1b3a998bee3507a8,001,2021-08-19_16h46.28.621,natb3,2021.2.3,Win32,60.07088364,60fe690b1b3a998bee3507a8,611e07ecdcc96256ae8d5b80,611e7cbe1ac0f1ad385a0618,
,,,,space,0.3634,,0,213,213,267,1,P, , , , ,space,2000,2,60fe690b1b3a998bee3507a8,001,2021-08-19_16h46.28.621,natb3,2021.2.3,Win32,60.07088364,60fe690b1b3a998bee3507a8,611e07ecdcc96256ae8d5b80,611e7cbe1ac0f1ad385a0618,
,,,,space,0.5821,,0,214,214,8,1,U, , , , ,space,1500,1.5,60fe690b1b3a998bee3507a8,001,2021-08-19_16h46.28.621,natb3,2021.2.3,Win32,60.07088364,60fe690b1b3a998bee3507a8,611e07ecdcc96256ae8d5b80,611e7cbe1ac0f1ad385a0618,
,,,,space,0.3366,,0,215,215,232,1,O, , , , ,space,2500,2.5,60fe690b1b3a998bee3507a8,001,2021-08-19_16h46.28.621,natb3,2021.2.3,Win32,60.07088364,60fe690b1b3a998bee3507a8,611e07ecdcc96256ae8d5b80,611e7cbe1ac0f1ad385a0618,
,,,,space,0.4986,,0,216,216,40,1,T, , , , ,space,1500,1.5,60fe690b1b3a998bee3507a8,001,2021-08-19_16h46.28.621,natb3,2021.2.3,Win32,60.07088364,60fe690b1b3a998bee3507a8,611e07ecdcc96256ae8d5b80,611e7cbe1ac0f1ad385a0618,
,,,,space,0.4359,,0,217,217,180,1,W, , , , ,space,2000,2,60fe690b1b3a998bee3507a8,001,2021-08-19_16h46.28.621,natb3,2021.2.3,Win32,60.07088364,60fe690b1b3a998bee3507a8,611e07ecdcc96256ae8d5b80,611e7cbe1ac0f1ad385a0618,
,,,,space,0.3101,,0,218,218,5,1,T, , , , ,space,2000,2,60fe690b1b3a998bee3507a8,001,2021-08-19_16h46.28.621,natb3,2021.2.3,Win32,60.07088364,60fe690b1b3a998bee3507a8,611e07ecdcc96256ae8d5b80,611e7cbe1ac0f1ad385a0618,
,,,,space,0.3515,,0,219,219,68,1,W, , , , ,space,2500,2.5,60fe690b1b3a998bee3507a8,001,2021-08-19_16h46.28.621,natb3,2021.2.3,Win32,60.07088364,60fe690b1b3a998bee3507a8,611e07ecdcc96256ae8d5b80,611e7cbe1ac0f1ad385a0618,
,,,,space,0.4177,,0,220,220,134,1,J, , , , ,space,2000,2,60fe690b1b3a998bee3507a8,001,2021-08-19_16h46.28.621,natb3,2021.2.3,Win32,60.07088364,60fe690b1b3a998bee3507a8,611e07ecdcc96256ae8d5b80,611e7cbe1ac0f1ad385a0618,
,,,,,,,0,221,221,60,1,X,7,3,5, ,,1500,1.5,60fe690b1b3a998bee3507a8,001,2021-08-19_16h46.28.621,natb3,2021.2.3,Win32,60.07088364,60fe690b1b3a998bee3507a8,611e07ecdcc96256ae8d5b80,611e7cbe1ac0f1ad385a0618,
,,,,space,0.366,,0,222,222,290,1,W, , , , ,space,1500,1.5,60fe690b1b3a998bee3507a8,001,2021-08-19_16h46.28.621,natb3,2021.2.3,Win32,60.07088364,60fe690b1b3a998bee3507a8,611e07ecdcc96256ae8d5b80,611e7cbe1ac0f1ad385a0618,
,,,,space,0.3036,,0,223,223,44,1,I, , , , ,space,2500,2.5,60fe690b1b3a998bee3507a8,001,2021-08-19_16h46.28.621,natb3,2021.2.3,Win32,60.07088364,60fe690b1b3a998bee3507a8,611e07ecdcc96256ae8d5b80,611e7cbe1ac0f1ad385a0618,
,,,,space,0.3585,,0,224,224,64,1,N, , , , ,space,2000,2,60fe690b1b3a998bee3507a8,001,2021-08-19_16h46.28.621,natb3,2021.2.3,Win32,60.07088364,60fe690b1b3a998bee3507a8,611e07ecdcc96256ae8d5b80,611e7cbe1ac0f1ad385a0618,
,,,,space,0.4639,,0,225,225,151,1,Y, , , , ,space,2500,2.5,60fe690b1b3a998bee3507a8,001,2021-08-19_16h46.28.621,natb3,2021.2.3,Win32,60.07088364,60fe690b1b3a998bee3507a8,611e07ecdcc96256ae8d5b80,611e7cbe1ac0f1ad385a0618,
,,,,space,0.2109,,0,226,226,268,1,X,6, ,3, ,,2500,2.5,60fe690b1b3a998bee3507a8,001,2021-08-19_16h46.28.621,natb3,2021.2.3,Win32,60.07088364,60fe690b1b3a998bee3507a8,611e07ecdcc96256ae8d5b80,611e7cbe1ac0f1ad385a0618,
,,,,space,0.4008,,0,227,227,97,1,B, , , , ,space,2500,2.5,60fe690b1b3a998bee3507a8,001,2021-08-19_16h46.28.621,natb3,2021.2.3,Win32,60.07088364,60fe690b1b3a998bee3507a8,611e07ecdcc96256ae8d5b80,611e7cbe1ac0f1ad385a0618,
,,,,,,,0,228,228,122,1,X,1, , ,8,,1500,1.5,60fe690b1b3a998bee3507a8,001,2021-08-19_16h46.28.621,natb3,2021.2.3,Win32,60.07088364,60fe690b1b3a998bee3507a8,611e07ecdcc96256ae8d5b80,611e7cbe1ac0f1ad385a0618,
,,,,,,,0,229,229,51,1,X,7,5,8, ,,1500,1.5,60fe690b1b3a998bee3507a8,001,2021-08-19_16h46.28.621,natb3,2021.2.3,Win32,60.07088364,60fe690b1b3a998bee3507a8,611e07ecdcc96256ae8d5b80,611e7cbe1ac0f1ad385a0618,
,,,,,,,0,230,230,141,1,X,1, ,4,6,,1500,1.5,60fe690b1b3a998bee3507a8,001,2021-08-19_16h46.28.621,natb3,2021.2.3,Win32,60.07088364,60fe690b1b3a998bee3507a8,611e07ecdcc96256ae8d5b80,611e7cbe1ac0f1ad385a0618,
,,,,space,0.4829,,0,231,231,196,1,F, , , , ,space,1500,1.5,60fe690b1b3a998bee3507a8,001,2021-08-19_16h46.28.621,natb3,2021.2.3,Win32,60.07088364,60fe690b1b3a998bee3507a8,611e07ecdcc96256ae8d5b80,611e7cbe1ac0f1ad385a0618,
,,,,space,0.336,,0,232,232,278,1,J, , , , ,space,2000,2,60fe690b1b3a998bee3507a8,001,2021-08-19_16h46.28.621,natb3,2021.2.3,Win32,60.07088364,60fe690b1b3a998bee3507a8,611e07ecdcc96256ae8d5b80,611e7cbe1ac0f1ad385a0618,
,,,,space,0.477,,0,233,233,269,1,A, , , , ,space,2500,2.5,60fe690b1b3a998bee3507a8,001,2021-08-19_16h46.28.621,natb3,2021.2.3,Win32,60.07088364,60fe690b1b3a998bee3507a8,611e07ecdcc96256ae8d5b80,611e7cbe1ac0f1ad385a0618,
,,,,space,0.383,,0,234,234,75,1,U, , , , ,space,1500,1.5,60fe690b1b3a998bee3507a8,001,2021-08-19_16h46.28.621,natb3,2021.2.3,Win32,60.07088364,60fe690b1b3a998bee3507a8,611e07ecdcc96256ae8d5b80,611e7cbe1ac0f1ad385a0618,
,,,,space,0.2687,,0,235,235,67,1,Q, , , , ,space,2000,2,60fe690b1b3a998bee3507a8,001,2021-08-19_16h46.28.621,natb3,2021.2.3,Win32,60.07088364,60fe690b1b3a998bee3507a8,611e07ecdcc96256ae8d5b80,611e7cbe1ac0f1ad385a0618,
,,,,space,0.2297,,0,236,236,153,1,X,4,7, ,6,,2000,2,60fe690b1b3a998bee3507a8,001,2021-08-19_16h46.28.621,natb3,2021.2.3,Win32,60.07088364,60fe690b1b3a998bee3507a8,611e07ecdcc96256ae8d5b80,611e7cbe1ac0f1ad385a0618,
,,,,space,0.3615,,0,237,237,20,1,H, , , , ,space,1500,1.5,60fe690b1b3a998bee3507a8,001,2021-08-19_16h46.28.621,natb3,2021.2.3,Win32,60.07088364,60fe690b1b3a998bee3507a8,611e07ecdcc96256ae8d5b80,611e7cbe1ac0f1ad385a0618,
,,,,space,0.3116,,0,238,238,296,1,Y, , , , ,space,2500,2.5,60fe690b1b3a998bee3507a8,001,2021-08-19_16h46.28.621,natb3,2021.2.3,Win32,60.07088364,60fe690b1b3a998bee3507a8,611e07ecdcc96256ae8d5b80,611e7cbe1ac0f1ad385a0618,
,,,,space,0.4022,,0,239,239,110,1,I, , , , ,space,1500,1.5,60fe690b1b3a998bee3507a8,001,2021-08-19_16h46.28.621,natb3,2021.2.3,Win32,60.07088364,60fe690b1b3a998bee3507a8,611e07ecdcc96256ae8d5b80,611e7cbe1ac0f1ad385a0618,
,,,,space,0.3181,,0,240,240,21,1,J, , , , ,space,1500,1.5,60fe690b1b3a998bee3507a8,001,2021-08-19_16h46.28.621,natb3,2021.2.3,Win32,60.07088364,60fe690b1b3a998bee3507a8,611e07ecdcc96256ae8d5b80,611e7cbe1ac0f1ad385a0618,
,,,,space,0.2859,,0,241,241,289,1,Q, , , , ,space,2000,2,60fe690b1b3a998bee3507a8,001,2021-08-19_16h46.28.621,natb3,2021.2.3,Win32,60.07088364,60fe690b1b3a998bee3507a8,611e07ecdcc96256ae8d5b80,611e7cbe1ac0f1ad385a0618,
,,,,space,0.2842,,0,242,242,219,1,Y, , , , ,space,2000,2,60fe690b1b3a998bee3507a8,001,2021-08-19_16h46.28.621,natb3,2021.2.3,Win32,60.07088364,60fe690b1b3a998bee3507a8,611e07ecdcc96256ae8d5b80,611e7cbe1ac0f1ad385a0618,
,,,,space,0.3423,,0,243,243,195,1,X, , , , ,,1500,1.5,60fe690b1b3a998bee3507a8,001,2021-08-19_16h46.28.621,natb3,2021.2.3,Win32,60.07088364,60fe690b1b3a998bee3507a8,611e07ecdcc96256ae8d5b80,611e7cbe1ac0f1ad385a0618,
,,,,space,0.4012,,0,244,244,6,1,Y, , , , ,space,2500,2.5,60fe690b1b3a998bee3507a8,001,2021-08-19_16h46.28.621,natb3,2021.2.3,Win32,60.07088364,60fe690b1b3a998bee3507a8,611e07ecdcc96256ae8d5b80,611e7cbe1ac0f1ad385a0618,
,,,,,,,0,245,245,282,1,X, , , , ,,2500,2.5,60fe690b1b3a998bee3507a8,001,2021-08-19_16h46.28.621,natb3,2021.2.3,Win32,60.07088364,60fe690b1b3a998bee3507a8,611e07ecdcc96256ae8d5b80,611e7cbe1ac0f1ad385a0618,
,,,,space,0.7262,,0,246,246,319,1,V, , , , ,space,2000,2,60fe690b1b3a998bee3507a8,001,2021-08-19_16h46.28.621,natb3,2021.2.3,Win32,60.07088364,60fe690b1b3a998bee3507a8,611e07ecdcc96256ae8d5b80,611e7cbe1ac0f1ad385a0618,
,,,,space,0.3997,,0,247,247,257,1,W, , , , ,space,2000,2,60fe690b1b3a998bee3507a8,001,2021-08-19_16h46.28.621,natb3,2021.2.3,Win32,60.07088364,60fe690b1b3a998bee3507a8,611e07ecdcc96256ae8d5b80,611e7cbe1ac0f1ad385a0618,
,,,,space,0.4871,,0,248,248,65,1,M, , , , ,space,1500,1.5,60fe690b1b3a998bee3507a8,001,2021-08-19_16h46.28.621,natb3,2021.2.3,Win32,60.07088364,60fe690b1b3a998bee3507a8,611e07ecdcc96256ae8d5b80,611e7cbe1ac0f1ad385a0618,
,,,,space,0.3349,,0,249,249,222,1,O, , , , ,space,2000,2,60fe690b1b3a998bee3507a8,001,2021-08-19_16h46.28.621,natb3,2021.2.3,Win32,60.07088364,60fe690b1b3a998bee3507a8,611e07ecdcc96256ae8d5b80,611e7cbe1ac0f1ad385a0618,
,,,,space,0.3516,,0,250,250,284,1,V, , , , ,space,2500,2.5,60fe690b1b3a998bee3507a8,001,2021-08-19_16h46.28.621,natb3,2021.2.3,Win32,60.07088364,60fe690b1b3a998bee3507a8,611e07ecdcc96256ae8d5b80,611e7cbe1ac0f1ad385a0618,
,,,,space,0.4228,,0,251,251,186,1,U, , , , ,space,2500,2.5,60fe690b1b3a998bee3507a8,001,2021-08-19_16h46.28.621,natb3,2021.2.3,Win32,60.07088364,60fe690b1b3a998bee3507a8,611e07ecdcc96256ae8d5b80,611e7cbe1ac0f1ad385a0618,
,,,,space,0.5307,,0,252,252,95,1,V, , , , ,space,1500,1.5,60fe690b1b3a998bee3507a8,001,2021-08-19_16h46.28.621,natb3,2021.2.3,Win32,60.07088364,60fe690b1b3a998bee3507a8,611e07ecdcc96256ae8d5b80,611e7cbe1ac0f1ad385a0618,
,,,,space,0.437,,0,253,253,47,1,P, , , , ,space,2000,2,60fe690b1b3a998bee3507a8,001,2021-08-19_16h46.28.621,natb3,2021.2.3,Win32,60.07088364,60fe690b1b3a998bee3507a8,611e07ecdcc96256ae8d5b80,611e7cbe1ac0f1ad385a0618,
,,,,,,,0,254,254,244,1,J, , , , ,space,1500,1.5,60fe690b1b3a998bee3507a8,001,2021-08-19_16h46.28.621,natb3,2021.2.3,Win32,60.07088364,60fe690b1b3a998bee3507a8,611e07ecdcc96256ae8d5b80,611e7cbe1ac0f1ad385a0618,
,,,,space,0.5058,,0,255,255,26,1,C, , , , ,space,2000,2,60fe690b1b3a998bee3507a8,001,2021-08-19_16h46.28.621,natb3,2021.2.3,Win32,60.07088364,60fe690b1b3a998bee3507a8,611e07ecdcc96256ae8d5b80,611e7cbe1ac0f1ad385a0618,
,,,,space,0.3527,,0,256,256,317,1,C, , , , ,space,2000,2,60fe690b1b3a998bee3507a8,001,2021-08-19_16h46.28.621,natb3,2021.2.3,Win32,60.07088364,60fe690b1b3a998bee3507a8,611e07ecdcc96256ae8d5b80,611e7cbe1ac0f1ad385a0618,
,,,,space,0.349,,0,257,257,140,1,B, , , , ,space,2500,2.5,60fe690b1b3a998bee3507a8,001,2021-08-19_16h46.28.621,natb3,2021.2.3,Win32,60.07088364,60fe690b1b3a998bee3507a8,611e07ecdcc96256ae8d5b80,611e7cbe1ac0f1ad385a0618,
,,,,space,0.3744,,0,258,258,293,1,R, , , , ,space,2500,2.5,60fe690b1b3a998bee3507a8,001,2021-08-19_16h46.28.621,natb3,2021.2.3,Win32,60.07088364,60fe690b1b3a998bee3507a8,611e07ecdcc96256ae8d5b80,611e7cbe1ac0f1ad385a0618,
,,,,space,0.3611,,0,259,259,305,1,X, , , , ,,1500,1.5,60fe690b1b3a998bee3507a8,001,2021-08-19_16h46.28.621,natb3,2021.2.3,Win32,60.07088364,60fe690b1b3a998bee3507a8,611e07ecdcc96256ae8d5b80,611e7cbe1ac0f1ad385a0618,
,,,,space,0.3517,,0,260,260,170,1,Z, , , , ,space,2000,2,60fe690b1b3a998bee3507a8,001,2021-08-19_16h46.28.621,natb3,2021.2.3,Win32,60.07088364,60fe690b1b3a998bee3507a8,611e07ecdcc96256ae8d5b80,611e7cbe1ac0f1ad385a0618,
,,,,space,0.3817,,0,261,261,91,1,L, , , , ,space,2000,2,60fe690b1b3a998bee3507a8,001,2021-08-19_16h46.28.621,natb3,2021.2.3,Win32,60.07088364,60fe690b1b3a998bee3507a8,611e07ecdcc96256ae8d5b80,611e7cbe1ac0f1ad385a0618,
,,,,,,,0,262,262,171,1,X, , , , ,,1500,1.5,60fe690b1b3a998bee3507a8,001,2021-08-19_16h46.28.621,natb3,2021.2.3,Win32,60.07088364,60fe690b1b3a998bee3507a8,611e07ecdcc96256ae8d5b80,611e7cbe1ac0f1ad385a0618,
,,,,space,0.3584,,0,263,263,11,1,P, , , , ,space,2500,2.5,60fe690b1b3a998bee3507a8,001,2021-08-19_16h46.28.621,natb3,2021.2.3,Win32,60.07088364,60fe690b1b3a998bee3507a8,611e07ecdcc96256ae8d5b80,611e7cbe1ac0f1ad385a0618,
,,,,space,0.4539,,0,264,264,285,1,B, , , , ,space,1500,1.5,60fe690b1b3a998bee3507a8,001,2021-08-19_16h46.28.621,natb3,2021.2.3,Win32,60.07088364,60fe690b1b3a998bee3507a8,611e07ecdcc96256ae8d5b80,611e7cbe1ac0f1ad385a0618,
,,,,space,0.3507,,0,265,265,30,1,N, , , , ,space,2500,2.5,60fe690b1b3a998bee3507a8,001,2021-08-19_16h46.28.621,natb3,2021.2.3,Win32,60.07088364,60fe690b1b3a998bee3507a8,611e07ecdcc96256ae8d5b80,611e7cbe1ac0f1ad385a0618,
,,,,space,0.3403,,0,266,266,124,1,P, , , , ,space,2000,2,60fe690b1b3a998bee3507a8,001,2021-08-19_16h46.28.621,natb3,2021.2.3,Win32,60.07088364,60fe690b1b3a998bee3507a8,611e07ecdcc96256ae8d5b80,611e7cbe1ac0f1ad385a0618,
,,,,space,0.3855,,0,267,267,199,1,J, , , , ,space,2500,2.5,60fe690b1b3a998bee3507a8,001,2021-08-19_16h46.28.621,natb3,2021.2.3,Win32,60.07088364,60fe690b1b3a998bee3507a8,611e07ecdcc96256ae8d5b80,611e7cbe1ac0f1ad385a0618,
,,,,space,0.3869,,0,268,268,238,1,D, , , , ,space,1500,1.5,60fe690b1b3a998bee3507a8,001,2021-08-19_16h46.28.621,natb3,2021.2.3,Win32,60.07088364,60fe690b1b3a998bee3507a8,611e07ecdcc96256ae8d5b80,611e7cbe1ac0f1ad385a0618,
,,,,space,0.3219,,0,269,269,70,1,E, , , , ,space,2500,2.5,60fe690b1b3a998bee3507a8,001,2021-08-19_16h46.28.621,natb3,2021.2.3,Win32,60.07088364,60fe690b1b3a998bee3507a8,611e07ecdcc96256ae8d5b80,611e7cbe1ac0f1ad385a0618,
,,,,space,0.3664,,0,270,270,76,1,I, , , , ,space,2000,2,60fe690b1b3a998bee3507a8,001,2021-08-19_16h46.28.621,natb3,2021.2.3,Win32,60.07088364,60fe690b1b3a998bee3507a8,611e07ecdcc96256ae8d5b80,611e7cbe1ac0f1ad385a0618,
,,,,space,0.3351,,0,271,271,136,1,Z, , , , ,space,2500,2.5,60fe690b1b3a998bee3507a8,001,2021-08-19_16h46.28.621,natb3,2021.2.3,Win32,60.07088364,60fe690b1b3a998bee3507a8,611e07ecdcc96256ae8d5b80,611e7cbe1ac0f1ad385a0618,
,,,,space,0.3149,,0,272,272,49,1,S, , , , ,space,1500,1.5,60fe690b1b3a998bee3507a8,001,2021-08-19_16h46.28.621,natb3,2021.2.3,Win32,60.07088364,60fe690b1b3a998bee3507a8,611e07ecdcc96256ae8d5b80,611e7cbe1ac0f1ad385a0618,
,,,,space,0.3527,,0,273,273,24,1,L, , , , ,space,2500,2.5,60fe690b1b3a998bee3507a8,001,2021-08-19_16h46.28.621,natb3,2021.2.3,Win32,60.07088364,60fe690b1b3a998bee3507a8,611e07ecdcc96256ae8d5b80,611e7cbe1ac0f1ad385a0618,
,,,,space,0.3442,,0,274,274,38,1,R, , , , ,space,2500,2.5,60fe690b1b3a998bee3507a8,001,2021-08-19_16h46.28.621,natb3,2021.2.3,Win32,60.07088364,60fe690b1b3a998bee3507a8,611e07ecdcc96256ae8d5b80,611e7cbe1ac0f1ad385a0618,
,,,,space,0.4306,,0,275,275,2,1,E, , , , ,space,2500,2.5,60fe690b1b3a998bee3507a8,001,2021-08-19_16h46.28.621,natb3,2021.2.3,Win32,60.07088364,60fe690b1b3a998bee3507a8,611e07ecdcc96256ae8d5b80,611e7cbe1ac0f1ad385a0618,
,,,,space,0.4542,,0,276,276,250,1,V, , , , ,space,2000,2,60fe690b1b3a998bee3507a8,001,2021-08-19_16h46.28.621,natb3,2021.2.3,Win32,60.07088364,60fe690b1b3a998bee3507a8,611e07ecdcc96256ae8d5b80,611e7cbe1ac0f1ad385a0618,
,,,,space,0.418,,0,277,277,251,1,B, , , , ,space,1500,1.5,60fe690b1b3a998bee3507a8,001,2021-08-19_16h46.28.621,natb3,2021.2.3,Win32,60.07088364,60fe690b1b3a998bee3507a8,611e07ecdcc96256ae8d5b80,611e7cbe1ac0f1ad385a0618,
,,,,space,0.3848,,0,278,278,189,1,O, , , , ,space,1500,1.5,60fe690b1b3a998bee3507a8,001,2021-08-19_16h46.28.621,natb3,2021.2.3,Win32,60.07088364,60fe690b1b3a998bee3507a8,611e07ecdcc96256ae8d5b80,611e7cbe1ac0f1ad385a0618,
,,,,space,0.2906,,0,279,279,264,1,U, , , , ,space,2000,2,60fe690b1b3a998bee3507a8,001,2021-08-19_16h46.28.621,natb3,2021.2.3,Win32,60.07088364,60fe690b1b3a998bee3507a8,611e07ecdcc96256ae8d5b80,611e7cbe1ac0f1ad385a0618,
,,,,space,0.2369,,0,280,280,331,1,Y, , , , ,space,2500,2.5,60fe690b1b3a998bee3507a8,001,2021-08-19_16h46.28.621,natb3,2021.2.3,Win32,60.07088364,60fe690b1b3a998bee3507a8,611e07ecdcc96256ae8d5b80,611e7cbe1ac0f1ad385a0618,
,,,,space,0.3441,,0,281,281,27,1,X,5, ,1,3,,1500,1.5,60fe690b1b3a998bee3507a8,001,2021-08-19_16h46.28.621,natb3,2021.2.3,Win32,60.07088364,60fe690b1b3a998bee3507a8,611e07ecdcc96256ae8d5b80,611e7cbe1ac0f1ad385a0618,
,,,,space,0.3923,,0,282,282,280,1,L, , , , ,space,1500,1.5,60fe690b1b3a998bee3507a8,001,2021-08-19_16h46.28.621,natb3,2021.2.3,Win32,60.07088364,60fe690b1b3a998bee3507a8,611e07ecdcc96256ae8d5b80,611e7cbe1ac0f1ad385a0618,
,,,,space,0.3093,,0,283,283,9,1,I, , , , ,space,1500,1.5,60fe690b1b3a998bee3507a8,001,2021-08-19_16h46.28.621,natb3,2021.2.3,Win32,60.07088364,60fe690b1b3a998bee3507a8,611e07ecdcc96256ae8d5b80,611e7cbe1ac0f1ad385a0618,
,,,,space,0.2739,,0,284,284,194,1,D, , , , ,space,2000,2,60fe690b1b3a998bee3507a8,001,2021-08-19_16h46.28.621,natb3,2021.2.3,Win32,60.07088364,60fe690b1b3a998bee3507a8,611e07ecdcc96256ae8d5b80,611e7cbe1ac0f1ad385a0618,
,,,,space,0.3018,,0,285,285,144,1,Q, , , , ,space,2500,2.5,60fe690b1b3a998bee3507a8,001,2021-08-19_16h46.28.621,natb3,2021.2.3,Win32,60.07088364,60fe690b1b3a998bee3507a8,611e07ecdcc96256ae8d5b80,611e7cbe1ac0f1ad385a0618,
,,,,space,0.3849,,0,286,286,281,1,Z, , , , ,space,1500,1.5,60fe690b1b3a998bee3507a8,001,2021-08-19_16h46.28.621,natb3,2021.2.3,Win32,60.07088364,60fe690b1b3a998bee3507a8,611e07ecdcc96256ae8d5b80,611e7cbe1ac0f1ad385a0618,
,,,,space,0.3185,,0,287,287,135,1,K, , , , ,space,1500,1.5,60fe690b1b3a998bee3507a8,001,2021-08-19_16h46.28.621,natb3,2021.2.3,Win32,60.07088364,60fe690b1b3a998bee3507a8,611e07ecdcc96256ae8d5b80,611e7cbe1ac0f1ad385a0618,
,,,,,,,0,288,288,322,1,X, , ,1,6,,2000,2,60fe690b1b3a998bee3507a8,001,2021-08-19_16h46.28.621,natb3,2021.2.3,Win32,60.07088364,60fe690b1b3a998bee3507a8,611e07ecdcc96256ae8d5b80,611e7cbe1ac0f1ad385a0618,
,,,,space,0.3261,,0,289,289,120,1,U, , , , ,space,1500,1.5,60fe690b1b3a998bee3507a8,001,2021-08-19_16h46.28.621,natb3,2021.2.3,Win32,60.07088364,60fe690b1b3a998bee3507a8,611e07ecdcc96256ae8d5b80,611e7cbe1ac0f1ad385a0618,
,,,,space,0.3429,,0,290,290,178,1,Q, , , , ,space,1500,1.5,60fe690b1b3a998bee3507a8,001,2021-08-19_16h46.28.621,natb3,2021.2.3,Win32,60.07088364,60fe690b1b3a998bee3507a8,611e07ecdcc96256ae8d5b80,611e7cbe1ac0f1ad385a0618,
,,,,space,0.3318,,0,291,291,312,1,K, , , , ,space,2000,2,60fe690b1b3a998bee3507a8,001,2021-08-19_16h46.28.621,natb3,2021.2.3,Win32,60.07088364,60fe690b1b3a998bee3507a8,611e07ecdcc96256ae8d5b80,611e7cbe1ac0f1ad385a0618,
,,,,space,0.3347,,0,292,292,193,1,S, , , , ,space,2500,2.5,60fe690b1b3a998bee3507a8,001,2021-08-19_16h46.28.621,natb3,2021.2.3,Win32,60.07088364,60fe690b1b3a998bee3507a8,611e07ecdcc96256ae8d5b80,611e7cbe1ac0f1ad385a0618,
,,,,,,,0,293,293,252,1,X,3, ,6,9,,2000,2,60fe690b1b3a998bee3507a8,001,2021-08-19_16h46.28.621,natb3,2021.2.3,Win32,60.07088364,60fe690b1b3a998bee3507a8,611e07ecdcc96256ae8d5b80,611e7cbe1ac0f1ad385a0618,
,,,,space,0.3647,,0,294,294,62,1,V, , , , ,space,1500,1.5,60fe690b1b3a998bee3507a8,001,2021-08-19_16h46.28.621,natb3,2021.2.3,Win32,60.07088364,60fe690b1b3a998bee3507a8,611e07ecdcc96256ae8d5b80,611e7cbe1ac0f1ad385a0618,
,,,,space,0.3689,,0,295,295,86,1,G, , , , ,space,2000,2,60fe690b1b3a998bee3507a8,001,2021-08-19_16h46.28.621,natb3,2021.2.3,Win32,60.07088364,60fe690b1b3a998bee3507a8,611e07ecdcc96256ae8d5b80,611e7cbe1ac0f1ad385a0618,
,,,,space,0.3033,,0,296,296,158,1,X, , , , ,,1500,1.5,60fe690b1b3a998bee3507a8,001,2021-08-19_16h46.28.621,natb3,2021.2.3,Win32,60.07088364,60fe690b1b3a998bee3507a8,611e07ecdcc96256ae8d5b80,611e7cbe1ac0f1ad385a0618,
,,,,space,0.3672,,0,297,297,149,1,R, , , , ,space,2000,2,60fe690b1b3a998bee3507a8,001,2021-08-19_16h46.28.621,natb3,2021.2.3,Win32,60.07088364,60fe690b1b3a998bee3507a8,611e07ecdcc96256ae8d5b80,611e7cbe1ac0f1ad385a0618,
,,,,space,0.3143,,0,298,298,308,1,G, , , , ,space,1500,1.5,60fe690b1b3a998bee3507a8,001,2021-08-19_16h46.28.621,natb3,2021.2.3,Win32,60.07088364,60fe690b1b3a998bee3507a8,611e07ecdcc96256ae8d5b80,611e7cbe1ac0f1ad385a0618,
,,,,space,0.3345,,0,299,299,265,1,I, , , , ,space,2000,2,60fe690b1b3a998bee3507a8,001,2021-08-19_16h46.28.621,natb3,2021.2.3,Win32,60.07088364,60fe690b1b3a998bee3507a8,611e07ecdcc96256ae8d5b80,611e7cbe1ac0f1ad385a0618,
,,,,,,,0,300,300,133,1,X, ,4, ,6,,2500,2.5,60fe690b1b3a998bee3507a8,001,2021-08-19_16h46.28.621,natb3,2021.2.3,Win32,60.07088364,60fe690b1b3a998bee3507a8,611e07ecdcc96256ae8d5b80,611e7cbe1ac0f1ad385a0618,
,,,,space,0.3548,,0,301,301,117,1,T, , , , ,space,2500,2.5,60fe690b1b3a998bee3507a8,001,2021-08-19_16h46.28.621,natb3,2021.2.3,Win32,60.07088364,60fe690b1b3a998bee3507a8,611e07ecdcc96256ae8d5b80,611e7cbe1ac0f1ad385a0618,
,,,,space,0.3531,,0,302,302,185,1,Y, , , , ,space,2500,2.5,60fe690b1b3a998bee3507a8,001,2021-08-19_16h46.28.621,natb3,2021.2.3,Win32,60.07088364,60fe690b1b3a998bee3507a8,611e07ecdcc96256ae8d5b80,611e7cbe1ac0f1ad385a0618,
,,,,,,,0,303,303,291,1,X, , , , ,,2000,2,60fe690b1b3a998bee3507a8,001,2021-08-19_16h46.28.621,natb3,2021.2.3,Win32,60.07088364,60fe690b1b3a998bee3507a8,611e07ecdcc96256ae8d5b80,611e7cbe1ac0f1ad385a0618,
,,,,,,,0,304,304,313,1,X, , , , ,,2500,2.5,60fe690b1b3a998bee3507a8,001,2021-08-19_16h46.28.621,natb3,2021.2.3,Win32,60.07088364,60fe690b1b3a998bee3507a8,611e07ecdcc96256ae8d5b80,611e7cbe1ac0f1ad385a0618,
,,,,,,,0,305,305,74,1,X, ,4,3,2,,1500,1.5,60fe690b1b3a998bee3507a8,001,2021-08-19_16h46.28.621,natb3,2021.2.3,Win32,60.07088364,60fe690b1b3a998bee3507a8,611e07ecdcc96256ae8d5b80,611e7cbe1ac0f1ad385a0618,
,,,,space,0.2983,,0,306,306,329,1,X,3,4, ,2,,2500,2.5,60fe690b1b3a998bee3507a8,001,2021-08-19_16h46.28.621,natb3,2021.2.3,Win32,60.07088364,60fe690b1b3a998bee3507a8,611e07ecdcc96256ae8d5b80,611e7cbe1ac0f1ad385a0618,
,,,,space,0.3671,,0,307,307,72,1,T, , , , ,space,1500,1.5,60fe690b1b3a998bee3507a8,001,2021-08-19_16h46.28.621,natb3,2021.2.3,Win32,60.07088364,60fe690b1b3a998bee3507a8,611e07ecdcc96256ae8d5b80,611e7cbe1ac0f1ad385a0618,
,,,,,,,0,308,308,18,1,X, ,2,5,8,,2500,2.5,60fe690b1b3a998bee3507a8,001,2021-08-19_16h46.28.621,natb3,2021.2.3,Win32,60.07088364,60fe690b1b3a998bee3507a8,611e07ecdcc96256ae8d5b80,611e7cbe1ac0f1ad385a0618,
,,,,space,0.3825,,0,309,309,334,1,O, , , , ,space,1500,1.5,60fe690b1b3a998bee3507a8,001,2021-08-19_16h46.28.621,natb3,2021.2.3,Win32,60.07088364,60fe690b1b3a998bee3507a8,611e07ecdcc96256ae8d5b80,611e7cbe1ac0f1ad385a0618,
,,,,,,,0,310,310,318,1,X, , , , ,,1500,1.5,60fe690b1b3a998bee3507a8,001,2021-08-19_16h46.28.621,natb3,2021.2.3,Win32,60.07088364,60fe690b1b3a998bee3507a8,611e07ecdcc96256ae8d5b80,611e7cbe1ac0f1ad385a0618,
,,,,space,0.3346,,0,311,311,105,1,R, , , , ,space,2500,2.5,60fe690b1b3a998bee3507a8,001,2021-08-19_16h46.28.621,natb3,2021.2.3,Win32,60.07088364,60fe690b1b3a998bee3507a8,611e07ecdcc96256ae8d5b80,611e7cbe1ac0f1ad385a0618,
,,,,space,0.3867,,0,312,312,147,1,E, , , , ,space,2000,2,60fe690b1b3a998bee3507a8,001,2021-08-19_16h46.28.621,natb3,2021.2.3,Win32,60.07088364,60fe690b1b3a998bee3507a8,611e07ecdcc96256ae8d5b80,611e7cbe1ac0f1ad385a0618,
,,,,space,0.5018,,0,313,313,114,1,E, , , , ,space,2000,2,60fe690b1b3a998bee3507a8,001,2021-08-19_16h46.28.621,natb3,2021.2.3,Win32,60.07088364,60fe690b1b3a998bee3507a8,611e07ecdcc96256ae8d5b80,611e7cbe1ac0f1ad385a0618,
,,,,,,,0,314,314,236,1,X,3, ,4,7,,2500,2.5,60fe690b1b3a998bee3507a8,001,2021-08-19_16h46.28.621,natb3,2021.2.3,Win32,60.07088364,60fe690b1b3a998bee3507a8,611e07ecdcc96256ae8d5b80,611e7cbe1ac0f1ad385a0618,
,,,,space,0.3983,,0,315,315,167,1,K, , , , ,space,1500,1.5,60fe690b1b3a998bee3507a8,001,2021-08-19_16h46.28.621,natb3,2021.2.3,Win32,60.07088364,60fe690b1b3a998bee3507a8,611e07ecdcc96256ae8d5b80,611e7cbe1ac0f1ad385a0618,
,,,,space,0.453,,0,316,316,132,1,H, , , , ,space,2500,2.5,60fe690b1b3a998bee3507a8,001,2021-08-19_16h46.28.621,natb3,2021.2.3,Win32,60.07088364,60fe690b1b3a998bee3507a8,611e07ecdcc96256ae8d5b80,611e7cbe1ac0f1ad385a0618,
,,,,space,0.3474,,0,317,317,184,1,T, , , , ,space,2000,2,60fe690b1b3a998bee3507a8,001,2021-08-19_16h46.28.621,natb3,2021.2.3,Win32,60.07088364,60fe690b1b3a998bee3507a8,611e07ecdcc96256ae8d5b80,611e7cbe1ac0f1ad385a0618,
,,,,space,0.3521,,0,318,318,112,1,Q, , , , ,space,2500,2.5,60fe690b1b3a998bee3507a8,001,2021-08-19_16h46.28.621,natb3,2021.2.3,Win32,60.07088364,60fe690b1b3a998bee3507a8,611e07ecdcc96256ae8d5b80,611e7cbe1ac0f1ad385a0618,
,,,,space,0.3518,,0,319,319,156,1,P, , , , ,space,1500,1.5,60fe690b1b3a998bee3507a8,001,2021-08-19_16h46.28.621,natb3,2021.2.3,Win32,60.07088364,60fe690b1b3a998bee3507a8,611e07ecdcc96256ae8d5b80,611e7cbe1ac0f1ad385a0618,
,,,,space,0.3998,,0,320,320,22,1,K, , , , ,space,2000,2,60fe690b1b3a998bee3507a8,001,2021-08-19_16h46.28.621,natb3,2021.2.3,Win32,60.07088364,60fe690b1b3a998bee3507a8,611e07ecdcc96256ae8d5b80,611e7cbe1ac0f1ad385a0618,
,,,,,,,0,321,321,118,1,X, , , , ,,2000,2,60fe690b1b3a998bee3507a8,001,2021-08-19_16h46.28.621,natb3,2021.2.3,Win32,60.07088364,60fe690b1b3a998bee3507a8,611e07ecdcc96256ae8d5b80,611e7cbe1ac0f1ad385a0618,
,,,,space,0.3349,,0,322,322,101,1,Q, , , , ,space,2500,2.5,60fe690b1b3a998bee3507a8,001,2021-08-19_16h46.28.621,natb3,2021.2.3,Win32,60.07088364,60fe690b1b3a998bee3507a8,611e07ecdcc96256ae8d5b80,611e7cbe1ac0f1ad385a0618,
,,,,space,0.5343,,0,323,323,63,1,B, , , , ,space,2000,2,60fe690b1b3a998bee3507a8,001,2021-08-19_16h46.28.621,natb3,2021.2.3,Win32,60.07088364,60fe690b1b3a998bee3507a8,611e07ecdcc96256ae8d5b80,611e7cbe1ac0f1ad385a0618,
,,,,space,0.375,,0,324,324,262,1,Y, , , , ,space,2500,2.5,60fe690b1b3a998bee3507a8,001,2021-08-19_16h46.28.621,natb3,2021.2.3,Win32,60.07088364,60fe690b1b3a998bee3507a8,611e07ecdcc96256ae8d5b80,611e7cbe1ac0f1ad385a0618,
,,,,space,0.3354,,0,325,325,235,1,A, , , , ,space,1500,1.5,60fe690b1b3a998bee3507a8,001,2021-08-19_16h46.28.621,natb3,2021.2.3,Win32,60.07088364,60fe690b1b3a998bee3507a8,611e07ecdcc96256ae8d5b80,611e7cbe1ac0f1ad385a0618,
,,,,,,,0,326,326,187,1,X, ,3,7,4,,1500,1.5,60fe690b1b3a998bee3507a8,001,2021-08-19_16h46.28.621,natb3,2021.2.3,Win32,60.07088364,60fe690b1b3a998bee3507a8,611e07ecdcc96256ae8d5b80,611e7cbe1ac0f1ad385a0618,
,,,,space,0.384,,0,327,327,90,1,K, , , , ,space,2000,2,60fe690b1b3a998bee3507a8,001,2021-08-19_16h46.28.621,natb3,2021.2.3,Win32,60.07088364,60fe690b1b3a998bee3507a8,611e07ecdcc96256ae8d5b80,611e7cbe1ac0f1ad385a0618,
,,,,space,0.4184,,0,328,328,206,1,V, , , , ,space,2000,2,60fe690b1b3a998bee3507a8,001,2021-08-19_16h46.28.621,natb3,2021.2.3,Win32,60.07088364,60fe690b1b3a998bee3507a8,611e07ecdcc96256ae8d5b80,611e7cbe1ac0f1ad385a0618,
,,,,space,0.3536,,0,329,329,43,1,X, ,6, ,2,,2500,2.5,60fe690b1b3a998bee3507a8,001,2021-08-19_16h46.28.621,natb3,2021.2.3,Win32,60.07088364,60fe690b1b3a998bee3507a8,611e07ecdcc96256ae8d5b80,611e7cbe1ac0f1ad385a0618,
,,,,space,0.4502,,0,330,330,210,1,M, , , , ,space,1500,1.5,60fe690b1b3a998bee3507a8,001,2021-08-19_16h46.28.621,natb3,2021.2.3,Win32,60.07088364,60fe690b1b3a998bee3507a8,611e07ecdcc96256ae8d5b80,611e7cbe1ac0f1ad385a0618,
,,,,space,0.3429,,0,331,331,249,1,C, , , , ,space,2000,2,60fe690b1b3a998bee3507a8,001,2021-08-19_16h46.28.621,natb3,2021.2.3,Win32,60.07088364,60fe690b1b3a998bee3507a8,611e07ecdcc96256ae8d5b80,611e7cbe1ac0f1ad385a0618,
,,,,space,0.2925,,0,332,332,103,1,W, , , , ,space,2000,2,60fe690b1b3a998bee3507a8,001,2021-08-19_16h46.28.621,natb3,2021.2.3,Win32,60.07088364,60fe690b1b3a998bee3507a8,611e07ecdcc96256ae8d5b80,611e7cbe1ac0f1ad385a0618,
,,,,space,0.4147,,0,333,333,215,1,E, , , , ,space,2500,2.5,60fe690b1b3a998bee3507a8,001,2021-08-19_16h46.28.621,natb3,2021.2.3,Win32,60.07088364,60fe690b1b3a998bee3507a8,611e07ecdcc96256ae8d5b80,611e7cbe1ac0f1ad385a0618,
,,,,,,,0,334,334,271,1,X, , , , ,,2500,2.5,60fe690b1b3a998bee3507a8,001,2021-08-19_16h46.28.621,natb3,2021.2.3,Win32,60.07088364,60fe690b1b3a998bee3507a8,611e07ecdcc96256ae8d5b80,611e7cbe1ac0f1ad385a0618,
,,,,space,0.4806,,0,335,335,327,1,E, , , , ,space,1500,1.5,60fe690b1b3a998bee3507a8,001,2021-08-19_16h46.28.621,natb3,2021.2.3,Win32,60.07088364,60fe690b1b3a998bee3507a8,611e07ecdcc96256ae8d5b80,611e7cbe1ac0f1ad385a0618,
