key_resp_2.keys,key_resp_2.rt,key_resp_3.keys,key_resp_3.rt,key_resp.keys,key_resp.rt,key_resp_4.keys,trials.thisRepN,trials.thisTrialN,trials.thisN,trials.thisIndex,trials.ran,stimulus,distractor1,distractor2,distractor3,distractor4,CorrAns,isi_duration,isi_dur_in_seconds,participant,session,date,expName,psychopyVersion,OS,frameRate,PROLIFIC_PID,STUDY_ID,SESSION_ID,key_resp_4.rt
return,21.6823,space,24.6471,space,0.5563,,0,0,0,261,1,T, , , , ,space,2000,2,61005d2e9b8bac27eba5b984,001,2021-08-19_16h47.54.826,natb3,2021.2.3,Win32,59.81934558,61005d2e9b8bac27eba5b984,611e07ecdcc96256ae8d5b80,611e7cf7a1321fea0c761846,
,,,,space,0.4312,,0,1,1,14,1,S, , , , ,space,2500,2.5,61005d2e9b8bac27eba5b984,001,2021-08-19_16h47.54.826,natb3,2021.2.3,Win32,59.81934558,61005d2e9b8bac27eba5b984,611e07ecdcc96256ae8d5b80,611e7cf7a1321fea0c761846,
,,,,space,0.4017,,0,2,2,52,1,F, , , , ,space,1500,1.5,61005d2e9b8bac27eba5b984,001,2021-08-19_16h47.54.826,natb3,2021.2.3,Win32,59.81934558,61005d2e9b8bac27eba5b984,611e07ecdcc96256ae8d5b80,611e7cf7a1321fea0c761846,
,,,,,,,0,3,3,200,1,X,7, ,5,3,,1500,1.5,61005d2e9b8bac27eba5b984,001,2021-08-19_16h47.54.826,natb3,2021.2.3,Win32,59.81934558,61005d2e9b8bac27eba5b984,611e07ecdcc96256ae8d5b80,611e7cf7a1321fea0c761846,
,,,,space,0.5152,,0,4,4,161,1,F, , , , ,space,1500,1.5,61005d2e9b8bac27eba5b984,001,2021-08-19_16h47.54.826,natb3,2021.2.3,Win32,59.81934558,61005d2e9b8bac27eba5b984,611e07ecdcc96256ae8d5b80,611e7cf7a1321fea0c761846,
,,,,,,,0,5,5,66,1,X, ,4,7, ,,2000,2,61005d2e9b8bac27eba5b984,001,2021-08-19_16h47.54.826,natb3,2021.2.3,Win32,59.81934558,61005d2e9b8bac27eba5b984,611e07ecdcc96256ae8d5b80,611e7cf7a1321fea0c761846,
,,,,space,0.516,,0,6,6,290,1,W, , , , ,space,1500,1.5,61005d2e9b8bac27eba5b984,001,2021-08-19_16h47.54.826,natb3,2021.2.3,Win32,59.81934558,61005d2e9b8bac27eba5b984,611e07ecdcc96256ae8d5b80,611e7cf7a1321fea0c761846,
,,,,space,0.4031,,0,7,7,303,1,A, , , , ,space,2000,2,61005d2e9b8bac27eba5b984,001,2021-08-19_16h47.54.826,natb3,2021.2.3,Win32,59.81934558,61005d2e9b8bac27eba5b984,611e07ecdcc96256ae8d5b80,611e7cf7a1321fea0c761846,
,,,,,,,0,8,8,218,1,X,1,3, ,8,,1500,1.5,61005d2e9b8bac27eba5b984,001,2021-08-19_16h47.54.826,natb3,2021.2.3,Win32,59.81934558,61005d2e9b8bac27eba5b984,611e07ecdcc96256ae8d5b80,611e7cf7a1321fea0c761846,
,,,,,,,0,9,9,322,1,X, , ,1,6,,2000,2,61005d2e9b8bac27eba5b984,001,2021-08-19_16h47.54.826,natb3,2021.2.3,Win32,59.81934558,61005d2e9b8bac27eba5b984,611e07ecdcc96256ae8d5b80,611e7cf7a1321fea0c761846,
,,,,space,0.4697,,0,10,10,224,1,W, , , , ,space,1500,1.5,61005d2e9b8bac27eba5b984,001,2021-08-19_16h47.54.826,natb3,2021.2.3,Win32,59.81934558,61005d2e9b8bac27eba5b984,611e07ecdcc96256ae8d5b80,611e7cf7a1321fea0c761846,
,,,,space,0.4023,,0,11,11,103,1,W, , , , ,space,2000,2,61005d2e9b8bac27eba5b984,001,2021-08-19_16h47.54.826,natb3,2021.2.3,Win32,59.81934558,61005d2e9b8bac27eba5b984,611e07ecdcc96256ae8d5b80,611e7cf7a1321fea0c761846,
,,,,,,,0,12,12,54,1,X, , , , ,,2000,2,61005d2e9b8bac27eba5b984,001,2021-08-19_16h47.54.826,natb3,2021.2.3,Win32,59.81934558,61005d2e9b8bac27eba5b984,611e07ecdcc96256ae8d5b80,611e7cf7a1321fea0c761846,
,,,,space,0.435,,0,13,13,81,1,S, , , , ,space,2000,2,61005d2e9b8bac27eba5b984,001,2021-08-19_16h47.54.826,natb3,2021.2.3,Win32,59.81934558,61005d2e9b8bac27eba5b984,611e07ecdcc96256ae8d5b80,611e7cf7a1321fea0c761846,
,,,,space,0.352,,0,14,14,117,1,T, , , , ,space,2500,2.5,61005d2e9b8bac27eba5b984,001,2021-08-19_16h47.54.826,natb3,2021.2.3,Win32,59.81934558,61005d2e9b8bac27eba5b984,611e07ecdcc96256ae8d5b80,611e7cf7a1321fea0c761846,
,,,,,,,0,15,15,33,1,X, , , , ,,1500,1.5,61005d2e9b8bac27eba5b984,001,2021-08-19_16h47.54.826,natb3,2021.2.3,Win32,59.81934558,61005d2e9b8bac27eba5b984,611e07ecdcc96256ae8d5b80,611e7cf7a1321fea0c761846,
,,,,space,0.4073,,0,16,16,257,1,W, , , , ,space,2000,2,61005d2e9b8bac27eba5b984,001,2021-08-19_16h47.54.826,natb3,2021.2.3,Win32,59.81934558,61005d2e9b8bac27eba5b984,611e07ecdcc96256ae8d5b80,611e7cf7a1321fea0c761846,
,,,,space,0.3842,,0,17,17,79,1,P, , , , ,space,2000,2,61005d2e9b8bac27eba5b984,001,2021-08-19_16h47.54.826,natb3,2021.2.3,Win32,59.81934558,61005d2e9b8bac27eba5b984,611e07ecdcc96256ae8d5b80,611e7cf7a1321fea0c761846,
,,,,,,,0,18,18,39,1,X,6,2, , ,,1500,1.5,61005d2e9b8bac27eba5b984,001,2021-08-19_16h47.54.826,natb3,2021.2.3,Win32,59.81934558,61005d2e9b8bac27eba5b984,611e07ecdcc96256ae8d5b80,611e7cf7a1321fea0c761846,
,,,,space,0.3489,,0,19,19,173,1,V, , , , ,space,1500,1.5,61005d2e9b8bac27eba5b984,001,2021-08-19_16h47.54.826,natb3,2021.2.3,Win32,59.81934558,61005d2e9b8bac27eba5b984,611e07ecdcc96256ae8d5b80,611e7cf7a1321fea0c761846,
,,,,space,0.3852,,0,20,20,3,1,R, , , , ,space,2000,2,61005d2e9b8bac27eba5b984,001,2021-08-19_16h47.54.826,natb3,2021.2.3,Win32,59.81934558,61005d2e9b8bac27eba5b984,611e07ecdcc96256ae8d5b80,611e7cf7a1321fea0c761846,
,,,,,,,0,21,21,175,1,X,7, ,4,2,,1500,1.5,61005d2e9b8bac27eba5b984,001,2021-08-19_16h47.54.826,natb3,2021.2.3,Win32,59.81934558,61005d2e9b8bac27eba5b984,611e07ecdcc96256ae8d5b80,611e7cf7a1321fea0c761846,
,,,,space,0.4155,,0,22,22,154,1,I, , , , ,space,2500,2.5,61005d2e9b8bac27eba5b984,001,2021-08-19_16h47.54.826,natb3,2021.2.3,Win32,59.81934558,61005d2e9b8bac27eba5b984,611e07ecdcc96256ae8d5b80,611e7cf7a1321fea0c761846,
,,,,space,0.3739,,0,23,23,86,1,G, , , , ,space,2000,2,61005d2e9b8bac27eba5b984,001,2021-08-19_16h47.54.826,natb3,2021.2.3,Win32,59.81934558,61005d2e9b8bac27eba5b984,611e07ecdcc96256ae8d5b80,611e7cf7a1321fea0c761846,
,,,,,,,0,24,24,102,1,X, ,6, , ,,1500,1.5,61005d2e9b8bac27eba5b984,001,2021-08-19_16h47.54.826,natb3,2021.2.3,Win32,59.81934558,61005d2e9b8bac27eba5b984,611e07ecdcc96256ae8d5b80,611e7cf7a1321fea0c761846,
,,,,space,0.3006,,0,25,25,125,1,X, , , , ,,2000,2,61005d2e9b8bac27eba5b984,001,2021-08-19_16h47.54.826,natb3,2021.2.3,Win32,59.81934558,61005d2e9b8bac27eba5b984,611e07ecdcc96256ae8d5b80,611e7cf7a1321fea0c761846,
,,,,space,0.4013,,0,26,26,126,1,A, , , , ,space,2500,2.5,61005d2e9b8bac27eba5b984,001,2021-08-19_16h47.54.826,natb3,2021.2.3,Win32,59.81934558,61005d2e9b8bac27eba5b984,611e07ecdcc96256ae8d5b80,611e7cf7a1321fea0c761846,
,,,,,,,0,27,27,129,1,X,2,3,5, ,,1500,1.5,61005d2e9b8bac27eba5b984,001,2021-08-19_16h47.54.826,natb3,2021.2.3,Win32,59.81934558,61005d2e9b8bac27eba5b984,611e07ecdcc96256ae8d5b80,611e7cf7a1321fea0c761846,
,,,,space,0.4018,,0,28,28,75,1,U, , , , ,space,1500,1.5,61005d2e9b8bac27eba5b984,001,2021-08-19_16h47.54.826,natb3,2021.2.3,Win32,59.81934558,61005d2e9b8bac27eba5b984,611e07ecdcc96256ae8d5b80,611e7cf7a1321fea0c761846,
,,,,space,0.5014,,0,29,29,245,1,K, , , , ,space,2000,2,61005d2e9b8bac27eba5b984,001,2021-08-19_16h47.54.826,natb3,2021.2.3,Win32,59.81934558,61005d2e9b8bac27eba5b984,611e07ecdcc96256ae8d5b80,611e7cf7a1321fea0c761846,
,,,,,,,0,30,30,302,1,X, , , , ,,2000,2,61005d2e9b8bac27eba5b984,001,2021-08-19_16h47.54.826,natb3,2021.2.3,Win32,59.81934558,61005d2e9b8bac27eba5b984,611e07ecdcc96256ae8d5b80,611e7cf7a1321fea0c761846,
,,,,space,0.4504,,0,31,31,235,1,A, , , , ,space,1500,1.5,61005d2e9b8bac27eba5b984,001,2021-08-19_16h47.54.826,natb3,2021.2.3,Win32,59.81934558,61005d2e9b8bac27eba5b984,611e07ecdcc96256ae8d5b80,611e7cf7a1321fea0c761846,
,,,,space,0.4176,,0,32,32,137,1,C, , , , ,space,2500,2.5,61005d2e9b8bac27eba5b984,001,2021-08-19_16h47.54.826,natb3,2021.2.3,Win32,59.81934558,61005d2e9b8bac27eba5b984,611e07ecdcc96256ae8d5b80,611e7cf7a1321fea0c761846,
,,,,space,0.4528,,0,33,33,223,1,Q, , , , ,space,2000,2,61005d2e9b8bac27eba5b984,001,2021-08-19_16h47.54.826,natb3,2021.2.3,Win32,59.81934558,61005d2e9b8bac27eba5b984,611e07ecdcc96256ae8d5b80,611e7cf7a1321fea0c761846,
,,,,,,,0,34,34,282,1,X, , , , ,,2500,2.5,61005d2e9b8bac27eba5b984,001,2021-08-19_16h47.54.826,natb3,2021.2.3,Win32,59.81934558,61005d2e9b8bac27eba5b984,611e07ecdcc96256ae8d5b80,611e7cf7a1321fea0c761846,
,,,,,,,0,35,35,98,1,X, , , , ,,2500,2.5,61005d2e9b8bac27eba5b984,001,2021-08-19_16h47.54.826,natb3,2021.2.3,Win32,59.81934558,61005d2e9b8bac27eba5b984,611e07ecdcc96256ae8d5b80,611e7cf7a1321fea0c761846,
,,,,,,,0,36,36,263,1,X,4, ,6, ,,1500,1.5,61005d2e9b8bac27eba5b984,001,2021-08-19_16h47.54.826,natb3,2021.2.3,Win32,59.81934558,61005d2e9b8bac27eba5b984,611e07ecdcc96256ae8d5b80,611e7cf7a1321fea0c761846,
,,,,space,0.419,,0,37,37,324,1,Q, , , , ,space,2000,2,61005d2e9b8bac27eba5b984,001,2021-08-19_16h47.54.826,natb3,2021.2.3,Win32,59.81934558,61005d2e9b8bac27eba5b984,611e07ecdcc96256ae8d5b80,611e7cf7a1321fea0c761846,
,,,,,,,0,38,38,12,1,X, , , , ,,1500,1.5,61005d2e9b8bac27eba5b984,001,2021-08-19_16h47.54.826,natb3,2021.2.3,Win32,59.81934558,61005d2e9b8bac27eba5b984,611e07ecdcc96256ae8d5b80,611e7cf7a1321fea0c761846,
,,,,space,0.4012,,0,39,39,190,1,P, , , , ,space,2000,2,61005d2e9b8bac27eba5b984,001,2021-08-19_16h47.54.826,natb3,2021.2.3,Win32,59.81934558,61005d2e9b8bac27eba5b984,611e07ecdcc96256ae8d5b80,611e7cf7a1321fea0c761846,
,,,,space,0.3908,,0,40,40,160,1,D, , , , ,space,1500,1.5,61005d2e9b8bac27eba5b984,001,2021-08-19_16h47.54.826,natb3,2021.2.3,Win32,59.81934558,61005d2e9b8bac27eba5b984,611e07ecdcc96256ae8d5b80,611e7cf7a1321fea0c761846,
,,,,space,0.3683,,0,41,41,192,1,A, , , , ,space,2000,2,61005d2e9b8bac27eba5b984,001,2021-08-19_16h47.54.826,natb3,2021.2.3,Win32,59.81934558,61005d2e9b8bac27eba5b984,611e07ecdcc96256ae8d5b80,611e7cf7a1321fea0c761846,
,,,,space,0.3856,,0,42,42,106,1,T, , , , ,space,1500,1.5,61005d2e9b8bac27eba5b984,001,2021-08-19_16h47.54.826,natb3,2021.2.3,Win32,59.81934558,61005d2e9b8bac27eba5b984,611e07ecdcc96256ae8d5b80,611e7cf7a1321fea0c761846,
,,,,space,0.3867,,0,43,43,230,1,U, , , , ,space,1500,1.5,61005d2e9b8bac27eba5b984,001,2021-08-19_16h47.54.826,natb3,2021.2.3,Win32,59.81934558,61005d2e9b8bac27eba5b984,611e07ecdcc96256ae8d5b80,611e7cf7a1321fea0c761846,
,,,,space,0.4012,,0,44,44,159,1,S, , , , ,space,2500,2.5,61005d2e9b8bac27eba5b984,001,2021-08-19_16h47.54.826,natb3,2021.2.3,Win32,59.81934558,61005d2e9b8bac27eba5b984,611e07ecdcc96256ae8d5b80,611e7cf7a1321fea0c761846,
,,,,,,,0,45,45,168,1,X, , , , ,,2500,2.5,61005d2e9b8bac27eba5b984,001,2021-08-19_16h47.54.826,natb3,2021.2.3,Win32,59.81934558,61005d2e9b8bac27eba5b984,611e07ecdcc96256ae8d5b80,611e7cf7a1321fea0c761846,
,,,,space,0.4251,,0,46,46,132,1,H, , , , ,space,2500,2.5,61005d2e9b8bac27eba5b984,001,2021-08-19_16h47.54.826,natb3,2021.2.3,Win32,59.81934558,61005d2e9b8bac27eba5b984,611e07ecdcc96256ae8d5b80,611e7cf7a1321fea0c761846,
,,,,space,0.4013,,0,47,47,127,1,S, , , , ,space,2500,2.5,61005d2e9b8bac27eba5b984,001,2021-08-19_16h47.54.826,natb3,2021.2.3,Win32,59.81934558,61005d2e9b8bac27eba5b984,611e07ecdcc96256ae8d5b80,611e7cf7a1321fea0c761846,
,,,,space,0.368,,0,48,48,217,1,T, , , , ,space,2500,2.5,61005d2e9b8bac27eba5b984,001,2021-08-19_16h47.54.826,natb3,2021.2.3,Win32,59.81934558,61005d2e9b8bac27eba5b984,611e07ecdcc96256ae8d5b80,611e7cf7a1321fea0c761846,
,,,,space,0.3736,,0,49,49,234,1,P, , , , ,space,2000,2,61005d2e9b8bac27eba5b984,001,2021-08-19_16h47.54.826,natb3,2021.2.3,Win32,59.81934558,61005d2e9b8bac27eba5b984,611e07ecdcc96256ae8d5b80,611e7cf7a1321fea0c761846,
,,,,space,0.352,,0,50,50,67,1,Q, , , , ,space,2000,2,61005d2e9b8bac27eba5b984,001,2021-08-19_16h47.54.826,natb3,2021.2.3,Win32,59.81934558,61005d2e9b8bac27eba5b984,611e07ecdcc96256ae8d5b80,611e7cf7a1321fea0c761846,
,,,,space,0.4346,,0,51,51,177,1,M, , , , ,space,2500,2.5,61005d2e9b8bac27eba5b984,001,2021-08-19_16h47.54.826,natb3,2021.2.3,Win32,59.81934558,61005d2e9b8bac27eba5b984,611e07ecdcc96256ae8d5b80,611e7cf7a1321fea0c761846,
,,,,space,0.434,,0,52,52,228,1,Y, , , , ,space,2000,2,61005d2e9b8bac27eba5b984,001,2021-08-19_16h47.54.826,natb3,2021.2.3,Win32,59.81934558,61005d2e9b8bac27eba5b984,611e07ecdcc96256ae8d5b80,611e7cf7a1321fea0c761846,
,,,,space,0.4511,,0,53,53,143,1,M, , , , ,space,2500,2.5,61005d2e9b8bac27eba5b984,001,2021-08-19_16h47.54.826,natb3,2021.2.3,Win32,59.81934558,61005d2e9b8bac27eba5b984,611e07ecdcc96256ae8d5b80,611e7cf7a1321fea0c761846,
,,,,space,0.385,,0,54,54,204,1,Z, , , , ,space,2000,2,61005d2e9b8bac27eba5b984,001,2021-08-19_16h47.54.826,natb3,2021.2.3,Win32,59.81934558,61005d2e9b8bac27eba5b984,611e07ecdcc96256ae8d5b80,611e7cf7a1321fea0c761846,
,,,,space,0.4592,,0,55,55,45,1,O, , , , ,space,2000,2,61005d2e9b8bac27eba5b984,001,2021-08-19_16h47.54.826,natb3,2021.2.3,Win32,59.81934558,61005d2e9b8bac27eba5b984,611e07ecdcc96256ae8d5b80,611e7cf7a1321fea0c761846,
,,,,space,0.4183,,0,56,56,76,1,I, , , , ,space,2000,2,61005d2e9b8bac27eba5b984,001,2021-08-19_16h47.54.826,natb3,2021.2.3,Win32,59.81934558,61005d2e9b8bac27eba5b984,611e07ecdcc96256ae8d5b80,611e7cf7a1321fea0c761846,
,,,,space,0.3552,,0,57,57,308,1,G, , , , ,space,1500,1.5,61005d2e9b8bac27eba5b984,001,2021-08-19_16h47.54.826,natb3,2021.2.3,Win32,59.81934558,61005d2e9b8bac27eba5b984,611e07ecdcc96256ae8d5b80,611e7cf7a1321fea0c761846,
,,,,space,0.3513,,0,58,58,265,1,I, , , , ,space,2000,2,61005d2e9b8bac27eba5b984,001,2021-08-19_16h47.54.826,natb3,2021.2.3,Win32,59.81934558,61005d2e9b8bac27eba5b984,611e07ecdcc96256ae8d5b80,611e7cf7a1321fea0c761846,
,,,,space,0.3517,,0,59,59,94,1,C, , , , ,space,2000,2,61005d2e9b8bac27eba5b984,001,2021-08-19_16h47.54.826,natb3,2021.2.3,Win32,59.81934558,61005d2e9b8bac27eba5b984,611e07ecdcc96256ae8d5b80,611e7cf7a1321fea0c761846,
,,,,space,0.373,,0,60,60,61,1,C, , , , ,space,2000,2,61005d2e9b8bac27eba5b984,001,2021-08-19_16h47.54.826,natb3,2021.2.3,Win32,59.81934558,61005d2e9b8bac27eba5b984,611e07ecdcc96256ae8d5b80,611e7cf7a1321fea0c761846,
,,,,space,0.4008,,0,61,61,65,1,M, , , , ,space,1500,1.5,61005d2e9b8bac27eba5b984,001,2021-08-19_16h47.54.826,natb3,2021.2.3,Win32,59.81934558,61005d2e9b8bac27eba5b984,611e07ecdcc96256ae8d5b80,611e7cf7a1321fea0c761846,
,,,,space,0.4204,,0,62,62,333,1,I, , , , ,space,1500,1.5,61005d2e9b8bac27eba5b984,001,2021-08-19_16h47.54.826,natb3,2021.2.3,Win32,59.81934558,61005d2e9b8bac27eba5b984,611e07ecdcc96256ae8d5b80,611e7cf7a1321fea0c761846,
,,,,,,,0,63,63,153,1,X,4,7, ,6,,2000,2,61005d2e9b8bac27eba5b984,001,2021-08-19_16h47.54.826,natb3,2021.2.3,Win32,59.81934558,61005d2e9b8bac27eba5b984,611e07ecdcc96256ae8d5b80,611e7cf7a1321fea0c761846,
,,,,space,0.4397,,0,64,64,201,1,K, , , , ,space,1500,1.5,61005d2e9b8bac27eba5b984,001,2021-08-19_16h47.54.826,natb3,2021.2.3,Win32,59.81934558,61005d2e9b8bac27eba5b984,611e07ecdcc96256ae8d5b80,611e7cf7a1321fea0c761846,
,,,,space,0.4249,,0,65,65,35,1,X, , , , ,,2500,2.5,61005d2e9b8bac27eba5b984,001,2021-08-19_16h47.54.826,natb3,2021.2.3,Win32,59.81934558,61005d2e9b8bac27eba5b984,611e07ecdcc96256ae8d5b80,611e7cf7a1321fea0c761846,
,,,,space,0.376,,0,66,66,180,1,W, , , , ,space,2000,2,61005d2e9b8bac27eba5b984,001,2021-08-19_16h47.54.826,natb3,2021.2.3,Win32,59.81934558,61005d2e9b8bac27eba5b984,611e07ecdcc96256ae8d5b80,611e7cf7a1321fea0c761846,
,,,,,,,0,67,67,259,1,X,8, , ,3,,2500,2.5,61005d2e9b8bac27eba5b984,001,2021-08-19_16h47.54.826,natb3,2021.2.3,Win32,59.81934558,61005d2e9b8bac27eba5b984,611e07ecdcc96256ae8d5b80,611e7cf7a1321fea0c761846,
,,,,,,,0,68,68,60,1,X,7,3,5, ,,1500,1.5,61005d2e9b8bac27eba5b984,001,2021-08-19_16h47.54.826,natb3,2021.2.3,Win32,59.81934558,61005d2e9b8bac27eba5b984,611e07ecdcc96256ae8d5b80,611e7cf7a1321fea0c761846,
,,,,space,0.4021,,0,69,69,30,1,N, , , , ,space,2500,2.5,61005d2e9b8bac27eba5b984,001,2021-08-19_16h47.54.826,natb3,2021.2.3,Win32,59.81934558,61005d2e9b8bac27eba5b984,611e07ecdcc96256ae8d5b80,611e7cf7a1321fea0c761846,
,,,,,,,0,70,70,4,1,X, , , , ,,2000,2,61005d2e9b8bac27eba5b984,001,2021-08-19_16h47.54.826,natb3,2021.2.3,Win32,59.81934558,61005d2e9b8bac27eba5b984,611e07ecdcc96256ae8d5b80,611e7cf7a1321fea0c761846,
,,,,space,0.4682,,0,71,71,330,1,T, , , , ,space,2500,2.5,61005d2e9b8bac27eba5b984,001,2021-08-19_16h47.54.826,natb3,2021.2.3,Win32,59.81934558,61005d2e9b8bac27eba5b984,611e07ecdcc96256ae8d5b80,611e7cf7a1321fea0c761846,
,,,,space,0.4186,,0,72,72,139,1,V, , , , ,space,2000,2,61005d2e9b8bac27eba5b984,001,2021-08-19_16h47.54.826,natb3,2021.2.3,Win32,59.81934558,61005d2e9b8bac27eba5b984,611e07ecdcc96256ae8d5b80,611e7cf7a1321fea0c761846,
,,,,space,0.4681,,0,73,73,151,1,Y, , , , ,space,2500,2.5,61005d2e9b8bac27eba5b984,001,2021-08-19_16h47.54.826,natb3,2021.2.3,Win32,59.81934558,61005d2e9b8bac27eba5b984,611e07ecdcc96256ae8d5b80,611e7cf7a1321fea0c761846,
,,,,space,0.4182,,0,74,74,5,1,T, , , , ,space,2000,2,61005d2e9b8bac27eba5b984,001,2021-08-19_16h47.54.826,natb3,2021.2.3,Win32,59.81934558,61005d2e9b8bac27eba5b984,611e07ecdcc96256ae8d5b80,611e7cf7a1321fea0c761846,
,,,,,,,0,75,75,162,1,X,1,6, ,2,,1500,1.5,61005d2e9b8bac27eba5b984,001,2021-08-19_16h47.54.826,natb3,2021.2.3,Win32,59.81934558,61005d2e9b8bac27eba5b984,611e07ecdcc96256ae8d5b80,611e7cf7a1321fea0c761846,
,,,,space,0.4998,,0,76,76,101,1,Q, , , , ,space,2500,2.5,61005d2e9b8bac27eba5b984,001,2021-08-19_16h47.54.826,natb3,2021.2.3,Win32,59.81934558,61005d2e9b8bac27eba5b984,611e07ecdcc96256ae8d5b80,611e7cf7a1321fea0c761846,
,,,,space,0.451,,0,77,77,260,1,R, , , , ,space,2000,2,61005d2e9b8bac27eba5b984,001,2021-08-19_16h47.54.826,natb3,2021.2.3,Win32,59.81934558,61005d2e9b8bac27eba5b984,611e07ecdcc96256ae8d5b80,611e7cf7a1321fea0c761846,
,,,,space,0.4342,,0,78,78,185,1,Y, , , , ,space,2500,2.5,61005d2e9b8bac27eba5b984,001,2021-08-19_16h47.54.826,natb3,2021.2.3,Win32,59.81934558,61005d2e9b8bac27eba5b984,611e07ecdcc96256ae8d5b80,611e7cf7a1321fea0c761846,
,,,,space,0.3571,,0,79,79,90,1,K, , , , ,space,2000,2,61005d2e9b8bac27eba5b984,001,2021-08-19_16h47.54.826,natb3,2021.2.3,Win32,59.81934558,61005d2e9b8bac27eba5b984,611e07ecdcc96256ae8d5b80,611e7cf7a1321fea0c761846,
,,,,space,0.384,,0,80,80,104,1,E, , , , ,space,2000,2,61005d2e9b8bac27eba5b984,001,2021-08-19_16h47.54.826,natb3,2021.2.3,Win32,59.81934558,61005d2e9b8bac27eba5b984,611e07ecdcc96256ae8d5b80,611e7cf7a1321fea0c761846,
,,,,space,0.4531,,0,81,81,170,1,Z, , , , ,space,2000,2,61005d2e9b8bac27eba5b984,001,2021-08-19_16h47.54.826,natb3,2021.2.3,Win32,59.81934558,61005d2e9b8bac27eba5b984,611e07ecdcc96256ae8d5b80,611e7cf7a1321fea0c761846,
,,,,space,0.3907,,0,82,82,16,1,D, , , , ,space,1500,1.5,61005d2e9b8bac27eba5b984,001,2021-08-19_16h47.54.826,natb3,2021.2.3,Win32,59.81934558,61005d2e9b8bac27eba5b984,611e07ecdcc96256ae8d5b80,611e7cf7a1321fea0c761846,
,,,,,,,0,83,83,116,1,X, , , , ,,2000,2,61005d2e9b8bac27eba5b984,001,2021-08-19_16h47.54.826,natb3,2021.2.3,Win32,59.81934558,61005d2e9b8bac27eba5b984,611e07ecdcc96256ae8d5b80,611e7cf7a1321fea0c761846,
,,,,space,0.4166,,0,84,84,40,1,T, , , , ,space,1500,1.5,61005d2e9b8bac27eba5b984,001,2021-08-19_16h47.54.826,natb3,2021.2.3,Win32,59.81934558,61005d2e9b8bac27eba5b984,611e07ecdcc96256ae8d5b80,611e7cf7a1321fea0c761846,
,,,,space,0.3673,,0,85,85,88,1,J, , , , ,space,2500,2.5,61005d2e9b8bac27eba5b984,001,2021-08-19_16h47.54.826,natb3,2021.2.3,Win32,59.81934558,61005d2e9b8bac27eba5b984,611e07ecdcc96256ae8d5b80,611e7cf7a1321fea0c761846,
,,,,space,0.3933,,0,86,86,331,1,Y, , , , ,space,2500,2.5,61005d2e9b8bac27eba5b984,001,2021-08-19_16h47.54.826,natb3,2021.2.3,Win32,59.81934558,61005d2e9b8bac27eba5b984,611e07ecdcc96256ae8d5b80,611e7cf7a1321fea0c761846,
,,,,space,0.3681,,0,87,87,83,1,D, , , , ,space,2000,2,61005d2e9b8bac27eba5b984,001,2021-08-19_16h47.54.826,natb3,2021.2.3,Win32,59.81934558,61005d2e9b8bac27eba5b984,611e07ecdcc96256ae8d5b80,611e7cf7a1321fea0c761846,
,,,,space,0.3851,,0,88,88,314,1,L, , , , ,space,1500,1.5,61005d2e9b8bac27eba5b984,001,2021-08-19_16h47.54.826,natb3,2021.2.3,Win32,59.81934558,61005d2e9b8bac27eba5b984,611e07ecdcc96256ae8d5b80,611e7cf7a1321fea0c761846,
,,,,space,0.3844,,0,89,89,264,1,U, , , , ,space,2000,2,61005d2e9b8bac27eba5b984,001,2021-08-19_16h47.54.826,natb3,2021.2.3,Win32,59.81934558,61005d2e9b8bac27eba5b984,611e07ecdcc96256ae8d5b80,611e7cf7a1321fea0c761846,
,,,,space,0.4056,,0,90,90,206,1,V, , , , ,space,2000,2,61005d2e9b8bac27eba5b984,001,2021-08-19_16h47.54.826,natb3,2021.2.3,Win32,59.81934558,61005d2e9b8bac27eba5b984,611e07ecdcc96256ae8d5b80,611e7cf7a1321fea0c761846,
,,,,space,0.3847,,0,91,91,227,1,T, , , , ,space,1500,1.5,61005d2e9b8bac27eba5b984,001,2021-08-19_16h47.54.826,natb3,2021.2.3,Win32,59.81934558,61005d2e9b8bac27eba5b984,611e07ecdcc96256ae8d5b80,611e7cf7a1321fea0c761846,
,,,,space,0.3408,,0,92,92,59,1,Z, , , , ,space,2000,2,61005d2e9b8bac27eba5b984,001,2021-08-19_16h47.54.826,natb3,2021.2.3,Win32,59.81934558,61005d2e9b8bac27eba5b984,611e07ecdcc96256ae8d5b80,611e7cf7a1321fea0c761846,
,,,,space,0.4009,,0,93,93,111,1,O, , , , ,space,2000,2,61005d2e9b8bac27eba5b984,001,2021-08-19_16h47.54.826,natb3,2021.2.3,Win32,59.81934558,61005d2e9b8bac27eba5b984,611e07ecdcc96256ae8d5b80,611e7cf7a1321fea0c761846,
,,,,space,0.3681,,0,94,94,49,1,S, , , , ,space,1500,1.5,61005d2e9b8bac27eba5b984,001,2021-08-19_16h47.54.826,natb3,2021.2.3,Win32,59.81934558,61005d2e9b8bac27eba5b984,611e07ecdcc96256ae8d5b80,611e7cf7a1321fea0c761846,
,,,,space,0.3849,,0,95,95,95,1,V, , , , ,space,1500,1.5,61005d2e9b8bac27eba5b984,001,2021-08-19_16h47.54.826,natb3,2021.2.3,Win32,59.81934558,61005d2e9b8bac27eba5b984,611e07ecdcc96256ae8d5b80,611e7cf7a1321fea0c761846,
,,,,,,,0,96,96,236,1,X,3, ,4,7,,2500,2.5,61005d2e9b8bac27eba5b984,001,2021-08-19_16h47.54.826,natb3,2021.2.3,Win32,59.81934558,61005d2e9b8bac27eba5b984,611e07ecdcc96256ae8d5b80,611e7cf7a1321fea0c761846,
,,,,,,,0,97,97,51,1,X,7,5,8, ,,1500,1.5,61005d2e9b8bac27eba5b984,001,2021-08-19_16h47.54.826,natb3,2021.2.3,Win32,59.81934558,61005d2e9b8bac27eba5b984,611e07ecdcc96256ae8d5b80,611e7cf7a1321fea0c761846,
,,,,space,0.4536,,0,98,98,275,1,G, , , , ,space,1500,1.5,61005d2e9b8bac27eba5b984,001,2021-08-19_16h47.54.826,natb3,2021.2.3,Win32,59.81934558,61005d2e9b8bac27eba5b984,611e07ecdcc96256ae8d5b80,611e7cf7a1321fea0c761846,
,,,,,,,0,99,99,69,1,X, , , , ,,1500,1.5,61005d2e9b8bac27eba5b984,001,2021-08-19_16h47.54.826,natb3,2021.2.3,Win32,59.81934558,61005d2e9b8bac27eba5b984,611e07ecdcc96256ae8d5b80,611e7cf7a1321fea0c761846,
,,,,space,0.4037,,0,100,100,87,1,H, , , , ,space,1500,1.5,61005d2e9b8bac27eba5b984,001,2021-08-19_16h47.54.826,natb3,2021.2.3,Win32,59.81934558,61005d2e9b8bac27eba5b984,611e07ecdcc96256ae8d5b80,611e7cf7a1321fea0c761846,
,,,,space,0.3688,,0,101,101,110,1,I, , , , ,space,1500,1.5,61005d2e9b8bac27eba5b984,001,2021-08-19_16h47.54.826,natb3,2021.2.3,Win32,59.81934558,61005d2e9b8bac27eba5b984,611e07ecdcc96256ae8d5b80,611e7cf7a1321fea0c761846,
,,,,space,0.3832,,0,102,102,97,1,B, , , , ,space,2500,2.5,61005d2e9b8bac27eba5b984,001,2021-08-19_16h47.54.826,natb3,2021.2.3,Win32,59.81934558,61005d2e9b8bac27eba5b984,611e07ecdcc96256ae8d5b80,611e7cf7a1321fea0c761846,
,,,,,,,0,103,103,118,1,X, , , , ,,2000,2,61005d2e9b8bac27eba5b984,001,2021-08-19_16h47.54.826,natb3,2021.2.3,Win32,59.81934558,61005d2e9b8bac27eba5b984,611e07ecdcc96256ae8d5b80,611e7cf7a1321fea0c761846,
,,,,space,0.4258,,0,104,104,41,1,Y, , , , ,space,2500,2.5,61005d2e9b8bac27eba5b984,001,2021-08-19_16h47.54.826,natb3,2021.2.3,Win32,59.81934558,61005d2e9b8bac27eba5b984,611e07ecdcc96256ae8d5b80,611e7cf7a1321fea0c761846,
,,,,,,,0,105,105,43,1,X, ,6, ,2,,2500,2.5,61005d2e9b8bac27eba5b984,001,2021-08-19_16h47.54.826,natb3,2021.2.3,Win32,59.81934558,61005d2e9b8bac27eba5b984,611e07ecdcc96256ae8d5b80,611e7cf7a1321fea0c761846,
,,,,space,0.4659,,0,106,106,266,1,O, , , , ,space,1500,1.5,61005d2e9b8bac27eba5b984,001,2021-08-19_16h47.54.826,natb3,2021.2.3,Win32,59.81934558,61005d2e9b8bac27eba5b984,611e07ecdcc96256ae8d5b80,611e7cf7a1321fea0c761846,
,,,,,,,0,107,107,179,1,X, ,9, ,2,,1500,1.5,61005d2e9b8bac27eba5b984,001,2021-08-19_16h47.54.826,natb3,2021.2.3,Win32,59.81934558,61005d2e9b8bac27eba5b984,611e07ecdcc96256ae8d5b80,611e7cf7a1321fea0c761846,
,,,,space,0.4376,,0,108,108,272,1,D, , , , ,space,2000,2,61005d2e9b8bac27eba5b984,001,2021-08-19_16h47.54.826,natb3,2021.2.3,Win32,59.81934558,61005d2e9b8bac27eba5b984,611e07ecdcc96256ae8d5b80,611e7cf7a1321fea0c761846,
,,,,space,0.3688,,0,109,109,306,1,D, , , , ,space,2000,2,61005d2e9b8bac27eba5b984,001,2021-08-19_16h47.54.826,natb3,2021.2.3,Win32,59.81934558,61005d2e9b8bac27eba5b984,611e07ecdcc96256ae8d5b80,611e7cf7a1321fea0c761846,
,,,,space,0.4182,,0,110,110,169,1,L, , , , ,space,2500,2.5,61005d2e9b8bac27eba5b984,001,2021-08-19_16h47.54.826,natb3,2021.2.3,Win32,59.81934558,61005d2e9b8bac27eba5b984,611e07ecdcc96256ae8d5b80,611e7cf7a1321fea0c761846,
,,,,,,,0,111,111,15,1,X, , , , ,,1500,1.5,61005d2e9b8bac27eba5b984,001,2021-08-19_16h47.54.826,natb3,2021.2.3,Win32,59.81934558,61005d2e9b8bac27eba5b984,611e07ecdcc96256ae8d5b80,611e7cf7a1321fea0c761846,
,,,,space,0.5188,,0,112,112,46,1,X, , , , ,,2000,2,61005d2e9b8bac27eba5b984,001,2021-08-19_16h47.54.826,natb3,2021.2.3,Win32,59.81934558,61005d2e9b8bac27eba5b984,611e07ecdcc96256ae8d5b80,611e7cf7a1321fea0c761846,
,,,,space,0.3848,,0,113,113,225,1,E, , , , ,space,2000,2,61005d2e9b8bac27eba5b984,001,2021-08-19_16h47.54.826,natb3,2021.2.3,Win32,59.81934558,61005d2e9b8bac27eba5b984,611e07ecdcc96256ae8d5b80,611e7cf7a1321fea0c761846,
,,,,space,0.5215,,0,114,114,284,1,V, , , , ,space,2500,2.5,61005d2e9b8bac27eba5b984,001,2021-08-19_16h47.54.826,natb3,2021.2.3,Win32,59.81934558,61005d2e9b8bac27eba5b984,611e07ecdcc96256ae8d5b80,611e7cf7a1321fea0c761846,
,,,,space,0.4068,,0,115,115,167,1,K, , , , ,space,1500,1.5,61005d2e9b8bac27eba5b984,001,2021-08-19_16h47.54.826,natb3,2021.2.3,Win32,59.81934558,61005d2e9b8bac27eba5b984,611e07ecdcc96256ae8d5b80,611e7cf7a1321fea0c761846,
,,,,space,0.3901,,0,116,116,280,1,L, , , , ,space,1500,1.5,61005d2e9b8bac27eba5b984,001,2021-08-19_16h47.54.826,natb3,2021.2.3,Win32,59.81934558,61005d2e9b8bac27eba5b984,611e07ecdcc96256ae8d5b80,611e7cf7a1321fea0c761846,
,,,,,,,0,117,117,18,1,X, ,2,5,8,,2500,2.5,61005d2e9b8bac27eba5b984,001,2021-08-19_16h47.54.826,natb3,2021.2.3,Win32,59.81934558,61005d2e9b8bac27eba5b984,611e07ecdcc96256ae8d5b80,611e7cf7a1321fea0c761846,
,,,,,,,0,118,118,243,1,X, , , , ,,2500,2.5,61005d2e9b8bac27eba5b984,001,2021-08-19_16h47.54.826,natb3,2021.2.3,Win32,59.81934558,61005d2e9b8bac27eba5b984,611e07ecdcc96256ae8d5b80,611e7cf7a1321fea0c761846,
,,,,space,0.4685,,0,119,119,156,1,P, , , , ,space,1500,1.5,61005d2e9b8bac27eba5b984,001,2021-08-19_16h47.54.826,natb3,2021.2.3,Win32,59.81934558,61005d2e9b8bac27eba5b984,611e07ecdcc96256ae8d5b80,611e7cf7a1321fea0c761846,
,,,,,,,0,120,120,277,1,X,8,5, ,2,,2000,2,61005d2e9b8bac27eba5b984,001,2021-08-19_16h47.54.826,natb3,2021.2.3,Win32,59.81934558,61005d2e9b8bac27eba5b984,611e07ecdcc96256ae8d5b80,611e7cf7a1321fea0c761846,
,,,,space,0.4825,,0,121,121,300,1,O, , , , ,space,2500,2.5,61005d2e9b8bac27eba5b984,001,2021-08-19_16h47.54.826,natb3,2021.2.3,Win32,59.81934558,61005d2e9b8bac27eba5b984,611e07ecdcc96256ae8d5b80,611e7cf7a1321fea0c761846,
,,,,space,0.5861,,0,122,122,24,1,L, , , , ,space,2500,2.5,61005d2e9b8bac27eba5b984,001,2021-08-19_16h47.54.826,natb3,2021.2.3,Win32,59.81934558,61005d2e9b8bac27eba5b984,611e07ecdcc96256ae8d5b80,611e7cf7a1321fea0c761846,
,,,,space,0.4684,,0,123,123,77,1,O, , , , ,space,2000,2,61005d2e9b8bac27eba5b984,001,2021-08-19_16h47.54.826,natb3,2021.2.3,Win32,59.81934558,61005d2e9b8bac27eba5b984,611e07ecdcc96256ae8d5b80,611e7cf7a1321fea0c761846,
,,,,space,0.4053,,0,124,124,189,1,O, , , , ,space,1500,1.5,61005d2e9b8bac27eba5b984,001,2021-08-19_16h47.54.826,natb3,2021.2.3,Win32,59.81934558,61005d2e9b8bac27eba5b984,611e07ecdcc96256ae8d5b80,611e7cf7a1321fea0c761846,
,,,,space,0.4223,,0,125,125,301,1,P, , , , ,space,1500,1.5,61005d2e9b8bac27eba5b984,001,2021-08-19_16h47.54.826,natb3,2021.2.3,Win32,59.81934558,61005d2e9b8bac27eba5b984,611e07ecdcc96256ae8d5b80,611e7cf7a1321fea0c761846,
,,,,space,0.6018,,0,126,126,62,1,V, , , , ,space,1500,1.5,61005d2e9b8bac27eba5b984,001,2021-08-19_16h47.54.826,natb3,2021.2.3,Win32,59.81934558,61005d2e9b8bac27eba5b984,611e07ecdcc96256ae8d5b80,611e7cf7a1321fea0c761846,
,,,,space,0.4687,,0,127,127,296,1,Y, , , , ,space,2500,2.5,61005d2e9b8bac27eba5b984,001,2021-08-19_16h47.54.826,natb3,2021.2.3,Win32,59.81934558,61005d2e9b8bac27eba5b984,611e07ecdcc96256ae8d5b80,611e7cf7a1321fea0c761846,
,,,,space,0.4178,,0,128,128,68,1,W, , , , ,space,2500,2.5,61005d2e9b8bac27eba5b984,001,2021-08-19_16h47.54.826,natb3,2021.2.3,Win32,59.81934558,61005d2e9b8bac27eba5b984,611e07ecdcc96256ae8d5b80,611e7cf7a1321fea0c761846,
,,,,space,0.4062,,0,129,129,194,1,D, , , , ,space,2000,2,61005d2e9b8bac27eba5b984,001,2021-08-19_16h47.54.826,natb3,2021.2.3,Win32,59.81934558,61005d2e9b8bac27eba5b984,611e07ecdcc96256ae8d5b80,611e7cf7a1321fea0c761846,
,,,,space,0.3689,,0,130,130,210,1,M, , , , ,space,1500,1.5,61005d2e9b8bac27eba5b984,001,2021-08-19_16h47.54.826,natb3,2021.2.3,Win32,59.81934558,61005d2e9b8bac27eba5b984,611e07ecdcc96256ae8d5b80,611e7cf7a1321fea0c761846,
,,,,space,0.3931,,0,131,131,7,1,X, , , , ,,1500,1.5,61005d2e9b8bac27eba5b984,001,2021-08-19_16h47.54.826,natb3,2021.2.3,Win32,59.81934558,61005d2e9b8bac27eba5b984,611e07ecdcc96256ae8d5b80,611e7cf7a1321fea0c761846,
,,,,space,0.4055,,0,132,132,136,1,Z, , , , ,space,2500,2.5,61005d2e9b8bac27eba5b984,001,2021-08-19_16h47.54.826,natb3,2021.2.3,Win32,59.81934558,61005d2e9b8bac27eba5b984,611e07ecdcc96256ae8d5b80,611e7cf7a1321fea0c761846,
,,,,space,0.4186,,0,133,133,164,1,H, , , , ,space,2500,2.5,61005d2e9b8bac27eba5b984,001,2021-08-19_16h47.54.826,natb3,2021.2.3,Win32,59.81934558,61005d2e9b8bac27eba5b984,611e07ecdcc96256ae8d5b80,611e7cf7a1321fea0c761846,
,,,,space,0.5425,,0,134,134,231,1,I, , , , ,space,2500,2.5,61005d2e9b8bac27eba5b984,001,2021-08-19_16h47.54.826,natb3,2021.2.3,Win32,59.81934558,61005d2e9b8bac27eba5b984,611e07ecdcc96256ae8d5b80,611e7cf7a1321fea0c761846,
,,,,space,0.6349,,0,135,135,316,1,Z, , , , ,space,1500,1.5,61005d2e9b8bac27eba5b984,001,2021-08-19_16h47.54.826,natb3,2021.2.3,Win32,59.81934558,61005d2e9b8bac27eba5b984,611e07ecdcc96256ae8d5b80,611e7cf7a1321fea0c761846,
,,,,space,0.4181,,0,136,136,2,1,E, , , , ,space,2500,2.5,61005d2e9b8bac27eba5b984,001,2021-08-19_16h47.54.826,natb3,2021.2.3,Win32,59.81934558,61005d2e9b8bac27eba5b984,611e07ecdcc96256ae8d5b80,611e7cf7a1321fea0c761846,
,,,,space,0.4248,,0,137,137,321,1,N, , , , ,space,2000,2,61005d2e9b8bac27eba5b984,001,2021-08-19_16h47.54.826,natb3,2021.2.3,Win32,59.81934558,61005d2e9b8bac27eba5b984,611e07ecdcc96256ae8d5b80,611e7cf7a1321fea0c761846,
,,,,,,,0,138,138,318,1,X, , , , ,,1500,1.5,61005d2e9b8bac27eba5b984,001,2021-08-19_16h47.54.826,natb3,2021.2.3,Win32,59.81934558,61005d2e9b8bac27eba5b984,611e07ecdcc96256ae8d5b80,611e7cf7a1321fea0c761846,
,,,,,,,0,139,139,141,1,X,1, ,4,6,,1500,1.5,61005d2e9b8bac27eba5b984,001,2021-08-19_16h47.54.826,natb3,2021.2.3,Win32,59.81934558,61005d2e9b8bac27eba5b984,611e07ecdcc96256ae8d5b80,611e7cf7a1321fea0c761846,
,,,,space,0.4333,,0,140,140,251,1,B, , , , ,space,1500,1.5,61005d2e9b8bac27eba5b984,001,2021-08-19_16h47.54.826,natb3,2021.2.3,Win32,59.81934558,61005d2e9b8bac27eba5b984,611e07ecdcc96256ae8d5b80,611e7cf7a1321fea0c761846,
,,,,space,0.6015,,0,141,141,114,1,E, , , , ,space,2000,2,61005d2e9b8bac27eba5b984,001,2021-08-19_16h47.54.826,natb3,2021.2.3,Win32,59.81934558,61005d2e9b8bac27eba5b984,611e07ecdcc96256ae8d5b80,611e7cf7a1321fea0c761846,
,,,,space,0.4515,,0,142,142,276,1,H, , , , ,space,2000,2,61005d2e9b8bac27eba5b984,001,2021-08-19_16h47.54.826,natb3,2021.2.3,Win32,59.81934558,61005d2e9b8bac27eba5b984,611e07ecdcc96256ae8d5b80,611e7cf7a1321fea0c761846,
,,,,space,0.4351,,0,143,143,37,1,E, , , , ,space,2500,2.5,61005d2e9b8bac27eba5b984,001,2021-08-19_16h47.54.826,natb3,2021.2.3,Win32,59.81934558,61005d2e9b8bac27eba5b984,611e07ecdcc96256ae8d5b80,611e7cf7a1321fea0c761846,
,,,,space,0.503,,0,144,144,258,1,E, , , , ,space,1500,1.5,61005d2e9b8bac27eba5b984,001,2021-08-19_16h47.54.826,natb3,2021.2.3,Win32,59.81934558,61005d2e9b8bac27eba5b984,611e07ecdcc96256ae8d5b80,611e7cf7a1321fea0c761846,
,,,,space,0.6009,,0,145,145,71,1,R, , , , ,space,2500,2.5,61005d2e9b8bac27eba5b984,001,2021-08-19_16h47.54.826,natb3,2021.2.3,Win32,59.81934558,61005d2e9b8bac27eba5b984,611e07ecdcc96256ae8d5b80,611e7cf7a1321fea0c761846,
,,,,,,,0,146,146,229,1,X,8, ,2,6,,2500,2.5,61005d2e9b8bac27eba5b984,001,2021-08-19_16h47.54.826,natb3,2021.2.3,Win32,59.81934558,61005d2e9b8bac27eba5b984,611e07ecdcc96256ae8d5b80,611e7cf7a1321fea0c761846,
,,,,space,0.4681,,0,147,147,55,1,H, , , , ,space,2500,2.5,61005d2e9b8bac27eba5b984,001,2021-08-19_16h47.54.826,natb3,2021.2.3,Win32,59.81934558,61005d2e9b8bac27eba5b984,611e07ecdcc96256ae8d5b80,611e7cf7a1321fea0c761846,
,,,,space,0.4052,,0,148,148,9,1,I, , , , ,space,1500,1.5,61005d2e9b8bac27eba5b984,001,2021-08-19_16h47.54.826,natb3,2021.2.3,Win32,59.81934558,61005d2e9b8bac27eba5b984,611e07ecdcc96256ae8d5b80,611e7cf7a1321fea0c761846,
,,,,space,0.4571,,0,149,149,157,1,A, , , , ,space,2500,2.5,61005d2e9b8bac27eba5b984,001,2021-08-19_16h47.54.826,natb3,2021.2.3,Win32,59.81934558,61005d2e9b8bac27eba5b984,611e07ecdcc96256ae8d5b80,611e7cf7a1321fea0c761846,
,,,,space,0.4343,,0,150,150,220,1,U, , , , ,space,2500,2.5,61005d2e9b8bac27eba5b984,001,2021-08-19_16h47.54.826,natb3,2021.2.3,Win32,59.81934558,61005d2e9b8bac27eba5b984,611e07ecdcc96256ae8d5b80,611e7cf7a1321fea0c761846,
,,,,space,0.5018,,0,151,151,202,1,L, , , , ,space,2500,2.5,61005d2e9b8bac27eba5b984,001,2021-08-19_16h47.54.826,natb3,2021.2.3,Win32,59.81934558,61005d2e9b8bac27eba5b984,611e07ecdcc96256ae8d5b80,611e7cf7a1321fea0c761846,
,,,,space,0.4692,,0,152,152,6,1,Y, , , , ,space,2500,2.5,61005d2e9b8bac27eba5b984,001,2021-08-19_16h47.54.826,natb3,2021.2.3,Win32,59.81934558,61005d2e9b8bac27eba5b984,611e07ecdcc96256ae8d5b80,611e7cf7a1321fea0c761846,
,,,,space,0.5016,,0,153,153,269,1,A, , , , ,space,2500,2.5,61005d2e9b8bac27eba5b984,001,2021-08-19_16h47.54.826,natb3,2021.2.3,Win32,59.81934558,61005d2e9b8bac27eba5b984,611e07ecdcc96256ae8d5b80,611e7cf7a1321fea0c761846,
,,,,,,,0,154,154,273,1,X, , , , ,,2000,2,61005d2e9b8bac27eba5b984,001,2021-08-19_16h47.54.826,natb3,2021.2.3,Win32,59.81934558,61005d2e9b8bac27eba5b984,611e07ecdcc96256ae8d5b80,611e7cf7a1321fea0c761846,
,,,,,,,0,155,155,145,1,X, , , , ,,2000,2,61005d2e9b8bac27eba5b984,001,2021-08-19_16h47.54.826,natb3,2021.2.3,Win32,59.81934558,61005d2e9b8bac27eba5b984,611e07ecdcc96256ae8d5b80,611e7cf7a1321fea0c761846,
,,,,,,,0,156,156,166,1,X, , , , ,,2000,2,61005d2e9b8bac27eba5b984,001,2021-08-19_16h47.54.826,natb3,2021.2.3,Win32,59.81934558,61005d2e9b8bac27eba5b984,611e07ecdcc96256ae8d5b80,611e7cf7a1321fea0c761846,
,,,,space,0.5764,,0,157,157,332,1,U, , , , ,space,2000,2,61005d2e9b8bac27eba5b984,001,2021-08-19_16h47.54.826,natb3,2021.2.3,Win32,59.81934558,61005d2e9b8bac27eba5b984,611e07ecdcc96256ae8d5b80,611e7cf7a1321fea0c761846,
,,,,space,0.4849,,0,158,158,197,1,G, , , , ,space,2500,2.5,61005d2e9b8bac27eba5b984,001,2021-08-19_16h47.54.826,natb3,2021.2.3,Win32,59.81934558,61005d2e9b8bac27eba5b984,611e07ecdcc96256ae8d5b80,611e7cf7a1321fea0c761846,
,,,,space,0.533,,0,159,159,58,1,L, , , , ,space,2000,2,61005d2e9b8bac27eba5b984,001,2021-08-19_16h47.54.826,natb3,2021.2.3,Win32,59.81934558,61005d2e9b8bac27eba5b984,611e07ecdcc96256ae8d5b80,611e7cf7a1321fea0c761846,
,,,,space,0.4358,,0,160,160,183,1,R, , , , ,space,1500,1.5,61005d2e9b8bac27eba5b984,001,2021-08-19_16h47.54.826,natb3,2021.2.3,Win32,59.81934558,61005d2e9b8bac27eba5b984,611e07ecdcc96256ae8d5b80,611e7cf7a1321fea0c761846,
,,,,space,0.3851,,0,161,161,325,1,X, , , , ,,2500,2.5,61005d2e9b8bac27eba5b984,001,2021-08-19_16h47.54.826,natb3,2021.2.3,Win32,59.81934558,61005d2e9b8bac27eba5b984,611e07ecdcc96256ae8d5b80,611e7cf7a1321fea0c761846,
,,,,,,,0,162,162,203,1,X, , , , ,,2500,2.5,61005d2e9b8bac27eba5b984,001,2021-08-19_16h47.54.826,natb3,2021.2.3,Win32,59.81934558,61005d2e9b8bac27eba5b984,611e07ecdcc96256ae8d5b80,611e7cf7a1321fea0c761846,
,,,,space,0.5345,,0,163,163,244,1,J, , , , ,space,1500,1.5,61005d2e9b8bac27eba5b984,001,2021-08-19_16h47.54.826,natb3,2021.2.3,Win32,59.81934558,61005d2e9b8bac27eba5b984,611e07ecdcc96256ae8d5b80,611e7cf7a1321fea0c761846,
,,,,space,0.5048,,0,164,164,26,1,C, , , , ,space,2000,2,61005d2e9b8bac27eba5b984,001,2021-08-19_16h47.54.826,natb3,2021.2.3,Win32,59.81934558,61005d2e9b8bac27eba5b984,611e07ecdcc96256ae8d5b80,611e7cf7a1321fea0c761846,
,,,,space,0.5014,,0,165,165,278,1,J, , , , ,space,2000,2,61005d2e9b8bac27eba5b984,001,2021-08-19_16h47.54.826,natb3,2021.2.3,Win32,59.81934558,61005d2e9b8bac27eba5b984,611e07ecdcc96256ae8d5b80,611e7cf7a1321fea0c761846,
,,,,space,0.4052,,0,166,166,209,1,N, , , , ,space,2000,2,61005d2e9b8bac27eba5b984,001,2021-08-19_16h47.54.826,natb3,2021.2.3,Win32,59.81934558,61005d2e9b8bac27eba5b984,611e07ecdcc96256ae8d5b80,611e7cf7a1321fea0c761846,
,,,,,,space,0,167,167,281,1,Z, , , , ,space,1500,1.5,61005d2e9b8bac27eba5b984,001,2021-08-19_16h47.54.826,natb3,2021.2.3,Win32,59.81934558,61005d2e9b8bac27eba5b984,611e07ecdcc96256ae8d5b80,611e7cf7a1321fea0c761846,12.4982
,,,,space,0.5847,,0,168,168,70,1,E, , , , ,space,2500,2.5,61005d2e9b8bac27eba5b984,001,2021-08-19_16h47.54.826,natb3,2021.2.3,Win32,59.81934558,61005d2e9b8bac27eba5b984,611e07ecdcc96256ae8d5b80,611e7cf7a1321fea0c761846,
,,,,space,0.7733,,0,169,169,271,1,X, , , , ,,2500,2.5,61005d2e9b8bac27eba5b984,001,2021-08-19_16h47.54.826,natb3,2021.2.3,Win32,59.81934558,61005d2e9b8bac27eba5b984,611e07ecdcc96256ae8d5b80,611e7cf7a1321fea0c761846,
,,,,space,0.4348,,0,170,170,246,1,L, , , , ,space,2500,2.5,61005d2e9b8bac27eba5b984,001,2021-08-19_16h47.54.826,natb3,2021.2.3,Win32,59.81934558,61005d2e9b8bac27eba5b984,611e07ecdcc96256ae8d5b80,611e7cf7a1321fea0c761846,
,,,,,,,0,171,171,295,1,X,8,7,5, ,,2500,2.5,61005d2e9b8bac27eba5b984,001,2021-08-19_16h47.54.826,natb3,2021.2.3,Win32,59.81934558,61005d2e9b8bac27eba5b984,611e07ecdcc96256ae8d5b80,611e7cf7a1321fea0c761846,
,,,,space,0.3972,,0,172,172,48,1,A, , , , ,space,2500,2.5,61005d2e9b8bac27eba5b984,001,2021-08-19_16h47.54.826,natb3,2021.2.3,Win32,59.81934558,61005d2e9b8bac27eba5b984,611e07ecdcc96256ae8d5b80,611e7cf7a1321fea0c761846,
,,,,space,0.4191,,0,173,173,172,1,C, , , , ,space,1500,1.5,61005d2e9b8bac27eba5b984,001,2021-08-19_16h47.54.826,natb3,2021.2.3,Win32,59.81934558,61005d2e9b8bac27eba5b984,611e07ecdcc96256ae8d5b80,611e7cf7a1321fea0c761846,
,,,,space,0.4877,,0,174,174,267,1,P, , , , ,space,2000,2,61005d2e9b8bac27eba5b984,001,2021-08-19_16h47.54.826,natb3,2021.2.3,Win32,59.81934558,61005d2e9b8bac27eba5b984,611e07ecdcc96256ae8d5b80,611e7cf7a1321fea0c761846,
,,,,space,0.507,,0,175,175,73,1,Y, , , , ,space,2000,2,61005d2e9b8bac27eba5b984,001,2021-08-19_16h47.54.826,natb3,2021.2.3,Win32,59.81934558,61005d2e9b8bac27eba5b984,611e07ecdcc96256ae8d5b80,611e7cf7a1321fea0c761846,
,,,,space,0.3714,,0,176,176,50,1,D, , , , ,space,1500,1.5,61005d2e9b8bac27eba5b984,001,2021-08-19_16h47.54.826,natb3,2021.2.3,Win32,59.81934558,61005d2e9b8bac27eba5b984,611e07ecdcc96256ae8d5b80,611e7cf7a1321fea0c761846,
,,,,space,0.4605,,0,177,177,34,1,Q, , , , ,space,2500,2.5,61005d2e9b8bac27eba5b984,001,2021-08-19_16h47.54.826,natb3,2021.2.3,Win32,59.81934558,61005d2e9b8bac27eba5b984,611e07ecdcc96256ae8d5b80,611e7cf7a1321fea0c761846,
,,,,space,0.3746,,0,178,178,10,1,O, , , , ,space,2000,2,61005d2e9b8bac27eba5b984,001,2021-08-19_16h47.54.826,natb3,2021.2.3,Win32,59.81934558,61005d2e9b8bac27eba5b984,611e07ecdcc96256ae8d5b80,611e7cf7a1321fea0c761846,
,,,,space,0.2528,,0,179,179,113,1,W, , , , ,space,2500,2.5,61005d2e9b8bac27eba5b984,001,2021-08-19_16h47.54.826,natb3,2021.2.3,Win32,59.81934558,61005d2e9b8bac27eba5b984,611e07ecdcc96256ae8d5b80,611e7cf7a1321fea0c761846,
,,,,space,0.2731,,0,180,180,315,1,X, , , , ,,2500,2.5,61005d2e9b8bac27eba5b984,001,2021-08-19_16h47.54.826,natb3,2021.2.3,Win32,59.81934558,61005d2e9b8bac27eba5b984,611e07ecdcc96256ae8d5b80,611e7cf7a1321fea0c761846,
,,,,,,,0,181,181,328,1,R, , , , ,space,1500,1.5,61005d2e9b8bac27eba5b984,001,2021-08-19_16h47.54.826,natb3,2021.2.3,Win32,59.81934558,61005d2e9b8bac27eba5b984,611e07ecdcc96256ae8d5b80,611e7cf7a1321fea0c761846,
,,,,space,0.4352,,0,182,182,212,1,Q, , , , ,space,2500,2.5,61005d2e9b8bac27eba5b984,001,2021-08-19_16h47.54.826,natb3,2021.2.3,Win32,59.81934558,61005d2e9b8bac27eba5b984,611e07ecdcc96256ae8d5b80,611e7cf7a1321fea0c761846,
,,,,,,,0,183,183,84,1,X, , , , ,,2000,2,61005d2e9b8bac27eba5b984,001,2021-08-19_16h47.54.826,natb3,2021.2.3,Win32,59.81934558,61005d2e9b8bac27eba5b984,611e07ecdcc96256ae8d5b80,611e7cf7a1321fea0c761846,
,,,,space,0.4244,,0,184,184,283,1,C, , , , ,space,1500,1.5,61005d2e9b8bac27eba5b984,001,2021-08-19_16h47.54.826,natb3,2021.2.3,Win32,59.81934558,61005d2e9b8bac27eba5b984,611e07ecdcc96256ae8d5b80,611e7cf7a1321fea0c761846,
,,,,space,0.5682,,0,185,185,193,1,S, , , , ,space,2500,2.5,61005d2e9b8bac27eba5b984,001,2021-08-19_16h47.54.826,natb3,2021.2.3,Win32,59.81934558,61005d2e9b8bac27eba5b984,611e07ecdcc96256ae8d5b80,611e7cf7a1321fea0c761846,
,,,,space,0.3673,,0,186,186,163,1,G, , , , ,space,2500,2.5,61005d2e9b8bac27eba5b984,001,2021-08-19_16h47.54.826,natb3,2021.2.3,Win32,59.81934558,61005d2e9b8bac27eba5b984,611e07ecdcc96256ae8d5b80,611e7cf7a1321fea0c761846,
,,,,space,0.4024,,0,187,187,253,1,N, , , , ,space,2500,2.5,61005d2e9b8bac27eba5b984,001,2021-08-19_16h47.54.826,natb3,2021.2.3,Win32,59.81934558,61005d2e9b8bac27eba5b984,611e07ecdcc96256ae8d5b80,611e7cf7a1321fea0c761846,
,,,,space,0.3704,,0,188,188,147,1,E, , , , ,space,2000,2,61005d2e9b8bac27eba5b984,001,2021-08-19_16h47.54.826,natb3,2021.2.3,Win32,59.81934558,61005d2e9b8bac27eba5b984,611e07ecdcc96256ae8d5b80,611e7cf7a1321fea0c761846,
,,,,space,0.3676,,0,189,189,131,1,G, , , , ,space,1500,1.5,61005d2e9b8bac27eba5b984,001,2021-08-19_16h47.54.826,natb3,2021.2.3,Win32,59.81934558,61005d2e9b8bac27eba5b984,611e07ecdcc96256ae8d5b80,611e7cf7a1321fea0c761846,
,,,,,,,0,190,190,148,1,X, , , , ,,2000,2,61005d2e9b8bac27eba5b984,001,2021-08-19_16h47.54.826,natb3,2021.2.3,Win32,59.81934558,61005d2e9b8bac27eba5b984,611e07ecdcc96256ae8d5b80,611e7cf7a1321fea0c761846,
,,,,space,0.4175,,0,191,191,286,1,N, , , , ,space,1500,1.5,61005d2e9b8bac27eba5b984,001,2021-08-19_16h47.54.826,natb3,2021.2.3,Win32,59.81934558,61005d2e9b8bac27eba5b984,611e07ecdcc96256ae8d5b80,611e7cf7a1321fea0c761846,
,,,,space,0.3418,,0,192,192,109,1,U, , , , ,space,1500,1.5,61005d2e9b8bac27eba5b984,001,2021-08-19_16h47.54.826,natb3,2021.2.3,Win32,59.81934558,61005d2e9b8bac27eba5b984,611e07ecdcc96256ae8d5b80,611e7cf7a1321fea0c761846,
,,,,space,0.3697,,0,193,193,293,1,R, , , , ,space,2500,2.5,61005d2e9b8bac27eba5b984,001,2021-08-19_16h47.54.826,natb3,2021.2.3,Win32,59.81934558,61005d2e9b8bac27eba5b984,611e07ecdcc96256ae8d5b80,611e7cf7a1321fea0c761846,
,,,,space,0.3574,,0,194,194,32,1,M, , , , ,space,1500,1.5,61005d2e9b8bac27eba5b984,001,2021-08-19_16h47.54.826,natb3,2021.2.3,Win32,59.81934558,61005d2e9b8bac27eba5b984,611e07ecdcc96256ae8d5b80,611e7cf7a1321fea0c761846,
,,,,space,0.4008,,0,195,195,165,1,J, , , , ,space,2500,2.5,61005d2e9b8bac27eba5b984,001,2021-08-19_16h47.54.826,natb3,2021.2.3,Win32,59.81934558,61005d2e9b8bac27eba5b984,611e07ecdcc96256ae8d5b80,611e7cf7a1321fea0c761846,
,,,,space,0.3022,,0,196,196,21,1,J, , , , ,space,1500,1.5,61005d2e9b8bac27eba5b984,001,2021-08-19_16h47.54.826,natb3,2021.2.3,Win32,59.81934558,61005d2e9b8bac27eba5b984,611e07ecdcc96256ae8d5b80,611e7cf7a1321fea0c761846,
,,,,,,,0,197,197,239,1,X, , , , ,,2000,2,61005d2e9b8bac27eba5b984,001,2021-08-19_16h47.54.826,natb3,2021.2.3,Win32,59.81934558,61005d2e9b8bac27eba5b984,611e07ecdcc96256ae8d5b80,611e7cf7a1321fea0c761846,
,,,,space,0.4352,,0,198,198,119,1,Y, , , , ,space,2500,2.5,61005d2e9b8bac27eba5b984,001,2021-08-19_16h47.54.826,natb3,2021.2.3,Win32,59.81934558,61005d2e9b8bac27eba5b984,611e07ecdcc96256ae8d5b80,611e7cf7a1321fea0c761846,
,,,,space,0.3843,,0,199,199,222,1,O, , , , ,space,2000,2,61005d2e9b8bac27eba5b984,001,2021-08-19_16h47.54.826,natb3,2021.2.3,Win32,59.81934558,61005d2e9b8bac27eba5b984,611e07ecdcc96256ae8d5b80,611e7cf7a1321fea0c761846,
,,,,,,,0,200,200,305,1,X, , , , ,,1500,1.5,61005d2e9b8bac27eba5b984,001,2021-08-19_16h47.54.826,natb3,2021.2.3,Win32,59.81934558,61005d2e9b8bac27eba5b984,611e07ecdcc96256ae8d5b80,611e7cf7a1321fea0c761846,
,,,,space,0.4061,,0,201,201,28,1,V, , , , ,space,1500,1.5,61005d2e9b8bac27eba5b984,001,2021-08-19_16h47.54.826,natb3,2021.2.3,Win32,59.81934558,61005d2e9b8bac27eba5b984,611e07ecdcc96256ae8d5b80,611e7cf7a1321fea0c761846,
,,,,space,0.4047,,0,202,202,312,1,K, , , , ,space,2000,2,61005d2e9b8bac27eba5b984,001,2021-08-19_16h47.54.826,natb3,2021.2.3,Win32,59.81934558,61005d2e9b8bac27eba5b984,611e07ecdcc96256ae8d5b80,611e7cf7a1321fea0c761846,
,,,,,,,0,203,203,107,1,X,9,3, ,2,,2000,2,61005d2e9b8bac27eba5b984,001,2021-08-19_16h47.54.826,natb3,2021.2.3,Win32,59.81934558,61005d2e9b8bac27eba5b984,611e07ecdcc96256ae8d5b80,611e7cf7a1321fea0c761846,
,,,,,,,0,204,204,23,1,X,1, ,5, ,,2000,2,61005d2e9b8bac27eba5b984,001,2021-08-19_16h47.54.826,natb3,2021.2.3,Win32,59.81934558,61005d2e9b8bac27eba5b984,611e07ecdcc96256ae8d5b80,611e7cf7a1321fea0c761846,
,,,,space,0.3857,,0,205,205,1,1,W, , , , ,space,2000,2,61005d2e9b8bac27eba5b984,001,2021-08-19_16h47.54.826,natb3,2021.2.3,Win32,59.81934558,61005d2e9b8bac27eba5b984,611e07ecdcc96256ae8d5b80,611e7cf7a1321fea0c761846,
,,,,space,0.4345,,0,206,206,134,1,J, , , , ,space,2000,2,61005d2e9b8bac27eba5b984,001,2021-08-19_16h47.54.826,natb3,2021.2.3,Win32,59.81934558,61005d2e9b8bac27eba5b984,611e07ecdcc96256ae8d5b80,611e7cf7a1321fea0c761846,
,,,,space,0.3679,,0,207,207,216,1,R, , , , ,space,1500,1.5,61005d2e9b8bac27eba5b984,001,2021-08-19_16h47.54.826,natb3,2021.2.3,Win32,59.81934558,61005d2e9b8bac27eba5b984,611e07ecdcc96256ae8d5b80,611e7cf7a1321fea0c761846,
,,,,space,0.3677,,0,208,208,242,1,H, , , , ,space,2500,2.5,61005d2e9b8bac27eba5b984,001,2021-08-19_16h47.54.826,natb3,2021.2.3,Win32,59.81934558,61005d2e9b8bac27eba5b984,611e07ecdcc96256ae8d5b80,611e7cf7a1321fea0c761846,
,,,,space,0.3682,,0,209,209,53,1,G, , , , ,space,2500,2.5,61005d2e9b8bac27eba5b984,001,2021-08-19_16h47.54.826,natb3,2021.2.3,Win32,59.81934558,61005d2e9b8bac27eba5b984,611e07ecdcc96256ae8d5b80,611e7cf7a1321fea0c761846,
,,,,space,0.4014,,0,210,210,150,1,T, , , , ,space,2500,2.5,61005d2e9b8bac27eba5b984,001,2021-08-19_16h47.54.826,natb3,2021.2.3,Win32,59.81934558,61005d2e9b8bac27eba5b984,611e07ecdcc96256ae8d5b80,611e7cf7a1321fea0c761846,
,,,,space,0.321,,0,211,211,36,1,W, , , , ,space,2000,2,61005d2e9b8bac27eba5b984,001,2021-08-19_16h47.54.826,natb3,2021.2.3,Win32,59.81934558,61005d2e9b8bac27eba5b984,611e07ecdcc96256ae8d5b80,611e7cf7a1321fea0c761846,
,,,,space,0.4183,,0,212,212,108,1,Y, , , , ,space,2500,2.5,61005d2e9b8bac27eba5b984,001,2021-08-19_16h47.54.826,natb3,2021.2.3,Win32,59.81934558,61005d2e9b8bac27eba5b984,611e07ecdcc96256ae8d5b80,611e7cf7a1321fea0c761846,
,,,,space,0.3868,,0,213,213,334,1,O, , , , ,space,1500,1.5,61005d2e9b8bac27eba5b984,001,2021-08-19_16h47.54.826,natb3,2021.2.3,Win32,59.81934558,61005d2e9b8bac27eba5b984,611e07ecdcc96256ae8d5b80,611e7cf7a1321fea0c761846,
,,,,,,,0,214,214,78,1,X, , , , ,,2000,2,61005d2e9b8bac27eba5b984,001,2021-08-19_16h47.54.826,natb3,2021.2.3,Win32,59.81934558,61005d2e9b8bac27eba5b984,611e07ecdcc96256ae8d5b80,611e7cf7a1321fea0c761846,
,,,,space,0.385,,0,215,215,115,1,R, , , , ,space,1500,1.5,61005d2e9b8bac27eba5b984,001,2021-08-19_16h47.54.826,natb3,2021.2.3,Win32,59.81934558,61005d2e9b8bac27eba5b984,611e07ecdcc96256ae8d5b80,611e7cf7a1321fea0c761846,
,,,,space,0.3506,,0,216,216,285,1,B, , , , ,space,1500,1.5,61005d2e9b8bac27eba5b984,001,2021-08-19_16h47.54.826,natb3,2021.2.3,Win32,59.81934558,61005d2e9b8bac27eba5b984,611e07ecdcc96256ae8d5b80,611e7cf7a1321fea0c761846,
,,,,space,0.4212,,0,217,217,181,1,E, , , , ,space,1500,1.5,61005d2e9b8bac27eba5b984,001,2021-08-19_16h47.54.826,natb3,2021.2.3,Win32,59.81934558,61005d2e9b8bac27eba5b984,611e07ecdcc96256ae8d5b80,611e7cf7a1321fea0c761846,
,,,,space,0.351,,0,218,218,120,1,U, , , , ,space,1500,1.5,61005d2e9b8bac27eba5b984,001,2021-08-19_16h47.54.826,natb3,2021.2.3,Win32,59.81934558,61005d2e9b8bac27eba5b984,611e07ecdcc96256ae8d5b80,611e7cf7a1321fea0c761846,
,,,,space,0.3878,,0,219,219,241,1,G, , , , ,space,2500,2.5,61005d2e9b8bac27eba5b984,001,2021-08-19_16h47.54.826,natb3,2021.2.3,Win32,59.81934558,61005d2e9b8bac27eba5b984,611e07ecdcc96256ae8d5b80,611e7cf7a1321fea0c761846,
,,,,,,,0,220,220,329,1,X,3,4, ,2,,2500,2.5,61005d2e9b8bac27eba5b984,001,2021-08-19_16h47.54.826,natb3,2021.2.3,Win32,59.81934558,61005d2e9b8bac27eba5b984,611e07ecdcc96256ae8d5b80,611e7cf7a1321fea0c761846,
,,,,space,0.4658,,0,221,221,121,1,I, , , , ,space,2000,2,61005d2e9b8bac27eba5b984,001,2021-08-19_16h47.54.826,natb3,2021.2.3,Win32,59.81934558,61005d2e9b8bac27eba5b984,611e07ecdcc96256ae8d5b80,611e7cf7a1321fea0c761846,
,,,,space,0.3341,,0,222,222,144,1,Q, , , , ,space,2500,2.5,61005d2e9b8bac27eba5b984,001,2021-08-19_16h47.54.826,natb3,2021.2.3,Win32,59.81934558,61005d2e9b8bac27eba5b984,611e07ecdcc96256ae8d5b80,611e7cf7a1321fea0c761846,
,,,,space,0.3756,,0,223,223,240,1,F, , , , ,space,2500,2.5,61005d2e9b8bac27eba5b984,001,2021-08-19_16h47.54.826,natb3,2021.2.3,Win32,59.81934558,61005d2e9b8bac27eba5b984,611e07ecdcc96256ae8d5b80,611e7cf7a1321fea0c761846,
,,,,space,0.3345,,0,224,224,38,1,R, , , , ,space,2500,2.5,61005d2e9b8bac27eba5b984,001,2021-08-19_16h47.54.826,natb3,2021.2.3,Win32,59.81934558,61005d2e9b8bac27eba5b984,611e07ecdcc96256ae8d5b80,611e7cf7a1321fea0c761846,
,,,,space,0.3181,,0,225,225,42,1,U, , , , ,space,1500,1.5,61005d2e9b8bac27eba5b984,001,2021-08-19_16h47.54.826,natb3,2021.2.3,Win32,59.81934558,61005d2e9b8bac27eba5b984,611e07ecdcc96256ae8d5b80,611e7cf7a1321fea0c761846,
,,,,space,0.3872,,0,226,226,213,1,X, , , , ,,2500,2.5,61005d2e9b8bac27eba5b984,001,2021-08-19_16h47.54.826,natb3,2021.2.3,Win32,59.81934558,61005d2e9b8bac27eba5b984,611e07ecdcc96256ae8d5b80,611e7cf7a1321fea0c761846,
,,,,space,0.3511,,0,227,227,254,1,M, , , , ,space,1500,1.5,61005d2e9b8bac27eba5b984,001,2021-08-19_16h47.54.826,natb3,2021.2.3,Win32,59.81934558,61005d2e9b8bac27eba5b984,611e07ecdcc96256ae8d5b80,611e7cf7a1321fea0c761846,
,,,,,,,0,228,228,291,1,X, , , , ,,2000,2,61005d2e9b8bac27eba5b984,001,2021-08-19_16h47.54.826,natb3,2021.2.3,Win32,59.81934558,61005d2e9b8bac27eba5b984,611e07ecdcc96256ae8d5b80,611e7cf7a1321fea0c761846,
,,,,,,,0,229,229,233,1,X, ,2, ,5,,1500,1.5,61005d2e9b8bac27eba5b984,001,2021-08-19_16h47.54.826,natb3,2021.2.3,Win32,59.81934558,61005d2e9b8bac27eba5b984,611e07ecdcc96256ae8d5b80,611e7cf7a1321fea0c761846,
,,,,space,0.466,,0,230,230,219,1,Y, , , , ,space,2000,2,61005d2e9b8bac27eba5b984,001,2021-08-19_16h47.54.826,natb3,2021.2.3,Win32,59.81934558,61005d2e9b8bac27eba5b984,611e07ecdcc96256ae8d5b80,611e7cf7a1321fea0c761846,
,,,,,,,0,231,231,268,1,X,6, ,3, ,,2500,2.5,61005d2e9b8bac27eba5b984,001,2021-08-19_16h47.54.826,natb3,2021.2.3,Win32,59.81934558,61005d2e9b8bac27eba5b984,611e07ecdcc96256ae8d5b80,611e7cf7a1321fea0c761846,
,,,,space,0.4888,,0,232,232,174,1,B, , , , ,space,2500,2.5,61005d2e9b8bac27eba5b984,001,2021-08-19_16h47.54.826,natb3,2021.2.3,Win32,59.81934558,61005d2e9b8bac27eba5b984,611e07ecdcc96256ae8d5b80,611e7cf7a1321fea0c761846,
,,,,space,0.3679,,0,233,233,20,1,H, , , , ,space,1500,1.5,61005d2e9b8bac27eba5b984,001,2021-08-19_16h47.54.826,natb3,2021.2.3,Win32,59.81934558,61005d2e9b8bac27eba5b984,611e07ecdcc96256ae8d5b80,611e7cf7a1321fea0c761846,
,,,,space,0.4198,,0,234,234,140,1,B, , , , ,space,2500,2.5,61005d2e9b8bac27eba5b984,001,2021-08-19_16h47.54.826,natb3,2021.2.3,Win32,59.81934558,61005d2e9b8bac27eba5b984,611e07ecdcc96256ae8d5b80,611e7cf7a1321fea0c761846,
,,,,space,0.3345,,0,235,235,205,1,C, , , , ,space,2000,2,61005d2e9b8bac27eba5b984,001,2021-08-19_16h47.54.826,natb3,2021.2.3,Win32,59.81934558,61005d2e9b8bac27eba5b984,611e07ecdcc96256ae8d5b80,611e7cf7a1321fea0c761846,
,,,,space,0.3523,,0,236,236,11,1,P, , , , ,space,2500,2.5,61005d2e9b8bac27eba5b984,001,2021-08-19_16h47.54.826,natb3,2021.2.3,Win32,59.81934558,61005d2e9b8bac27eba5b984,611e07ecdcc96256ae8d5b80,611e7cf7a1321fea0c761846,
,,,,,,,0,237,237,93,1,X,5, ,7, ,,2500,2.5,61005d2e9b8bac27eba5b984,001,2021-08-19_16h47.54.826,natb3,2021.2.3,Win32,59.81934558,61005d2e9b8bac27eba5b984,611e07ecdcc96256ae8d5b80,611e7cf7a1321fea0c761846,
,,,,space,0.5053,,0,238,238,178,1,Q, , , , ,space,1500,1.5,61005d2e9b8bac27eba5b984,001,2021-08-19_16h47.54.826,natb3,2021.2.3,Win32,59.81934558,61005d2e9b8bac27eba5b984,611e07ecdcc96256ae8d5b80,611e7cf7a1321fea0c761846,
,,,,,,,0,239,239,211,1,X, , , , ,,2500,2.5,61005d2e9b8bac27eba5b984,001,2021-08-19_16h47.54.826,natb3,2021.2.3,Win32,59.81934558,61005d2e9b8bac27eba5b984,611e07ecdcc96256ae8d5b80,611e7cf7a1321fea0c761846,
,,,,space,0.4011,,0,240,240,63,1,B, , , , ,space,2000,2,61005d2e9b8bac27eba5b984,001,2021-08-19_16h47.54.826,natb3,2021.2.3,Win32,59.81934558,61005d2e9b8bac27eba5b984,611e07ecdcc96256ae8d5b80,611e7cf7a1321fea0c761846,
,,,,space,0.4517,,0,241,241,91,1,L, , , , ,space,2000,2,61005d2e9b8bac27eba5b984,001,2021-08-19_16h47.54.826,natb3,2021.2.3,Win32,59.81934558,61005d2e9b8bac27eba5b984,611e07ecdcc96256ae8d5b80,611e7cf7a1321fea0c761846,
,,,,space,0.5015,,0,242,242,232,1,O, , , , ,space,2500,2.5,61005d2e9b8bac27eba5b984,001,2021-08-19_16h47.54.826,natb3,2021.2.3,Win32,59.81934558,61005d2e9b8bac27eba5b984,611e07ecdcc96256ae8d5b80,611e7cf7a1321fea0c761846,
,,,,space,0.3675,,0,243,243,146,1,W, , , , ,space,1500,1.5,61005d2e9b8bac27eba5b984,001,2021-08-19_16h47.54.826,natb3,2021.2.3,Win32,59.81934558,61005d2e9b8bac27eba5b984,611e07ecdcc96256ae8d5b80,611e7cf7a1321fea0c761846,
,,,,,,,0,244,244,89,1,X,3, , , ,,2000,2,61005d2e9b8bac27eba5b984,001,2021-08-19_16h47.54.826,natb3,2021.2.3,Win32,59.81934558,61005d2e9b8bac27eba5b984,611e07ecdcc96256ae8d5b80,611e7cf7a1321fea0c761846,
,,,,space,0.4334,,0,245,245,327,1,E, , , , ,space,1500,1.5,61005d2e9b8bac27eba5b984,001,2021-08-19_16h47.54.826,natb3,2021.2.3,Win32,59.81934558,61005d2e9b8bac27eba5b984,611e07ecdcc96256ae8d5b80,611e7cf7a1321fea0c761846,
,,,,space,0.3847,,0,246,246,320,1,B, , , , ,space,1500,1.5,61005d2e9b8bac27eba5b984,001,2021-08-19_16h47.54.826,natb3,2021.2.3,Win32,59.81934558,61005d2e9b8bac27eba5b984,611e07ecdcc96256ae8d5b80,611e7cf7a1321fea0c761846,
,,,,,,,0,247,247,182,1,X, , , , ,,1500,1.5,61005d2e9b8bac27eba5b984,001,2021-08-19_16h47.54.826,natb3,2021.2.3,Win32,59.81934558,61005d2e9b8bac27eba5b984,611e07ecdcc96256ae8d5b80,611e7cf7a1321fea0c761846,
,,,,space,0.4017,,0,248,248,292,1,E, , , , ,space,2000,2,61005d2e9b8bac27eba5b984,001,2021-08-19_16h47.54.826,natb3,2021.2.3,Win32,59.81934558,61005d2e9b8bac27eba5b984,611e07ecdcc96256ae8d5b80,611e7cf7a1321fea0c761846,
,,,,space,0.4371,,0,249,249,186,1,U, , , , ,space,2500,2.5,61005d2e9b8bac27eba5b984,001,2021-08-19_16h47.54.826,natb3,2021.2.3,Win32,59.81934558,61005d2e9b8bac27eba5b984,611e07ecdcc96256ae8d5b80,611e7cf7a1321fea0c761846,
,,,,,,,0,250,250,195,1,X, , , , ,,1500,1.5,61005d2e9b8bac27eba5b984,001,2021-08-19_16h47.54.826,natb3,2021.2.3,Win32,59.81934558,61005d2e9b8bac27eba5b984,611e07ecdcc96256ae8d5b80,611e7cf7a1321fea0c761846,
,,,,,,,0,251,251,82,1,X,4,6,1,7,,2000,2,61005d2e9b8bac27eba5b984,001,2021-08-19_16h47.54.826,natb3,2021.2.3,Win32,59.81934558,61005d2e9b8bac27eba5b984,611e07ecdcc96256ae8d5b80,611e7cf7a1321fea0c761846,
,,,,space,0.4648,,0,252,252,323,1,M, , , , ,space,2500,2.5,61005d2e9b8bac27eba5b984,001,2021-08-19_16h47.54.826,natb3,2021.2.3,Win32,59.81934558,61005d2e9b8bac27eba5b984,611e07ecdcc96256ae8d5b80,611e7cf7a1321fea0c761846,
,,,,space,0.4345,,0,253,253,56,1,J, , , , ,space,1500,1.5,61005d2e9b8bac27eba5b984,001,2021-08-19_16h47.54.826,natb3,2021.2.3,Win32,59.81934558,61005d2e9b8bac27eba5b984,611e07ecdcc96256ae8d5b80,611e7cf7a1321fea0c761846,
,,,,space,0.5528,,0,254,254,289,1,Q, , , , ,space,2000,2,61005d2e9b8bac27eba5b984,001,2021-08-19_16h47.54.826,natb3,2021.2.3,Win32,59.81934558,61005d2e9b8bac27eba5b984,611e07ecdcc96256ae8d5b80,611e7cf7a1321fea0c761846,
,,,,,,,0,255,255,313,1,X, , , , ,,2500,2.5,61005d2e9b8bac27eba5b984,001,2021-08-19_16h47.54.826,natb3,2021.2.3,Win32,59.81934558,61005d2e9b8bac27eba5b984,611e07ecdcc96256ae8d5b80,611e7cf7a1321fea0c761846,
,,,,space,0.4336,,0,256,256,304,1,S, , , , ,space,2000,2,61005d2e9b8bac27eba5b984,001,2021-08-19_16h47.54.826,natb3,2021.2.3,Win32,59.81934558,61005d2e9b8bac27eba5b984,611e07ecdcc96256ae8d5b80,611e7cf7a1321fea0c761846,
,,,,space,0.491,,0,257,257,196,1,F, , , , ,space,1500,1.5,61005d2e9b8bac27eba5b984,001,2021-08-19_16h47.54.826,natb3,2021.2.3,Win32,59.81934558,61005d2e9b8bac27eba5b984,611e07ecdcc96256ae8d5b80,611e7cf7a1321fea0c761846,
,,,,space,0.8351,,0,258,258,247,1,Z, , , , ,space,1500,1.5,61005d2e9b8bac27eba5b984,001,2021-08-19_16h47.54.826,natb3,2021.2.3,Win32,59.81934558,61005d2e9b8bac27eba5b984,611e07ecdcc96256ae8d5b80,611e7cf7a1321fea0c761846,
,,,,space,0.3845,,0,259,259,208,1,B, , , , ,space,1500,1.5,61005d2e9b8bac27eba5b984,001,2021-08-19_16h47.54.826,natb3,2021.2.3,Win32,59.81934558,61005d2e9b8bac27eba5b984,611e07ecdcc96256ae8d5b80,611e7cf7a1321fea0c761846,
,,,,space,0.5212,,0,260,260,112,1,Q, , , , ,space,2500,2.5,61005d2e9b8bac27eba5b984,001,2021-08-19_16h47.54.826,natb3,2021.2.3,Win32,59.81934558,61005d2e9b8bac27eba5b984,611e07ecdcc96256ae8d5b80,611e7cf7a1321fea0c761846,
,,,,,,,0,261,261,248,1,X, ,1,5, ,,1500,1.5,61005d2e9b8bac27eba5b984,001,2021-08-19_16h47.54.826,natb3,2021.2.3,Win32,59.81934558,61005d2e9b8bac27eba5b984,611e07ecdcc96256ae8d5b80,611e7cf7a1321fea0c761846,
,,,,space,0.5585,,0,262,262,25,1,Z, , , , ,space,2500,2.5,61005d2e9b8bac27eba5b984,001,2021-08-19_16h47.54.826,natb3,2021.2.3,Win32,59.81934558,61005d2e9b8bac27eba5b984,611e07ecdcc96256ae8d5b80,611e7cf7a1321fea0c761846,
,,,,space,0.4358,,0,263,263,158,1,X, , , , ,,1500,1.5,61005d2e9b8bac27eba5b984,001,2021-08-19_16h47.54.826,natb3,2021.2.3,Win32,59.81934558,61005d2e9b8bac27eba5b984,611e07ecdcc96256ae8d5b80,611e7cf7a1321fea0c761846,
,,,,space,0.3418,,0,264,264,319,1,V, , , , ,space,2000,2,61005d2e9b8bac27eba5b984,001,2021-08-19_16h47.54.826,natb3,2021.2.3,Win32,59.81934558,61005d2e9b8bac27eba5b984,611e07ecdcc96256ae8d5b80,611e7cf7a1321fea0c761846,
,,,,space,0.384,,0,265,265,142,1,N, , , , ,space,2500,2.5,61005d2e9b8bac27eba5b984,001,2021-08-19_16h47.54.826,natb3,2021.2.3,Win32,59.81934558,61005d2e9b8bac27eba5b984,611e07ecdcc96256ae8d5b80,611e7cf7a1321fea0c761846,
,,,,space,0.459,,0,266,266,44,1,I, , , , ,space,2500,2.5,61005d2e9b8bac27eba5b984,001,2021-08-19_16h47.54.826,natb3,2021.2.3,Win32,59.81934558,61005d2e9b8bac27eba5b984,611e07ecdcc96256ae8d5b80,611e7cf7a1321fea0c761846,
,,,,,,,0,267,267,122,1,X,1, , ,8,,1500,1.5,61005d2e9b8bac27eba5b984,001,2021-08-19_16h47.54.826,natb3,2021.2.3,Win32,59.81934558,61005d2e9b8bac27eba5b984,611e07ecdcc96256ae8d5b80,611e7cf7a1321fea0c761846,
,,,,space,0.4161,,0,268,268,176,1,N, , , , ,space,1500,1.5,61005d2e9b8bac27eba5b984,001,2021-08-19_16h47.54.826,natb3,2021.2.3,Win32,59.81934558,61005d2e9b8bac27eba5b984,611e07ecdcc96256ae8d5b80,611e7cf7a1321fea0c761846,
,,,,space,0.3858,,0,269,269,149,1,R, , , , ,space,2000,2,61005d2e9b8bac27eba5b984,001,2021-08-19_16h47.54.826,natb3,2021.2.3,Win32,59.81934558,61005d2e9b8bac27eba5b984,611e07ecdcc96256ae8d5b80,611e7cf7a1321fea0c761846,
,,,,space,0.4516,,0,270,270,47,1,P, , , , ,space,2000,2,61005d2e9b8bac27eba5b984,001,2021-08-19_16h47.54.826,natb3,2021.2.3,Win32,59.81934558,61005d2e9b8bac27eba5b984,611e07ecdcc96256ae8d5b80,611e7cf7a1321fea0c761846,
,,,,space,0.4006,,0,271,271,99,1,N, , , , ,space,2500,2.5,61005d2e9b8bac27eba5b984,001,2021-08-19_16h47.54.826,natb3,2021.2.3,Win32,59.81934558,61005d2e9b8bac27eba5b984,611e07ecdcc96256ae8d5b80,611e7cf7a1321fea0c761846,
,,,,space,0.3676,,0,272,272,262,1,Y, , , , ,space,2500,2.5,61005d2e9b8bac27eba5b984,001,2021-08-19_16h47.54.826,natb3,2021.2.3,Win32,59.81934558,61005d2e9b8bac27eba5b984,611e07ecdcc96256ae8d5b80,611e7cf7a1321fea0c761846,
,,,,,,,0,273,273,138,1,X,8,5, ,3,,2000,2,61005d2e9b8bac27eba5b984,001,2021-08-19_16h47.54.826,natb3,2021.2.3,Win32,59.81934558,61005d2e9b8bac27eba5b984,611e07ecdcc96256ae8d5b80,611e7cf7a1321fea0c761846,
,,,,space,0.4223,,0,274,274,238,1,D, , , , ,space,1500,1.5,61005d2e9b8bac27eba5b984,001,2021-08-19_16h47.54.826,natb3,2021.2.3,Win32,59.81934558,61005d2e9b8bac27eba5b984,611e07ecdcc96256ae8d5b80,611e7cf7a1321fea0c761846,
,,,,space,0.5184,,0,275,275,214,1,W, , , , ,space,2000,2,61005d2e9b8bac27eba5b984,001,2021-08-19_16h47.54.826,natb3,2021.2.3,Win32,59.81934558,61005d2e9b8bac27eba5b984,611e07ecdcc96256ae8d5b80,611e7cf7a1321fea0c761846,
,,,,,,,0,276,276,287,1,X, ,2, ,9,,2000,2,61005d2e9b8bac27eba5b984,001,2021-08-19_16h47.54.826,natb3,2021.2.3,Win32,59.81934558,61005d2e9b8bac27eba5b984,611e07ecdcc96256ae8d5b80,611e7cf7a1321fea0c761846,
,,,,space,0.417,,0,277,277,310,1,J, , , , ,space,2500,2.5,61005d2e9b8bac27eba5b984,001,2021-08-19_16h47.54.826,natb3,2021.2.3,Win32,59.81934558,61005d2e9b8bac27eba5b984,611e07ecdcc96256ae8d5b80,611e7cf7a1321fea0c761846,
,,,,,,,0,278,278,96,1,X, , , , ,,1500,1.5,61005d2e9b8bac27eba5b984,001,2021-08-19_16h47.54.826,natb3,2021.2.3,Win32,59.81934558,61005d2e9b8bac27eba5b984,611e07ecdcc96256ae8d5b80,611e7cf7a1321fea0c761846,
,,,,space,0.4537,,0,279,279,135,1,K, , , , ,space,1500,1.5,61005d2e9b8bac27eba5b984,001,2021-08-19_16h47.54.826,natb3,2021.2.3,Win32,59.81934558,61005d2e9b8bac27eba5b984,611e07ecdcc96256ae8d5b80,611e7cf7a1321fea0c761846,
,,,,,,,0,280,280,187,1,X, ,3,7,4,,1500,1.5,61005d2e9b8bac27eba5b984,001,2021-08-19_16h47.54.826,natb3,2021.2.3,Win32,59.81934558,61005d2e9b8bac27eba5b984,611e07ecdcc96256ae8d5b80,611e7cf7a1321fea0c761846,
,,,,space,0.4712,,0,281,281,270,1,S, , , , ,space,1500,1.5,61005d2e9b8bac27eba5b984,001,2021-08-19_16h47.54.826,natb3,2021.2.3,Win32,59.81934558,61005d2e9b8bac27eba5b984,611e07ecdcc96256ae8d5b80,611e7cf7a1321fea0c761846,
,,,,space,0.4171,,0,282,282,123,1,O, , , , ,space,1500,1.5,61005d2e9b8bac27eba5b984,001,2021-08-19_16h47.54.826,natb3,2021.2.3,Win32,59.81934558,61005d2e9b8bac27eba5b984,611e07ecdcc96256ae8d5b80,611e7cf7a1321fea0c761846,
,,,,space,0.387,,0,283,283,105,1,R, , , , ,space,2500,2.5,61005d2e9b8bac27eba5b984,001,2021-08-19_16h47.54.826,natb3,2021.2.3,Win32,59.81934558,61005d2e9b8bac27eba5b984,611e07ecdcc96256ae8d5b80,611e7cf7a1321fea0c761846,
,,,,,,,0,284,284,255,1,X, , , , ,,1500,1.5,61005d2e9b8bac27eba5b984,001,2021-08-19_16h47.54.826,natb3,2021.2.3,Win32,59.81934558,61005d2e9b8bac27eba5b984,611e07ecdcc96256ae8d5b80,611e7cf7a1321fea0c761846,
,,,,,,,0,285,285,27,1,X,5, ,1,3,,1500,1.5,61005d2e9b8bac27eba5b984,001,2021-08-19_16h47.54.826,natb3,2021.2.3,Win32,59.81934558,61005d2e9b8bac27eba5b984,611e07ecdcc96256ae8d5b80,611e7cf7a1321fea0c761846,
,,,,,,,0,286,286,299,1,X, , , , ,,2500,2.5,61005d2e9b8bac27eba5b984,001,2021-08-19_16h47.54.826,natb3,2021.2.3,Win32,59.81934558,61005d2e9b8bac27eba5b984,611e07ecdcc96256ae8d5b80,611e7cf7a1321fea0c761846,
,,,,space,0.4372,,0,287,287,317,1,C, , , , ,space,2000,2,61005d2e9b8bac27eba5b984,001,2021-08-19_16h47.54.826,natb3,2021.2.3,Win32,59.81934558,61005d2e9b8bac27eba5b984,611e07ecdcc96256ae8d5b80,611e7cf7a1321fea0c761846,
,,,,space,0.4344,,0,288,288,128,1,D, , , , ,space,2500,2.5,61005d2e9b8bac27eba5b984,001,2021-08-19_16h47.54.826,natb3,2021.2.3,Win32,59.81934558,61005d2e9b8bac27eba5b984,611e07ecdcc96256ae8d5b80,611e7cf7a1321fea0c761846,
,,,,space,0.4344,,0,289,289,256,1,Q, , , , ,space,2000,2,61005d2e9b8bac27eba5b984,001,2021-08-19_16h47.54.826,natb3,2021.2.3,Win32,59.81934558,61005d2e9b8bac27eba5b984,611e07ecdcc96256ae8d5b80,611e7cf7a1321fea0c761846,
,,,,space,0.4031,,0,290,290,294,1,T, , , , ,space,2000,2,61005d2e9b8bac27eba5b984,001,2021-08-19_16h47.54.826,natb3,2021.2.3,Win32,59.81934558,61005d2e9b8bac27eba5b984,611e07ecdcc96256ae8d5b80,611e7cf7a1321fea0c761846,
,,,,space,0.4014,,0,291,291,124,1,P, , , , ,space,2000,2,61005d2e9b8bac27eba5b984,001,2021-08-19_16h47.54.826,natb3,2021.2.3,Win32,59.81934558,61005d2e9b8bac27eba5b984,611e07ecdcc96256ae8d5b80,611e7cf7a1321fea0c761846,
,,,,space,0.4243,,0,292,292,22,1,K, , , , ,space,2000,2,61005d2e9b8bac27eba5b984,001,2021-08-19_16h47.54.826,natb3,2021.2.3,Win32,59.81934558,61005d2e9b8bac27eba5b984,611e07ecdcc96256ae8d5b80,611e7cf7a1321fea0c761846,
,,,,,,,0,293,293,133,1,X, ,4, ,6,,2500,2.5,61005d2e9b8bac27eba5b984,001,2021-08-19_16h47.54.826,natb3,2021.2.3,Win32,59.81934558,61005d2e9b8bac27eba5b984,611e07ecdcc96256ae8d5b80,611e7cf7a1321fea0c761846,
,,,,space,0.4154,,0,294,294,19,1,G, , , , ,space,1500,1.5,61005d2e9b8bac27eba5b984,001,2021-08-19_16h47.54.826,natb3,2021.2.3,Win32,59.81934558,61005d2e9b8bac27eba5b984,611e07ecdcc96256ae8d5b80,611e7cf7a1321fea0c761846,
,,,,space,0.3722,,0,295,295,64,1,N, , , , ,space,2000,2,61005d2e9b8bac27eba5b984,001,2021-08-19_16h47.54.826,natb3,2021.2.3,Win32,59.81934558,61005d2e9b8bac27eba5b984,611e07ecdcc96256ae8d5b80,611e7cf7a1321fea0c761846,
,,,,space,0.4184,,0,296,296,100,1,M, , , , ,space,2000,2,61005d2e9b8bac27eba5b984,001,2021-08-19_16h47.54.826,natb3,2021.2.3,Win32,59.81934558,61005d2e9b8bac27eba5b984,611e07ecdcc96256ae8d5b80,611e7cf7a1321fea0c761846,
,,,,space,0.4208,,0,297,297,57,1,K, , , , ,space,2500,2.5,61005d2e9b8bac27eba5b984,001,2021-08-19_16h47.54.826,natb3,2021.2.3,Win32,59.81934558,61005d2e9b8bac27eba5b984,611e07ecdcc96256ae8d5b80,611e7cf7a1321fea0c761846,
,,,,,,,0,298,298,171,1,X, , , , ,,1500,1.5,61005d2e9b8bac27eba5b984,001,2021-08-19_16h47.54.826,natb3,2021.2.3,Win32,59.81934558,61005d2e9b8bac27eba5b984,611e07ecdcc96256ae8d5b80,611e7cf7a1321fea0c761846,
,,,,,,,0,299,299,207,1,X,9, ,2, ,,2500,2.5,61005d2e9b8bac27eba5b984,001,2021-08-19_16h47.54.826,natb3,2021.2.3,Win32,59.81934558,61005d2e9b8bac27eba5b984,611e07ecdcc96256ae8d5b80,611e7cf7a1321fea0c761846,
,,,,space,0.4205,,0,300,300,274,1,F, , , , ,space,2000,2,61005d2e9b8bac27eba5b984,001,2021-08-19_16h47.54.826,natb3,2021.2.3,Win32,59.81934558,61005d2e9b8bac27eba5b984,611e07ecdcc96256ae8d5b80,611e7cf7a1321fea0c761846,
,,,,space,0.3907,,0,301,301,199,1,J, , , , ,space,2500,2.5,61005d2e9b8bac27eba5b984,001,2021-08-19_16h47.54.826,natb3,2021.2.3,Win32,59.81934558,61005d2e9b8bac27eba5b984,611e07ecdcc96256ae8d5b80,611e7cf7a1321fea0c761846,
,,,,space,0.4186,,0,302,302,72,1,T, , , , ,space,1500,1.5,61005d2e9b8bac27eba5b984,001,2021-08-19_16h47.54.826,natb3,2021.2.3,Win32,59.81934558,61005d2e9b8bac27eba5b984,611e07ecdcc96256ae8d5b80,611e7cf7a1321fea0c761846,
,,,,space,0.5051,,0,303,303,152,1,U, , , , ,space,2000,2,61005d2e9b8bac27eba5b984,001,2021-08-19_16h47.54.826,natb3,2021.2.3,Win32,59.81934558,61005d2e9b8bac27eba5b984,611e07ecdcc96256ae8d5b80,611e7cf7a1321fea0c761846,
,,,,,,,0,304,304,31,1,X, , , , ,,1500,1.5,61005d2e9b8bac27eba5b984,001,2021-08-19_16h47.54.826,natb3,2021.2.3,Win32,59.81934558,61005d2e9b8bac27eba5b984,611e07ecdcc96256ae8d5b80,611e7cf7a1321fea0c761846,
,,,,space,0.4346,,0,305,305,130,1,F, , , , ,space,2000,2,61005d2e9b8bac27eba5b984,001,2021-08-19_16h47.54.826,natb3,2021.2.3,Win32,59.81934558,61005d2e9b8bac27eba5b984,611e07ecdcc96256ae8d5b80,611e7cf7a1321fea0c761846,
,,,,space,0.4175,,0,306,306,309,1,H, , , , ,space,2500,2.5,61005d2e9b8bac27eba5b984,001,2021-08-19_16h47.54.826,natb3,2021.2.3,Win32,59.81934558,61005d2e9b8bac27eba5b984,611e07ecdcc96256ae8d5b80,611e7cf7a1321fea0c761846,
,,,,space,0.4358,,0,307,307,29,1,B, , , , ,space,1500,1.5,61005d2e9b8bac27eba5b984,001,2021-08-19_16h47.54.826,natb3,2021.2.3,Win32,59.81934558,61005d2e9b8bac27eba5b984,611e07ecdcc96256ae8d5b80,611e7cf7a1321fea0c761846,
,,,,space,0.5263,,0,308,308,85,1,F, , , , ,space,2500,2.5,61005d2e9b8bac27eba5b984,001,2021-08-19_16h47.54.826,natb3,2021.2.3,Win32,59.81934558,61005d2e9b8bac27eba5b984,611e07ecdcc96256ae8d5b80,611e7cf7a1321fea0c761846,
,,,,space,0.4183,,0,309,309,279,1,K, , , , ,space,2500,2.5,61005d2e9b8bac27eba5b984,001,2021-08-19_16h47.54.826,natb3,2021.2.3,Win32,59.81934558,61005d2e9b8bac27eba5b984,611e07ecdcc96256ae8d5b80,611e7cf7a1321fea0c761846,
,,,,space,0.402,,0,310,310,184,1,T, , , , ,space,2000,2,61005d2e9b8bac27eba5b984,001,2021-08-19_16h47.54.826,natb3,2021.2.3,Win32,59.81934558,61005d2e9b8bac27eba5b984,611e07ecdcc96256ae8d5b80,611e7cf7a1321fea0c761846,
,,,,space,0.3844,,0,311,311,307,1,F, , , , ,space,2500,2.5,61005d2e9b8bac27eba5b984,001,2021-08-19_16h47.54.826,natb3,2021.2.3,Win32,59.81934558,61005d2e9b8bac27eba5b984,611e07ecdcc96256ae8d5b80,611e7cf7a1321fea0c761846,
,,,,space,0.3677,,0,312,312,80,1,A, , , , ,space,2000,2,61005d2e9b8bac27eba5b984,001,2021-08-19_16h47.54.826,natb3,2021.2.3,Win32,59.81934558,61005d2e9b8bac27eba5b984,611e07ecdcc96256ae8d5b80,611e7cf7a1321fea0c761846,
,,,,space,0.4717,,0,313,313,198,1,H, , , , ,space,2500,2.5,61005d2e9b8bac27eba5b984,001,2021-08-19_16h47.54.826,natb3,2021.2.3,Win32,59.81934558,61005d2e9b8bac27eba5b984,611e07ecdcc96256ae8d5b80,611e7cf7a1321fea0c761846,
,,,,space,0.5223,,0,314,314,0,1,Q, , , , ,space,1500,1.5,61005d2e9b8bac27eba5b984,001,2021-08-19_16h47.54.826,natb3,2021.2.3,Win32,59.81934558,61005d2e9b8bac27eba5b984,611e07ecdcc96256ae8d5b80,611e7cf7a1321fea0c761846,
,,,,space,0.4183,,0,315,315,297,1,U, , , , ,space,2000,2,61005d2e9b8bac27eba5b984,001,2021-08-19_16h47.54.826,natb3,2021.2.3,Win32,59.81934558,61005d2e9b8bac27eba5b984,611e07ecdcc96256ae8d5b80,611e7cf7a1321fea0c761846,
,,,,space,0.4373,,0,316,316,326,1,W, , , , ,space,2000,2,61005d2e9b8bac27eba5b984,001,2021-08-19_16h47.54.826,natb3,2021.2.3,Win32,59.81934558,61005d2e9b8bac27eba5b984,611e07ecdcc96256ae8d5b80,611e7cf7a1321fea0c761846,
,,,,space,0.4343,,0,317,317,188,1,I, , , , ,space,2500,2.5,61005d2e9b8bac27eba5b984,001,2021-08-19_16h47.54.826,natb3,2021.2.3,Win32,59.81934558,61005d2e9b8bac27eba5b984,611e07ecdcc96256ae8d5b80,611e7cf7a1321fea0c761846,
,,,,space,0.4176,,0,318,318,237,1,S, , , , ,space,1500,1.5,61005d2e9b8bac27eba5b984,001,2021-08-19_16h47.54.826,natb3,2021.2.3,Win32,59.81934558,61005d2e9b8bac27eba5b984,611e07ecdcc96256ae8d5b80,611e7cf7a1321fea0c761846,
,,,,space,0.3839,,0,319,319,13,1,A, , , , ,space,2000,2,61005d2e9b8bac27eba5b984,001,2021-08-19_16h47.54.826,natb3,2021.2.3,Win32,59.81934558,61005d2e9b8bac27eba5b984,611e07ecdcc96256ae8d5b80,611e7cf7a1321fea0c761846,
,,,,space,0.386,,0,320,320,17,1,F, , , , ,space,2500,2.5,61005d2e9b8bac27eba5b984,001,2021-08-19_16h47.54.826,natb3,2021.2.3,Win32,59.81934558,61005d2e9b8bac27eba5b984,611e07ecdcc96256ae8d5b80,611e7cf7a1321fea0c761846,
,,,,space,0.4341,,0,321,321,288,1,M, , , , ,space,1500,1.5,61005d2e9b8bac27eba5b984,001,2021-08-19_16h47.54.826,natb3,2021.2.3,Win32,59.81934558,61005d2e9b8bac27eba5b984,611e07ecdcc96256ae8d5b80,611e7cf7a1321fea0c761846,
,,,,space,0.4259,,0,322,322,8,1,U, , , , ,space,1500,1.5,61005d2e9b8bac27eba5b984,001,2021-08-19_16h47.54.826,natb3,2021.2.3,Win32,59.81934558,61005d2e9b8bac27eba5b984,611e07ecdcc96256ae8d5b80,611e7cf7a1321fea0c761846,
,,,,,,,0,323,323,335,1,P,,,,,space,1500,1.5,61005d2e9b8bac27eba5b984,001,2021-08-19_16h47.54.826,natb3,2021.2.3,Win32,59.81934558,61005d2e9b8bac27eba5b984,611e07ecdcc96256ae8d5b80,611e7cf7a1321fea0c761846,
,,,,space,0.332,,0,324,324,226,1,R, , , , ,space,2000,2,61005d2e9b8bac27eba5b984,001,2021-08-19_16h47.54.826,natb3,2021.2.3,Win32,59.81934558,61005d2e9b8bac27eba5b984,611e07ecdcc96256ae8d5b80,611e7cf7a1321fea0c761846,
,,,,,,,0,325,325,74,1,X, ,4,3,2,,1500,1.5,61005d2e9b8bac27eba5b984,001,2021-08-19_16h47.54.826,natb3,2021.2.3,Win32,59.81934558,61005d2e9b8bac27eba5b984,611e07ecdcc96256ae8d5b80,611e7cf7a1321fea0c761846,
,,,,space,0.5024,,0,326,326,250,1,V, , , , ,space,2000,2,61005d2e9b8bac27eba5b984,001,2021-08-19_16h47.54.826,natb3,2021.2.3,Win32,59.81934558,61005d2e9b8bac27eba5b984,611e07ecdcc96256ae8d5b80,611e7cf7a1321fea0c761846,
,,,,space,0.3674,,0,327,327,249,1,C, , , , ,space,2000,2,61005d2e9b8bac27eba5b984,001,2021-08-19_16h47.54.826,natb3,2021.2.3,Win32,59.81934558,61005d2e9b8bac27eba5b984,611e07ecdcc96256ae8d5b80,611e7cf7a1321fea0c761846,
,,,,space,0.5711,,0,328,328,191,1,X,1, ,3,4,,2500,2.5,61005d2e9b8bac27eba5b984,001,2021-08-19_16h47.54.826,natb3,2021.2.3,Win32,59.81934558,61005d2e9b8bac27eba5b984,611e07ecdcc96256ae8d5b80,611e7cf7a1321fea0c761846,
,,,,space,0.4156,,0,329,329,298,1,I, , , , ,space,2000,2,61005d2e9b8bac27eba5b984,001,2021-08-19_16h47.54.826,natb3,2021.2.3,Win32,59.81934558,61005d2e9b8bac27eba5b984,611e07ecdcc96256ae8d5b80,611e7cf7a1321fea0c761846,
,,,,space,0.5346,,0,330,330,155,1,O, , , , ,space,1500,1.5,61005d2e9b8bac27eba5b984,001,2021-08-19_16h47.54.826,natb3,2021.2.3,Win32,59.81934558,61005d2e9b8bac27eba5b984,611e07ecdcc96256ae8d5b80,611e7cf7a1321fea0c761846,
,,,,space,0.3683,,0,331,331,92,1,Z, , , , ,space,1500,1.5,61005d2e9b8bac27eba5b984,001,2021-08-19_16h47.54.826,natb3,2021.2.3,Win32,59.81934558,61005d2e9b8bac27eba5b984,611e07ecdcc96256ae8d5b80,611e7cf7a1321fea0c761846,
,,,,,,,0,332,332,311,1,X,1,2,7,3,,2500,2.5,61005d2e9b8bac27eba5b984,001,2021-08-19_16h47.54.826,natb3,2021.2.3,Win32,59.81934558,61005d2e9b8bac27eba5b984,611e07ecdcc96256ae8d5b80,611e7cf7a1321fea0c761846,
,,,,space,0.4536,,0,333,333,221,1,I, , , , ,space,2500,2.5,61005d2e9b8bac27eba5b984,001,2021-08-19_16h47.54.826,natb3,2021.2.3,Win32,59.81934558,61005d2e9b8bac27eba5b984,611e07ecdcc96256ae8d5b80,611e7cf7a1321fea0c761846,
,,,,space,0.3337,,0,334,334,215,1,E, , , , ,space,2500,2.5,61005d2e9b8bac27eba5b984,001,2021-08-19_16h47.54.826,natb3,2021.2.3,Win32,59.81934558,61005d2e9b8bac27eba5b984,611e07ecdcc96256ae8d5b80,611e7cf7a1321fea0c761846,
,,,,,,,0,335,335,252,1,X,3, ,6,9,,2000,2,61005d2e9b8bac27eba5b984,001,2021-08-19_16h47.54.826,natb3,2021.2.3,Win32,59.81934558,61005d2e9b8bac27eba5b984,611e07ecdcc96256ae8d5b80,611e7cf7a1321fea0c761846,
