key_resp_2.keys,key_resp_2.rt,key_resp_3.keys,key_resp_3.rt,key_resp.keys,key_resp.rt,key_resp_4.keys,trials.thisRepN,trials.thisTrialN,trials.thisN,trials.thisIndex,trials.ran,stimulus,distractor1,distractor2,distractor3,distractor4,CorrAns,isi_duration,isi_dur_in_seconds,participant,session,date,expName,psychopyVersion,OS,frameRate,PROLIFIC_PID,STUDY_ID,SESSION_ID,key_resp_4.rt
return,10.7462,space,15.7393,space,0.6363,,0,0,0,290,1,W, , , , ,space,1500,1.5,6105a43c902c6bce6a038544,001,2021-08-19_16h09.06.303,natb3,2021.2.3,MacIntel,60.0024001,6105a43c902c6bce6a038544,611e07ecdcc96256ae8d5b80,611e7404e7bc26f6dfefae78,
,,,,space,0.4943,,0,1,1,292,1,E, , , , ,space,2000,2,6105a43c902c6bce6a038544,001,2021-08-19_16h09.06.303,natb3,2021.2.3,MacIntel,60.0024001,6105a43c902c6bce6a038544,611e07ecdcc96256ae8d5b80,611e7404e7bc26f6dfefae78,
,,,,space,0.3991,,0,2,2,124,1,P, , , , ,space,2000,2,6105a43c902c6bce6a038544,001,2021-08-19_16h09.06.303,natb3,2021.2.3,MacIntel,60.0024001,6105a43c902c6bce6a038544,611e07ecdcc96256ae8d5b80,611e7404e7bc26f6dfefae78,
,,,,space,0.5038,,0,3,3,303,1,A, , , , ,space,2000,2,6105a43c902c6bce6a038544,001,2021-08-19_16h09.06.303,natb3,2021.2.3,MacIntel,60.0024001,6105a43c902c6bce6a038544,611e07ecdcc96256ae8d5b80,611e7404e7bc26f6dfefae78,
,,,,space,0.4229,,0,4,4,242,1,H, , , , ,space,2500,2.5,6105a43c902c6bce6a038544,001,2021-08-19_16h09.06.303,natb3,2021.2.3,MacIntel,60.0024001,6105a43c902c6bce6a038544,611e07ecdcc96256ae8d5b80,611e7404e7bc26f6dfefae78,
,,,,space,0.3829,,0,5,5,285,1,B, , , , ,space,1500,1.5,6105a43c902c6bce6a038544,001,2021-08-19_16h09.06.303,natb3,2021.2.3,MacIntel,60.0024001,6105a43c902c6bce6a038544,611e07ecdcc96256ae8d5b80,611e7404e7bc26f6dfefae78,
,,,,space,0.4907,,0,6,6,37,1,E, , , , ,space,2500,2.5,6105a43c902c6bce6a038544,001,2021-08-19_16h09.06.303,natb3,2021.2.3,MacIntel,60.0024001,6105a43c902c6bce6a038544,611e07ecdcc96256ae8d5b80,611e7404e7bc26f6dfefae78,
,,,,,,,0,7,7,35,1,X, , , , ,,2500,2.5,6105a43c902c6bce6a038544,001,2021-08-19_16h09.06.303,natb3,2021.2.3,MacIntel,60.0024001,6105a43c902c6bce6a038544,611e07ecdcc96256ae8d5b80,611e7404e7bc26f6dfefae78,
,,,,space,0.4306,,0,8,8,216,1,R, , , , ,space,1500,1.5,6105a43c902c6bce6a038544,001,2021-08-19_16h09.06.303,natb3,2021.2.3,MacIntel,60.0024001,6105a43c902c6bce6a038544,611e07ecdcc96256ae8d5b80,611e7404e7bc26f6dfefae78,
,,,,space,0.4474,,0,9,9,155,1,O, , , , ,space,1500,1.5,6105a43c902c6bce6a038544,001,2021-08-19_16h09.06.303,natb3,2021.2.3,MacIntel,60.0024001,6105a43c902c6bce6a038544,611e07ecdcc96256ae8d5b80,611e7404e7bc26f6dfefae78,
,,,,space,0.3135,,0,10,10,142,1,N, , , , ,space,2500,2.5,6105a43c902c6bce6a038544,001,2021-08-19_16h09.06.303,natb3,2021.2.3,MacIntel,60.0024001,6105a43c902c6bce6a038544,611e07ecdcc96256ae8d5b80,611e7404e7bc26f6dfefae78,
,,,,space,0.3716,,0,11,11,201,1,K, , , , ,space,1500,1.5,6105a43c902c6bce6a038544,001,2021-08-19_16h09.06.303,natb3,2021.2.3,MacIntel,60.0024001,6105a43c902c6bce6a038544,611e07ecdcc96256ae8d5b80,611e7404e7bc26f6dfefae78,
,,,,space,0.902,,0,12,12,138,1,X,8,5, ,3,,2000,2,6105a43c902c6bce6a038544,001,2021-08-19_16h09.06.303,natb3,2021.2.3,MacIntel,60.0024001,6105a43c902c6bce6a038544,611e07ecdcc96256ae8d5b80,611e7404e7bc26f6dfefae78,
,,,,space,0.4675,,0,13,13,283,1,C, , , , ,space,1500,1.5,6105a43c902c6bce6a038544,001,2021-08-19_16h09.06.303,natb3,2021.2.3,MacIntel,60.0024001,6105a43c902c6bce6a038544,611e07ecdcc96256ae8d5b80,611e7404e7bc26f6dfefae78,
,,,,space,0.4911,,0,14,14,111,1,O, , , , ,space,2000,2,6105a43c902c6bce6a038544,001,2021-08-19_16h09.06.303,natb3,2021.2.3,MacIntel,60.0024001,6105a43c902c6bce6a038544,611e07ecdcc96256ae8d5b80,611e7404e7bc26f6dfefae78,
,,,,space,0.3785,,0,15,15,114,1,E, , , , ,space,2000,2,6105a43c902c6bce6a038544,001,2021-08-19_16h09.06.303,natb3,2021.2.3,MacIntel,60.0024001,6105a43c902c6bce6a038544,611e07ecdcc96256ae8d5b80,611e7404e7bc26f6dfefae78,
,,,,,,,0,16,16,27,1,X,5, ,1,3,,1500,1.5,6105a43c902c6bce6a038544,001,2021-08-19_16h09.06.303,natb3,2021.2.3,MacIntel,60.0024001,6105a43c902c6bce6a038544,611e07ecdcc96256ae8d5b80,611e7404e7bc26f6dfefae78,
,,,,space,0.4284,,0,17,17,99,1,N, , , , ,space,2500,2.5,6105a43c902c6bce6a038544,001,2021-08-19_16h09.06.303,natb3,2021.2.3,MacIntel,60.0024001,6105a43c902c6bce6a038544,611e07ecdcc96256ae8d5b80,611e7404e7bc26f6dfefae78,
,,,,space,0.4348,,0,18,18,41,1,Y, , , , ,space,2500,2.5,6105a43c902c6bce6a038544,001,2021-08-19_16h09.06.303,natb3,2021.2.3,MacIntel,60.0024001,6105a43c902c6bce6a038544,611e07ecdcc96256ae8d5b80,611e7404e7bc26f6dfefae78,
,,,,space,0.4183,,0,19,19,235,1,A, , , , ,space,1500,1.5,6105a43c902c6bce6a038544,001,2021-08-19_16h09.06.303,natb3,2021.2.3,MacIntel,60.0024001,6105a43c902c6bce6a038544,611e07ecdcc96256ae8d5b80,611e7404e7bc26f6dfefae78,
,,,,space,0.6162,,0,20,20,308,1,G, , , , ,space,1500,1.5,6105a43c902c6bce6a038544,001,2021-08-19_16h09.06.303,natb3,2021.2.3,MacIntel,60.0024001,6105a43c902c6bce6a038544,611e07ecdcc96256ae8d5b80,611e7404e7bc26f6dfefae78,
,,,,,,,0,21,21,305,1,X, , , , ,,1500,1.5,6105a43c902c6bce6a038544,001,2021-08-19_16h09.06.303,natb3,2021.2.3,MacIntel,60.0024001,6105a43c902c6bce6a038544,611e07ecdcc96256ae8d5b80,611e7404e7bc26f6dfefae78,
,,,,,,,0,22,22,291,1,X, , , , ,,2000,2,6105a43c902c6bce6a038544,001,2021-08-19_16h09.06.303,natb3,2021.2.3,MacIntel,60.0024001,6105a43c902c6bce6a038544,611e07ecdcc96256ae8d5b80,611e7404e7bc26f6dfefae78,
,,,,space,0.3682,,0,23,23,328,1,R, , , , ,space,1500,1.5,6105a43c902c6bce6a038544,001,2021-08-19_16h09.06.303,natb3,2021.2.3,MacIntel,60.0024001,6105a43c902c6bce6a038544,611e07ecdcc96256ae8d5b80,611e7404e7bc26f6dfefae78,
,,,,space,0.3471,,0,24,24,326,1,W, , , , ,space,2000,2,6105a43c902c6bce6a038544,001,2021-08-19_16h09.06.303,natb3,2021.2.3,MacIntel,60.0024001,6105a43c902c6bce6a038544,611e07ecdcc96256ae8d5b80,611e7404e7bc26f6dfefae78,
,,,,space,0.4746,,0,25,25,220,1,U, , , , ,space,2500,2.5,6105a43c902c6bce6a038544,001,2021-08-19_16h09.06.303,natb3,2021.2.3,MacIntel,60.0024001,6105a43c902c6bce6a038544,611e07ecdcc96256ae8d5b80,611e7404e7bc26f6dfefae78,
,,,,,,,0,26,26,271,1,X, , , , ,,2500,2.5,6105a43c902c6bce6a038544,001,2021-08-19_16h09.06.303,natb3,2021.2.3,MacIntel,60.0024001,6105a43c902c6bce6a038544,611e07ecdcc96256ae8d5b80,611e7404e7bc26f6dfefae78,
,,,,space,0.5345,,0,27,27,270,1,S, , , , ,space,1500,1.5,6105a43c902c6bce6a038544,001,2021-08-19_16h09.06.303,natb3,2021.2.3,MacIntel,60.0024001,6105a43c902c6bce6a038544,611e07ecdcc96256ae8d5b80,611e7404e7bc26f6dfefae78,
,,,,space,0.6484,,0,28,28,76,1,I, , , , ,space,2000,2,6105a43c902c6bce6a038544,001,2021-08-19_16h09.06.303,natb3,2021.2.3,MacIntel,60.0024001,6105a43c902c6bce6a038544,611e07ecdcc96256ae8d5b80,611e7404e7bc26f6dfefae78,
,,,,space,0.3899,,0,29,29,190,1,P, , , , ,space,2000,2,6105a43c902c6bce6a038544,001,2021-08-19_16h09.06.303,natb3,2021.2.3,MacIntel,60.0024001,6105a43c902c6bce6a038544,611e07ecdcc96256ae8d5b80,611e7404e7bc26f6dfefae78,
,,,,,,,0,30,30,287,1,X, ,2, ,9,,2000,2,6105a43c902c6bce6a038544,001,2021-08-19_16h09.06.303,natb3,2021.2.3,MacIntel,60.0024001,6105a43c902c6bce6a038544,611e07ecdcc96256ae8d5b80,611e7404e7bc26f6dfefae78,
,,,,space,0.4203,,0,31,31,221,1,I, , , , ,space,2500,2.5,6105a43c902c6bce6a038544,001,2021-08-19_16h09.06.303,natb3,2021.2.3,MacIntel,60.0024001,6105a43c902c6bce6a038544,611e07ecdcc96256ae8d5b80,611e7404e7bc26f6dfefae78,
,,,,,,,0,32,32,213,1,X, , , , ,,2500,2.5,6105a43c902c6bce6a038544,001,2021-08-19_16h09.06.303,natb3,2021.2.3,MacIntel,60.0024001,6105a43c902c6bce6a038544,611e07ecdcc96256ae8d5b80,611e7404e7bc26f6dfefae78,
,,,,space,0.407,,0,33,33,154,1,I, , , , ,space,2500,2.5,6105a43c902c6bce6a038544,001,2021-08-19_16h09.06.303,natb3,2021.2.3,MacIntel,60.0024001,6105a43c902c6bce6a038544,611e07ecdcc96256ae8d5b80,611e7404e7bc26f6dfefae78,
,,,,,,,0,34,34,295,1,X,8,7,5, ,,2500,2.5,6105a43c902c6bce6a038544,001,2021-08-19_16h09.06.303,natb3,2021.2.3,MacIntel,60.0024001,6105a43c902c6bce6a038544,611e07ecdcc96256ae8d5b80,611e7404e7bc26f6dfefae78,
,,,,space,0.4008,,0,35,35,249,1,C, , , , ,space,2000,2,6105a43c902c6bce6a038544,001,2021-08-19_16h09.06.303,natb3,2021.2.3,MacIntel,60.0024001,6105a43c902c6bce6a038544,611e07ecdcc96256ae8d5b80,611e7404e7bc26f6dfefae78,
,,,,space,0.4434,,0,36,36,184,1,T, , , , ,space,2000,2,6105a43c902c6bce6a038544,001,2021-08-19_16h09.06.303,natb3,2021.2.3,MacIntel,60.0024001,6105a43c902c6bce6a038544,611e07ecdcc96256ae8d5b80,611e7404e7bc26f6dfefae78,
,,,,space,0.415,,0,37,37,91,1,L, , , , ,space,2000,2,6105a43c902c6bce6a038544,001,2021-08-19_16h09.06.303,natb3,2021.2.3,MacIntel,60.0024001,6105a43c902c6bce6a038544,611e07ecdcc96256ae8d5b80,611e7404e7bc26f6dfefae78,
,,,,space,0.4164,,0,38,38,193,1,S, , , , ,space,2500,2.5,6105a43c902c6bce6a038544,001,2021-08-19_16h09.06.303,natb3,2021.2.3,MacIntel,60.0024001,6105a43c902c6bce6a038544,611e07ecdcc96256ae8d5b80,611e7404e7bc26f6dfefae78,
,,,,space,0.4001,,0,39,39,334,1,O, , , , ,space,1500,1.5,6105a43c902c6bce6a038544,001,2021-08-19_16h09.06.303,natb3,2021.2.3,MacIntel,60.0024001,6105a43c902c6bce6a038544,611e07ecdcc96256ae8d5b80,611e7404e7bc26f6dfefae78,
,,,,,,,0,40,40,31,1,X, , , , ,,1500,1.5,6105a43c902c6bce6a038544,001,2021-08-19_16h09.06.303,natb3,2021.2.3,MacIntel,60.0024001,6105a43c902c6bce6a038544,611e07ecdcc96256ae8d5b80,611e7404e7bc26f6dfefae78,
,,,,space,0.3635,,0,41,41,251,1,B, , , , ,space,1500,1.5,6105a43c902c6bce6a038544,001,2021-08-19_16h09.06.303,natb3,2021.2.3,MacIntel,60.0024001,6105a43c902c6bce6a038544,611e07ecdcc96256ae8d5b80,611e7404e7bc26f6dfefae78,
,,,,space,0.5326,,0,42,42,108,1,Y, , , , ,space,2500,2.5,6105a43c902c6bce6a038544,001,2021-08-19_16h09.06.303,natb3,2021.2.3,MacIntel,60.0024001,6105a43c902c6bce6a038544,611e07ecdcc96256ae8d5b80,611e7404e7bc26f6dfefae78,
,,,,space,0.4342,,0,43,43,320,1,B, , , , ,space,1500,1.5,6105a43c902c6bce6a038544,001,2021-08-19_16h09.06.303,natb3,2021.2.3,MacIntel,60.0024001,6105a43c902c6bce6a038544,611e07ecdcc96256ae8d5b80,611e7404e7bc26f6dfefae78,
,,,,,,,0,44,44,311,1,X,1,2,7,3,,2500,2.5,6105a43c902c6bce6a038544,001,2021-08-19_16h09.06.303,natb3,2021.2.3,MacIntel,60.0024001,6105a43c902c6bce6a038544,611e07ecdcc96256ae8d5b80,611e7404e7bc26f6dfefae78,
,,,,,,,0,45,45,171,1,X, , , , ,,1500,1.5,6105a43c902c6bce6a038544,001,2021-08-19_16h09.06.303,natb3,2021.2.3,MacIntel,60.0024001,6105a43c902c6bce6a038544,611e07ecdcc96256ae8d5b80,611e7404e7bc26f6dfefae78,
,,,,space,0.4618,,0,46,46,307,1,F, , , , ,space,2500,2.5,6105a43c902c6bce6a038544,001,2021-08-19_16h09.06.303,natb3,2021.2.3,MacIntel,60.0024001,6105a43c902c6bce6a038544,611e07ecdcc96256ae8d5b80,611e7404e7bc26f6dfefae78,
,,,,space,0.3655,,0,47,47,332,1,U, , , , ,space,2000,2,6105a43c902c6bce6a038544,001,2021-08-19_16h09.06.303,natb3,2021.2.3,MacIntel,60.0024001,6105a43c902c6bce6a038544,611e07ecdcc96256ae8d5b80,611e7404e7bc26f6dfefae78,
,,,,,,,0,48,48,239,1,X, , , , ,,2000,2,6105a43c902c6bce6a038544,001,2021-08-19_16h09.06.303,natb3,2021.2.3,MacIntel,60.0024001,6105a43c902c6bce6a038544,611e07ecdcc96256ae8d5b80,611e7404e7bc26f6dfefae78,
,,,,space,0.4179,,0,49,49,199,1,J, , , , ,space,2500,2.5,6105a43c902c6bce6a038544,001,2021-08-19_16h09.06.303,natb3,2021.2.3,MacIntel,60.0024001,6105a43c902c6bce6a038544,611e07ecdcc96256ae8d5b80,611e7404e7bc26f6dfefae78,
,,,,space,0.3227,,0,50,50,279,1,K, , , , ,space,2500,2.5,6105a43c902c6bce6a038544,001,2021-08-19_16h09.06.303,natb3,2021.2.3,MacIntel,60.0024001,6105a43c902c6bce6a038544,611e07ecdcc96256ae8d5b80,611e7404e7bc26f6dfefae78,
,,,,space,0.3914,,0,51,51,10,1,O, , , , ,space,2000,2,6105a43c902c6bce6a038544,001,2021-08-19_16h09.06.303,natb3,2021.2.3,MacIntel,60.0024001,6105a43c902c6bce6a038544,611e07ecdcc96256ae8d5b80,611e7404e7bc26f6dfefae78,
,,,,space,0.639,,0,52,52,135,1,K, , , , ,space,1500,1.5,6105a43c902c6bce6a038544,001,2021-08-19_16h09.06.303,natb3,2021.2.3,MacIntel,60.0024001,6105a43c902c6bce6a038544,611e07ecdcc96256ae8d5b80,611e7404e7bc26f6dfefae78,
,,,,space,0.3181,,0,53,53,243,1,X, , , , ,,2500,2.5,6105a43c902c6bce6a038544,001,2021-08-19_16h09.06.303,natb3,2021.2.3,MacIntel,60.0024001,6105a43c902c6bce6a038544,611e07ecdcc96256ae8d5b80,611e7404e7bc26f6dfefae78,
,,,,,,,0,54,54,329,1,X,3,4, ,2,,2500,2.5,6105a43c902c6bce6a038544,001,2021-08-19_16h09.06.303,natb3,2021.2.3,MacIntel,60.0024001,6105a43c902c6bce6a038544,611e07ecdcc96256ae8d5b80,611e7404e7bc26f6dfefae78,
,,,,space,0.5844,,0,55,55,189,1,O, , , , ,space,1500,1.5,6105a43c902c6bce6a038544,001,2021-08-19_16h09.06.303,natb3,2021.2.3,MacIntel,60.0024001,6105a43c902c6bce6a038544,611e07ecdcc96256ae8d5b80,611e7404e7bc26f6dfefae78,
,,,,space,0.4991,,0,56,56,121,1,I, , , , ,space,2000,2,6105a43c902c6bce6a038544,001,2021-08-19_16h09.06.303,natb3,2021.2.3,MacIntel,60.0024001,6105a43c902c6bce6a038544,611e07ecdcc96256ae8d5b80,611e7404e7bc26f6dfefae78,
,,,,space,0.4184,,0,57,57,34,1,Q, , , , ,space,2500,2.5,6105a43c902c6bce6a038544,001,2021-08-19_16h09.06.303,natb3,2021.2.3,MacIntel,60.0024001,6105a43c902c6bce6a038544,611e07ecdcc96256ae8d5b80,611e7404e7bc26f6dfefae78,
,,,,space,0.6715,,0,58,58,223,1,Q, , , , ,space,2000,2,6105a43c902c6bce6a038544,001,2021-08-19_16h09.06.303,natb3,2021.2.3,MacIntel,60.0024001,6105a43c902c6bce6a038544,611e07ecdcc96256ae8d5b80,611e7404e7bc26f6dfefae78,
,,,,,,,0,59,59,125,1,X, , , , ,,2000,2,6105a43c902c6bce6a038544,001,2021-08-19_16h09.06.303,natb3,2021.2.3,MacIntel,60.0024001,6105a43c902c6bce6a038544,611e07ecdcc96256ae8d5b80,611e7404e7bc26f6dfefae78,
,,,,space,0.3622,,0,60,60,58,1,L, , , , ,space,2000,2,6105a43c902c6bce6a038544,001,2021-08-19_16h09.06.303,natb3,2021.2.3,MacIntel,60.0024001,6105a43c902c6bce6a038544,611e07ecdcc96256ae8d5b80,611e7404e7bc26f6dfefae78,
,,,,,,,0,61,61,200,1,X,7, ,5,3,,1500,1.5,6105a43c902c6bce6a038544,001,2021-08-19_16h09.06.303,natb3,2021.2.3,MacIntel,60.0024001,6105a43c902c6bce6a038544,611e07ecdcc96256ae8d5b80,611e7404e7bc26f6dfefae78,
,,,,space,0.8202,,0,62,62,36,1,W, , , , ,space,2000,2,6105a43c902c6bce6a038544,001,2021-08-19_16h09.06.303,natb3,2021.2.3,MacIntel,60.0024001,6105a43c902c6bce6a038544,611e07ecdcc96256ae8d5b80,611e7404e7bc26f6dfefae78,
,,,,,,,0,63,63,96,1,X, , , , ,,1500,1.5,6105a43c902c6bce6a038544,001,2021-08-19_16h09.06.303,natb3,2021.2.3,MacIntel,60.0024001,6105a43c902c6bce6a038544,611e07ecdcc96256ae8d5b80,611e7404e7bc26f6dfefae78,
,,,,space,0.3516,,0,64,64,71,1,R, , , , ,space,2500,2.5,6105a43c902c6bce6a038544,001,2021-08-19_16h09.06.303,natb3,2021.2.3,MacIntel,60.0024001,6105a43c902c6bce6a038544,611e07ecdcc96256ae8d5b80,611e7404e7bc26f6dfefae78,
,,,,space,0.4498,,0,65,65,226,1,R, , , , ,space,2000,2,6105a43c902c6bce6a038544,001,2021-08-19_16h09.06.303,natb3,2021.2.3,MacIntel,60.0024001,6105a43c902c6bce6a038544,611e07ecdcc96256ae8d5b80,611e7404e7bc26f6dfefae78,
,,,,space,0.4825,,0,66,66,127,1,S, , , , ,space,2500,2.5,6105a43c902c6bce6a038544,001,2021-08-19_16h09.06.303,natb3,2021.2.3,MacIntel,60.0024001,6105a43c902c6bce6a038544,611e07ecdcc96256ae8d5b80,611e7404e7bc26f6dfefae78,
,,,,space,0.8312,,0,67,67,309,1,H, , , , ,space,2500,2.5,6105a43c902c6bce6a038544,001,2021-08-19_16h09.06.303,natb3,2021.2.3,MacIntel,60.0024001,6105a43c902c6bce6a038544,611e07ecdcc96256ae8d5b80,611e7404e7bc26f6dfefae78,
,,,,space,0.5324,,0,68,68,85,1,F, , , , ,space,2500,2.5,6105a43c902c6bce6a038544,001,2021-08-19_16h09.06.303,natb3,2021.2.3,MacIntel,60.0024001,6105a43c902c6bce6a038544,611e07ecdcc96256ae8d5b80,611e7404e7bc26f6dfefae78,
,,,,space,0.5331,,0,69,69,205,1,C, , , , ,space,2000,2,6105a43c902c6bce6a038544,001,2021-08-19_16h09.06.303,natb3,2021.2.3,MacIntel,60.0024001,6105a43c902c6bce6a038544,611e07ecdcc96256ae8d5b80,611e7404e7bc26f6dfefae78,
,,,,space,0.4349,,0,70,70,261,1,T, , , , ,space,2000,2,6105a43c902c6bce6a038544,001,2021-08-19_16h09.06.303,natb3,2021.2.3,MacIntel,60.0024001,6105a43c902c6bce6a038544,611e07ecdcc96256ae8d5b80,611e7404e7bc26f6dfefae78,
,,,,,,,0,71,71,273,1,X, , , , ,,2000,2,6105a43c902c6bce6a038544,001,2021-08-19_16h09.06.303,natb3,2021.2.3,MacIntel,60.0024001,6105a43c902c6bce6a038544,611e07ecdcc96256ae8d5b80,611e7404e7bc26f6dfefae78,
,,,,,,,0,72,72,325,1,X, , , , ,,2500,2.5,6105a43c902c6bce6a038544,001,2021-08-19_16h09.06.303,natb3,2021.2.3,MacIntel,60.0024001,6105a43c902c6bce6a038544,611e07ecdcc96256ae8d5b80,611e7404e7bc26f6dfefae78,
,,,,space,0.5619,,0,73,73,25,1,Z, , , , ,space,2500,2.5,6105a43c902c6bce6a038544,001,2021-08-19_16h09.06.303,natb3,2021.2.3,MacIntel,60.0024001,6105a43c902c6bce6a038544,611e07ecdcc96256ae8d5b80,611e7404e7bc26f6dfefae78,
,,,,space,0.4976,,0,74,74,6,1,Y, , , , ,space,2500,2.5,6105a43c902c6bce6a038544,001,2021-08-19_16h09.06.303,natb3,2021.2.3,MacIntel,60.0024001,6105a43c902c6bce6a038544,611e07ecdcc96256ae8d5b80,611e7404e7bc26f6dfefae78,
,,,,space,0.5422,,0,75,75,304,1,S, , , , ,space,2000,2,6105a43c902c6bce6a038544,001,2021-08-19_16h09.06.303,natb3,2021.2.3,MacIntel,60.0024001,6105a43c902c6bce6a038544,611e07ecdcc96256ae8d5b80,611e7404e7bc26f6dfefae78,
,,,,,,,0,76,76,54,1,X, , , , ,,2000,2,6105a43c902c6bce6a038544,001,2021-08-19_16h09.06.303,natb3,2021.2.3,MacIntel,60.0024001,6105a43c902c6bce6a038544,611e07ecdcc96256ae8d5b80,611e7404e7bc26f6dfefae78,
,,,,space,0.4774,,0,77,77,250,1,V, , , , ,space,2000,2,6105a43c902c6bce6a038544,001,2021-08-19_16h09.06.303,natb3,2021.2.3,MacIntel,60.0024001,6105a43c902c6bce6a038544,611e07ecdcc96256ae8d5b80,611e7404e7bc26f6dfefae78,
,,,,space,0.5087,,0,78,78,48,1,A, , , , ,space,2500,2.5,6105a43c902c6bce6a038544,001,2021-08-19_16h09.06.303,natb3,2021.2.3,MacIntel,60.0024001,6105a43c902c6bce6a038544,611e07ecdcc96256ae8d5b80,611e7404e7bc26f6dfefae78,
,,,,space,0.5828,,0,79,79,275,1,G, , , , ,space,1500,1.5,6105a43c902c6bce6a038544,001,2021-08-19_16h09.06.303,natb3,2021.2.3,MacIntel,60.0024001,6105a43c902c6bce6a038544,611e07ecdcc96256ae8d5b80,611e7404e7bc26f6dfefae78,
,,,,space,0.4021,,0,80,80,53,1,G, , , , ,space,2500,2.5,6105a43c902c6bce6a038544,001,2021-08-19_16h09.06.303,natb3,2021.2.3,MacIntel,60.0024001,6105a43c902c6bce6a038544,611e07ecdcc96256ae8d5b80,611e7404e7bc26f6dfefae78,
,,,,space,0.5073,,0,81,81,29,1,B, , , , ,space,1500,1.5,6105a43c902c6bce6a038544,001,2021-08-19_16h09.06.303,natb3,2021.2.3,MacIntel,60.0024001,6105a43c902c6bce6a038544,611e07ecdcc96256ae8d5b80,611e7404e7bc26f6dfefae78,
,,,,space,0.3914,,0,82,82,215,1,E, , , , ,space,2500,2.5,6105a43c902c6bce6a038544,001,2021-08-19_16h09.06.303,natb3,2021.2.3,MacIntel,60.0024001,6105a43c902c6bce6a038544,611e07ecdcc96256ae8d5b80,611e7404e7bc26f6dfefae78,
,,,,space,0.6655,,0,83,83,120,1,U, , , , ,space,1500,1.5,6105a43c902c6bce6a038544,001,2021-08-19_16h09.06.303,natb3,2021.2.3,MacIntel,60.0024001,6105a43c902c6bce6a038544,611e07ecdcc96256ae8d5b80,611e7404e7bc26f6dfefae78,
,,,,space,0.3997,,0,84,84,156,1,P, , , , ,space,1500,1.5,6105a43c902c6bce6a038544,001,2021-08-19_16h09.06.303,natb3,2021.2.3,MacIntel,60.0024001,6105a43c902c6bce6a038544,611e07ecdcc96256ae8d5b80,611e7404e7bc26f6dfefae78,
,,,,space,0.5415,,0,85,85,212,1,Q, , , , ,space,2500,2.5,6105a43c902c6bce6a038544,001,2021-08-19_16h09.06.303,natb3,2021.2.3,MacIntel,60.0024001,6105a43c902c6bce6a038544,611e07ecdcc96256ae8d5b80,611e7404e7bc26f6dfefae78,
,,,,,,,0,86,86,252,1,X,3, ,6,9,,2000,2,6105a43c902c6bce6a038544,001,2021-08-19_16h09.06.303,natb3,2021.2.3,MacIntel,60.0024001,6105a43c902c6bce6a038544,611e07ecdcc96256ae8d5b80,611e7404e7bc26f6dfefae78,
,,,,space,0.4987,,0,87,87,219,1,Y, , , , ,space,2000,2,6105a43c902c6bce6a038544,001,2021-08-19_16h09.06.303,natb3,2021.2.3,MacIntel,60.0024001,6105a43c902c6bce6a038544,611e07ecdcc96256ae8d5b80,611e7404e7bc26f6dfefae78,
,,,,,,,0,88,88,233,1,X, ,2, ,5,,1500,1.5,6105a43c902c6bce6a038544,001,2021-08-19_16h09.06.303,natb3,2021.2.3,MacIntel,60.0024001,6105a43c902c6bce6a038544,611e07ecdcc96256ae8d5b80,611e7404e7bc26f6dfefae78,
,,,,space,0.4768,,0,89,89,90,1,K, , , , ,space,2000,2,6105a43c902c6bce6a038544,001,2021-08-19_16h09.06.303,natb3,2021.2.3,MacIntel,60.0024001,6105a43c902c6bce6a038544,611e07ecdcc96256ae8d5b80,611e7404e7bc26f6dfefae78,
,,,,space,0.474,,0,90,90,317,1,C, , , , ,space,2000,2,6105a43c902c6bce6a038544,001,2021-08-19_16h09.06.303,natb3,2021.2.3,MacIntel,60.0024001,6105a43c902c6bce6a038544,611e07ecdcc96256ae8d5b80,611e7404e7bc26f6dfefae78,
,,,,,,,0,91,91,122,1,X,1, , ,8,,1500,1.5,6105a43c902c6bce6a038544,001,2021-08-19_16h09.06.303,natb3,2021.2.3,MacIntel,60.0024001,6105a43c902c6bce6a038544,611e07ecdcc96256ae8d5b80,611e7404e7bc26f6dfefae78,
,,,,space,0.8173,,0,92,92,63,1,B, , , , ,space,2000,2,6105a43c902c6bce6a038544,001,2021-08-19_16h09.06.303,natb3,2021.2.3,MacIntel,60.0024001,6105a43c902c6bce6a038544,611e07ecdcc96256ae8d5b80,611e7404e7bc26f6dfefae78,
,,,,space,0.575,,0,93,93,67,1,Q, , , , ,space,2000,2,6105a43c902c6bce6a038544,001,2021-08-19_16h09.06.303,natb3,2021.2.3,MacIntel,60.0024001,6105a43c902c6bce6a038544,611e07ecdcc96256ae8d5b80,611e7404e7bc26f6dfefae78,
,,,,space,0.3915,,0,94,94,210,1,M, , , , ,space,1500,1.5,6105a43c902c6bce6a038544,001,2021-08-19_16h09.06.303,natb3,2021.2.3,MacIntel,60.0024001,6105a43c902c6bce6a038544,611e07ecdcc96256ae8d5b80,611e7404e7bc26f6dfefae78,
,,,,space,0.477,,0,95,95,280,1,L, , , , ,space,1500,1.5,6105a43c902c6bce6a038544,001,2021-08-19_16h09.06.303,natb3,2021.2.3,MacIntel,60.0024001,6105a43c902c6bce6a038544,611e07ecdcc96256ae8d5b80,611e7404e7bc26f6dfefae78,
,,,,space,0.3456,,0,96,96,21,1,J, , , , ,space,1500,1.5,6105a43c902c6bce6a038544,001,2021-08-19_16h09.06.303,natb3,2021.2.3,MacIntel,60.0024001,6105a43c902c6bce6a038544,611e07ecdcc96256ae8d5b80,611e7404e7bc26f6dfefae78,
,,,,space,0.5002,,0,97,97,59,1,Z, , , , ,space,2000,2,6105a43c902c6bce6a038544,001,2021-08-19_16h09.06.303,natb3,2021.2.3,MacIntel,60.0024001,6105a43c902c6bce6a038544,611e07ecdcc96256ae8d5b80,611e7404e7bc26f6dfefae78,
,,,,space,0.4842,,0,98,98,52,1,F, , , , ,space,1500,1.5,6105a43c902c6bce6a038544,001,2021-08-19_16h09.06.303,natb3,2021.2.3,MacIntel,60.0024001,6105a43c902c6bce6a038544,611e07ecdcc96256ae8d5b80,611e7404e7bc26f6dfefae78,
,,,,space,0.3569,,0,99,99,214,1,W, , , , ,space,2000,2,6105a43c902c6bce6a038544,001,2021-08-19_16h09.06.303,natb3,2021.2.3,MacIntel,60.0024001,6105a43c902c6bce6a038544,611e07ecdcc96256ae8d5b80,611e7404e7bc26f6dfefae78,
,,,,space,0.4332,,0,100,100,330,1,T, , , , ,space,2500,2.5,6105a43c902c6bce6a038544,001,2021-08-19_16h09.06.303,natb3,2021.2.3,MacIntel,60.0024001,6105a43c902c6bce6a038544,611e07ecdcc96256ae8d5b80,611e7404e7bc26f6dfefae78,
,,,,space,0.4228,,0,101,101,177,1,M, , , , ,space,2500,2.5,6105a43c902c6bce6a038544,001,2021-08-19_16h09.06.303,natb3,2021.2.3,MacIntel,60.0024001,6105a43c902c6bce6a038544,611e07ecdcc96256ae8d5b80,611e7404e7bc26f6dfefae78,
,,,,space,0.5744,,0,102,102,28,1,V, , , , ,space,1500,1.5,6105a43c902c6bce6a038544,001,2021-08-19_16h09.06.303,natb3,2021.2.3,MacIntel,60.0024001,6105a43c902c6bce6a038544,611e07ecdcc96256ae8d5b80,611e7404e7bc26f6dfefae78,
,,,,space,0.417,,0,103,103,234,1,P, , , , ,space,2000,2,6105a43c902c6bce6a038544,001,2021-08-19_16h09.06.303,natb3,2021.2.3,MacIntel,60.0024001,6105a43c902c6bce6a038544,611e07ecdcc96256ae8d5b80,611e7404e7bc26f6dfefae78,
,,,,space,0.6063,,0,104,104,196,1,F, , , , ,space,1500,1.5,6105a43c902c6bce6a038544,001,2021-08-19_16h09.06.303,natb3,2021.2.3,MacIntel,60.0024001,6105a43c902c6bce6a038544,611e07ecdcc96256ae8d5b80,611e7404e7bc26f6dfefae78,
,,,,,,,0,105,105,263,1,X,4, ,6, ,,1500,1.5,6105a43c902c6bce6a038544,001,2021-08-19_16h09.06.303,natb3,2021.2.3,MacIntel,60.0024001,6105a43c902c6bce6a038544,611e07ecdcc96256ae8d5b80,611e7404e7bc26f6dfefae78,
,,,,,,,0,106,106,18,1,X, ,2,5,8,,2500,2.5,6105a43c902c6bce6a038544,001,2021-08-19_16h09.06.303,natb3,2021.2.3,MacIntel,60.0024001,6105a43c902c6bce6a038544,611e07ecdcc96256ae8d5b80,611e7404e7bc26f6dfefae78,
,,,,,,,0,107,107,84,1,X, , , , ,,2000,2,6105a43c902c6bce6a038544,001,2021-08-19_16h09.06.303,natb3,2021.2.3,MacIntel,60.0024001,6105a43c902c6bce6a038544,611e07ecdcc96256ae8d5b80,611e7404e7bc26f6dfefae78,
,,,,space,0.4412,,0,108,108,224,1,W, , , , ,space,1500,1.5,6105a43c902c6bce6a038544,001,2021-08-19_16h09.06.303,natb3,2021.2.3,MacIntel,60.0024001,6105a43c902c6bce6a038544,611e07ecdcc96256ae8d5b80,611e7404e7bc26f6dfefae78,
,,,,space,0.5071,,0,109,109,139,1,V, , , , ,space,2000,2,6105a43c902c6bce6a038544,001,2021-08-19_16h09.06.303,natb3,2021.2.3,MacIntel,60.0024001,6105a43c902c6bce6a038544,611e07ecdcc96256ae8d5b80,611e7404e7bc26f6dfefae78,
,,,,space,0.4389,,0,110,110,115,1,R, , , , ,space,1500,1.5,6105a43c902c6bce6a038544,001,2021-08-19_16h09.06.303,natb3,2021.2.3,MacIntel,60.0024001,6105a43c902c6bce6a038544,611e07ecdcc96256ae8d5b80,611e7404e7bc26f6dfefae78,
,,,,space,0.4184,,0,111,111,324,1,Q, , , , ,space,2000,2,6105a43c902c6bce6a038544,001,2021-08-19_16h09.06.303,natb3,2021.2.3,MacIntel,60.0024001,6105a43c902c6bce6a038544,611e07ecdcc96256ae8d5b80,611e7404e7bc26f6dfefae78,
,,,,space,0.4189,,0,112,112,101,1,Q, , , , ,space,2500,2.5,6105a43c902c6bce6a038544,001,2021-08-19_16h09.06.303,natb3,2021.2.3,MacIntel,60.0024001,6105a43c902c6bce6a038544,611e07ecdcc96256ae8d5b80,611e7404e7bc26f6dfefae78,
,,,,,,,0,113,113,166,1,X, , , , ,,2000,2,6105a43c902c6bce6a038544,001,2021-08-19_16h09.06.303,natb3,2021.2.3,MacIntel,60.0024001,6105a43c902c6bce6a038544,611e07ecdcc96256ae8d5b80,611e7404e7bc26f6dfefae78,
,,,,space,0.4432,,0,114,114,119,1,Y, , , , ,space,2500,2.5,6105a43c902c6bce6a038544,001,2021-08-19_16h09.06.303,natb3,2021.2.3,MacIntel,60.0024001,6105a43c902c6bce6a038544,611e07ecdcc96256ae8d5b80,611e7404e7bc26f6dfefae78,
,,,,,,,0,115,115,15,1,X, , , , ,,1500,1.5,6105a43c902c6bce6a038544,001,2021-08-19_16h09.06.303,natb3,2021.2.3,MacIntel,60.0024001,6105a43c902c6bce6a038544,611e07ecdcc96256ae8d5b80,611e7404e7bc26f6dfefae78,
,,,,space,0.3848,,0,116,116,274,1,F, , , , ,space,2000,2,6105a43c902c6bce6a038544,001,2021-08-19_16h09.06.303,natb3,2021.2.3,MacIntel,60.0024001,6105a43c902c6bce6a038544,611e07ecdcc96256ae8d5b80,611e7404e7bc26f6dfefae78,
,,,,,,,0,117,117,118,1,X, , , , ,,2000,2,6105a43c902c6bce6a038544,001,2021-08-19_16h09.06.303,natb3,2021.2.3,MacIntel,60.0024001,6105a43c902c6bce6a038544,611e07ecdcc96256ae8d5b80,611e7404e7bc26f6dfefae78,
,,,,,,,0,118,118,46,1,X, , , , ,,2000,2,6105a43c902c6bce6a038544,001,2021-08-19_16h09.06.303,natb3,2021.2.3,MacIntel,60.0024001,6105a43c902c6bce6a038544,611e07ecdcc96256ae8d5b80,611e7404e7bc26f6dfefae78,
,,,,space,0.3752,,0,119,119,140,1,B, , , , ,space,2500,2.5,6105a43c902c6bce6a038544,001,2021-08-19_16h09.06.303,natb3,2021.2.3,MacIntel,60.0024001,6105a43c902c6bce6a038544,611e07ecdcc96256ae8d5b80,611e7404e7bc26f6dfefae78,
,,,,space,0.5282,,0,120,120,319,1,V, , , , ,space,2000,2,6105a43c902c6bce6a038544,001,2021-08-19_16h09.06.303,natb3,2021.2.3,MacIntel,60.0024001,6105a43c902c6bce6a038544,611e07ecdcc96256ae8d5b80,611e7404e7bc26f6dfefae78,
,,,,space,0.5093,,0,121,121,222,1,O, , , , ,space,2000,2,6105a43c902c6bce6a038544,001,2021-08-19_16h09.06.303,natb3,2021.2.3,MacIntel,60.0024001,6105a43c902c6bce6a038544,611e07ecdcc96256ae8d5b80,611e7404e7bc26f6dfefae78,
,,,,,,,0,122,122,182,1,X, , , , ,,1500,1.5,6105a43c902c6bce6a038544,001,2021-08-19_16h09.06.303,natb3,2021.2.3,MacIntel,60.0024001,6105a43c902c6bce6a038544,611e07ecdcc96256ae8d5b80,611e7404e7bc26f6dfefae78,
,,,,space,0.3879,,0,123,123,87,1,H, , , , ,space,1500,1.5,6105a43c902c6bce6a038544,001,2021-08-19_16h09.06.303,natb3,2021.2.3,MacIntel,60.0024001,6105a43c902c6bce6a038544,611e07ecdcc96256ae8d5b80,611e7404e7bc26f6dfefae78,
,,,,space,0.4938,,0,124,124,132,1,H, , , , ,space,2500,2.5,6105a43c902c6bce6a038544,001,2021-08-19_16h09.06.303,natb3,2021.2.3,MacIntel,60.0024001,6105a43c902c6bce6a038544,611e07ecdcc96256ae8d5b80,611e7404e7bc26f6dfefae78,
,,,,space,0.883,,0,125,125,174,1,B, , , , ,space,2500,2.5,6105a43c902c6bce6a038544,001,2021-08-19_16h09.06.303,natb3,2021.2.3,MacIntel,60.0024001,6105a43c902c6bce6a038544,611e07ecdcc96256ae8d5b80,611e7404e7bc26f6dfefae78,
,,,,space,0.4495,,0,126,126,152,1,U, , , , ,space,2000,2,6105a43c902c6bce6a038544,001,2021-08-19_16h09.06.303,natb3,2021.2.3,MacIntel,60.0024001,6105a43c902c6bce6a038544,611e07ecdcc96256ae8d5b80,611e7404e7bc26f6dfefae78,
,,,,,,,0,127,127,78,1,X, , , , ,,2000,2,6105a43c902c6bce6a038544,001,2021-08-19_16h09.06.303,natb3,2021.2.3,MacIntel,60.0024001,6105a43c902c6bce6a038544,611e07ecdcc96256ae8d5b80,611e7404e7bc26f6dfefae78,
,,,,space,0.3676,,0,128,128,300,1,O, , , , ,space,2500,2.5,6105a43c902c6bce6a038544,001,2021-08-19_16h09.06.303,natb3,2021.2.3,MacIntel,60.0024001,6105a43c902c6bce6a038544,611e07ecdcc96256ae8d5b80,611e7404e7bc26f6dfefae78,
,,,,space,0.3666,,0,129,129,255,1,X, , , , ,,1500,1.5,6105a43c902c6bce6a038544,001,2021-08-19_16h09.06.303,natb3,2021.2.3,MacIntel,60.0024001,6105a43c902c6bce6a038544,611e07ecdcc96256ae8d5b80,611e7404e7bc26f6dfefae78,
,,,,space,0.3168,,0,130,130,75,1,U, , , , ,space,1500,1.5,6105a43c902c6bce6a038544,001,2021-08-19_16h09.06.303,natb3,2021.2.3,MacIntel,60.0024001,6105a43c902c6bce6a038544,611e07ecdcc96256ae8d5b80,611e7404e7bc26f6dfefae78,
,,,,space,0.482,,0,131,131,146,1,W, , , , ,space,1500,1.5,6105a43c902c6bce6a038544,001,2021-08-19_16h09.06.303,natb3,2021.2.3,MacIntel,60.0024001,6105a43c902c6bce6a038544,611e07ecdcc96256ae8d5b80,611e7404e7bc26f6dfefae78,
,,,,space,0.3619,,0,132,132,202,1,L, , , , ,space,2500,2.5,6105a43c902c6bce6a038544,001,2021-08-19_16h09.06.303,natb3,2021.2.3,MacIntel,60.0024001,6105a43c902c6bce6a038544,611e07ecdcc96256ae8d5b80,611e7404e7bc26f6dfefae78,
,,,,,,,0,133,133,162,1,X,1,6, ,2,,1500,1.5,6105a43c902c6bce6a038544,001,2021-08-19_16h09.06.303,natb3,2021.2.3,MacIntel,60.0024001,6105a43c902c6bce6a038544,611e07ecdcc96256ae8d5b80,611e7404e7bc26f6dfefae78,
,,,,,,,0,134,134,7,1,X, , , , ,,1500,1.5,6105a43c902c6bce6a038544,001,2021-08-19_16h09.06.303,natb3,2021.2.3,MacIntel,60.0024001,6105a43c902c6bce6a038544,611e07ecdcc96256ae8d5b80,611e7404e7bc26f6dfefae78,
,,,,space,0.3049,,0,135,135,89,1,X,3, , , ,,2000,2,6105a43c902c6bce6a038544,001,2021-08-19_16h09.06.303,natb3,2021.2.3,MacIntel,60.0024001,6105a43c902c6bce6a038544,611e07ecdcc96256ae8d5b80,611e7404e7bc26f6dfefae78,
,,,,,,,0,136,136,207,1,X,9, ,2, ,,2500,2.5,6105a43c902c6bce6a038544,001,2021-08-19_16h09.06.303,natb3,2021.2.3,MacIntel,60.0024001,6105a43c902c6bce6a038544,611e07ecdcc96256ae8d5b80,611e7404e7bc26f6dfefae78,
,,,,space,0.4988,,0,137,137,40,1,T, , , , ,space,1500,1.5,6105a43c902c6bce6a038544,001,2021-08-19_16h09.06.303,natb3,2021.2.3,MacIntel,60.0024001,6105a43c902c6bce6a038544,611e07ecdcc96256ae8d5b80,611e7404e7bc26f6dfefae78,
,,,,,,,0,138,138,4,1,X, , , , ,,2000,2,6105a43c902c6bce6a038544,001,2021-08-19_16h09.06.303,natb3,2021.2.3,MacIntel,60.0024001,6105a43c902c6bce6a038544,611e07ecdcc96256ae8d5b80,611e7404e7bc26f6dfefae78,
,,,,,,,0,139,139,102,1,X, ,6, , ,,1500,1.5,6105a43c902c6bce6a038544,001,2021-08-19_16h09.06.303,natb3,2021.2.3,MacIntel,60.0024001,6105a43c902c6bce6a038544,611e07ecdcc96256ae8d5b80,611e7404e7bc26f6dfefae78,
,,,,space,0.5223,,0,140,140,61,1,C, , , , ,space,2000,2,6105a43c902c6bce6a038544,001,2021-08-19_16h09.06.303,natb3,2021.2.3,MacIntel,60.0024001,6105a43c902c6bce6a038544,611e07ecdcc96256ae8d5b80,611e7404e7bc26f6dfefae78,
,,,,space,0.5396,,0,141,141,208,1,B, , , , ,space,1500,1.5,6105a43c902c6bce6a038544,001,2021-08-19_16h09.06.303,natb3,2021.2.3,MacIntel,60.0024001,6105a43c902c6bce6a038544,611e07ecdcc96256ae8d5b80,611e7404e7bc26f6dfefae78,
,,,,space,0.5925,,0,142,142,0,1,Q, , , , ,space,1500,1.5,6105a43c902c6bce6a038544,001,2021-08-19_16h09.06.303,natb3,2021.2.3,MacIntel,60.0024001,6105a43c902c6bce6a038544,611e07ecdcc96256ae8d5b80,611e7404e7bc26f6dfefae78,
,,,,space,0.5928,,0,143,143,260,1,R, , , , ,space,2000,2,6105a43c902c6bce6a038544,001,2021-08-19_16h09.06.303,natb3,2021.2.3,MacIntel,60.0024001,6105a43c902c6bce6a038544,611e07ecdcc96256ae8d5b80,611e7404e7bc26f6dfefae78,
,,,,space,0.504,,0,144,144,288,1,M, , , , ,space,1500,1.5,6105a43c902c6bce6a038544,001,2021-08-19_16h09.06.303,natb3,2021.2.3,MacIntel,60.0024001,6105a43c902c6bce6a038544,611e07ecdcc96256ae8d5b80,611e7404e7bc26f6dfefae78,
,,,,space,0.4573,,0,145,145,130,1,F, , , , ,space,2000,2,6105a43c902c6bce6a038544,001,2021-08-19_16h09.06.303,natb3,2021.2.3,MacIntel,60.0024001,6105a43c902c6bce6a038544,611e07ecdcc96256ae8d5b80,611e7404e7bc26f6dfefae78,
,,,,space,0.4143,,0,146,146,94,1,C, , , , ,space,2000,2,6105a43c902c6bce6a038544,001,2021-08-19_16h09.06.303,natb3,2021.2.3,MacIntel,60.0024001,6105a43c902c6bce6a038544,611e07ecdcc96256ae8d5b80,611e7404e7bc26f6dfefae78,
,,,,space,0.3722,,0,147,147,178,1,Q, , , , ,space,1500,1.5,6105a43c902c6bce6a038544,001,2021-08-19_16h09.06.303,natb3,2021.2.3,MacIntel,60.0024001,6105a43c902c6bce6a038544,611e07ecdcc96256ae8d5b80,611e7404e7bc26f6dfefae78,
,,,,space,0.5815,,0,148,148,185,1,Y, , , , ,space,2500,2.5,6105a43c902c6bce6a038544,001,2021-08-19_16h09.06.303,natb3,2021.2.3,MacIntel,60.0024001,6105a43c902c6bce6a038544,611e07ecdcc96256ae8d5b80,611e7404e7bc26f6dfefae78,
,,,,,,,0,149,149,145,1,X, , , , ,,2000,2,6105a43c902c6bce6a038544,001,2021-08-19_16h09.06.303,natb3,2021.2.3,MacIntel,60.0024001,6105a43c902c6bce6a038544,611e07ecdcc96256ae8d5b80,611e7404e7bc26f6dfefae78,
,,,,space,0.5472,,0,150,150,204,1,Z, , , , ,space,2000,2,6105a43c902c6bce6a038544,001,2021-08-19_16h09.06.303,natb3,2021.2.3,MacIntel,60.0024001,6105a43c902c6bce6a038544,611e07ecdcc96256ae8d5b80,611e7404e7bc26f6dfefae78,
,,,,space,0.5437,,0,151,151,80,1,A, , , , ,space,2000,2,6105a43c902c6bce6a038544,001,2021-08-19_16h09.06.303,natb3,2021.2.3,MacIntel,60.0024001,6105a43c902c6bce6a038544,611e07ecdcc96256ae8d5b80,611e7404e7bc26f6dfefae78,
,,,,space,0.7498,,0,152,152,160,1,D, , , , ,space,1500,1.5,6105a43c902c6bce6a038544,001,2021-08-19_16h09.06.303,natb3,2021.2.3,MacIntel,60.0024001,6105a43c902c6bce6a038544,611e07ecdcc96256ae8d5b80,611e7404e7bc26f6dfefae78,
,,,,space,0.5184,,0,153,153,247,1,Z, , , , ,space,1500,1.5,6105a43c902c6bce6a038544,001,2021-08-19_16h09.06.303,natb3,2021.2.3,MacIntel,60.0024001,6105a43c902c6bce6a038544,611e07ecdcc96256ae8d5b80,611e7404e7bc26f6dfefae78,
,,,,space,0.4339,,0,154,154,231,1,I, , , , ,space,2500,2.5,6105a43c902c6bce6a038544,001,2021-08-19_16h09.06.303,natb3,2021.2.3,MacIntel,60.0024001,6105a43c902c6bce6a038544,611e07ecdcc96256ae8d5b80,611e7404e7bc26f6dfefae78,
,,,,space,0.4835,,0,155,155,294,1,T, , , , ,space,2000,2,6105a43c902c6bce6a038544,001,2021-08-19_16h09.06.303,natb3,2021.2.3,MacIntel,60.0024001,6105a43c902c6bce6a038544,611e07ecdcc96256ae8d5b80,611e7404e7bc26f6dfefae78,
,,,,space,0.4006,,0,156,156,70,1,E, , , , ,space,2500,2.5,6105a43c902c6bce6a038544,001,2021-08-19_16h09.06.303,natb3,2021.2.3,MacIntel,60.0024001,6105a43c902c6bce6a038544,611e07ecdcc96256ae8d5b80,611e7404e7bc26f6dfefae78,
,,,,space,0.4333,,0,157,157,128,1,D, , , , ,space,2500,2.5,6105a43c902c6bce6a038544,001,2021-08-19_16h09.06.303,natb3,2021.2.3,MacIntel,60.0024001,6105a43c902c6bce6a038544,611e07ecdcc96256ae8d5b80,611e7404e7bc26f6dfefae78,
,,,,space,0.4953,,0,158,158,143,1,M, , , , ,space,2500,2.5,6105a43c902c6bce6a038544,001,2021-08-19_16h09.06.303,natb3,2021.2.3,MacIntel,60.0024001,6105a43c902c6bce6a038544,611e07ecdcc96256ae8d5b80,611e7404e7bc26f6dfefae78,
,,,,,,,0,159,159,133,1,X, ,4, ,6,,2500,2.5,6105a43c902c6bce6a038544,001,2021-08-19_16h09.06.303,natb3,2021.2.3,MacIntel,60.0024001,6105a43c902c6bce6a038544,611e07ecdcc96256ae8d5b80,611e7404e7bc26f6dfefae78,
,,,,,,,0,160,160,203,1,X, , , , ,,2500,2.5,6105a43c902c6bce6a038544,001,2021-08-19_16h09.06.303,natb3,2021.2.3,MacIntel,60.0024001,6105a43c902c6bce6a038544,611e07ecdcc96256ae8d5b80,611e7404e7bc26f6dfefae78,
,,,,,,,0,161,161,179,1,X, ,9, ,2,,1500,1.5,6105a43c902c6bce6a038544,001,2021-08-19_16h09.06.303,natb3,2021.2.3,MacIntel,60.0024001,6105a43c902c6bce6a038544,611e07ecdcc96256ae8d5b80,611e7404e7bc26f6dfefae78,
,,,,space,0.5037,,0,162,162,331,1,Y, , , , ,space,2500,2.5,6105a43c902c6bce6a038544,001,2021-08-19_16h09.06.303,natb3,2021.2.3,MacIntel,60.0024001,6105a43c902c6bce6a038544,611e07ecdcc96256ae8d5b80,611e7404e7bc26f6dfefae78,
,,,,,,,0,163,163,229,1,X,8, ,2,6,,2500,2.5,6105a43c902c6bce6a038544,001,2021-08-19_16h09.06.303,natb3,2021.2.3,MacIntel,60.0024001,6105a43c902c6bce6a038544,611e07ecdcc96256ae8d5b80,611e7404e7bc26f6dfefae78,
,,,,space,0.4646,,0,164,164,88,1,J, , , , ,space,2500,2.5,6105a43c902c6bce6a038544,001,2021-08-19_16h09.06.303,natb3,2021.2.3,MacIntel,60.0024001,6105a43c902c6bce6a038544,611e07ecdcc96256ae8d5b80,611e7404e7bc26f6dfefae78,
,,,,space,0.5669,,0,165,165,264,1,U, , , , ,space,2000,2,6105a43c902c6bce6a038544,001,2021-08-19_16h09.06.303,natb3,2021.2.3,MacIntel,60.0024001,6105a43c902c6bce6a038544,611e07ecdcc96256ae8d5b80,611e7404e7bc26f6dfefae78,
,,,,space,0.5608,,0,166,166,276,1,H, , , , ,space,2000,2,6105a43c902c6bce6a038544,001,2021-08-19_16h09.06.303,natb3,2021.2.3,MacIntel,60.0024001,6105a43c902c6bce6a038544,611e07ecdcc96256ae8d5b80,611e7404e7bc26f6dfefae78,
,,,,space,0.3761,space,0,167,167,209,1,N, , , , ,space,2000,2,6105a43c902c6bce6a038544,001,2021-08-19_16h09.06.303,natb3,2021.2.3,MacIntel,60.0024001,6105a43c902c6bce6a038544,611e07ecdcc96256ae8d5b80,611e7404e7bc26f6dfefae78,224.3305
,,,,space,0.8292,,0,168,168,77,1,O, , , , ,space,2000,2,6105a43c902c6bce6a038544,001,2021-08-19_16h09.06.303,natb3,2021.2.3,MacIntel,60.0024001,6105a43c902c6bce6a038544,611e07ecdcc96256ae8d5b80,611e7404e7bc26f6dfefae78,
,,,,space,0.5252,,0,169,169,183,1,R, , , , ,space,1500,1.5,6105a43c902c6bce6a038544,001,2021-08-19_16h09.06.303,natb3,2021.2.3,MacIntel,60.0024001,6105a43c902c6bce6a038544,611e07ecdcc96256ae8d5b80,611e7404e7bc26f6dfefae78,
,,,,space,0.5174,,0,170,170,134,1,J, , , , ,space,2000,2,6105a43c902c6bce6a038544,001,2021-08-19_16h09.06.303,natb3,2021.2.3,MacIntel,60.0024001,6105a43c902c6bce6a038544,611e07ecdcc96256ae8d5b80,611e7404e7bc26f6dfefae78,
,,,,,,,0,171,171,74,1,X, ,4,3,2,,1500,1.5,6105a43c902c6bce6a038544,001,2021-08-19_16h09.06.303,natb3,2021.2.3,MacIntel,60.0024001,6105a43c902c6bce6a038544,611e07ecdcc96256ae8d5b80,611e7404e7bc26f6dfefae78,
,,,,,,,0,172,172,168,1,X, , , , ,,2500,2.5,6105a43c902c6bce6a038544,001,2021-08-19_16h09.06.303,natb3,2021.2.3,MacIntel,60.0024001,6105a43c902c6bce6a038544,611e07ecdcc96256ae8d5b80,611e7404e7bc26f6dfefae78,
,,,,,,,0,173,173,267,1,P, , , , ,space,2000,2,6105a43c902c6bce6a038544,001,2021-08-19_16h09.06.303,natb3,2021.2.3,MacIntel,60.0024001,6105a43c902c6bce6a038544,611e07ecdcc96256ae8d5b80,611e7404e7bc26f6dfefae78,
,,,,,,,0,174,174,269,1,A, , , , ,space,2500,2.5,6105a43c902c6bce6a038544,001,2021-08-19_16h09.06.303,natb3,2021.2.3,MacIntel,60.0024001,6105a43c902c6bce6a038544,611e07ecdcc96256ae8d5b80,611e7404e7bc26f6dfefae78,
,,,,,,,0,175,175,161,1,F, , , , ,space,1500,1.5,6105a43c902c6bce6a038544,001,2021-08-19_16h09.06.303,natb3,2021.2.3,MacIntel,60.0024001,6105a43c902c6bce6a038544,611e07ecdcc96256ae8d5b80,611e7404e7bc26f6dfefae78,
,,,,,,,0,176,176,278,1,J, , , , ,space,2000,2,6105a43c902c6bce6a038544,001,2021-08-19_16h09.06.303,natb3,2021.2.3,MacIntel,60.0024001,6105a43c902c6bce6a038544,611e07ecdcc96256ae8d5b80,611e7404e7bc26f6dfefae78,
,,,,,,,0,177,177,69,1,X, , , , ,,1500,1.5,6105a43c902c6bce6a038544,001,2021-08-19_16h09.06.303,natb3,2021.2.3,MacIntel,60.0024001,6105a43c902c6bce6a038544,611e07ecdcc96256ae8d5b80,611e7404e7bc26f6dfefae78,
,,,,,,,0,178,178,236,1,X,3, ,4,7,,2500,2.5,6105a43c902c6bce6a038544,001,2021-08-19_16h09.06.303,natb3,2021.2.3,MacIntel,60.0024001,6105a43c902c6bce6a038544,611e07ecdcc96256ae8d5b80,611e7404e7bc26f6dfefae78,
,,,,,,,0,179,179,17,1,F, , , , ,space,2500,2.5,6105a43c902c6bce6a038544,001,2021-08-19_16h09.06.303,natb3,2021.2.3,MacIntel,60.0024001,6105a43c902c6bce6a038544,611e07ecdcc96256ae8d5b80,611e7404e7bc26f6dfefae78,
,,,,,,,0,180,180,314,1,L, , , , ,space,1500,1.5,6105a43c902c6bce6a038544,001,2021-08-19_16h09.06.303,natb3,2021.2.3,MacIntel,60.0024001,6105a43c902c6bce6a038544,611e07ecdcc96256ae8d5b80,611e7404e7bc26f6dfefae78,
,,,,,,,0,181,181,172,1,C, , , , ,space,1500,1.5,6105a43c902c6bce6a038544,001,2021-08-19_16h09.06.303,natb3,2021.2.3,MacIntel,60.0024001,6105a43c902c6bce6a038544,611e07ecdcc96256ae8d5b80,611e7404e7bc26f6dfefae78,
,,,,space,0.6285,,0,182,182,169,1,L, , , , ,space,2500,2.5,6105a43c902c6bce6a038544,001,2021-08-19_16h09.06.303,natb3,2021.2.3,MacIntel,60.0024001,6105a43c902c6bce6a038544,611e07ecdcc96256ae8d5b80,611e7404e7bc26f6dfefae78,
,,,,,,,0,183,183,254,1,M, , , , ,space,1500,1.5,6105a43c902c6bce6a038544,001,2021-08-19_16h09.06.303,natb3,2021.2.3,MacIntel,60.0024001,6105a43c902c6bce6a038544,611e07ecdcc96256ae8d5b80,611e7404e7bc26f6dfefae78,
,,,,,,,0,184,184,194,1,D, , , , ,space,2000,2,6105a43c902c6bce6a038544,001,2021-08-19_16h09.06.303,natb3,2021.2.3,MacIntel,60.0024001,6105a43c902c6bce6a038544,611e07ecdcc96256ae8d5b80,611e7404e7bc26f6dfefae78,
,,,,,,,0,185,185,150,1,T, , , , ,space,2500,2.5,6105a43c902c6bce6a038544,001,2021-08-19_16h09.06.303,natb3,2021.2.3,MacIntel,60.0024001,6105a43c902c6bce6a038544,611e07ecdcc96256ae8d5b80,611e7404e7bc26f6dfefae78,
,,,,,,,0,186,186,206,1,V, , , , ,space,2000,2,6105a43c902c6bce6a038544,001,2021-08-19_16h09.06.303,natb3,2021.2.3,MacIntel,60.0024001,6105a43c902c6bce6a038544,611e07ecdcc96256ae8d5b80,611e7404e7bc26f6dfefae78,
,,,,,,,0,187,187,148,1,X, , , , ,,2000,2,6105a43c902c6bce6a038544,001,2021-08-19_16h09.06.303,natb3,2021.2.3,MacIntel,60.0024001,6105a43c902c6bce6a038544,611e07ecdcc96256ae8d5b80,611e7404e7bc26f6dfefae78,
,,,,space,0.7261,,0,188,188,197,1,G, , , , ,space,2500,2.5,6105a43c902c6bce6a038544,001,2021-08-19_16h09.06.303,natb3,2021.2.3,MacIntel,60.0024001,6105a43c902c6bce6a038544,611e07ecdcc96256ae8d5b80,611e7404e7bc26f6dfefae78,
,,,,space,0.475,,0,189,189,159,1,S, , , , ,space,2500,2.5,6105a43c902c6bce6a038544,001,2021-08-19_16h09.06.303,natb3,2021.2.3,MacIntel,60.0024001,6105a43c902c6bce6a038544,611e07ecdcc96256ae8d5b80,611e7404e7bc26f6dfefae78,
,,,,,,,0,190,190,51,1,X,7,5,8, ,,1500,1.5,6105a43c902c6bce6a038544,001,2021-08-19_16h09.06.303,natb3,2021.2.3,MacIntel,60.0024001,6105a43c902c6bce6a038544,611e07ecdcc96256ae8d5b80,611e7404e7bc26f6dfefae78,
,,,,,,,0,191,191,157,1,A, , , , ,space,2500,2.5,6105a43c902c6bce6a038544,001,2021-08-19_16h09.06.303,natb3,2021.2.3,MacIntel,60.0024001,6105a43c902c6bce6a038544,611e07ecdcc96256ae8d5b80,611e7404e7bc26f6dfefae78,
,,,,space,0.9432,,0,192,192,258,1,E, , , , ,space,1500,1.5,6105a43c902c6bce6a038544,001,2021-08-19_16h09.06.303,natb3,2021.2.3,MacIntel,60.0024001,6105a43c902c6bce6a038544,611e07ecdcc96256ae8d5b80,611e7404e7bc26f6dfefae78,
,,,,,,,0,193,193,335,1,P,,,,,space,1500,1.5,6105a43c902c6bce6a038544,001,2021-08-19_16h09.06.303,natb3,2021.2.3,MacIntel,60.0024001,6105a43c902c6bce6a038544,611e07ecdcc96256ae8d5b80,611e7404e7bc26f6dfefae78,
,,,,space,0.7269,,0,194,194,45,1,O, , , , ,space,2000,2,6105a43c902c6bce6a038544,001,2021-08-19_16h09.06.303,natb3,2021.2.3,MacIntel,60.0024001,6105a43c902c6bce6a038544,611e07ecdcc96256ae8d5b80,611e7404e7bc26f6dfefae78,
,,,,,,,0,195,195,282,1,X, , , , ,,2500,2.5,6105a43c902c6bce6a038544,001,2021-08-19_16h09.06.303,natb3,2021.2.3,MacIntel,60.0024001,6105a43c902c6bce6a038544,611e07ecdcc96256ae8d5b80,611e7404e7bc26f6dfefae78,
,,,,space,0.5582,,0,196,196,113,1,W, , , , ,space,2500,2.5,6105a43c902c6bce6a038544,001,2021-08-19_16h09.06.303,natb3,2021.2.3,MacIntel,60.0024001,6105a43c902c6bce6a038544,611e07ecdcc96256ae8d5b80,611e7404e7bc26f6dfefae78,
,,,,,,,0,197,197,66,1,X, ,4,7, ,,2000,2,6105a43c902c6bce6a038544,001,2021-08-19_16h09.06.303,natb3,2021.2.3,MacIntel,60.0024001,6105a43c902c6bce6a038544,611e07ecdcc96256ae8d5b80,611e7404e7bc26f6dfefae78,
,,,,space,0.5042,,0,198,198,86,1,G, , , , ,space,2000,2,6105a43c902c6bce6a038544,001,2021-08-19_16h09.06.303,natb3,2021.2.3,MacIntel,60.0024001,6105a43c902c6bce6a038544,611e07ecdcc96256ae8d5b80,611e7404e7bc26f6dfefae78,
,,,,space,0.4076,,0,199,199,117,1,T, , , , ,space,2500,2.5,6105a43c902c6bce6a038544,001,2021-08-19_16h09.06.303,natb3,2021.2.3,MacIntel,60.0024001,6105a43c902c6bce6a038544,611e07ecdcc96256ae8d5b80,611e7404e7bc26f6dfefae78,
,,,,space,0.4228,,0,200,200,50,1,D, , , , ,space,1500,1.5,6105a43c902c6bce6a038544,001,2021-08-19_16h09.06.303,natb3,2021.2.3,MacIntel,60.0024001,6105a43c902c6bce6a038544,611e07ecdcc96256ae8d5b80,611e7404e7bc26f6dfefae78,
,,,,,,,0,201,201,268,1,X,6, ,3, ,,2500,2.5,6105a43c902c6bce6a038544,001,2021-08-19_16h09.06.303,natb3,2021.2.3,MacIntel,60.0024001,6105a43c902c6bce6a038544,611e07ecdcc96256ae8d5b80,611e7404e7bc26f6dfefae78,
,,,,,,,0,202,202,175,1,X,7, ,4,2,,1500,1.5,6105a43c902c6bce6a038544,001,2021-08-19_16h09.06.303,natb3,2021.2.3,MacIntel,60.0024001,6105a43c902c6bce6a038544,611e07ecdcc96256ae8d5b80,611e7404e7bc26f6dfefae78,
,,,,,,,0,203,203,195,1,X, , , , ,,1500,1.5,6105a43c902c6bce6a038544,001,2021-08-19_16h09.06.303,natb3,2021.2.3,MacIntel,60.0024001,6105a43c902c6bce6a038544,611e07ecdcc96256ae8d5b80,611e7404e7bc26f6dfefae78,
,,,,space,0.4164,,0,204,204,100,1,M, , , , ,space,2000,2,6105a43c902c6bce6a038544,001,2021-08-19_16h09.06.303,natb3,2021.2.3,MacIntel,60.0024001,6105a43c902c6bce6a038544,611e07ecdcc96256ae8d5b80,611e7404e7bc26f6dfefae78,
,,,,,,,0,205,205,5,1,T, , , , ,space,2000,2,6105a43c902c6bce6a038544,001,2021-08-19_16h09.06.303,natb3,2021.2.3,MacIntel,60.0024001,6105a43c902c6bce6a038544,611e07ecdcc96256ae8d5b80,611e7404e7bc26f6dfefae78,
,,,,space,0.6728,,0,206,206,228,1,Y, , , , ,space,2000,2,6105a43c902c6bce6a038544,001,2021-08-19_16h09.06.303,natb3,2021.2.3,MacIntel,60.0024001,6105a43c902c6bce6a038544,611e07ecdcc96256ae8d5b80,611e7404e7bc26f6dfefae78,
,,,,,,,0,207,207,256,1,Q, , , , ,space,2000,2,6105a43c902c6bce6a038544,001,2021-08-19_16h09.06.303,natb3,2021.2.3,MacIntel,60.0024001,6105a43c902c6bce6a038544,611e07ecdcc96256ae8d5b80,611e7404e7bc26f6dfefae78,
,,,,space,0.4844,,0,208,208,225,1,E, , , , ,space,2000,2,6105a43c902c6bce6a038544,001,2021-08-19_16h09.06.303,natb3,2021.2.3,MacIntel,60.0024001,6105a43c902c6bce6a038544,611e07ecdcc96256ae8d5b80,611e7404e7bc26f6dfefae78,
,,,,space,0.6748,,0,209,209,312,1,K, , , , ,space,2000,2,6105a43c902c6bce6a038544,001,2021-08-19_16h09.06.303,natb3,2021.2.3,MacIntel,60.0024001,6105a43c902c6bce6a038544,611e07ecdcc96256ae8d5b80,611e7404e7bc26f6dfefae78,
,,,,,,,0,210,210,218,1,X,1,3, ,8,,1500,1.5,6105a43c902c6bce6a038544,001,2021-08-19_16h09.06.303,natb3,2021.2.3,MacIntel,60.0024001,6105a43c902c6bce6a038544,611e07ecdcc96256ae8d5b80,611e7404e7bc26f6dfefae78,
,,,,,,,0,211,211,131,1,G, , , , ,space,1500,1.5,6105a43c902c6bce6a038544,001,2021-08-19_16h09.06.303,natb3,2021.2.3,MacIntel,60.0024001,6105a43c902c6bce6a038544,611e07ecdcc96256ae8d5b80,611e7404e7bc26f6dfefae78,
,,,,,,,0,212,212,116,1,X, , , , ,,2000,2,6105a43c902c6bce6a038544,001,2021-08-19_16h09.06.303,natb3,2021.2.3,MacIntel,60.0024001,6105a43c902c6bce6a038544,611e07ecdcc96256ae8d5b80,611e7404e7bc26f6dfefae78,
,,,,,,,0,213,213,315,1,X, , , , ,,2500,2.5,6105a43c902c6bce6a038544,001,2021-08-19_16h09.06.303,natb3,2021.2.3,MacIntel,60.0024001,6105a43c902c6bce6a038544,611e07ecdcc96256ae8d5b80,611e7404e7bc26f6dfefae78,
,,,,space,0.5913,,0,214,214,293,1,R, , , , ,space,2500,2.5,6105a43c902c6bce6a038544,001,2021-08-19_16h09.06.303,natb3,2021.2.3,MacIntel,60.0024001,6105a43c902c6bce6a038544,611e07ecdcc96256ae8d5b80,611e7404e7bc26f6dfefae78,
,,,,space,0.6403,,0,215,215,298,1,I, , , , ,space,2000,2,6105a43c902c6bce6a038544,001,2021-08-19_16h09.06.303,natb3,2021.2.3,MacIntel,60.0024001,6105a43c902c6bce6a038544,611e07ecdcc96256ae8d5b80,611e7404e7bc26f6dfefae78,
,,,,space,0.4828,,0,216,216,237,1,S, , , , ,space,1500,1.5,6105a43c902c6bce6a038544,001,2021-08-19_16h09.06.303,natb3,2021.2.3,MacIntel,60.0024001,6105a43c902c6bce6a038544,611e07ecdcc96256ae8d5b80,611e7404e7bc26f6dfefae78,
,,,,,,,0,217,217,211,1,X, , , , ,,2500,2.5,6105a43c902c6bce6a038544,001,2021-08-19_16h09.06.303,natb3,2021.2.3,MacIntel,60.0024001,6105a43c902c6bce6a038544,611e07ecdcc96256ae8d5b80,611e7404e7bc26f6dfefae78,
,,,,space,0.4587,,0,218,218,49,1,S, , , , ,space,1500,1.5,6105a43c902c6bce6a038544,001,2021-08-19_16h09.06.303,natb3,2021.2.3,MacIntel,60.0024001,6105a43c902c6bce6a038544,611e07ecdcc96256ae8d5b80,611e7404e7bc26f6dfefae78,
,,,,,,,0,219,219,92,1,Z, , , , ,space,1500,1.5,6105a43c902c6bce6a038544,001,2021-08-19_16h09.06.303,natb3,2021.2.3,MacIntel,60.0024001,6105a43c902c6bce6a038544,611e07ecdcc96256ae8d5b80,611e7404e7bc26f6dfefae78,
,,,,space,0.3538,,0,220,220,192,1,A, , , , ,space,2000,2,6105a43c902c6bce6a038544,001,2021-08-19_16h09.06.303,natb3,2021.2.3,MacIntel,60.0024001,6105a43c902c6bce6a038544,611e07ecdcc96256ae8d5b80,611e7404e7bc26f6dfefae78,
,,,,space,0.3508,,0,221,221,109,1,U, , , , ,space,1500,1.5,6105a43c902c6bce6a038544,001,2021-08-19_16h09.06.303,natb3,2021.2.3,MacIntel,60.0024001,6105a43c902c6bce6a038544,611e07ecdcc96256ae8d5b80,611e7404e7bc26f6dfefae78,
,,,,space,0.4172,,0,222,222,20,1,H, , , , ,space,1500,1.5,6105a43c902c6bce6a038544,001,2021-08-19_16h09.06.303,natb3,2021.2.3,MacIntel,60.0024001,6105a43c902c6bce6a038544,611e07ecdcc96256ae8d5b80,611e7404e7bc26f6dfefae78,
,,,,space,0.3322,,0,223,223,188,1,I, , , , ,space,2500,2.5,6105a43c902c6bce6a038544,001,2021-08-19_16h09.06.303,natb3,2021.2.3,MacIntel,60.0024001,6105a43c902c6bce6a038544,611e07ecdcc96256ae8d5b80,611e7404e7bc26f6dfefae78,
,,,,,,,0,224,224,248,1,X, ,1,5, ,,1500,1.5,6105a43c902c6bce6a038544,001,2021-08-19_16h09.06.303,natb3,2021.2.3,MacIntel,60.0024001,6105a43c902c6bce6a038544,611e07ecdcc96256ae8d5b80,611e7404e7bc26f6dfefae78,
,,,,space,0.3649,,0,225,225,64,1,N, , , , ,space,2000,2,6105a43c902c6bce6a038544,001,2021-08-19_16h09.06.303,natb3,2021.2.3,MacIntel,60.0024001,6105a43c902c6bce6a038544,611e07ecdcc96256ae8d5b80,611e7404e7bc26f6dfefae78,
,,,,space,0.4509,,0,226,226,167,1,K, , , , ,space,1500,1.5,6105a43c902c6bce6a038544,001,2021-08-19_16h09.06.303,natb3,2021.2.3,MacIntel,60.0024001,6105a43c902c6bce6a038544,611e07ecdcc96256ae8d5b80,611e7404e7bc26f6dfefae78,
,,,,space,0.5501,,0,227,227,68,1,W, , , , ,space,2500,2.5,6105a43c902c6bce6a038544,001,2021-08-19_16h09.06.303,natb3,2021.2.3,MacIntel,60.0024001,6105a43c902c6bce6a038544,611e07ecdcc96256ae8d5b80,611e7404e7bc26f6dfefae78,
,,,,,,,0,228,228,318,1,X, , , , ,,1500,1.5,6105a43c902c6bce6a038544,001,2021-08-19_16h09.06.303,natb3,2021.2.3,MacIntel,60.0024001,6105a43c902c6bce6a038544,611e07ecdcc96256ae8d5b80,611e7404e7bc26f6dfefae78,
,,,,space,0.6239,,0,229,229,73,1,Y, , , , ,space,2000,2,6105a43c902c6bce6a038544,001,2021-08-19_16h09.06.303,natb3,2021.2.3,MacIntel,60.0024001,6105a43c902c6bce6a038544,611e07ecdcc96256ae8d5b80,611e7404e7bc26f6dfefae78,
,,,,space,0.3737,,0,230,230,57,1,K, , , , ,space,2500,2.5,6105a43c902c6bce6a038544,001,2021-08-19_16h09.06.303,natb3,2021.2.3,MacIntel,60.0024001,6105a43c902c6bce6a038544,611e07ecdcc96256ae8d5b80,611e7404e7bc26f6dfefae78,
,,,,,,,0,231,231,299,1,X, , , , ,,2500,2.5,6105a43c902c6bce6a038544,001,2021-08-19_16h09.06.303,natb3,2021.2.3,MacIntel,60.0024001,6105a43c902c6bce6a038544,611e07ecdcc96256ae8d5b80,611e7404e7bc26f6dfefae78,
,,,,space,0.6237,,0,232,232,106,1,T, , , , ,space,1500,1.5,6105a43c902c6bce6a038544,001,2021-08-19_16h09.06.303,natb3,2021.2.3,MacIntel,60.0024001,6105a43c902c6bce6a038544,611e07ecdcc96256ae8d5b80,611e7404e7bc26f6dfefae78,
,,,,space,0.4508,,0,233,233,230,1,U, , , , ,space,1500,1.5,6105a43c902c6bce6a038544,001,2021-08-19_16h09.06.303,natb3,2021.2.3,MacIntel,60.0024001,6105a43c902c6bce6a038544,611e07ecdcc96256ae8d5b80,611e7404e7bc26f6dfefae78,
,,,,space,0.459,,0,234,234,14,1,S, , , , ,space,2500,2.5,6105a43c902c6bce6a038544,001,2021-08-19_16h09.06.303,natb3,2021.2.3,MacIntel,60.0024001,6105a43c902c6bce6a038544,611e07ecdcc96256ae8d5b80,611e7404e7bc26f6dfefae78,
,,,,space,0.5297,,0,235,235,103,1,W, , , , ,space,2000,2,6105a43c902c6bce6a038544,001,2021-08-19_16h09.06.303,natb3,2021.2.3,MacIntel,60.0024001,6105a43c902c6bce6a038544,611e07ecdcc96256ae8d5b80,611e7404e7bc26f6dfefae78,
,,,,space,0.3075,,0,236,236,253,1,N, , , , ,space,2500,2.5,6105a43c902c6bce6a038544,001,2021-08-19_16h09.06.303,natb3,2021.2.3,MacIntel,60.0024001,6105a43c902c6bce6a038544,611e07ecdcc96256ae8d5b80,611e7404e7bc26f6dfefae78,
,,,,space,0.4653,,0,237,237,42,1,U, , , , ,space,1500,1.5,6105a43c902c6bce6a038544,001,2021-08-19_16h09.06.303,natb3,2021.2.3,MacIntel,60.0024001,6105a43c902c6bce6a038544,611e07ecdcc96256ae8d5b80,611e7404e7bc26f6dfefae78,
,,,,space,0.3994,,0,238,238,306,1,D, , , , ,space,2000,2,6105a43c902c6bce6a038544,001,2021-08-19_16h09.06.303,natb3,2021.2.3,MacIntel,60.0024001,6105a43c902c6bce6a038544,611e07ecdcc96256ae8d5b80,611e7404e7bc26f6dfefae78,
,,,,space,0.3601,,0,239,239,176,1,N, , , , ,space,1500,1.5,6105a43c902c6bce6a038544,001,2021-08-19_16h09.06.303,natb3,2021.2.3,MacIntel,60.0024001,6105a43c902c6bce6a038544,611e07ecdcc96256ae8d5b80,611e7404e7bc26f6dfefae78,
,,,,space,0.8064,,0,240,240,126,1,A, , , , ,space,2500,2.5,6105a43c902c6bce6a038544,001,2021-08-19_16h09.06.303,natb3,2021.2.3,MacIntel,60.0024001,6105a43c902c6bce6a038544,611e07ecdcc96256ae8d5b80,611e7404e7bc26f6dfefae78,
,,,,space,0.8846,,0,241,241,281,1,Z, , , , ,space,1500,1.5,6105a43c902c6bce6a038544,001,2021-08-19_16h09.06.303,natb3,2021.2.3,MacIntel,60.0024001,6105a43c902c6bce6a038544,611e07ecdcc96256ae8d5b80,611e7404e7bc26f6dfefae78,
,,,,space,0.6609,,0,242,242,316,1,Z, , , , ,space,1500,1.5,6105a43c902c6bce6a038544,001,2021-08-19_16h09.06.303,natb3,2021.2.3,MacIntel,60.0024001,6105a43c902c6bce6a038544,611e07ecdcc96256ae8d5b80,611e7404e7bc26f6dfefae78,
,,,,space,0.4921,,0,243,243,164,1,H, , , , ,space,2500,2.5,6105a43c902c6bce6a038544,001,2021-08-19_16h09.06.303,natb3,2021.2.3,MacIntel,60.0024001,6105a43c902c6bce6a038544,611e07ecdcc96256ae8d5b80,611e7404e7bc26f6dfefae78,
,,,,,,,0,244,244,149,1,R, , , , ,space,2000,2,6105a43c902c6bce6a038544,001,2021-08-19_16h09.06.303,natb3,2021.2.3,MacIntel,60.0024001,6105a43c902c6bce6a038544,611e07ecdcc96256ae8d5b80,611e7404e7bc26f6dfefae78,
,,,,space,0.5831,,0,245,245,240,1,F, , , , ,space,2500,2.5,6105a43c902c6bce6a038544,001,2021-08-19_16h09.06.303,natb3,2021.2.3,MacIntel,60.0024001,6105a43c902c6bce6a038544,611e07ecdcc96256ae8d5b80,611e7404e7bc26f6dfefae78,
,,,,space,0.5558,,0,246,246,12,1,X, , , , ,,1500,1.5,6105a43c902c6bce6a038544,001,2021-08-19_16h09.06.303,natb3,2021.2.3,MacIntel,60.0024001,6105a43c902c6bce6a038544,611e07ecdcc96256ae8d5b80,611e7404e7bc26f6dfefae78,
,,,,,,,0,247,247,32,1,M, , , , ,space,1500,1.5,6105a43c902c6bce6a038544,001,2021-08-19_16h09.06.303,natb3,2021.2.3,MacIntel,60.0024001,6105a43c902c6bce6a038544,611e07ecdcc96256ae8d5b80,611e7404e7bc26f6dfefae78,
,,,,space,0.6978,,0,248,248,165,1,J, , , , ,space,2500,2.5,6105a43c902c6bce6a038544,001,2021-08-19_16h09.06.303,natb3,2021.2.3,MacIntel,60.0024001,6105a43c902c6bce6a038544,611e07ecdcc96256ae8d5b80,611e7404e7bc26f6dfefae78,
,,,,space,0.3655,,0,249,249,1,1,W, , , , ,space,2000,2,6105a43c902c6bce6a038544,001,2021-08-19_16h09.06.303,natb3,2021.2.3,MacIntel,60.0024001,6105a43c902c6bce6a038544,611e07ecdcc96256ae8d5b80,611e7404e7bc26f6dfefae78,
,,,,space,0.9097,,0,250,250,83,1,D, , , , ,space,2000,2,6105a43c902c6bce6a038544,001,2021-08-19_16h09.06.303,natb3,2021.2.3,MacIntel,60.0024001,6105a43c902c6bce6a038544,611e07ecdcc96256ae8d5b80,611e7404e7bc26f6dfefae78,
,,,,,,,0,251,251,60,1,X,7,3,5, ,,1500,1.5,6105a43c902c6bce6a038544,001,2021-08-19_16h09.06.303,natb3,2021.2.3,MacIntel,60.0024001,6105a43c902c6bce6a038544,611e07ecdcc96256ae8d5b80,611e7404e7bc26f6dfefae78,
,,,,space,0.4229,,0,252,252,30,1,N, , , , ,space,2500,2.5,6105a43c902c6bce6a038544,001,2021-08-19_16h09.06.303,natb3,2021.2.3,MacIntel,60.0024001,6105a43c902c6bce6a038544,611e07ecdcc96256ae8d5b80,611e7404e7bc26f6dfefae78,
,,,,space,0.5238,,0,253,253,151,1,Y, , , , ,space,2500,2.5,6105a43c902c6bce6a038544,001,2021-08-19_16h09.06.303,natb3,2021.2.3,MacIntel,60.0024001,6105a43c902c6bce6a038544,611e07ecdcc96256ae8d5b80,611e7404e7bc26f6dfefae78,
,,,,space,0.4001,,0,254,254,56,1,J, , , , ,space,1500,1.5,6105a43c902c6bce6a038544,001,2021-08-19_16h09.06.303,natb3,2021.2.3,MacIntel,60.0024001,6105a43c902c6bce6a038544,611e07ecdcc96256ae8d5b80,611e7404e7bc26f6dfefae78,
,,,,space,0.3464,,0,255,255,123,1,O, , , , ,space,1500,1.5,6105a43c902c6bce6a038544,001,2021-08-19_16h09.06.303,natb3,2021.2.3,MacIntel,60.0024001,6105a43c902c6bce6a038544,611e07ecdcc96256ae8d5b80,611e7404e7bc26f6dfefae78,
,,,,space,0.3828,,0,256,256,327,1,E, , , , ,space,1500,1.5,6105a43c902c6bce6a038544,001,2021-08-19_16h09.06.303,natb3,2021.2.3,MacIntel,60.0024001,6105a43c902c6bce6a038544,611e07ecdcc96256ae8d5b80,611e7404e7bc26f6dfefae78,
,,,,space,0.3839,,0,257,257,217,1,T, , , , ,space,2500,2.5,6105a43c902c6bce6a038544,001,2021-08-19_16h09.06.303,natb3,2021.2.3,MacIntel,60.0024001,6105a43c902c6bce6a038544,611e07ecdcc96256ae8d5b80,611e7404e7bc26f6dfefae78,
,,,,space,0.3589,,0,258,258,44,1,I, , , , ,space,2500,2.5,6105a43c902c6bce6a038544,001,2021-08-19_16h09.06.303,natb3,2021.2.3,MacIntel,60.0024001,6105a43c902c6bce6a038544,611e07ecdcc96256ae8d5b80,611e7404e7bc26f6dfefae78,
,,,,space,0.4221,,0,259,259,232,1,O, , , , ,space,2500,2.5,6105a43c902c6bce6a038544,001,2021-08-19_16h09.06.303,natb3,2021.2.3,MacIntel,60.0024001,6105a43c902c6bce6a038544,611e07ecdcc96256ae8d5b80,611e7404e7bc26f6dfefae78,
,,,,space,0.4082,,0,260,260,173,1,V, , , , ,space,1500,1.5,6105a43c902c6bce6a038544,001,2021-08-19_16h09.06.303,natb3,2021.2.3,MacIntel,60.0024001,6105a43c902c6bce6a038544,611e07ecdcc96256ae8d5b80,611e7404e7bc26f6dfefae78,
,,,,space,0.4583,,0,261,261,301,1,P, , , , ,space,1500,1.5,6105a43c902c6bce6a038544,001,2021-08-19_16h09.06.303,natb3,2021.2.3,MacIntel,60.0024001,6105a43c902c6bce6a038544,611e07ecdcc96256ae8d5b80,611e7404e7bc26f6dfefae78,
,,,,,,,0,262,262,191,1,X,1, ,3,4,,2500,2.5,6105a43c902c6bce6a038544,001,2021-08-19_16h09.06.303,natb3,2021.2.3,MacIntel,60.0024001,6105a43c902c6bce6a038544,611e07ecdcc96256ae8d5b80,611e7404e7bc26f6dfefae78,
,,,,space,0.4458,,0,263,263,110,1,I, , , , ,space,1500,1.5,6105a43c902c6bce6a038544,001,2021-08-19_16h09.06.303,natb3,2021.2.3,MacIntel,60.0024001,6105a43c902c6bce6a038544,611e07ecdcc96256ae8d5b80,611e7404e7bc26f6dfefae78,
,,,,space,0.4275,,0,264,264,55,1,H, , , , ,space,2500,2.5,6105a43c902c6bce6a038544,001,2021-08-19_16h09.06.303,natb3,2021.2.3,MacIntel,60.0024001,6105a43c902c6bce6a038544,611e07ecdcc96256ae8d5b80,611e7404e7bc26f6dfefae78,
,,,,,,,0,265,265,302,1,X, , , , ,,2000,2,6105a43c902c6bce6a038544,001,2021-08-19_16h09.06.303,natb3,2021.2.3,MacIntel,60.0024001,6105a43c902c6bce6a038544,611e07ecdcc96256ae8d5b80,611e7404e7bc26f6dfefae78,
,,,,,,,0,266,266,289,1,Q, , , , ,space,2000,2,6105a43c902c6bce6a038544,001,2021-08-19_16h09.06.303,natb3,2021.2.3,MacIntel,60.0024001,6105a43c902c6bce6a038544,611e07ecdcc96256ae8d5b80,611e7404e7bc26f6dfefae78,
,,,,,,,0,267,267,33,1,X, , , , ,,1500,1.5,6105a43c902c6bce6a038544,001,2021-08-19_16h09.06.303,natb3,2021.2.3,MacIntel,60.0024001,6105a43c902c6bce6a038544,611e07ecdcc96256ae8d5b80,611e7404e7bc26f6dfefae78,
,,,,space,0.4012,,0,268,268,13,1,A, , , , ,space,2000,2,6105a43c902c6bce6a038544,001,2021-08-19_16h09.06.303,natb3,2021.2.3,MacIntel,60.0024001,6105a43c902c6bce6a038544,611e07ecdcc96256ae8d5b80,611e7404e7bc26f6dfefae78,
,,,,space,0.4767,,0,269,269,38,1,R, , , , ,space,2500,2.5,6105a43c902c6bce6a038544,001,2021-08-19_16h09.06.303,natb3,2021.2.3,MacIntel,60.0024001,6105a43c902c6bce6a038544,611e07ecdcc96256ae8d5b80,611e7404e7bc26f6dfefae78,
,,,,,,,0,270,270,322,1,X, , ,1,6,,2000,2,6105a43c902c6bce6a038544,001,2021-08-19_16h09.06.303,natb3,2021.2.3,MacIntel,60.0024001,6105a43c902c6bce6a038544,611e07ecdcc96256ae8d5b80,611e7404e7bc26f6dfefae78,
,,,,space,0.5133,,0,271,271,321,1,N, , , , ,space,2000,2,6105a43c902c6bce6a038544,001,2021-08-19_16h09.06.303,natb3,2021.2.3,MacIntel,60.0024001,6105a43c902c6bce6a038544,611e07ecdcc96256ae8d5b80,611e7404e7bc26f6dfefae78,
,,,,,,,0,272,272,129,1,X,2,3,5, ,,1500,1.5,6105a43c902c6bce6a038544,001,2021-08-19_16h09.06.303,natb3,2021.2.3,MacIntel,60.0024001,6105a43c902c6bce6a038544,611e07ecdcc96256ae8d5b80,611e7404e7bc26f6dfefae78,
,,,,space,0.4947,,0,273,273,26,1,C, , , , ,space,2000,2,6105a43c902c6bce6a038544,001,2021-08-19_16h09.06.303,natb3,2021.2.3,MacIntel,60.0024001,6105a43c902c6bce6a038544,611e07ecdcc96256ae8d5b80,611e7404e7bc26f6dfefae78,
,,,,,,,0,274,274,187,1,X, ,3,7,4,,1500,1.5,6105a43c902c6bce6a038544,001,2021-08-19_16h09.06.303,natb3,2021.2.3,MacIntel,60.0024001,6105a43c902c6bce6a038544,611e07ecdcc96256ae8d5b80,611e7404e7bc26f6dfefae78,
,,,,space,0.3886,,0,275,275,272,1,D, , , , ,space,2000,2,6105a43c902c6bce6a038544,001,2021-08-19_16h09.06.303,natb3,2021.2.3,MacIntel,60.0024001,6105a43c902c6bce6a038544,611e07ecdcc96256ae8d5b80,611e7404e7bc26f6dfefae78,
,,,,space,0.456,,0,276,276,105,1,R, , , , ,space,2500,2.5,6105a43c902c6bce6a038544,001,2021-08-19_16h09.06.303,natb3,2021.2.3,MacIntel,60.0024001,6105a43c902c6bce6a038544,611e07ecdcc96256ae8d5b80,611e7404e7bc26f6dfefae78,
,,,,space,0.6036,,0,277,277,257,1,W, , , , ,space,2000,2,6105a43c902c6bce6a038544,001,2021-08-19_16h09.06.303,natb3,2021.2.3,MacIntel,60.0024001,6105a43c902c6bce6a038544,611e07ecdcc96256ae8d5b80,611e7404e7bc26f6dfefae78,
,,,,space,0.7656,,0,278,278,19,1,G, , , , ,space,1500,1.5,6105a43c902c6bce6a038544,001,2021-08-19_16h09.06.303,natb3,2021.2.3,MacIntel,60.0024001,6105a43c902c6bce6a038544,611e07ecdcc96256ae8d5b80,611e7404e7bc26f6dfefae78,
,,,,space,0.8593,,0,279,279,136,1,Z, , , , ,space,2500,2.5,6105a43c902c6bce6a038544,001,2021-08-19_16h09.06.303,natb3,2021.2.3,MacIntel,60.0024001,6105a43c902c6bce6a038544,611e07ecdcc96256ae8d5b80,611e7404e7bc26f6dfefae78,
,,,,space,0.7586,,0,280,280,163,1,G, , , , ,space,2500,2.5,6105a43c902c6bce6a038544,001,2021-08-19_16h09.06.303,natb3,2021.2.3,MacIntel,60.0024001,6105a43c902c6bce6a038544,611e07ecdcc96256ae8d5b80,611e7404e7bc26f6dfefae78,
,,,,,,,0,281,281,141,1,X,1, ,4,6,,1500,1.5,6105a43c902c6bce6a038544,001,2021-08-19_16h09.06.303,natb3,2021.2.3,MacIntel,60.0024001,6105a43c902c6bce6a038544,611e07ecdcc96256ae8d5b80,611e7404e7bc26f6dfefae78,
,,,,space,0.7014,,0,282,282,181,1,E, , , , ,space,1500,1.5,6105a43c902c6bce6a038544,001,2021-08-19_16h09.06.303,natb3,2021.2.3,MacIntel,60.0024001,6105a43c902c6bce6a038544,611e07ecdcc96256ae8d5b80,611e7404e7bc26f6dfefae78,
,,,,space,0.5035,,0,283,283,198,1,H, , , , ,space,2500,2.5,6105a43c902c6bce6a038544,001,2021-08-19_16h09.06.303,natb3,2021.2.3,MacIntel,60.0024001,6105a43c902c6bce6a038544,611e07ecdcc96256ae8d5b80,611e7404e7bc26f6dfefae78,
,,,,space,0.4101,,0,284,284,97,1,B, , , , ,space,2500,2.5,6105a43c902c6bce6a038544,001,2021-08-19_16h09.06.303,natb3,2021.2.3,MacIntel,60.0024001,6105a43c902c6bce6a038544,611e07ecdcc96256ae8d5b80,611e7404e7bc26f6dfefae78,
,,,,,,,0,285,285,227,1,T, , , , ,space,1500,1.5,6105a43c902c6bce6a038544,001,2021-08-19_16h09.06.303,natb3,2021.2.3,MacIntel,60.0024001,6105a43c902c6bce6a038544,611e07ecdcc96256ae8d5b80,611e7404e7bc26f6dfefae78,
,,,,,,,0,286,286,144,1,Q, , , , ,space,2500,2.5,6105a43c902c6bce6a038544,001,2021-08-19_16h09.06.303,natb3,2021.2.3,MacIntel,60.0024001,6105a43c902c6bce6a038544,611e07ecdcc96256ae8d5b80,611e7404e7bc26f6dfefae78,
,,,,,,,0,287,287,62,1,V, , , , ,space,1500,1.5,6105a43c902c6bce6a038544,001,2021-08-19_16h09.06.303,natb3,2021.2.3,MacIntel,60.0024001,6105a43c902c6bce6a038544,611e07ecdcc96256ae8d5b80,611e7404e7bc26f6dfefae78,
,,,,space,0.7866,,0,288,288,11,1,P, , , , ,space,2500,2.5,6105a43c902c6bce6a038544,001,2021-08-19_16h09.06.303,natb3,2021.2.3,MacIntel,60.0024001,6105a43c902c6bce6a038544,611e07ecdcc96256ae8d5b80,611e7404e7bc26f6dfefae78,
,,,,space,0.348,,0,289,289,43,1,X, ,6, ,2,,2500,2.5,6105a43c902c6bce6a038544,001,2021-08-19_16h09.06.303,natb3,2021.2.3,MacIntel,60.0024001,6105a43c902c6bce6a038544,611e07ecdcc96256ae8d5b80,611e7404e7bc26f6dfefae78,
,,,,,,,0,290,290,265,1,I, , , , ,space,2000,2,6105a43c902c6bce6a038544,001,2021-08-19_16h09.06.303,natb3,2021.2.3,MacIntel,60.0024001,6105a43c902c6bce6a038544,611e07ecdcc96256ae8d5b80,611e7404e7bc26f6dfefae78,
,,,,space,0.4116,,0,291,291,180,1,W, , , , ,space,2000,2,6105a43c902c6bce6a038544,001,2021-08-19_16h09.06.303,natb3,2021.2.3,MacIntel,60.0024001,6105a43c902c6bce6a038544,611e07ecdcc96256ae8d5b80,611e7404e7bc26f6dfefae78,
,,,,,,,0,292,292,104,1,E, , , , ,space,2000,2,6105a43c902c6bce6a038544,001,2021-08-19_16h09.06.303,natb3,2021.2.3,MacIntel,60.0024001,6105a43c902c6bce6a038544,611e07ecdcc96256ae8d5b80,611e7404e7bc26f6dfefae78,
,,,,space,0.6855,,0,293,293,112,1,Q, , , , ,space,2500,2.5,6105a43c902c6bce6a038544,001,2021-08-19_16h09.06.303,natb3,2021.2.3,MacIntel,60.0024001,6105a43c902c6bce6a038544,611e07ecdcc96256ae8d5b80,611e7404e7bc26f6dfefae78,
,,,,,,,0,294,294,153,1,X,4,7, ,6,,2000,2,6105a43c902c6bce6a038544,001,2021-08-19_16h09.06.303,natb3,2021.2.3,MacIntel,60.0024001,6105a43c902c6bce6a038544,611e07ecdcc96256ae8d5b80,611e7404e7bc26f6dfefae78,
,,,,,,,0,295,295,98,1,X, , , , ,,2500,2.5,6105a43c902c6bce6a038544,001,2021-08-19_16h09.06.303,natb3,2021.2.3,MacIntel,60.0024001,6105a43c902c6bce6a038544,611e07ecdcc96256ae8d5b80,611e7404e7bc26f6dfefae78,
,,,,,,,0,296,296,107,1,X,9,3, ,2,,2000,2,6105a43c902c6bce6a038544,001,2021-08-19_16h09.06.303,natb3,2021.2.3,MacIntel,60.0024001,6105a43c902c6bce6a038544,611e07ecdcc96256ae8d5b80,611e7404e7bc26f6dfefae78,
,,,,space,0.4313,,0,297,297,246,1,L, , , , ,space,2500,2.5,6105a43c902c6bce6a038544,001,2021-08-19_16h09.06.303,natb3,2021.2.3,MacIntel,60.0024001,6105a43c902c6bce6a038544,611e07ecdcc96256ae8d5b80,611e7404e7bc26f6dfefae78,
,,,,,,,0,298,298,72,1,T, , , , ,space,1500,1.5,6105a43c902c6bce6a038544,001,2021-08-19_16h09.06.303,natb3,2021.2.3,MacIntel,60.0024001,6105a43c902c6bce6a038544,611e07ecdcc96256ae8d5b80,611e7404e7bc26f6dfefae78,
,,,,space,0.5908,,0,299,299,3,1,R, , , , ,space,2000,2,6105a43c902c6bce6a038544,001,2021-08-19_16h09.06.303,natb3,2021.2.3,MacIntel,60.0024001,6105a43c902c6bce6a038544,611e07ecdcc96256ae8d5b80,611e7404e7bc26f6dfefae78,
,,,,,,,0,300,300,158,1,X, , , , ,,1500,1.5,6105a43c902c6bce6a038544,001,2021-08-19_16h09.06.303,natb3,2021.2.3,MacIntel,60.0024001,6105a43c902c6bce6a038544,611e07ecdcc96256ae8d5b80,611e7404e7bc26f6dfefae78,
,,,,space,0.4009,,0,301,301,81,1,S, , , , ,space,2000,2,6105a43c902c6bce6a038544,001,2021-08-19_16h09.06.303,natb3,2021.2.3,MacIntel,60.0024001,6105a43c902c6bce6a038544,611e07ecdcc96256ae8d5b80,611e7404e7bc26f6dfefae78,
,,,,space,0.4501,,0,302,302,241,1,G, , , , ,space,2500,2.5,6105a43c902c6bce6a038544,001,2021-08-19_16h09.06.303,natb3,2021.2.3,MacIntel,60.0024001,6105a43c902c6bce6a038544,611e07ecdcc96256ae8d5b80,611e7404e7bc26f6dfefae78,
,,,,space,0.6132,,0,303,303,9,1,I, , , , ,space,1500,1.5,6105a43c902c6bce6a038544,001,2021-08-19_16h09.06.303,natb3,2021.2.3,MacIntel,60.0024001,6105a43c902c6bce6a038544,611e07ecdcc96256ae8d5b80,611e7404e7bc26f6dfefae78,
,,,,space,0.6005,,0,304,304,47,1,P, , , , ,space,2000,2,6105a43c902c6bce6a038544,001,2021-08-19_16h09.06.303,natb3,2021.2.3,MacIntel,60.0024001,6105a43c902c6bce6a038544,611e07ecdcc96256ae8d5b80,611e7404e7bc26f6dfefae78,
,,,,space,0.4127,,0,305,305,8,1,U, , , , ,space,1500,1.5,6105a43c902c6bce6a038544,001,2021-08-19_16h09.06.303,natb3,2021.2.3,MacIntel,60.0024001,6105a43c902c6bce6a038544,611e07ecdcc96256ae8d5b80,611e7404e7bc26f6dfefae78,
,,,,space,0.6318,,0,306,306,284,1,V, , , , ,space,2500,2.5,6105a43c902c6bce6a038544,001,2021-08-19_16h09.06.303,natb3,2021.2.3,MacIntel,60.0024001,6105a43c902c6bce6a038544,611e07ecdcc96256ae8d5b80,611e7404e7bc26f6dfefae78,
,,,,space,0.4074,,0,307,307,186,1,U, , , , ,space,2500,2.5,6105a43c902c6bce6a038544,001,2021-08-19_16h09.06.303,natb3,2021.2.3,MacIntel,60.0024001,6105a43c902c6bce6a038544,611e07ecdcc96256ae8d5b80,611e7404e7bc26f6dfefae78,
,,,,space,0.3592,,0,308,308,323,1,M, , , , ,space,2500,2.5,6105a43c902c6bce6a038544,001,2021-08-19_16h09.06.303,natb3,2021.2.3,MacIntel,60.0024001,6105a43c902c6bce6a038544,611e07ecdcc96256ae8d5b80,611e7404e7bc26f6dfefae78,
,,,,space,0.3674,,0,309,309,2,1,E, , , , ,space,2500,2.5,6105a43c902c6bce6a038544,001,2021-08-19_16h09.06.303,natb3,2021.2.3,MacIntel,60.0024001,6105a43c902c6bce6a038544,611e07ecdcc96256ae8d5b80,611e7404e7bc26f6dfefae78,
,,,,space,0.3775,,0,310,310,266,1,O, , , , ,space,1500,1.5,6105a43c902c6bce6a038544,001,2021-08-19_16h09.06.303,natb3,2021.2.3,MacIntel,60.0024001,6105a43c902c6bce6a038544,611e07ecdcc96256ae8d5b80,611e7404e7bc26f6dfefae78,
,,,,,,,0,311,311,333,1,I, , , , ,space,1500,1.5,6105a43c902c6bce6a038544,001,2021-08-19_16h09.06.303,natb3,2021.2.3,MacIntel,60.0024001,6105a43c902c6bce6a038544,611e07ecdcc96256ae8d5b80,611e7404e7bc26f6dfefae78,
,,,,space,0.6111,,0,312,312,22,1,K, , , , ,space,2000,2,6105a43c902c6bce6a038544,001,2021-08-19_16h09.06.303,natb3,2021.2.3,MacIntel,60.0024001,6105a43c902c6bce6a038544,611e07ecdcc96256ae8d5b80,611e7404e7bc26f6dfefae78,
,,,,space,0.4075,,0,313,313,238,1,D, , , , ,space,1500,1.5,6105a43c902c6bce6a038544,001,2021-08-19_16h09.06.303,natb3,2021.2.3,MacIntel,60.0024001,6105a43c902c6bce6a038544,611e07ecdcc96256ae8d5b80,611e7404e7bc26f6dfefae78,
,,,,space,0.3746,,0,314,314,297,1,U, , , , ,space,2000,2,6105a43c902c6bce6a038544,001,2021-08-19_16h09.06.303,natb3,2021.2.3,MacIntel,60.0024001,6105a43c902c6bce6a038544,611e07ecdcc96256ae8d5b80,611e7404e7bc26f6dfefae78,
,,,,,,,0,315,315,82,1,X,4,6,1,7,,2000,2,6105a43c902c6bce6a038544,001,2021-08-19_16h09.06.303,natb3,2021.2.3,MacIntel,60.0024001,6105a43c902c6bce6a038544,611e07ecdcc96256ae8d5b80,611e7404e7bc26f6dfefae78,
,,,,,,,0,316,316,313,1,X, , , , ,,2500,2.5,6105a43c902c6bce6a038544,001,2021-08-19_16h09.06.303,natb3,2021.2.3,MacIntel,60.0024001,6105a43c902c6bce6a038544,611e07ecdcc96256ae8d5b80,611e7404e7bc26f6dfefae78,
,,,,,,,0,317,317,39,1,X,6,2, , ,,1500,1.5,6105a43c902c6bce6a038544,001,2021-08-19_16h09.06.303,natb3,2021.2.3,MacIntel,60.0024001,6105a43c902c6bce6a038544,611e07ecdcc96256ae8d5b80,611e7404e7bc26f6dfefae78,
,,,,,,,0,318,318,23,1,X,1, ,5, ,,2000,2,6105a43c902c6bce6a038544,001,2021-08-19_16h09.06.303,natb3,2021.2.3,MacIntel,60.0024001,6105a43c902c6bce6a038544,611e07ecdcc96256ae8d5b80,611e7404e7bc26f6dfefae78,
,,,,space,0.4946,,0,319,319,245,1,K, , , , ,space,2000,2,6105a43c902c6bce6a038544,001,2021-08-19_16h09.06.303,natb3,2021.2.3,MacIntel,60.0024001,6105a43c902c6bce6a038544,611e07ecdcc96256ae8d5b80,611e7404e7bc26f6dfefae78,
,,,,space,0.4918,,0,320,320,286,1,N, , , , ,space,1500,1.5,6105a43c902c6bce6a038544,001,2021-08-19_16h09.06.303,natb3,2021.2.3,MacIntel,60.0024001,6105a43c902c6bce6a038544,611e07ecdcc96256ae8d5b80,611e7404e7bc26f6dfefae78,
,,,,space,0.3728,,0,321,321,16,1,D, , , , ,space,1500,1.5,6105a43c902c6bce6a038544,001,2021-08-19_16h09.06.303,natb3,2021.2.3,MacIntel,60.0024001,6105a43c902c6bce6a038544,611e07ecdcc96256ae8d5b80,611e7404e7bc26f6dfefae78,
,,,,,,,0,322,322,277,1,X,8,5, ,2,,2000,2,6105a43c902c6bce6a038544,001,2021-08-19_16h09.06.303,natb3,2021.2.3,MacIntel,60.0024001,6105a43c902c6bce6a038544,611e07ecdcc96256ae8d5b80,611e7404e7bc26f6dfefae78,
,,,,space,0.3692,,0,323,323,24,1,L, , , , ,space,2500,2.5,6105a43c902c6bce6a038544,001,2021-08-19_16h09.06.303,natb3,2021.2.3,MacIntel,60.0024001,6105a43c902c6bce6a038544,611e07ecdcc96256ae8d5b80,611e7404e7bc26f6dfefae78,
,,,,space,0.4591,,0,324,324,147,1,E, , , , ,space,2000,2,6105a43c902c6bce6a038544,001,2021-08-19_16h09.06.303,natb3,2021.2.3,MacIntel,60.0024001,6105a43c902c6bce6a038544,611e07ecdcc96256ae8d5b80,611e7404e7bc26f6dfefae78,
,,,,space,0.4072,,0,325,325,79,1,P, , , , ,space,2000,2,6105a43c902c6bce6a038544,001,2021-08-19_16h09.06.303,natb3,2021.2.3,MacIntel,60.0024001,6105a43c902c6bce6a038544,611e07ecdcc96256ae8d5b80,611e7404e7bc26f6dfefae78,
,,,,,,,0,326,326,93,1,X,5, ,7, ,,2500,2.5,6105a43c902c6bce6a038544,001,2021-08-19_16h09.06.303,natb3,2021.2.3,MacIntel,60.0024001,6105a43c902c6bce6a038544,611e07ecdcc96256ae8d5b80,611e7404e7bc26f6dfefae78,
,,,,space,0.4165,,0,327,327,296,1,Y, , , , ,space,2500,2.5,6105a43c902c6bce6a038544,001,2021-08-19_16h09.06.303,natb3,2021.2.3,MacIntel,60.0024001,6105a43c902c6bce6a038544,611e07ecdcc96256ae8d5b80,611e7404e7bc26f6dfefae78,
,,,,space,0.4686,,0,328,328,310,1,J, , , , ,space,2500,2.5,6105a43c902c6bce6a038544,001,2021-08-19_16h09.06.303,natb3,2021.2.3,MacIntel,60.0024001,6105a43c902c6bce6a038544,611e07ecdcc96256ae8d5b80,611e7404e7bc26f6dfefae78,
,,,,space,0.5172,,0,329,329,65,1,M, , , , ,space,1500,1.5,6105a43c902c6bce6a038544,001,2021-08-19_16h09.06.303,natb3,2021.2.3,MacIntel,60.0024001,6105a43c902c6bce6a038544,611e07ecdcc96256ae8d5b80,611e7404e7bc26f6dfefae78,
,,,,space,0.4355,,0,330,330,137,1,C, , , , ,space,2500,2.5,6105a43c902c6bce6a038544,001,2021-08-19_16h09.06.303,natb3,2021.2.3,MacIntel,60.0024001,6105a43c902c6bce6a038544,611e07ecdcc96256ae8d5b80,611e7404e7bc26f6dfefae78,
,,,,space,0.3478,,0,331,331,262,1,Y, , , , ,space,2500,2.5,6105a43c902c6bce6a038544,001,2021-08-19_16h09.06.303,natb3,2021.2.3,MacIntel,60.0024001,6105a43c902c6bce6a038544,611e07ecdcc96256ae8d5b80,611e7404e7bc26f6dfefae78,
,,,,space,0.4521,,0,332,332,95,1,V, , , , ,space,1500,1.5,6105a43c902c6bce6a038544,001,2021-08-19_16h09.06.303,natb3,2021.2.3,MacIntel,60.0024001,6105a43c902c6bce6a038544,611e07ecdcc96256ae8d5b80,611e7404e7bc26f6dfefae78,
,,,,space,0.6106,,0,333,333,244,1,J, , , , ,space,1500,1.5,6105a43c902c6bce6a038544,001,2021-08-19_16h09.06.303,natb3,2021.2.3,MacIntel,60.0024001,6105a43c902c6bce6a038544,611e07ecdcc96256ae8d5b80,611e7404e7bc26f6dfefae78,
,,,,,,,0,334,334,259,1,X,8, , ,3,,2500,2.5,6105a43c902c6bce6a038544,001,2021-08-19_16h09.06.303,natb3,2021.2.3,MacIntel,60.0024001,6105a43c902c6bce6a038544,611e07ecdcc96256ae8d5b80,611e7404e7bc26f6dfefae78,
,,,,space,0.4986,,0,335,335,170,1,Z, , , , ,space,2000,2,6105a43c902c6bce6a038544,001,2021-08-19_16h09.06.303,natb3,2021.2.3,MacIntel,60.0024001,6105a43c902c6bce6a038544,611e07ecdcc96256ae8d5b80,611e7404e7bc26f6dfefae78,
