key_resp_2.keys,key_resp_2.rt,key_resp_3.keys,key_resp_3.rt,key_resp.keys,key_resp.rt,key_resp_4.keys,trials.thisRepN,trials.thisTrialN,trials.thisN,trials.thisIndex,trials.ran,stimulus,distractor1,distractor2,distractor3,distractor4,CorrAns,isi_duration,isi_dur_in_seconds,participant,session,date,expName,psychopyVersion,OS,frameRate,PROLIFIC_PID,STUDY_ID,SESSION_ID,key_resp_4.rt
return,50.874,space,13.467,space,0.507,,0,0,0,115,1,R, , , , ,space,1500,1.5,610959927a28affd512bbe78,001,2021-08-19_16h38.44.755,natb3,2021.2.3,MacIntel,111.1111111,610959927a28affd512bbe78,611e07ecdcc96256ae8d5b80,611e7af4dbc6468aa143742d,
,,,,space,0.297,,0,1,1,251,1,B, , , , ,space,1500,1.5,610959927a28affd512bbe78,001,2021-08-19_16h38.44.755,natb3,2021.2.3,MacIntel,111.1111111,610959927a28affd512bbe78,611e07ecdcc96256ae8d5b80,611e7af4dbc6468aa143742d,
,,,,,,,0,2,2,31,1,X, , , , ,,1500,1.5,610959927a28affd512bbe78,001,2021-08-19_16h38.44.755,natb3,2021.2.3,MacIntel,111.1111111,610959927a28affd512bbe78,611e07ecdcc96256ae8d5b80,611e7af4dbc6468aa143742d,
,,,,space,0.45,,0,3,3,30,1,N, , , , ,space,2500,2.5,610959927a28affd512bbe78,001,2021-08-19_16h38.44.755,natb3,2021.2.3,MacIntel,111.1111111,610959927a28affd512bbe78,611e07ecdcc96256ae8d5b80,611e7af4dbc6468aa143742d,
,,,,space,0.328,,0,4,4,260,1,R, , , , ,space,2000,2,610959927a28affd512bbe78,001,2021-08-19_16h38.44.755,natb3,2021.2.3,MacIntel,111.1111111,610959927a28affd512bbe78,611e07ecdcc96256ae8d5b80,611e7af4dbc6468aa143742d,
,,,,space,0.317,,0,5,5,177,1,M, , , , ,space,2500,2.5,610959927a28affd512bbe78,001,2021-08-19_16h38.44.755,natb3,2021.2.3,MacIntel,111.1111111,610959927a28affd512bbe78,611e07ecdcc96256ae8d5b80,611e7af4dbc6468aa143742d,
,,,,,,,0,6,6,43,1,X, ,6, ,2,,2500,2.5,610959927a28affd512bbe78,001,2021-08-19_16h38.44.755,natb3,2021.2.3,MacIntel,111.1111111,610959927a28affd512bbe78,611e07ecdcc96256ae8d5b80,611e7af4dbc6468aa143742d,
,,,,space,0.367,,0,7,7,237,1,S, , , , ,space,1500,1.5,610959927a28affd512bbe78,001,2021-08-19_16h38.44.755,natb3,2021.2.3,MacIntel,111.1111111,610959927a28affd512bbe78,611e07ecdcc96256ae8d5b80,611e7af4dbc6468aa143742d,
,,,,space,0.376,,0,8,8,116,1,X, , , , ,,2000,2,610959927a28affd512bbe78,001,2021-08-19_16h38.44.755,natb3,2021.2.3,MacIntel,111.1111111,610959927a28affd512bbe78,611e07ecdcc96256ae8d5b80,611e7af4dbc6468aa143742d,
,,,,space,0.413,,0,9,9,135,1,K, , , , ,space,1500,1.5,610959927a28affd512bbe78,001,2021-08-19_16h38.44.755,natb3,2021.2.3,MacIntel,111.1111111,610959927a28affd512bbe78,611e07ecdcc96256ae8d5b80,611e7af4dbc6468aa143742d,
,,,,space,0.41,,0,10,10,68,1,W, , , , ,space,2500,2.5,610959927a28affd512bbe78,001,2021-08-19_16h38.44.755,natb3,2021.2.3,MacIntel,111.1111111,610959927a28affd512bbe78,611e07ecdcc96256ae8d5b80,611e7af4dbc6468aa143742d,
,,,,space,0.394,,0,11,11,42,1,U, , , , ,space,1500,1.5,610959927a28affd512bbe78,001,2021-08-19_16h38.44.755,natb3,2021.2.3,MacIntel,111.1111111,610959927a28affd512bbe78,611e07ecdcc96256ae8d5b80,611e7af4dbc6468aa143742d,
,,,,space,0.351,,0,12,12,319,1,V, , , , ,space,2000,2,610959927a28affd512bbe78,001,2021-08-19_16h38.44.755,natb3,2021.2.3,MacIntel,111.1111111,610959927a28affd512bbe78,611e07ecdcc96256ae8d5b80,611e7af4dbc6468aa143742d,
,,,,space,0.365,,0,13,13,55,1,H, , , , ,space,2500,2.5,610959927a28affd512bbe78,001,2021-08-19_16h38.44.755,natb3,2021.2.3,MacIntel,111.1111111,610959927a28affd512bbe78,611e07ecdcc96256ae8d5b80,611e7af4dbc6468aa143742d,
,,,,space,0.316,,0,14,14,219,1,Y, , , , ,space,2000,2,610959927a28affd512bbe78,001,2021-08-19_16h38.44.755,natb3,2021.2.3,MacIntel,111.1111111,610959927a28affd512bbe78,611e07ecdcc96256ae8d5b80,611e7af4dbc6468aa143742d,
,,,,space,0.45,,0,15,15,123,1,O, , , , ,space,1500,1.5,610959927a28affd512bbe78,001,2021-08-19_16h38.44.755,natb3,2021.2.3,MacIntel,111.1111111,610959927a28affd512bbe78,611e07ecdcc96256ae8d5b80,611e7af4dbc6468aa143742d,
,,,,space,0.379,,0,16,16,261,1,T, , , , ,space,2000,2,610959927a28affd512bbe78,001,2021-08-19_16h38.44.755,natb3,2021.2.3,MacIntel,111.1111111,610959927a28affd512bbe78,611e07ecdcc96256ae8d5b80,611e7af4dbc6468aa143742d,
,,,,,,,0,17,17,277,1,X,8,5, ,2,,2000,2,610959927a28affd512bbe78,001,2021-08-19_16h38.44.755,natb3,2021.2.3,MacIntel,111.1111111,610959927a28affd512bbe78,611e07ecdcc96256ae8d5b80,611e7af4dbc6468aa143742d,
,,,,space,0.373,,0,18,18,247,1,Z, , , , ,space,1500,1.5,610959927a28affd512bbe78,001,2021-08-19_16h38.44.755,natb3,2021.2.3,MacIntel,111.1111111,610959927a28affd512bbe78,611e07ecdcc96256ae8d5b80,611e7af4dbc6468aa143742d,
,,,,space,0.429,,0,19,19,16,1,D, , , , ,space,1500,1.5,610959927a28affd512bbe78,001,2021-08-19_16h38.44.755,natb3,2021.2.3,MacIntel,111.1111111,610959927a28affd512bbe78,611e07ecdcc96256ae8d5b80,611e7af4dbc6468aa143742d,
,,,,space,0.333,,0,20,20,198,1,H, , , , ,space,2500,2.5,610959927a28affd512bbe78,001,2021-08-19_16h38.44.755,natb3,2021.2.3,MacIntel,111.1111111,610959927a28affd512bbe78,611e07ecdcc96256ae8d5b80,611e7af4dbc6468aa143742d,
,,,,space,0.581,,0,21,21,146,1,W, , , , ,space,1500,1.5,610959927a28affd512bbe78,001,2021-08-19_16h38.44.755,natb3,2021.2.3,MacIntel,111.1111111,610959927a28affd512bbe78,611e07ecdcc96256ae8d5b80,611e7af4dbc6468aa143742d,
,,,,space,0.363,,0,22,22,306,1,D, , , , ,space,2000,2,610959927a28affd512bbe78,001,2021-08-19_16h38.44.755,natb3,2021.2.3,MacIntel,111.1111111,610959927a28affd512bbe78,611e07ecdcc96256ae8d5b80,611e7af4dbc6468aa143742d,
,,,,space,0.474,,0,23,23,335,1,P,,,,,space,1500,1.5,610959927a28affd512bbe78,001,2021-08-19_16h38.44.755,natb3,2021.2.3,MacIntel,111.1111111,610959927a28affd512bbe78,611e07ecdcc96256ae8d5b80,611e7af4dbc6468aa143742d,
,,,,space,0.476,,0,24,24,317,1,C, , , , ,space,2000,2,610959927a28affd512bbe78,001,2021-08-19_16h38.44.755,natb3,2021.2.3,MacIntel,111.1111111,610959927a28affd512bbe78,611e07ecdcc96256ae8d5b80,611e7af4dbc6468aa143742d,
,,,,space,0.402,,0,25,25,206,1,V, , , , ,space,2000,2,610959927a28affd512bbe78,001,2021-08-19_16h38.44.755,natb3,2021.2.3,MacIntel,111.1111111,610959927a28affd512bbe78,611e07ecdcc96256ae8d5b80,611e7af4dbc6468aa143742d,
,,,,space,0.347,,0,26,26,119,1,Y, , , , ,space,2500,2.5,610959927a28affd512bbe78,001,2021-08-19_16h38.44.755,natb3,2021.2.3,MacIntel,111.1111111,610959927a28affd512bbe78,611e07ecdcc96256ae8d5b80,611e7af4dbc6468aa143742d,
,,,,space,0.345,,0,27,27,142,1,N, , , , ,space,2500,2.5,610959927a28affd512bbe78,001,2021-08-19_16h38.44.755,natb3,2021.2.3,MacIntel,111.1111111,610959927a28affd512bbe78,611e07ecdcc96256ae8d5b80,611e7af4dbc6468aa143742d,
,,,,space,0.374,,0,28,28,293,1,R, , , , ,space,2500,2.5,610959927a28affd512bbe78,001,2021-08-19_16h38.44.755,natb3,2021.2.3,MacIntel,111.1111111,610959927a28affd512bbe78,611e07ecdcc96256ae8d5b80,611e7af4dbc6468aa143742d,
,,,,space,0.551,,0,29,29,111,1,O, , , , ,space,2000,2,610959927a28affd512bbe78,001,2021-08-19_16h38.44.755,natb3,2021.2.3,MacIntel,111.1111111,610959927a28affd512bbe78,611e07ecdcc96256ae8d5b80,611e7af4dbc6468aa143742d,
,,,,space,0.368,,0,30,30,15,1,X, , , , ,,1500,1.5,610959927a28affd512bbe78,001,2021-08-19_16h38.44.755,natb3,2021.2.3,MacIntel,111.1111111,610959927a28affd512bbe78,611e07ecdcc96256ae8d5b80,611e7af4dbc6468aa143742d,
,,,,space,0.32,,0,31,31,192,1,A, , , , ,space,2000,2,610959927a28affd512bbe78,001,2021-08-19_16h38.44.755,natb3,2021.2.3,MacIntel,111.1111111,610959927a28affd512bbe78,611e07ecdcc96256ae8d5b80,611e7af4dbc6468aa143742d,
,,,,space,0.329,,0,32,32,231,1,I, , , , ,space,2500,2.5,610959927a28affd512bbe78,001,2021-08-19_16h38.44.755,natb3,2021.2.3,MacIntel,111.1111111,610959927a28affd512bbe78,611e07ecdcc96256ae8d5b80,611e7af4dbc6468aa143742d,
,,,,space,0.761,,0,33,33,65,1,M, , , , ,space,1500,1.5,610959927a28affd512bbe78,001,2021-08-19_16h38.44.755,natb3,2021.2.3,MacIntel,111.1111111,610959927a28affd512bbe78,611e07ecdcc96256ae8d5b80,611e7af4dbc6468aa143742d,
,,,,space,0.296,,0,34,34,136,1,Z, , , , ,space,2500,2.5,610959927a28affd512bbe78,001,2021-08-19_16h38.44.755,natb3,2021.2.3,MacIntel,111.1111111,610959927a28affd512bbe78,611e07ecdcc96256ae8d5b80,611e7af4dbc6468aa143742d,
,,,,space,0.347,,0,35,35,214,1,W, , , , ,space,2000,2,610959927a28affd512bbe78,001,2021-08-19_16h38.44.755,natb3,2021.2.3,MacIntel,111.1111111,610959927a28affd512bbe78,611e07ecdcc96256ae8d5b80,611e7af4dbc6468aa143742d,
,,,,space,0.351,,0,36,36,154,1,I, , , , ,space,2500,2.5,610959927a28affd512bbe78,001,2021-08-19_16h38.44.755,natb3,2021.2.3,MacIntel,111.1111111,610959927a28affd512bbe78,611e07ecdcc96256ae8d5b80,611e7af4dbc6468aa143742d,
,,,,space,0.379,,0,37,37,124,1,P, , , , ,space,2000,2,610959927a28affd512bbe78,001,2021-08-19_16h38.44.755,natb3,2021.2.3,MacIntel,111.1111111,610959927a28affd512bbe78,611e07ecdcc96256ae8d5b80,611e7af4dbc6468aa143742d,
,,,,space,0.3,,0,38,38,34,1,Q, , , , ,space,2500,2.5,610959927a28affd512bbe78,001,2021-08-19_16h38.44.755,natb3,2021.2.3,MacIntel,111.1111111,610959927a28affd512bbe78,611e07ecdcc96256ae8d5b80,611e7af4dbc6468aa143742d,
,,,,space,0.466,,0,39,39,173,1,V, , , , ,space,1500,1.5,610959927a28affd512bbe78,001,2021-08-19_16h38.44.755,natb3,2021.2.3,MacIntel,111.1111111,610959927a28affd512bbe78,611e07ecdcc96256ae8d5b80,611e7af4dbc6468aa143742d,
,,,,space,0.319,,0,40,40,53,1,G, , , , ,space,2500,2.5,610959927a28affd512bbe78,001,2021-08-19_16h38.44.755,natb3,2021.2.3,MacIntel,111.1111111,610959927a28affd512bbe78,611e07ecdcc96256ae8d5b80,611e7af4dbc6468aa143742d,
,,,,space,0.448,,0,41,41,47,1,P, , , , ,space,2000,2,610959927a28affd512bbe78,001,2021-08-19_16h38.44.755,natb3,2021.2.3,MacIntel,111.1111111,610959927a28affd512bbe78,611e07ecdcc96256ae8d5b80,611e7af4dbc6468aa143742d,
,,,,space,0.329,,0,42,42,269,1,A, , , , ,space,2500,2.5,610959927a28affd512bbe78,001,2021-08-19_16h38.44.755,natb3,2021.2.3,MacIntel,111.1111111,610959927a28affd512bbe78,611e07ecdcc96256ae8d5b80,611e7af4dbc6468aa143742d,
,,,,space,0.46,,0,43,43,9,1,I, , , , ,space,1500,1.5,610959927a28affd512bbe78,001,2021-08-19_16h38.44.755,natb3,2021.2.3,MacIntel,111.1111111,610959927a28affd512bbe78,611e07ecdcc96256ae8d5b80,611e7af4dbc6468aa143742d,
,,,,,,,0,44,44,60,1,X,7,3,5, ,,1500,1.5,610959927a28affd512bbe78,001,2021-08-19_16h38.44.755,natb3,2021.2.3,MacIntel,111.1111111,610959927a28affd512bbe78,611e07ecdcc96256ae8d5b80,611e7af4dbc6468aa143742d,
,,,,space,0.533,,0,45,45,45,1,O, , , , ,space,2000,2,610959927a28affd512bbe78,001,2021-08-19_16h38.44.755,natb3,2021.2.3,MacIntel,111.1111111,610959927a28affd512bbe78,611e07ecdcc96256ae8d5b80,611e7af4dbc6468aa143742d,
,,,,space,0.466,,0,46,46,171,1,X, , , , ,,1500,1.5,610959927a28affd512bbe78,001,2021-08-19_16h38.44.755,natb3,2021.2.3,MacIntel,111.1111111,610959927a28affd512bbe78,611e07ecdcc96256ae8d5b80,611e7af4dbc6468aa143742d,
,,,,space,0.867,,0,47,47,328,1,R, , , , ,space,1500,1.5,610959927a28affd512bbe78,001,2021-08-19_16h38.44.755,natb3,2021.2.3,MacIntel,111.1111111,610959927a28affd512bbe78,611e07ecdcc96256ae8d5b80,611e7af4dbc6468aa143742d,
,,,,space,0.45,,0,48,48,130,1,F, , , , ,space,2000,2,610959927a28affd512bbe78,001,2021-08-19_16h38.44.755,natb3,2021.2.3,MacIntel,111.1111111,610959927a28affd512bbe78,611e07ecdcc96256ae8d5b80,611e7af4dbc6468aa143742d,
,,,,,,,0,49,49,200,1,X,7, ,5,3,,1500,1.5,610959927a28affd512bbe78,001,2021-08-19_16h38.44.755,natb3,2021.2.3,MacIntel,111.1111111,610959927a28affd512bbe78,611e07ecdcc96256ae8d5b80,611e7af4dbc6468aa143742d,
,,,,space,0.814,,0,50,50,86,1,G, , , , ,space,2000,2,610959927a28affd512bbe78,001,2021-08-19_16h38.44.755,natb3,2021.2.3,MacIntel,111.1111111,610959927a28affd512bbe78,611e07ecdcc96256ae8d5b80,611e7af4dbc6468aa143742d,
,,,,,,,0,51,51,66,1,X, ,4,7, ,,2000,2,610959927a28affd512bbe78,001,2021-08-19_16h38.44.755,natb3,2021.2.3,MacIntel,111.1111111,610959927a28affd512bbe78,611e07ecdcc96256ae8d5b80,611e7af4dbc6468aa143742d,
,,,,,,,0,52,52,83,1,D, , , , ,space,2000,2,610959927a28affd512bbe78,001,2021-08-19_16h38.44.755,natb3,2021.2.3,MacIntel,111.1111111,610959927a28affd512bbe78,611e07ecdcc96256ae8d5b80,611e7af4dbc6468aa143742d,
,,,,,,,0,53,53,308,1,G, , , , ,space,1500,1.5,610959927a28affd512bbe78,001,2021-08-19_16h38.44.755,natb3,2021.2.3,MacIntel,111.1111111,610959927a28affd512bbe78,611e07ecdcc96256ae8d5b80,611e7af4dbc6468aa143742d,
,,,,space,0.293,,0,54,54,140,1,B, , , , ,space,2500,2.5,610959927a28affd512bbe78,001,2021-08-19_16h38.44.755,natb3,2021.2.3,MacIntel,111.1111111,610959927a28affd512bbe78,611e07ecdcc96256ae8d5b80,611e7af4dbc6468aa143742d,
,,,,space,0.495,,0,55,55,207,1,X,9, ,2, ,,2500,2.5,610959927a28affd512bbe78,001,2021-08-19_16h38.44.755,natb3,2021.2.3,MacIntel,111.1111111,610959927a28affd512bbe78,611e07ecdcc96256ae8d5b80,611e7af4dbc6468aa143742d,
,,,,space,0.738,,0,56,56,41,1,Y, , , , ,space,2500,2.5,610959927a28affd512bbe78,001,2021-08-19_16h38.44.755,natb3,2021.2.3,MacIntel,111.1111111,610959927a28affd512bbe78,611e07ecdcc96256ae8d5b80,611e7af4dbc6468aa143742d,
,,,,,,,0,57,57,235,1,A, , , , ,space,1500,1.5,610959927a28affd512bbe78,001,2021-08-19_16h38.44.755,natb3,2021.2.3,MacIntel,111.1111111,610959927a28affd512bbe78,611e07ecdcc96256ae8d5b80,611e7af4dbc6468aa143742d,
,,,,space,0.521,,0,58,58,1,1,W, , , , ,space,2000,2,610959927a28affd512bbe78,001,2021-08-19_16h38.44.755,natb3,2021.2.3,MacIntel,111.1111111,610959927a28affd512bbe78,611e07ecdcc96256ae8d5b80,611e7af4dbc6468aa143742d,
,,,,space,0.336,,0,59,59,243,1,X, , , , ,,2500,2.5,610959927a28affd512bbe78,001,2021-08-19_16h38.44.755,natb3,2021.2.3,MacIntel,111.1111111,610959927a28affd512bbe78,611e07ecdcc96256ae8d5b80,611e7af4dbc6468aa143742d,
,,,,space,0.296,,0,60,60,313,1,X, , , , ,,2500,2.5,610959927a28affd512bbe78,001,2021-08-19_16h38.44.755,natb3,2021.2.3,MacIntel,111.1111111,610959927a28affd512bbe78,611e07ecdcc96256ae8d5b80,611e7af4dbc6468aa143742d,
,,,,space,0.384,,0,61,61,97,1,B, , , , ,space,2500,2.5,610959927a28affd512bbe78,001,2021-08-19_16h38.44.755,natb3,2021.2.3,MacIntel,111.1111111,610959927a28affd512bbe78,611e07ecdcc96256ae8d5b80,611e7af4dbc6468aa143742d,
,,,,space,0.442,,0,62,62,52,1,F, , , , ,space,1500,1.5,610959927a28affd512bbe78,001,2021-08-19_16h38.44.755,natb3,2021.2.3,MacIntel,111.1111111,610959927a28affd512bbe78,611e07ecdcc96256ae8d5b80,611e7af4dbc6468aa143742d,
,,,,space,0.322,,0,63,63,267,1,P, , , , ,space,2000,2,610959927a28affd512bbe78,001,2021-08-19_16h38.44.755,natb3,2021.2.3,MacIntel,111.1111111,610959927a28affd512bbe78,611e07ecdcc96256ae8d5b80,611e7af4dbc6468aa143742d,
,,,,space,0.344,,0,64,64,212,1,Q, , , , ,space,2500,2.5,610959927a28affd512bbe78,001,2021-08-19_16h38.44.755,natb3,2021.2.3,MacIntel,111.1111111,610959927a28affd512bbe78,611e07ecdcc96256ae8d5b80,611e7af4dbc6468aa143742d,
,,,,,,,0,65,65,252,1,X,3, ,6,9,,2000,2,610959927a28affd512bbe78,001,2021-08-19_16h38.44.755,natb3,2021.2.3,MacIntel,111.1111111,610959927a28affd512bbe78,611e07ecdcc96256ae8d5b80,611e7af4dbc6468aa143742d,
,,,,space,0.401,,0,66,66,210,1,M, , , , ,space,1500,1.5,610959927a28affd512bbe78,001,2021-08-19_16h38.44.755,natb3,2021.2.3,MacIntel,111.1111111,610959927a28affd512bbe78,611e07ecdcc96256ae8d5b80,611e7af4dbc6468aa143742d,
,,,,,,,0,67,67,268,1,X,6, ,3, ,,2500,2.5,610959927a28affd512bbe78,001,2021-08-19_16h38.44.755,natb3,2021.2.3,MacIntel,111.1111111,610959927a28affd512bbe78,611e07ecdcc96256ae8d5b80,611e7af4dbc6468aa143742d,
,,,,space,0.31,,0,68,68,93,1,X,5, ,7, ,,2500,2.5,610959927a28affd512bbe78,001,2021-08-19_16h38.44.755,natb3,2021.2.3,MacIntel,111.1111111,610959927a28affd512bbe78,611e07ecdcc96256ae8d5b80,611e7af4dbc6468aa143742d,
,,,,space,0.587,,0,69,69,265,1,I, , , , ,space,2000,2,610959927a28affd512bbe78,001,2021-08-19_16h38.44.755,natb3,2021.2.3,MacIntel,111.1111111,610959927a28affd512bbe78,611e07ecdcc96256ae8d5b80,611e7af4dbc6468aa143742d,
,,,,space,0.301,,0,70,70,5,1,T, , , , ,space,2000,2,610959927a28affd512bbe78,001,2021-08-19_16h38.44.755,natb3,2021.2.3,MacIntel,111.1111111,610959927a28affd512bbe78,611e07ecdcc96256ae8d5b80,611e7af4dbc6468aa143742d,
,,,,space,0.34,,0,71,71,263,1,X,4, ,6, ,,1500,1.5,610959927a28affd512bbe78,001,2021-08-19_16h38.44.755,natb3,2021.2.3,MacIntel,111.1111111,610959927a28affd512bbe78,611e07ecdcc96256ae8d5b80,611e7af4dbc6468aa143742d,
,,,,,,,0,72,72,236,1,X,3, ,4,7,,2500,2.5,610959927a28affd512bbe78,001,2021-08-19_16h38.44.755,natb3,2021.2.3,MacIntel,111.1111111,610959927a28affd512bbe78,611e07ecdcc96256ae8d5b80,611e7af4dbc6468aa143742d,
,,,,,,,0,73,73,273,1,X, , , , ,,2000,2,610959927a28affd512bbe78,001,2021-08-19_16h38.44.755,natb3,2021.2.3,MacIntel,111.1111111,610959927a28affd512bbe78,611e07ecdcc96256ae8d5b80,611e7af4dbc6468aa143742d,
,,,,space,0.52,,0,74,74,201,1,K, , , , ,space,1500,1.5,610959927a28affd512bbe78,001,2021-08-19_16h38.44.755,natb3,2021.2.3,MacIntel,111.1111111,610959927a28affd512bbe78,611e07ecdcc96256ae8d5b80,611e7af4dbc6468aa143742d,
,,,,space,0.367,,0,75,75,80,1,A, , , , ,space,2000,2,610959927a28affd512bbe78,001,2021-08-19_16h38.44.755,natb3,2021.2.3,MacIntel,111.1111111,610959927a28affd512bbe78,611e07ecdcc96256ae8d5b80,611e7af4dbc6468aa143742d,
,,,,space,0.385,,0,76,76,194,1,D, , , , ,space,2000,2,610959927a28affd512bbe78,001,2021-08-19_16h38.44.755,natb3,2021.2.3,MacIntel,111.1111111,610959927a28affd512bbe78,611e07ecdcc96256ae8d5b80,611e7af4dbc6468aa143742d,
,,,,space,0.386,,0,77,77,144,1,Q, , , , ,space,2500,2.5,610959927a28affd512bbe78,001,2021-08-19_16h38.44.755,natb3,2021.2.3,MacIntel,111.1111111,610959927a28affd512bbe78,611e07ecdcc96256ae8d5b80,611e7af4dbc6468aa143742d,
,,,,space,0.383,,0,78,78,36,1,W, , , , ,space,2000,2,610959927a28affd512bbe78,001,2021-08-19_16h38.44.755,natb3,2021.2.3,MacIntel,111.1111111,610959927a28affd512bbe78,611e07ecdcc96256ae8d5b80,611e7af4dbc6468aa143742d,
,,,,space,0.417,,0,79,79,320,1,B, , , , ,space,1500,1.5,610959927a28affd512bbe78,001,2021-08-19_16h38.44.755,natb3,2021.2.3,MacIntel,111.1111111,610959927a28affd512bbe78,611e07ecdcc96256ae8d5b80,611e7af4dbc6468aa143742d,
,,,,space,0.35,,0,80,80,150,1,T, , , , ,space,2500,2.5,610959927a28affd512bbe78,001,2021-08-19_16h38.44.755,natb3,2021.2.3,MacIntel,111.1111111,610959927a28affd512bbe78,611e07ecdcc96256ae8d5b80,611e7af4dbc6468aa143742d,
,,,,space,0.42,,0,81,81,161,1,F, , , , ,space,1500,1.5,610959927a28affd512bbe78,001,2021-08-19_16h38.44.755,natb3,2021.2.3,MacIntel,111.1111111,610959927a28affd512bbe78,611e07ecdcc96256ae8d5b80,611e7af4dbc6468aa143742d,
,,,,space,0.297,,0,82,82,228,1,Y, , , , ,space,2000,2,610959927a28affd512bbe78,001,2021-08-19_16h38.44.755,natb3,2021.2.3,MacIntel,111.1111111,610959927a28affd512bbe78,611e07ecdcc96256ae8d5b80,611e7af4dbc6468aa143742d,
,,,,space,0.414,,0,83,83,226,1,R, , , , ,space,2000,2,610959927a28affd512bbe78,001,2021-08-19_16h38.44.755,natb3,2021.2.3,MacIntel,111.1111111,610959927a28affd512bbe78,611e07ecdcc96256ae8d5b80,611e7af4dbc6468aa143742d,
,,,,space,0.322,,0,84,84,164,1,H, , , , ,space,2500,2.5,610959927a28affd512bbe78,001,2021-08-19_16h38.44.755,natb3,2021.2.3,MacIntel,111.1111111,610959927a28affd512bbe78,611e07ecdcc96256ae8d5b80,611e7af4dbc6468aa143742d,
,,,,space,0.379,,0,85,85,256,1,Q, , , , ,space,2000,2,610959927a28affd512bbe78,001,2021-08-19_16h38.44.755,natb3,2021.2.3,MacIntel,111.1111111,610959927a28affd512bbe78,611e07ecdcc96256ae8d5b80,611e7af4dbc6468aa143742d,
,,,,space,0.353,,0,86,86,149,1,R, , , , ,space,2000,2,610959927a28affd512bbe78,001,2021-08-19_16h38.44.755,natb3,2021.2.3,MacIntel,111.1111111,610959927a28affd512bbe78,611e07ecdcc96256ae8d5b80,611e7af4dbc6468aa143742d,
,,,,space,0.307,,0,87,87,165,1,J, , , , ,space,2500,2.5,610959927a28affd512bbe78,001,2021-08-19_16h38.44.755,natb3,2021.2.3,MacIntel,111.1111111,610959927a28affd512bbe78,611e07ecdcc96256ae8d5b80,611e7af4dbc6468aa143742d,
,,,,space,0.362,,0,88,88,59,1,Z, , , , ,space,2000,2,610959927a28affd512bbe78,001,2021-08-19_16h38.44.755,natb3,2021.2.3,MacIntel,111.1111111,610959927a28affd512bbe78,611e07ecdcc96256ae8d5b80,611e7af4dbc6468aa143742d,
,,,,space,0.523,,0,89,89,297,1,U, , , , ,space,2000,2,610959927a28affd512bbe78,001,2021-08-19_16h38.44.755,natb3,2021.2.3,MacIntel,111.1111111,610959927a28affd512bbe78,611e07ecdcc96256ae8d5b80,611e7af4dbc6468aa143742d,
,,,,space,0.367,,0,90,90,330,1,T, , , , ,space,2500,2.5,610959927a28affd512bbe78,001,2021-08-19_16h38.44.755,natb3,2021.2.3,MacIntel,111.1111111,610959927a28affd512bbe78,611e07ecdcc96256ae8d5b80,611e7af4dbc6468aa143742d,
,,,,space,0.339,,0,91,91,22,1,K, , , , ,space,2000,2,610959927a28affd512bbe78,001,2021-08-19_16h38.44.755,natb3,2021.2.3,MacIntel,111.1111111,610959927a28affd512bbe78,611e07ecdcc96256ae8d5b80,611e7af4dbc6468aa143742d,
,,,,space,0.404,,0,92,92,283,1,C, , , , ,space,1500,1.5,610959927a28affd512bbe78,001,2021-08-19_16h38.44.755,natb3,2021.2.3,MacIntel,111.1111111,610959927a28affd512bbe78,611e07ecdcc96256ae8d5b80,611e7af4dbc6468aa143742d,
,,,,space,0.265,,0,93,93,132,1,H, , , , ,space,2500,2.5,610959927a28affd512bbe78,001,2021-08-19_16h38.44.755,natb3,2021.2.3,MacIntel,111.1111111,610959927a28affd512bbe78,611e07ecdcc96256ae8d5b80,611e7af4dbc6468aa143742d,
,,,,space,0.33,,0,94,94,271,1,X, , , , ,,2500,2.5,610959927a28affd512bbe78,001,2021-08-19_16h38.44.755,natb3,2021.2.3,MacIntel,111.1111111,610959927a28affd512bbe78,611e07ecdcc96256ae8d5b80,611e7af4dbc6468aa143742d,
,,,,,,,0,95,95,82,1,X,4,6,1,7,,2000,2,610959927a28affd512bbe78,001,2021-08-19_16h38.44.755,natb3,2021.2.3,MacIntel,111.1111111,610959927a28affd512bbe78,611e07ecdcc96256ae8d5b80,611e7af4dbc6468aa143742d,
,,,,space,0.395,,0,96,96,32,1,M, , , , ,space,1500,1.5,610959927a28affd512bbe78,001,2021-08-19_16h38.44.755,natb3,2021.2.3,MacIntel,111.1111111,610959927a28affd512bbe78,611e07ecdcc96256ae8d5b80,611e7af4dbc6468aa143742d,
,,,,,,,0,97,97,89,1,X,3, , , ,,2000,2,610959927a28affd512bbe78,001,2021-08-19_16h38.44.755,natb3,2021.2.3,MacIntel,111.1111111,610959927a28affd512bbe78,611e07ecdcc96256ae8d5b80,611e7af4dbc6468aa143742d,
,,,,space,0.409,,0,98,98,334,1,O, , , , ,space,1500,1.5,610959927a28affd512bbe78,001,2021-08-19_16h38.44.755,natb3,2021.2.3,MacIntel,111.1111111,610959927a28affd512bbe78,611e07ecdcc96256ae8d5b80,611e7af4dbc6468aa143742d,
,,,,space,0.45,,0,99,99,63,1,B, , , , ,space,2000,2,610959927a28affd512bbe78,001,2021-08-19_16h38.44.755,natb3,2021.2.3,MacIntel,111.1111111,610959927a28affd512bbe78,611e07ecdcc96256ae8d5b80,611e7af4dbc6468aa143742d,
,,,,space,0.56,,0,100,100,170,1,Z, , , , ,space,2000,2,610959927a28affd512bbe78,001,2021-08-19_16h38.44.755,natb3,2021.2.3,MacIntel,111.1111111,610959927a28affd512bbe78,611e07ecdcc96256ae8d5b80,611e7af4dbc6468aa143742d,
,,,,,,,0,101,101,315,1,X, , , , ,,2500,2.5,610959927a28affd512bbe78,001,2021-08-19_16h38.44.755,natb3,2021.2.3,MacIntel,111.1111111,610959927a28affd512bbe78,611e07ecdcc96256ae8d5b80,611e7af4dbc6468aa143742d,
,,,,space,0.465,,0,102,102,73,1,Y, , , , ,space,2000,2,610959927a28affd512bbe78,001,2021-08-19_16h38.44.755,natb3,2021.2.3,MacIntel,111.1111111,610959927a28affd512bbe78,611e07ecdcc96256ae8d5b80,611e7af4dbc6468aa143742d,
,,,,space,0.385,,0,103,103,99,1,N, , , , ,space,2500,2.5,610959927a28affd512bbe78,001,2021-08-19_16h38.44.755,natb3,2021.2.3,MacIntel,111.1111111,610959927a28affd512bbe78,611e07ecdcc96256ae8d5b80,611e7af4dbc6468aa143742d,
,,,,space,0.363,,0,104,104,102,1,X, ,6, , ,,1500,1.5,610959927a28affd512bbe78,001,2021-08-19_16h38.44.755,natb3,2021.2.3,MacIntel,111.1111111,610959927a28affd512bbe78,611e07ecdcc96256ae8d5b80,611e7af4dbc6468aa143742d,
,,,,space,0.332,,0,105,105,300,1,O, , , , ,space,2500,2.5,610959927a28affd512bbe78,001,2021-08-19_16h38.44.755,natb3,2021.2.3,MacIntel,111.1111111,610959927a28affd512bbe78,611e07ecdcc96256ae8d5b80,611e7af4dbc6468aa143742d,
,,,,space,0.415,,0,106,106,56,1,J, , , , ,space,1500,1.5,610959927a28affd512bbe78,001,2021-08-19_16h38.44.755,natb3,2021.2.3,MacIntel,111.1111111,610959927a28affd512bbe78,611e07ecdcc96256ae8d5b80,611e7af4dbc6468aa143742d,
,,,,space,0.367,,0,107,107,250,1,V, , , , ,space,2000,2,610959927a28affd512bbe78,001,2021-08-19_16h38.44.755,natb3,2021.2.3,MacIntel,111.1111111,610959927a28affd512bbe78,611e07ecdcc96256ae8d5b80,611e7af4dbc6468aa143742d,
,,,,space,0.354,,0,108,108,75,1,U, , , , ,space,1500,1.5,610959927a28affd512bbe78,001,2021-08-19_16h38.44.755,natb3,2021.2.3,MacIntel,111.1111111,610959927a28affd512bbe78,611e07ecdcc96256ae8d5b80,611e7af4dbc6468aa143742d,
,,,,space,0.332,,0,109,109,37,1,E, , , , ,space,2500,2.5,610959927a28affd512bbe78,001,2021-08-19_16h38.44.755,natb3,2021.2.3,MacIntel,111.1111111,610959927a28affd512bbe78,611e07ecdcc96256ae8d5b80,611e7af4dbc6468aa143742d,
,,,,space,0.347,,0,110,110,239,1,X, , , , ,,2000,2,610959927a28affd512bbe78,001,2021-08-19_16h38.44.755,natb3,2021.2.3,MacIntel,111.1111111,610959927a28affd512bbe78,611e07ecdcc96256ae8d5b80,611e7af4dbc6468aa143742d,
,,,,space,0.431,,0,111,111,180,1,W, , , , ,space,2000,2,610959927a28affd512bbe78,001,2021-08-19_16h38.44.755,natb3,2021.2.3,MacIntel,111.1111111,610959927a28affd512bbe78,611e07ecdcc96256ae8d5b80,611e7af4dbc6468aa143742d,
,,,,,,,0,112,112,133,1,X, ,4, ,6,,2500,2.5,610959927a28affd512bbe78,001,2021-08-19_16h38.44.755,natb3,2021.2.3,MacIntel,111.1111111,610959927a28affd512bbe78,611e07ecdcc96256ae8d5b80,611e7af4dbc6468aa143742d,
,,,,space,0.388,,0,113,113,333,1,I, , , , ,space,1500,1.5,610959927a28affd512bbe78,001,2021-08-19_16h38.44.755,natb3,2021.2.3,MacIntel,111.1111111,610959927a28affd512bbe78,611e07ecdcc96256ae8d5b80,611e7af4dbc6468aa143742d,
,,,,space,0.384,,0,114,114,257,1,W, , , , ,space,2000,2,610959927a28affd512bbe78,001,2021-08-19_16h38.44.755,natb3,2021.2.3,MacIntel,111.1111111,610959927a28affd512bbe78,611e07ecdcc96256ae8d5b80,611e7af4dbc6468aa143742d,
,,,,space,0.428,,0,115,115,8,1,U, , , , ,space,1500,1.5,610959927a28affd512bbe78,001,2021-08-19_16h38.44.755,natb3,2021.2.3,MacIntel,111.1111111,610959927a28affd512bbe78,611e07ecdcc96256ae8d5b80,611e7af4dbc6468aa143742d,
,,,,space,0.386,,0,116,116,270,1,S, , , , ,space,1500,1.5,610959927a28affd512bbe78,001,2021-08-19_16h38.44.755,natb3,2021.2.3,MacIntel,111.1111111,610959927a28affd512bbe78,611e07ecdcc96256ae8d5b80,611e7af4dbc6468aa143742d,
,,,,space,0.37,,0,117,117,213,1,X, , , , ,,2500,2.5,610959927a28affd512bbe78,001,2021-08-19_16h38.44.755,natb3,2021.2.3,MacIntel,111.1111111,610959927a28affd512bbe78,611e07ecdcc96256ae8d5b80,611e7af4dbc6468aa143742d,
,,,,,,,0,118,118,122,1,X,1, , ,8,,1500,1.5,610959927a28affd512bbe78,001,2021-08-19_16h38.44.755,natb3,2021.2.3,MacIntel,111.1111111,610959927a28affd512bbe78,611e07ecdcc96256ae8d5b80,611e7af4dbc6468aa143742d,
,,,,,,,0,119,119,74,1,X, ,4,3,2,,1500,1.5,610959927a28affd512bbe78,001,2021-08-19_16h38.44.755,natb3,2021.2.3,MacIntel,111.1111111,610959927a28affd512bbe78,611e07ecdcc96256ae8d5b80,611e7af4dbc6468aa143742d,
,,,,,,,0,120,120,18,1,X, ,2,5,8,,2500,2.5,610959927a28affd512bbe78,001,2021-08-19_16h38.44.755,natb3,2021.2.3,MacIntel,111.1111111,610959927a28affd512bbe78,611e07ecdcc96256ae8d5b80,611e7af4dbc6468aa143742d,
,,,,space,0.441,,0,121,121,242,1,H, , , , ,space,2500,2.5,610959927a28affd512bbe78,001,2021-08-19_16h38.44.755,natb3,2021.2.3,MacIntel,111.1111111,610959927a28affd512bbe78,611e07ecdcc96256ae8d5b80,611e7af4dbc6468aa143742d,
,,,,,,,0,122,122,138,1,X,8,5, ,3,,2000,2,610959927a28affd512bbe78,001,2021-08-19_16h38.44.755,natb3,2021.2.3,MacIntel,111.1111111,610959927a28affd512bbe78,611e07ecdcc96256ae8d5b80,611e7af4dbc6468aa143742d,
,,,,space,0.415,,0,123,123,217,1,T, , , , ,space,2500,2.5,610959927a28affd512bbe78,001,2021-08-19_16h38.44.755,natb3,2021.2.3,MacIntel,111.1111111,610959927a28affd512bbe78,611e07ecdcc96256ae8d5b80,611e7af4dbc6468aa143742d,
,,,,,,,0,124,124,295,1,X,8,7,5, ,,2500,2.5,610959927a28affd512bbe78,001,2021-08-19_16h38.44.755,natb3,2021.2.3,MacIntel,111.1111111,610959927a28affd512bbe78,611e07ecdcc96256ae8d5b80,611e7af4dbc6468aa143742d,
,,,,space,0.412,,0,125,125,196,1,F, , , , ,space,1500,1.5,610959927a28affd512bbe78,001,2021-08-19_16h38.44.755,natb3,2021.2.3,MacIntel,111.1111111,610959927a28affd512bbe78,611e07ecdcc96256ae8d5b80,611e7af4dbc6468aa143742d,
,,,,space,0.366,,0,126,126,109,1,U, , , , ,space,1500,1.5,610959927a28affd512bbe78,001,2021-08-19_16h38.44.755,natb3,2021.2.3,MacIntel,111.1111111,610959927a28affd512bbe78,611e07ecdcc96256ae8d5b80,611e7af4dbc6468aa143742d,
,,,,space,0.4,,0,127,127,104,1,E, , , , ,space,2000,2,610959927a28affd512bbe78,001,2021-08-19_16h38.44.755,natb3,2021.2.3,MacIntel,111.1111111,610959927a28affd512bbe78,611e07ecdcc96256ae8d5b80,611e7af4dbc6468aa143742d,
,,,,space,0.403,,0,128,128,147,1,E, , , , ,space,2000,2,610959927a28affd512bbe78,001,2021-08-19_16h38.44.755,natb3,2021.2.3,MacIntel,111.1111111,610959927a28affd512bbe78,611e07ecdcc96256ae8d5b80,611e7af4dbc6468aa143742d,
,,,,space,0.38,,0,129,129,118,1,X, , , , ,,2000,2,610959927a28affd512bbe78,001,2021-08-19_16h38.44.755,natb3,2021.2.3,MacIntel,111.1111111,610959927a28affd512bbe78,611e07ecdcc96256ae8d5b80,611e7af4dbc6468aa143742d,
,,,,space,0.424,,0,130,130,87,1,H, , , , ,space,1500,1.5,610959927a28affd512bbe78,001,2021-08-19_16h38.44.755,natb3,2021.2.3,MacIntel,111.1111111,610959927a28affd512bbe78,611e07ecdcc96256ae8d5b80,611e7af4dbc6468aa143742d,
,,,,space,0.379,,0,131,131,240,1,F, , , , ,space,2500,2.5,610959927a28affd512bbe78,001,2021-08-19_16h38.44.755,natb3,2021.2.3,MacIntel,111.1111111,610959927a28affd512bbe78,611e07ecdcc96256ae8d5b80,611e7af4dbc6468aa143742d,
,,,,space,0.411,,0,132,132,176,1,N, , , , ,space,1500,1.5,610959927a28affd512bbe78,001,2021-08-19_16h38.44.755,natb3,2021.2.3,MacIntel,111.1111111,610959927a28affd512bbe78,611e07ecdcc96256ae8d5b80,611e7af4dbc6468aa143742d,
,,,,space,0.34,,0,133,133,245,1,K, , , , ,space,2000,2,610959927a28affd512bbe78,001,2021-08-19_16h38.44.755,natb3,2021.2.3,MacIntel,111.1111111,610959927a28affd512bbe78,611e07ecdcc96256ae8d5b80,611e7af4dbc6468aa143742d,
,,,,space,0.348,,0,134,134,81,1,S, , , , ,space,2000,2,610959927a28affd512bbe78,001,2021-08-19_16h38.44.755,natb3,2021.2.3,MacIntel,111.1111111,610959927a28affd512bbe78,611e07ecdcc96256ae8d5b80,611e7af4dbc6468aa143742d,
,,,,,,,0,135,135,218,1,X,1,3, ,8,,1500,1.5,610959927a28affd512bbe78,001,2021-08-19_16h38.44.755,natb3,2021.2.3,MacIntel,111.1111111,610959927a28affd512bbe78,611e07ecdcc96256ae8d5b80,611e7af4dbc6468aa143742d,
,,,,space,0.454,,0,136,136,220,1,U, , , , ,space,2500,2.5,610959927a28affd512bbe78,001,2021-08-19_16h38.44.755,natb3,2021.2.3,MacIntel,111.1111111,610959927a28affd512bbe78,611e07ecdcc96256ae8d5b80,611e7af4dbc6468aa143742d,
,,,,space,0.598,,0,137,137,25,1,Z, , , , ,space,2500,2.5,610959927a28affd512bbe78,001,2021-08-19_16h38.44.755,natb3,2021.2.3,MacIntel,111.1111111,610959927a28affd512bbe78,611e07ecdcc96256ae8d5b80,611e7af4dbc6468aa143742d,
,,,,space,0.319,,0,138,138,253,1,N, , , , ,space,2500,2.5,610959927a28affd512bbe78,001,2021-08-19_16h38.44.755,natb3,2021.2.3,MacIntel,111.1111111,610959927a28affd512bbe78,611e07ecdcc96256ae8d5b80,611e7af4dbc6468aa143742d,
,,,,space,0.732,,0,139,139,205,1,C, , , , ,space,2000,2,610959927a28affd512bbe78,001,2021-08-19_16h38.44.755,natb3,2021.2.3,MacIntel,111.1111111,610959927a28affd512bbe78,611e07ecdcc96256ae8d5b80,611e7af4dbc6468aa143742d,
,,,,space,0.352,,0,140,140,186,1,U, , , , ,space,2500,2.5,610959927a28affd512bbe78,001,2021-08-19_16h38.44.755,natb3,2021.2.3,MacIntel,111.1111111,610959927a28affd512bbe78,611e07ecdcc96256ae8d5b80,611e7af4dbc6468aa143742d,
,,,,space,0.338,,0,141,141,113,1,W, , , , ,space,2500,2.5,610959927a28affd512bbe78,001,2021-08-19_16h38.44.755,natb3,2021.2.3,MacIntel,111.1111111,610959927a28affd512bbe78,611e07ecdcc96256ae8d5b80,611e7af4dbc6468aa143742d,
,,,,space,0.37,,0,142,142,174,1,B, , , , ,space,2500,2.5,610959927a28affd512bbe78,001,2021-08-19_16h38.44.755,natb3,2021.2.3,MacIntel,111.1111111,610959927a28affd512bbe78,611e07ecdcc96256ae8d5b80,611e7af4dbc6468aa143742d,
,,,,space,0.653,,0,143,143,112,1,Q, , , , ,space,2500,2.5,610959927a28affd512bbe78,001,2021-08-19_16h38.44.755,natb3,2021.2.3,MacIntel,111.1111111,610959927a28affd512bbe78,611e07ecdcc96256ae8d5b80,611e7af4dbc6468aa143742d,
,,,,space,0.348,,0,144,144,299,1,X, , , , ,,2500,2.5,610959927a28affd512bbe78,001,2021-08-19_16h38.44.755,natb3,2021.2.3,MacIntel,111.1111111,610959927a28affd512bbe78,611e07ecdcc96256ae8d5b80,611e7af4dbc6468aa143742d,
,,,,space,0.383,,0,145,145,282,1,X, , , , ,,2500,2.5,610959927a28affd512bbe78,001,2021-08-19_16h38.44.755,natb3,2021.2.3,MacIntel,111.1111111,610959927a28affd512bbe78,611e07ecdcc96256ae8d5b80,611e7af4dbc6468aa143742d,
,,,,space,0.756,,0,146,146,110,1,I, , , , ,space,1500,1.5,610959927a28affd512bbe78,001,2021-08-19_16h38.44.755,natb3,2021.2.3,MacIntel,111.1111111,610959927a28affd512bbe78,611e07ecdcc96256ae8d5b80,611e7af4dbc6468aa143742d,
,,,,space,0.638,,0,147,147,64,1,N, , , , ,space,2000,2,610959927a28affd512bbe78,001,2021-08-19_16h38.44.755,natb3,2021.2.3,MacIntel,111.1111111,610959927a28affd512bbe78,611e07ecdcc96256ae8d5b80,611e7af4dbc6468aa143742d,
,,,,space,0.358,,0,148,148,298,1,I, , , , ,space,2000,2,610959927a28affd512bbe78,001,2021-08-19_16h38.44.755,natb3,2021.2.3,MacIntel,111.1111111,610959927a28affd512bbe78,611e07ecdcc96256ae8d5b80,611e7af4dbc6468aa143742d,
,,,,space,0.332,,0,149,149,126,1,A, , , , ,space,2500,2.5,610959927a28affd512bbe78,001,2021-08-19_16h38.44.755,natb3,2021.2.3,MacIntel,111.1111111,610959927a28affd512bbe78,611e07ecdcc96256ae8d5b80,611e7af4dbc6468aa143742d,
,,,,space,0.351,,0,150,150,117,1,T, , , , ,space,2500,2.5,610959927a28affd512bbe78,001,2021-08-19_16h38.44.755,natb3,2021.2.3,MacIntel,111.1111111,610959927a28affd512bbe78,611e07ecdcc96256ae8d5b80,611e7af4dbc6468aa143742d,
,,,,space,0.315,,0,151,151,289,1,Q, , , , ,space,2000,2,610959927a28affd512bbe78,001,2021-08-19_16h38.44.755,natb3,2021.2.3,MacIntel,111.1111111,610959927a28affd512bbe78,611e07ecdcc96256ae8d5b80,611e7af4dbc6468aa143742d,
,,,,space,0.43,,0,152,152,131,1,G, , , , ,space,1500,1.5,610959927a28affd512bbe78,001,2021-08-19_16h38.44.755,natb3,2021.2.3,MacIntel,111.1111111,610959927a28affd512bbe78,611e07ecdcc96256ae8d5b80,611e7af4dbc6468aa143742d,
,,,,space,0.348,,0,153,153,20,1,H, , , , ,space,1500,1.5,610959927a28affd512bbe78,001,2021-08-19_16h38.44.755,natb3,2021.2.3,MacIntel,111.1111111,610959927a28affd512bbe78,611e07ecdcc96256ae8d5b80,611e7af4dbc6468aa143742d,
,,,,space,0.324,,0,154,154,331,1,Y, , , , ,space,2500,2.5,610959927a28affd512bbe78,001,2021-08-19_16h38.44.755,natb3,2021.2.3,MacIntel,111.1111111,610959927a28affd512bbe78,611e07ecdcc96256ae8d5b80,611e7af4dbc6468aa143742d,
,,,,,,,0,155,155,96,1,X, , , , ,,1500,1.5,610959927a28affd512bbe78,001,2021-08-19_16h38.44.755,natb3,2021.2.3,MacIntel,111.1111111,610959927a28affd512bbe78,611e07ecdcc96256ae8d5b80,611e7af4dbc6468aa143742d,
,,,,space,0.418,,0,156,156,70,1,E, , , , ,space,2500,2.5,610959927a28affd512bbe78,001,2021-08-19_16h38.44.755,natb3,2021.2.3,MacIntel,111.1111111,610959927a28affd512bbe78,611e07ecdcc96256ae8d5b80,611e7af4dbc6468aa143742d,
,,,,,,,0,157,157,46,1,X, , , , ,,2000,2,610959927a28affd512bbe78,001,2021-08-19_16h38.44.755,natb3,2021.2.3,MacIntel,111.1111111,610959927a28affd512bbe78,611e07ecdcc96256ae8d5b80,611e7af4dbc6468aa143742d,
,,,,space,0.368,,0,158,158,169,1,L, , , , ,space,2500,2.5,610959927a28affd512bbe78,001,2021-08-19_16h38.44.755,natb3,2021.2.3,MacIntel,111.1111111,610959927a28affd512bbe78,611e07ecdcc96256ae8d5b80,611e7af4dbc6468aa143742d,
,,,,,,,0,159,159,129,1,X,2,3,5, ,,1500,1.5,610959927a28affd512bbe78,001,2021-08-19_16h38.44.755,natb3,2021.2.3,MacIntel,111.1111111,610959927a28affd512bbe78,611e07ecdcc96256ae8d5b80,611e7af4dbc6468aa143742d,
,,,,space,0.39,,0,160,160,209,1,N, , , , ,space,2000,2,610959927a28affd512bbe78,001,2021-08-19_16h38.44.755,natb3,2021.2.3,MacIntel,111.1111111,610959927a28affd512bbe78,611e07ecdcc96256ae8d5b80,611e7af4dbc6468aa143742d,
,,,,space,0.333,,0,161,161,159,1,S, , , , ,space,2500,2.5,610959927a28affd512bbe78,001,2021-08-19_16h38.44.755,natb3,2021.2.3,MacIntel,111.1111111,610959927a28affd512bbe78,611e07ecdcc96256ae8d5b80,611e7af4dbc6468aa143742d,
,,,,space,0.417,,0,162,162,7,1,X, , , , ,,1500,1.5,610959927a28affd512bbe78,001,2021-08-19_16h38.44.755,natb3,2021.2.3,MacIntel,111.1111111,610959927a28affd512bbe78,611e07ecdcc96256ae8d5b80,611e7af4dbc6468aa143742d,
,,,,space,0.318,,0,163,163,24,1,L, , , , ,space,2500,2.5,610959927a28affd512bbe78,001,2021-08-19_16h38.44.755,natb3,2021.2.3,MacIntel,111.1111111,610959927a28affd512bbe78,611e07ecdcc96256ae8d5b80,611e7af4dbc6468aa143742d,
,,,,space,0.397,,0,164,164,208,1,B, , , , ,space,1500,1.5,610959927a28affd512bbe78,001,2021-08-19_16h38.44.755,natb3,2021.2.3,MacIntel,111.1111111,610959927a28affd512bbe78,611e07ecdcc96256ae8d5b80,611e7af4dbc6468aa143742d,
,,,,,,,0,165,165,78,1,X, , , , ,,2000,2,610959927a28affd512bbe78,001,2021-08-19_16h38.44.755,natb3,2021.2.3,MacIntel,111.1111111,610959927a28affd512bbe78,611e07ecdcc96256ae8d5b80,611e7af4dbc6468aa143742d,
,,,,space,0.318,,0,166,166,225,1,E, , , , ,space,2000,2,610959927a28affd512bbe78,001,2021-08-19_16h38.44.755,natb3,2021.2.3,MacIntel,111.1111111,610959927a28affd512bbe78,611e07ecdcc96256ae8d5b80,611e7af4dbc6468aa143742d,
,,,,space,0.383,space,0,167,167,244,1,J, , , , ,space,1500,1.5,610959927a28affd512bbe78,001,2021-08-19_16h38.44.755,natb3,2021.2.3,MacIntel,111.1111111,610959927a28affd512bbe78,611e07ecdcc96256ae8d5b80,611e7af4dbc6468aa143742d,57.057
,,,,space,0.325,,0,168,168,266,1,O, , , , ,space,1500,1.5,610959927a28affd512bbe78,001,2021-08-19_16h38.44.755,natb3,2021.2.3,MacIntel,111.1111111,610959927a28affd512bbe78,611e07ecdcc96256ae8d5b80,611e7af4dbc6468aa143742d,
,,,,space,0.381,,0,169,169,61,1,C, , , , ,space,2000,2,610959927a28affd512bbe78,001,2021-08-19_16h38.44.755,natb3,2021.2.3,MacIntel,111.1111111,610959927a28affd512bbe78,611e07ecdcc96256ae8d5b80,611e7af4dbc6468aa143742d,
,,,,space,0.391,,0,170,170,54,1,X, , , , ,,2000,2,610959927a28affd512bbe78,001,2021-08-19_16h38.44.755,natb3,2021.2.3,MacIntel,111.1111111,610959927a28affd512bbe78,611e07ecdcc96256ae8d5b80,611e7af4dbc6468aa143742d,
,,,,space,0.517,,0,171,171,189,1,O, , , , ,space,1500,1.5,610959927a28affd512bbe78,001,2021-08-19_16h38.44.755,natb3,2021.2.3,MacIntel,111.1111111,610959927a28affd512bbe78,611e07ecdcc96256ae8d5b80,611e7af4dbc6468aa143742d,
,,,,space,0.497,,0,172,172,275,1,G, , , , ,space,1500,1.5,610959927a28affd512bbe78,001,2021-08-19_16h38.44.755,natb3,2021.2.3,MacIntel,111.1111111,610959927a28affd512bbe78,611e07ecdcc96256ae8d5b80,611e7af4dbc6468aa143742d,
,,,,space,0.419,,0,173,173,223,1,Q, , , , ,space,2000,2,610959927a28affd512bbe78,001,2021-08-19_16h38.44.755,natb3,2021.2.3,MacIntel,111.1111111,610959927a28affd512bbe78,611e07ecdcc96256ae8d5b80,611e7af4dbc6468aa143742d,
,,,,space,0.368,,0,174,174,58,1,L, , , , ,space,2000,2,610959927a28affd512bbe78,001,2021-08-19_16h38.44.755,natb3,2021.2.3,MacIntel,111.1111111,610959927a28affd512bbe78,611e07ecdcc96256ae8d5b80,611e7af4dbc6468aa143742d,
,,,,space,0.386,,0,175,175,33,1,X, , , , ,,1500,1.5,610959927a28affd512bbe78,001,2021-08-19_16h38.44.755,natb3,2021.2.3,MacIntel,111.1111111,610959927a28affd512bbe78,611e07ecdcc96256ae8d5b80,611e7af4dbc6468aa143742d,
,,,,space,0.607,,0,176,176,21,1,J, , , , ,space,1500,1.5,610959927a28affd512bbe78,001,2021-08-19_16h38.44.755,natb3,2021.2.3,MacIntel,111.1111111,610959927a28affd512bbe78,611e07ecdcc96256ae8d5b80,611e7af4dbc6468aa143742d,
,,,,space,0.374,,0,177,177,281,1,Z, , , , ,space,1500,1.5,610959927a28affd512bbe78,001,2021-08-19_16h38.44.755,natb3,2021.2.3,MacIntel,111.1111111,610959927a28affd512bbe78,611e07ecdcc96256ae8d5b80,611e7af4dbc6468aa143742d,
,,,,space,0.484,,0,178,178,28,1,V, , , , ,space,1500,1.5,610959927a28affd512bbe78,001,2021-08-19_16h38.44.755,natb3,2021.2.3,MacIntel,111.1111111,610959927a28affd512bbe78,611e07ecdcc96256ae8d5b80,611e7af4dbc6468aa143742d,
,,,,space,0.372,,0,179,179,309,1,H, , , , ,space,2500,2.5,610959927a28affd512bbe78,001,2021-08-19_16h38.44.755,natb3,2021.2.3,MacIntel,111.1111111,610959927a28affd512bbe78,611e07ecdcc96256ae8d5b80,611e7af4dbc6468aa143742d,
,,,,space,0.436,,0,180,180,232,1,O, , , , ,space,2500,2.5,610959927a28affd512bbe78,001,2021-08-19_16h38.44.755,natb3,2021.2.3,MacIntel,111.1111111,610959927a28affd512bbe78,611e07ecdcc96256ae8d5b80,611e7af4dbc6468aa143742d,
,,,,,,,0,181,181,107,1,X,9,3, ,2,,2000,2,610959927a28affd512bbe78,001,2021-08-19_16h38.44.755,natb3,2021.2.3,MacIntel,111.1111111,610959927a28affd512bbe78,611e07ecdcc96256ae8d5b80,611e7af4dbc6468aa143742d,
,,,,space,0.406,,0,182,182,79,1,P, , , , ,space,2000,2,610959927a28affd512bbe78,001,2021-08-19_16h38.44.755,natb3,2021.2.3,MacIntel,111.1111111,610959927a28affd512bbe78,611e07ecdcc96256ae8d5b80,611e7af4dbc6468aa143742d,
,,,,space,0.42,,0,183,183,90,1,K, , , , ,space,2000,2,610959927a28affd512bbe78,001,2021-08-19_16h38.44.755,natb3,2021.2.3,MacIntel,111.1111111,610959927a28affd512bbe78,611e07ecdcc96256ae8d5b80,611e7af4dbc6468aa143742d,
,,,,space,0.552,,0,184,184,6,1,Y, , , , ,space,2500,2.5,610959927a28affd512bbe78,001,2021-08-19_16h38.44.755,natb3,2021.2.3,MacIntel,111.1111111,610959927a28affd512bbe78,611e07ecdcc96256ae8d5b80,611e7af4dbc6468aa143742d,
,,,,space,0.441,,0,185,185,44,1,I, , , , ,space,2500,2.5,610959927a28affd512bbe78,001,2021-08-19_16h38.44.755,natb3,2021.2.3,MacIntel,111.1111111,610959927a28affd512bbe78,611e07ecdcc96256ae8d5b80,611e7af4dbc6468aa143742d,
,,,,space,0.442,,0,186,186,332,1,U, , , , ,space,2000,2,610959927a28affd512bbe78,001,2021-08-19_16h38.44.755,natb3,2021.2.3,MacIntel,111.1111111,610959927a28affd512bbe78,611e07ecdcc96256ae8d5b80,611e7af4dbc6468aa143742d,
,,,,space,0.437,,0,187,187,106,1,T, , , , ,space,1500,1.5,610959927a28affd512bbe78,001,2021-08-19_16h38.44.755,natb3,2021.2.3,MacIntel,111.1111111,610959927a28affd512bbe78,611e07ecdcc96256ae8d5b80,611e7af4dbc6468aa143742d,
,,,,space,0.369,,0,188,188,38,1,R, , , , ,space,2500,2.5,610959927a28affd512bbe78,001,2021-08-19_16h38.44.755,natb3,2021.2.3,MacIntel,111.1111111,610959927a28affd512bbe78,611e07ecdcc96256ae8d5b80,611e7af4dbc6468aa143742d,
,,,,space,0.365,,0,189,189,0,1,Q, , , , ,space,1500,1.5,610959927a28affd512bbe78,001,2021-08-19_16h38.44.755,natb3,2021.2.3,MacIntel,111.1111111,610959927a28affd512bbe78,611e07ecdcc96256ae8d5b80,611e7af4dbc6468aa143742d,
,,,,space,0.345,,0,190,190,167,1,K, , , , ,space,1500,1.5,610959927a28affd512bbe78,001,2021-08-19_16h38.44.755,natb3,2021.2.3,MacIntel,111.1111111,610959927a28affd512bbe78,611e07ecdcc96256ae8d5b80,611e7af4dbc6468aa143742d,
,,,,space,0.35,,0,191,191,98,1,X, , , , ,,2500,2.5,610959927a28affd512bbe78,001,2021-08-19_16h38.44.755,natb3,2021.2.3,MacIntel,111.1111111,610959927a28affd512bbe78,611e07ecdcc96256ae8d5b80,611e7af4dbc6468aa143742d,
,,,,space,0.337,,0,192,192,249,1,C, , , , ,space,2000,2,610959927a28affd512bbe78,001,2021-08-19_16h38.44.755,natb3,2021.2.3,MacIntel,111.1111111,610959927a28affd512bbe78,611e07ecdcc96256ae8d5b80,611e7af4dbc6468aa143742d,
,,,,,,,0,193,193,229,1,X,8, ,2,6,,2500,2.5,610959927a28affd512bbe78,001,2021-08-19_16h38.44.755,natb3,2021.2.3,MacIntel,111.1111111,610959927a28affd512bbe78,611e07ecdcc96256ae8d5b80,611e7af4dbc6468aa143742d,
,,,,space,0.334,,0,194,194,285,1,B, , , , ,space,1500,1.5,610959927a28affd512bbe78,001,2021-08-19_16h38.44.755,natb3,2021.2.3,MacIntel,111.1111111,610959927a28affd512bbe78,611e07ecdcc96256ae8d5b80,611e7af4dbc6468aa143742d,
,,,,space,0.291,,0,195,195,77,1,O, , , , ,space,2000,2,610959927a28affd512bbe78,001,2021-08-19_16h38.44.755,natb3,2021.2.3,MacIntel,111.1111111,610959927a28affd512bbe78,611e07ecdcc96256ae8d5b80,611e7af4dbc6468aa143742d,
,,,,space,0.306,,0,196,196,197,1,G, , , , ,space,2500,2.5,610959927a28affd512bbe78,001,2021-08-19_16h38.44.755,natb3,2021.2.3,MacIntel,111.1111111,610959927a28affd512bbe78,611e07ecdcc96256ae8d5b80,611e7af4dbc6468aa143742d,
,,,,space,0.364,,0,197,197,294,1,T, , , , ,space,2000,2,610959927a28affd512bbe78,001,2021-08-19_16h38.44.755,natb3,2021.2.3,MacIntel,111.1111111,610959927a28affd512bbe78,611e07ecdcc96256ae8d5b80,611e7af4dbc6468aa143742d,
,,,,space,0.354,,0,198,198,184,1,T, , , , ,space,2000,2,610959927a28affd512bbe78,001,2021-08-19_16h38.44.755,natb3,2021.2.3,MacIntel,111.1111111,610959927a28affd512bbe78,611e07ecdcc96256ae8d5b80,611e7af4dbc6468aa143742d,
,,,,space,0.384,,0,199,199,72,1,T, , , , ,space,1500,1.5,610959927a28affd512bbe78,001,2021-08-19_16h38.44.755,natb3,2021.2.3,MacIntel,111.1111111,610959927a28affd512bbe78,611e07ecdcc96256ae8d5b80,611e7af4dbc6468aa143742d,
,,,,space,0.39,,0,200,200,284,1,V, , , , ,space,2500,2.5,610959927a28affd512bbe78,001,2021-08-19_16h38.44.755,natb3,2021.2.3,MacIntel,111.1111111,610959927a28affd512bbe78,611e07ecdcc96256ae8d5b80,611e7af4dbc6468aa143742d,
,,,,space,0.367,,0,201,201,185,1,Y, , , , ,space,2500,2.5,610959927a28affd512bbe78,001,2021-08-19_16h38.44.755,natb3,2021.2.3,MacIntel,111.1111111,610959927a28affd512bbe78,611e07ecdcc96256ae8d5b80,611e7af4dbc6468aa143742d,
,,,,,,,0,202,202,211,1,X, , , , ,,2500,2.5,610959927a28affd512bbe78,001,2021-08-19_16h38.44.755,natb3,2021.2.3,MacIntel,111.1111111,610959927a28affd512bbe78,611e07ecdcc96256ae8d5b80,611e7af4dbc6468aa143742d,
,,,,space,0.369,,0,203,203,114,1,E, , , , ,space,2000,2,610959927a28affd512bbe78,001,2021-08-19_16h38.44.755,natb3,2021.2.3,MacIntel,111.1111111,610959927a28affd512bbe78,611e07ecdcc96256ae8d5b80,611e7af4dbc6468aa143742d,
,,,,space,0.351,,0,204,204,234,1,P, , , , ,space,2000,2,610959927a28affd512bbe78,001,2021-08-19_16h38.44.755,natb3,2021.2.3,MacIntel,111.1111111,610959927a28affd512bbe78,611e07ecdcc96256ae8d5b80,611e7af4dbc6468aa143742d,
,,,,space,0.32,,0,205,205,327,1,E, , , , ,space,1500,1.5,610959927a28affd512bbe78,001,2021-08-19_16h38.44.755,natb3,2021.2.3,MacIntel,111.1111111,610959927a28affd512bbe78,611e07ecdcc96256ae8d5b80,611e7af4dbc6468aa143742d,
,,,,space,0.766,,0,206,206,310,1,J, , , , ,space,2500,2.5,610959927a28affd512bbe78,001,2021-08-19_16h38.44.755,natb3,2021.2.3,MacIntel,111.1111111,610959927a28affd512bbe78,611e07ecdcc96256ae8d5b80,611e7af4dbc6468aa143742d,
,,,,space,0.38,,0,207,207,221,1,I, , , , ,space,2500,2.5,610959927a28affd512bbe78,001,2021-08-19_16h38.44.755,natb3,2021.2.3,MacIntel,111.1111111,610959927a28affd512bbe78,611e07ecdcc96256ae8d5b80,611e7af4dbc6468aa143742d,
,,,,space,0.414,,0,208,208,49,1,S, , , , ,space,1500,1.5,610959927a28affd512bbe78,001,2021-08-19_16h38.44.755,natb3,2021.2.3,MacIntel,111.1111111,610959927a28affd512bbe78,611e07ecdcc96256ae8d5b80,611e7af4dbc6468aa143742d,
,,,,,,,0,209,209,182,1,X, , , , ,,1500,1.5,610959927a28affd512bbe78,001,2021-08-19_16h38.44.755,natb3,2021.2.3,MacIntel,111.1111111,610959927a28affd512bbe78,611e07ecdcc96256ae8d5b80,611e7af4dbc6468aa143742d,
,,,,space,0.289,,0,210,210,216,1,R, , , , ,space,1500,1.5,610959927a28affd512bbe78,001,2021-08-19_16h38.44.755,natb3,2021.2.3,MacIntel,111.1111111,610959927a28affd512bbe78,611e07ecdcc96256ae8d5b80,611e7af4dbc6468aa143742d,
,,,,space,0.365,,0,211,211,272,1,D, , , , ,space,2000,2,610959927a28affd512bbe78,001,2021-08-19_16h38.44.755,natb3,2021.2.3,MacIntel,111.1111111,610959927a28affd512bbe78,611e07ecdcc96256ae8d5b80,611e7af4dbc6468aa143742d,
,,,,space,0.444,,0,212,212,301,1,P, , , , ,space,1500,1.5,610959927a28affd512bbe78,001,2021-08-19_16h38.44.755,natb3,2021.2.3,MacIntel,111.1111111,610959927a28affd512bbe78,611e07ecdcc96256ae8d5b80,611e7af4dbc6468aa143742d,
,,,,space,0.353,,0,213,213,76,1,I, , , , ,space,2000,2,610959927a28affd512bbe78,001,2021-08-19_16h38.44.755,natb3,2021.2.3,MacIntel,111.1111111,610959927a28affd512bbe78,611e07ecdcc96256ae8d5b80,611e7af4dbc6468aa143742d,
,,,,space,0.379,,0,214,214,19,1,G, , , , ,space,1500,1.5,610959927a28affd512bbe78,001,2021-08-19_16h38.44.755,natb3,2021.2.3,MacIntel,111.1111111,610959927a28affd512bbe78,611e07ecdcc96256ae8d5b80,611e7af4dbc6468aa143742d,
,,,,space,0.364,,0,215,215,296,1,Y, , , , ,space,2500,2.5,610959927a28affd512bbe78,001,2021-08-19_16h38.44.755,natb3,2021.2.3,MacIntel,111.1111111,610959927a28affd512bbe78,611e07ecdcc96256ae8d5b80,611e7af4dbc6468aa143742d,
,,,,space,0.419,,0,216,216,156,1,P, , , , ,space,1500,1.5,610959927a28affd512bbe78,001,2021-08-19_16h38.44.755,natb3,2021.2.3,MacIntel,111.1111111,610959927a28affd512bbe78,611e07ecdcc96256ae8d5b80,611e7af4dbc6468aa143742d,
,,,,space,0.344,,0,217,217,160,1,D, , , , ,space,1500,1.5,610959927a28affd512bbe78,001,2021-08-19_16h38.44.755,natb3,2021.2.3,MacIntel,111.1111111,610959927a28affd512bbe78,611e07ecdcc96256ae8d5b80,611e7af4dbc6468aa143742d,
,,,,space,0.405,,0,218,218,238,1,D, , , , ,space,1500,1.5,610959927a28affd512bbe78,001,2021-08-19_16h38.44.755,natb3,2021.2.3,MacIntel,111.1111111,610959927a28affd512bbe78,611e07ecdcc96256ae8d5b80,611e7af4dbc6468aa143742d,
,,,,space,0.382,,0,219,219,286,1,N, , , , ,space,1500,1.5,610959927a28affd512bbe78,001,2021-08-19_16h38.44.755,natb3,2021.2.3,MacIntel,111.1111111,610959927a28affd512bbe78,611e07ecdcc96256ae8d5b80,611e7af4dbc6468aa143742d,
,,,,space,0.357,,0,220,220,17,1,F, , , , ,space,2500,2.5,610959927a28affd512bbe78,001,2021-08-19_16h38.44.755,natb3,2021.2.3,MacIntel,111.1111111,610959927a28affd512bbe78,611e07ecdcc96256ae8d5b80,611e7af4dbc6468aa143742d,
,,,,space,0.513,,0,221,221,290,1,W, , , , ,space,1500,1.5,610959927a28affd512bbe78,001,2021-08-19_16h38.44.755,natb3,2021.2.3,MacIntel,111.1111111,610959927a28affd512bbe78,611e07ecdcc96256ae8d5b80,611e7af4dbc6468aa143742d,
,,,,,,,0,222,222,274,1,F, , , , ,space,2000,2,610959927a28affd512bbe78,001,2021-08-19_16h38.44.755,natb3,2021.2.3,MacIntel,111.1111111,610959927a28affd512bbe78,611e07ecdcc96256ae8d5b80,611e7af4dbc6468aa143742d,
,,,,space,0.267,,0,223,223,88,1,J, , , , ,space,2500,2.5,610959927a28affd512bbe78,001,2021-08-19_16h38.44.755,natb3,2021.2.3,MacIntel,111.1111111,610959927a28affd512bbe78,611e07ecdcc96256ae8d5b80,611e7af4dbc6468aa143742d,
,,,,space,0.288,,0,224,224,84,1,X, , , , ,,2000,2,610959927a28affd512bbe78,001,2021-08-19_16h38.44.755,natb3,2021.2.3,MacIntel,111.1111111,610959927a28affd512bbe78,611e07ecdcc96256ae8d5b80,611e7af4dbc6468aa143742d,
,,,,space,0.464,,0,225,225,128,1,D, , , , ,space,2500,2.5,610959927a28affd512bbe78,001,2021-08-19_16h38.44.755,natb3,2021.2.3,MacIntel,111.1111111,610959927a28affd512bbe78,611e07ecdcc96256ae8d5b80,611e7af4dbc6468aa143742d,
,,,,,,,0,226,226,12,1,X, , , , ,,1500,1.5,610959927a28affd512bbe78,001,2021-08-19_16h38.44.755,natb3,2021.2.3,MacIntel,111.1111111,610959927a28affd512bbe78,611e07ecdcc96256ae8d5b80,611e7af4dbc6468aa143742d,
,,,,space,0.398,,0,227,227,258,1,E, , , , ,space,1500,1.5,610959927a28affd512bbe78,001,2021-08-19_16h38.44.755,natb3,2021.2.3,MacIntel,111.1111111,610959927a28affd512bbe78,611e07ecdcc96256ae8d5b80,611e7af4dbc6468aa143742d,
,,,,space,0.781,,0,228,228,105,1,R, , , , ,space,2500,2.5,610959927a28affd512bbe78,001,2021-08-19_16h38.44.755,natb3,2021.2.3,MacIntel,111.1111111,610959927a28affd512bbe78,611e07ecdcc96256ae8d5b80,611e7af4dbc6468aa143742d,
,,,,,,,0,229,229,255,1,X, , , , ,,1500,1.5,610959927a28affd512bbe78,001,2021-08-19_16h38.44.755,natb3,2021.2.3,MacIntel,111.1111111,610959927a28affd512bbe78,611e07ecdcc96256ae8d5b80,611e7af4dbc6468aa143742d,
,,,,space,0.343,,0,230,230,326,1,W, , , , ,space,2000,2,610959927a28affd512bbe78,001,2021-08-19_16h38.44.755,natb3,2021.2.3,MacIntel,111.1111111,610959927a28affd512bbe78,611e07ecdcc96256ae8d5b80,611e7af4dbc6468aa143742d,
,,,,space,0.507,,0,231,231,307,1,F, , , , ,space,2500,2.5,610959927a28affd512bbe78,001,2021-08-19_16h38.44.755,natb3,2021.2.3,MacIntel,111.1111111,610959927a28affd512bbe78,611e07ecdcc96256ae8d5b80,611e7af4dbc6468aa143742d,
,,,,space,0.446,,0,232,232,14,1,S, , , , ,space,2500,2.5,610959927a28affd512bbe78,001,2021-08-19_16h38.44.755,natb3,2021.2.3,MacIntel,111.1111111,610959927a28affd512bbe78,611e07ecdcc96256ae8d5b80,611e7af4dbc6468aa143742d,
,,,,space,0.325,,0,233,233,141,1,X,1, ,4,6,,1500,1.5,610959927a28affd512bbe78,001,2021-08-19_16h38.44.755,natb3,2021.2.3,MacIntel,111.1111111,610959927a28affd512bbe78,611e07ecdcc96256ae8d5b80,611e7af4dbc6468aa143742d,
,,,,space,0.497,,0,234,234,224,1,W, , , , ,space,1500,1.5,610959927a28affd512bbe78,001,2021-08-19_16h38.44.755,natb3,2021.2.3,MacIntel,111.1111111,610959927a28affd512bbe78,611e07ecdcc96256ae8d5b80,611e7af4dbc6468aa143742d,
,,,,space,0.415,,0,235,235,276,1,H, , , , ,space,2000,2,610959927a28affd512bbe78,001,2021-08-19_16h38.44.755,natb3,2021.2.3,MacIntel,111.1111111,610959927a28affd512bbe78,611e07ecdcc96256ae8d5b80,611e7af4dbc6468aa143742d,
,,,,space,0.349,,0,236,236,143,1,M, , , , ,space,2500,2.5,610959927a28affd512bbe78,001,2021-08-19_16h38.44.755,natb3,2021.2.3,MacIntel,111.1111111,610959927a28affd512bbe78,611e07ecdcc96256ae8d5b80,611e7af4dbc6468aa143742d,
,,,,space,0.404,,0,237,237,50,1,D, , , , ,space,1500,1.5,610959927a28affd512bbe78,001,2021-08-19_16h38.44.755,natb3,2021.2.3,MacIntel,111.1111111,610959927a28affd512bbe78,611e07ecdcc96256ae8d5b80,611e7af4dbc6468aa143742d,
,,,,space,0.334,,0,238,238,280,1,L, , , , ,space,1500,1.5,610959927a28affd512bbe78,001,2021-08-19_16h38.44.755,natb3,2021.2.3,MacIntel,111.1111111,610959927a28affd512bbe78,611e07ecdcc96256ae8d5b80,611e7af4dbc6468aa143742d,
,,,,space,0.08,,0,239,239,57,1,K, , , , ,space,2500,2.5,610959927a28affd512bbe78,001,2021-08-19_16h38.44.755,natb3,2021.2.3,MacIntel,111.1111111,610959927a28affd512bbe78,611e07ecdcc96256ae8d5b80,611e7af4dbc6468aa143742d,
,,,,space,0.327,,0,240,240,302,1,X, , , , ,,2000,2,610959927a28affd512bbe78,001,2021-08-19_16h38.44.755,natb3,2021.2.3,MacIntel,111.1111111,610959927a28affd512bbe78,611e07ecdcc96256ae8d5b80,611e7af4dbc6468aa143742d,
,,,,space,0.353,,0,241,241,101,1,Q, , , , ,space,2500,2.5,610959927a28affd512bbe78,001,2021-08-19_16h38.44.755,natb3,2021.2.3,MacIntel,111.1111111,610959927a28affd512bbe78,611e07ecdcc96256ae8d5b80,611e7af4dbc6468aa143742d,
,,,,,,,0,242,242,322,1,X, , ,1,6,,2000,2,610959927a28affd512bbe78,001,2021-08-19_16h38.44.755,natb3,2021.2.3,MacIntel,111.1111111,610959927a28affd512bbe78,611e07ecdcc96256ae8d5b80,611e7af4dbc6468aa143742d,
,,,,,,,0,243,243,148,1,X, , , , ,,2000,2,610959927a28affd512bbe78,001,2021-08-19_16h38.44.755,natb3,2021.2.3,MacIntel,111.1111111,610959927a28affd512bbe78,611e07ecdcc96256ae8d5b80,611e7af4dbc6468aa143742d,
,,,,,,,0,244,244,259,1,X,8, , ,3,,2500,2.5,610959927a28affd512bbe78,001,2021-08-19_16h38.44.755,natb3,2021.2.3,MacIntel,111.1111111,610959927a28affd512bbe78,611e07ecdcc96256ae8d5b80,611e7af4dbc6468aa143742d,
,,,,space,0.355,,0,245,245,233,1,X, ,2, ,5,,1500,1.5,610959927a28affd512bbe78,001,2021-08-19_16h38.44.755,natb3,2021.2.3,MacIntel,111.1111111,610959927a28affd512bbe78,611e07ecdcc96256ae8d5b80,611e7af4dbc6468aa143742d,
,,,,,,,0,246,246,203,1,X, , , , ,,2500,2.5,610959927a28affd512bbe78,001,2021-08-19_16h38.44.755,natb3,2021.2.3,MacIntel,111.1111111,610959927a28affd512bbe78,611e07ecdcc96256ae8d5b80,611e7af4dbc6468aa143742d,
,,,,,,,0,247,247,51,1,X,7,5,8, ,,1500,1.5,610959927a28affd512bbe78,001,2021-08-19_16h38.44.755,natb3,2021.2.3,MacIntel,111.1111111,610959927a28affd512bbe78,611e07ecdcc96256ae8d5b80,611e7af4dbc6468aa143742d,
,,,,space,0.521,,0,248,248,155,1,O, , , , ,space,1500,1.5,610959927a28affd512bbe78,001,2021-08-19_16h38.44.755,natb3,2021.2.3,MacIntel,111.1111111,610959927a28affd512bbe78,611e07ecdcc96256ae8d5b80,611e7af4dbc6468aa143742d,
,,,,,,,0,249,249,191,1,X,1, ,3,4,,2500,2.5,610959927a28affd512bbe78,001,2021-08-19_16h38.44.755,natb3,2021.2.3,MacIntel,111.1111111,610959927a28affd512bbe78,611e07ecdcc96256ae8d5b80,611e7af4dbc6468aa143742d,
,,,,,,,0,250,250,69,1,X, , , , ,,1500,1.5,610959927a28affd512bbe78,001,2021-08-19_16h38.44.755,natb3,2021.2.3,MacIntel,111.1111111,610959927a28affd512bbe78,611e07ecdcc96256ae8d5b80,611e7af4dbc6468aa143742d,
,,,,space,0.364,,0,251,251,157,1,A, , , , ,space,2500,2.5,610959927a28affd512bbe78,001,2021-08-19_16h38.44.755,natb3,2021.2.3,MacIntel,111.1111111,610959927a28affd512bbe78,611e07ecdcc96256ae8d5b80,611e7af4dbc6468aa143742d,
,,,,,,,0,252,252,35,1,X, , , , ,,2500,2.5,610959927a28affd512bbe78,001,2021-08-19_16h38.44.755,natb3,2021.2.3,MacIntel,111.1111111,610959927a28affd512bbe78,611e07ecdcc96256ae8d5b80,611e7af4dbc6468aa143742d,
,,,,space,0.512,,0,253,253,11,1,P, , , , ,space,2500,2.5,610959927a28affd512bbe78,001,2021-08-19_16h38.44.755,natb3,2021.2.3,MacIntel,111.1111111,610959927a28affd512bbe78,611e07ecdcc96256ae8d5b80,611e7af4dbc6468aa143742d,
,,,,space,0.798,,0,254,254,204,1,Z, , , , ,space,2000,2,610959927a28affd512bbe78,001,2021-08-19_16h38.44.755,natb3,2021.2.3,MacIntel,111.1111111,610959927a28affd512bbe78,611e07ecdcc96256ae8d5b80,611e7af4dbc6468aa143742d,
,,,,,,,0,255,255,158,1,X, , , , ,,1500,1.5,610959927a28affd512bbe78,001,2021-08-19_16h38.44.755,natb3,2021.2.3,MacIntel,111.1111111,610959927a28affd512bbe78,611e07ecdcc96256ae8d5b80,611e7af4dbc6468aa143742d,
,,,,space,0.417,,0,256,256,127,1,S, , , , ,space,2500,2.5,610959927a28affd512bbe78,001,2021-08-19_16h38.44.755,natb3,2021.2.3,MacIntel,111.1111111,610959927a28affd512bbe78,611e07ecdcc96256ae8d5b80,611e7af4dbc6468aa143742d,
,,,,space,0.5,,0,257,257,103,1,W, , , , ,space,2000,2,610959927a28affd512bbe78,001,2021-08-19_16h38.44.755,natb3,2021.2.3,MacIntel,111.1111111,610959927a28affd512bbe78,611e07ecdcc96256ae8d5b80,611e7af4dbc6468aa143742d,
,,,,space,0.482,,0,258,258,100,1,M, , , , ,space,2000,2,610959927a28affd512bbe78,001,2021-08-19_16h38.44.755,natb3,2021.2.3,MacIntel,111.1111111,610959927a28affd512bbe78,611e07ecdcc96256ae8d5b80,611e7af4dbc6468aa143742d,
,,,,,,,0,259,259,311,1,X,1,2,7,3,,2500,2.5,610959927a28affd512bbe78,001,2021-08-19_16h38.44.755,natb3,2021.2.3,MacIntel,111.1111111,610959927a28affd512bbe78,611e07ecdcc96256ae8d5b80,611e7af4dbc6468aa143742d,
,,,,,,,0,260,260,195,1,X, , , , ,,1500,1.5,610959927a28affd512bbe78,001,2021-08-19_16h38.44.755,natb3,2021.2.3,MacIntel,111.1111111,610959927a28affd512bbe78,611e07ecdcc96256ae8d5b80,611e7af4dbc6468aa143742d,
,,,,space,0.7,,0,261,261,183,1,R, , , , ,space,1500,1.5,610959927a28affd512bbe78,001,2021-08-19_16h38.44.755,natb3,2021.2.3,MacIntel,111.1111111,610959927a28affd512bbe78,611e07ecdcc96256ae8d5b80,611e7af4dbc6468aa143742d,
,,,,space,0.582,,0,262,262,91,1,L, , , , ,space,2000,2,610959927a28affd512bbe78,001,2021-08-19_16h38.44.755,natb3,2021.2.3,MacIntel,111.1111111,610959927a28affd512bbe78,611e07ecdcc96256ae8d5b80,611e7af4dbc6468aa143742d,
,,,,space,0.636,,0,263,263,292,1,E, , , , ,space,2000,2,610959927a28affd512bbe78,001,2021-08-19_16h38.44.755,natb3,2021.2.3,MacIntel,111.1111111,610959927a28affd512bbe78,611e07ecdcc96256ae8d5b80,611e7af4dbc6468aa143742d,
,,,,space,0.634,,0,264,264,166,1,X, , , , ,,2000,2,610959927a28affd512bbe78,001,2021-08-19_16h38.44.755,natb3,2021.2.3,MacIntel,111.1111111,610959927a28affd512bbe78,611e07ecdcc96256ae8d5b80,611e7af4dbc6468aa143742d,
,,,,space,0.463,,0,265,265,312,1,K, , , , ,space,2000,2,610959927a28affd512bbe78,001,2021-08-19_16h38.44.755,natb3,2021.2.3,MacIntel,111.1111111,610959927a28affd512bbe78,611e07ecdcc96256ae8d5b80,611e7af4dbc6468aa143742d,
,,,,,,,0,266,266,145,1,X, , , , ,,2000,2,610959927a28affd512bbe78,001,2021-08-19_16h38.44.755,natb3,2021.2.3,MacIntel,111.1111111,610959927a28affd512bbe78,611e07ecdcc96256ae8d5b80,611e7af4dbc6468aa143742d,
,,,,,,,0,267,267,318,1,X, , , , ,,1500,1.5,610959927a28affd512bbe78,001,2021-08-19_16h38.44.755,natb3,2021.2.3,MacIntel,111.1111111,610959927a28affd512bbe78,611e07ecdcc96256ae8d5b80,611e7af4dbc6468aa143742d,
,,,,space,0.473,,0,268,268,172,1,C, , , , ,space,1500,1.5,610959927a28affd512bbe78,001,2021-08-19_16h38.44.755,natb3,2021.2.3,MacIntel,111.1111111,610959927a28affd512bbe78,611e07ecdcc96256ae8d5b80,611e7af4dbc6468aa143742d,
,,,,,,,0,269,269,179,1,X, ,9, ,2,,1500,1.5,610959927a28affd512bbe78,001,2021-08-19_16h38.44.755,natb3,2021.2.3,MacIntel,111.1111111,610959927a28affd512bbe78,611e07ecdcc96256ae8d5b80,611e7af4dbc6468aa143742d,
,,,,space,0.45,,0,270,270,230,1,U, , , , ,space,1500,1.5,610959927a28affd512bbe78,001,2021-08-19_16h38.44.755,natb3,2021.2.3,MacIntel,111.1111111,610959927a28affd512bbe78,611e07ecdcc96256ae8d5b80,611e7af4dbc6468aa143742d,
,,,,,,,0,271,271,3,1,R, , , , ,space,2000,2,610959927a28affd512bbe78,001,2021-08-19_16h38.44.755,natb3,2021.2.3,MacIntel,111.1111111,610959927a28affd512bbe78,611e07ecdcc96256ae8d5b80,611e7af4dbc6468aa143742d,
,,,,space,0.399,,0,272,272,137,1,C, , , , ,space,2500,2.5,610959927a28affd512bbe78,001,2021-08-19_16h38.44.755,natb3,2021.2.3,MacIntel,111.1111111,610959927a28affd512bbe78,611e07ecdcc96256ae8d5b80,611e7af4dbc6468aa143742d,
,,,,space,0.334,,0,273,273,199,1,J, , , , ,space,2500,2.5,610959927a28affd512bbe78,001,2021-08-19_16h38.44.755,natb3,2021.2.3,MacIntel,111.1111111,610959927a28affd512bbe78,611e07ecdcc96256ae8d5b80,611e7af4dbc6468aa143742d,
,,,,space,0.379,,0,274,274,62,1,V, , , , ,space,1500,1.5,610959927a28affd512bbe78,001,2021-08-19_16h38.44.755,natb3,2021.2.3,MacIntel,111.1111111,610959927a28affd512bbe78,611e07ecdcc96256ae8d5b80,611e7af4dbc6468aa143742d,
,,,,space,0.347,,0,275,275,29,1,B, , , , ,space,1500,1.5,610959927a28affd512bbe78,001,2021-08-19_16h38.44.755,natb3,2021.2.3,MacIntel,111.1111111,610959927a28affd512bbe78,611e07ecdcc96256ae8d5b80,611e7af4dbc6468aa143742d,
,,,,space,0.323,,0,276,276,2,1,E, , , , ,space,2500,2.5,610959927a28affd512bbe78,001,2021-08-19_16h38.44.755,natb3,2021.2.3,MacIntel,111.1111111,610959927a28affd512bbe78,611e07ecdcc96256ae8d5b80,611e7af4dbc6468aa143742d,
,,,,space,0.379,,0,277,277,188,1,I, , , , ,space,2500,2.5,610959927a28affd512bbe78,001,2021-08-19_16h38.44.755,natb3,2021.2.3,MacIntel,111.1111111,610959927a28affd512bbe78,611e07ecdcc96256ae8d5b80,611e7af4dbc6468aa143742d,
,,,,,,,0,278,278,27,1,X,5, ,1,3,,1500,1.5,610959927a28affd512bbe78,001,2021-08-19_16h38.44.755,natb3,2021.2.3,MacIntel,111.1111111,610959927a28affd512bbe78,611e07ecdcc96256ae8d5b80,611e7af4dbc6468aa143742d,
,,,,space,0.38,,0,279,279,95,1,V, , , , ,space,1500,1.5,610959927a28affd512bbe78,001,2021-08-19_16h38.44.755,natb3,2021.2.3,MacIntel,111.1111111,610959927a28affd512bbe78,611e07ecdcc96256ae8d5b80,611e7af4dbc6468aa143742d,
,,,,space,0.481,,0,280,280,40,1,T, , , , ,space,1500,1.5,610959927a28affd512bbe78,001,2021-08-19_16h38.44.755,natb3,2021.2.3,MacIntel,111.1111111,610959927a28affd512bbe78,611e07ecdcc96256ae8d5b80,611e7af4dbc6468aa143742d,
,,,,space,0.351,,0,281,281,193,1,S, , , , ,space,2500,2.5,610959927a28affd512bbe78,001,2021-08-19_16h38.44.755,natb3,2021.2.3,MacIntel,111.1111111,610959927a28affd512bbe78,611e07ecdcc96256ae8d5b80,611e7af4dbc6468aa143742d,
,,,,space,0.245,,0,282,282,202,1,L, , , , ,space,2500,2.5,610959927a28affd512bbe78,001,2021-08-19_16h38.44.755,natb3,2021.2.3,MacIntel,111.1111111,610959927a28affd512bbe78,611e07ecdcc96256ae8d5b80,611e7af4dbc6468aa143742d,
,,,,space,0.334,,0,283,283,151,1,Y, , , , ,space,2500,2.5,610959927a28affd512bbe78,001,2021-08-19_16h38.44.755,natb3,2021.2.3,MacIntel,111.1111111,610959927a28affd512bbe78,611e07ecdcc96256ae8d5b80,611e7af4dbc6468aa143742d,
,,,,,,,0,284,284,39,1,X,6,2, , ,,1500,1.5,610959927a28affd512bbe78,001,2021-08-19_16h38.44.755,natb3,2021.2.3,MacIntel,111.1111111,610959927a28affd512bbe78,611e07ecdcc96256ae8d5b80,611e7af4dbc6468aa143742d,
,,,,,,,0,285,285,287,1,X, ,2, ,9,,2000,2,610959927a28affd512bbe78,001,2021-08-19_16h38.44.755,natb3,2021.2.3,MacIntel,111.1111111,610959927a28affd512bbe78,611e07ecdcc96256ae8d5b80,611e7af4dbc6468aa143742d,
,,,,space,0.423,,0,286,286,67,1,Q, , , , ,space,2000,2,610959927a28affd512bbe78,001,2021-08-19_16h38.44.755,natb3,2021.2.3,MacIntel,111.1111111,610959927a28affd512bbe78,611e07ecdcc96256ae8d5b80,611e7af4dbc6468aa143742d,
,,,,space,0.463,,0,287,287,264,1,U, , , , ,space,2000,2,610959927a28affd512bbe78,001,2021-08-19_16h38.44.755,natb3,2021.2.3,MacIntel,111.1111111,610959927a28affd512bbe78,611e07ecdcc96256ae8d5b80,611e7af4dbc6468aa143742d,
,,,,,,,0,288,288,168,1,X, , , , ,,2500,2.5,610959927a28affd512bbe78,001,2021-08-19_16h38.44.755,natb3,2021.2.3,MacIntel,111.1111111,610959927a28affd512bbe78,611e07ecdcc96256ae8d5b80,611e7af4dbc6468aa143742d,
,,,,space,0.504,,0,289,289,254,1,M, , , , ,space,1500,1.5,610959927a28affd512bbe78,001,2021-08-19_16h38.44.755,natb3,2021.2.3,MacIntel,111.1111111,610959927a28affd512bbe78,611e07ecdcc96256ae8d5b80,611e7af4dbc6468aa143742d,
,,,,space,0.636,,0,290,290,181,1,E, , , , ,space,1500,1.5,610959927a28affd512bbe78,001,2021-08-19_16h38.44.755,natb3,2021.2.3,MacIntel,111.1111111,610959927a28affd512bbe78,611e07ecdcc96256ae8d5b80,611e7af4dbc6468aa143742d,
,,,,space,0.35,,0,291,291,134,1,J, , , , ,space,2000,2,610959927a28affd512bbe78,001,2021-08-19_16h38.44.755,natb3,2021.2.3,MacIntel,111.1111111,610959927a28affd512bbe78,611e07ecdcc96256ae8d5b80,611e7af4dbc6468aa143742d,
,,,,,,,0,292,292,187,1,X, ,3,7,4,,1500,1.5,610959927a28affd512bbe78,001,2021-08-19_16h38.44.755,natb3,2021.2.3,MacIntel,111.1111111,610959927a28affd512bbe78,611e07ecdcc96256ae8d5b80,611e7af4dbc6468aa143742d,
,,,,space,0.38,,0,293,293,279,1,K, , , , ,space,2500,2.5,610959927a28affd512bbe78,001,2021-08-19_16h38.44.755,natb3,2021.2.3,MacIntel,111.1111111,610959927a28affd512bbe78,611e07ecdcc96256ae8d5b80,611e7af4dbc6468aa143742d,
,,,,,,,0,294,294,248,1,X, ,1,5, ,,1500,1.5,610959927a28affd512bbe78,001,2021-08-19_16h38.44.755,natb3,2021.2.3,MacIntel,111.1111111,610959927a28affd512bbe78,611e07ecdcc96256ae8d5b80,611e7af4dbc6468aa143742d,
,,,,,,,0,295,295,162,1,X,1,6, ,2,,1500,1.5,610959927a28affd512bbe78,001,2021-08-19_16h38.44.755,natb3,2021.2.3,MacIntel,111.1111111,610959927a28affd512bbe78,611e07ecdcc96256ae8d5b80,611e7af4dbc6468aa143742d,
,,,,space,0.432,,0,296,296,48,1,A, , , , ,space,2500,2.5,610959927a28affd512bbe78,001,2021-08-19_16h38.44.755,natb3,2021.2.3,MacIntel,111.1111111,610959927a28affd512bbe78,611e07ecdcc96256ae8d5b80,611e7af4dbc6468aa143742d,
,,,,space,0.501,,0,297,297,324,1,Q, , , , ,space,2000,2,610959927a28affd512bbe78,001,2021-08-19_16h38.44.755,natb3,2021.2.3,MacIntel,111.1111111,610959927a28affd512bbe78,611e07ecdcc96256ae8d5b80,611e7af4dbc6468aa143742d,
,,,,space,0.396,,0,298,298,321,1,N, , , , ,space,2000,2,610959927a28affd512bbe78,001,2021-08-19_16h38.44.755,natb3,2021.2.3,MacIntel,111.1111111,610959927a28affd512bbe78,611e07ecdcc96256ae8d5b80,611e7af4dbc6468aa143742d,
,,,,space,0.329,,0,299,299,4,1,X, , , , ,,2000,2,610959927a28affd512bbe78,001,2021-08-19_16h38.44.755,natb3,2021.2.3,MacIntel,111.1111111,610959927a28affd512bbe78,611e07ecdcc96256ae8d5b80,611e7af4dbc6468aa143742d,
,,,,space,0.347,,0,300,300,178,1,Q, , , , ,space,1500,1.5,610959927a28affd512bbe78,001,2021-08-19_16h38.44.755,natb3,2021.2.3,MacIntel,111.1111111,610959927a28affd512bbe78,611e07ecdcc96256ae8d5b80,611e7af4dbc6468aa143742d,
,,,,space,0.445,,0,301,301,227,1,T, , , , ,space,1500,1.5,610959927a28affd512bbe78,001,2021-08-19_16h38.44.755,natb3,2021.2.3,MacIntel,111.1111111,610959927a28affd512bbe78,611e07ecdcc96256ae8d5b80,611e7af4dbc6468aa143742d,
,,,,space,0.381,,0,302,302,13,1,A, , , , ,space,2000,2,610959927a28affd512bbe78,001,2021-08-19_16h38.44.755,natb3,2021.2.3,MacIntel,111.1111111,610959927a28affd512bbe78,611e07ecdcc96256ae8d5b80,611e7af4dbc6468aa143742d,
,,,,space,0.297,,0,303,303,246,1,L, , , , ,space,2500,2.5,610959927a28affd512bbe78,001,2021-08-19_16h38.44.755,natb3,2021.2.3,MacIntel,111.1111111,610959927a28affd512bbe78,611e07ecdcc96256ae8d5b80,611e7af4dbc6468aa143742d,
,,,,space,0.33,,0,304,304,241,1,G, , , , ,space,2500,2.5,610959927a28affd512bbe78,001,2021-08-19_16h38.44.755,natb3,2021.2.3,MacIntel,111.1111111,610959927a28affd512bbe78,611e07ecdcc96256ae8d5b80,611e7af4dbc6468aa143742d,
,,,,space,0.38,,0,305,305,10,1,O, , , , ,space,2000,2,610959927a28affd512bbe78,001,2021-08-19_16h38.44.755,natb3,2021.2.3,MacIntel,111.1111111,610959927a28affd512bbe78,611e07ecdcc96256ae8d5b80,611e7af4dbc6468aa143742d,
,,,,space,0.497,,0,306,306,108,1,Y, , , , ,space,2500,2.5,610959927a28affd512bbe78,001,2021-08-19_16h38.44.755,natb3,2021.2.3,MacIntel,111.1111111,610959927a28affd512bbe78,611e07ecdcc96256ae8d5b80,611e7af4dbc6468aa143742d,
,,,,space,0.409,,0,307,307,288,1,M, , , , ,space,1500,1.5,610959927a28affd512bbe78,001,2021-08-19_16h38.44.755,natb3,2021.2.3,MacIntel,111.1111111,610959927a28affd512bbe78,611e07ecdcc96256ae8d5b80,611e7af4dbc6468aa143742d,
,,,,space,0.35,,0,308,308,329,1,X,3,4, ,2,,2500,2.5,610959927a28affd512bbe78,001,2021-08-19_16h38.44.755,natb3,2021.2.3,MacIntel,111.1111111,610959927a28affd512bbe78,611e07ecdcc96256ae8d5b80,611e7af4dbc6468aa143742d,
,,,,space,0.403,,0,309,309,71,1,R, , , , ,space,2500,2.5,610959927a28affd512bbe78,001,2021-08-19_16h38.44.755,natb3,2021.2.3,MacIntel,111.1111111,610959927a28affd512bbe78,611e07ecdcc96256ae8d5b80,611e7af4dbc6468aa143742d,
,,,,space,0.549,,0,310,310,314,1,L, , , , ,space,1500,1.5,610959927a28affd512bbe78,001,2021-08-19_16h38.44.755,natb3,2021.2.3,MacIntel,111.1111111,610959927a28affd512bbe78,611e07ecdcc96256ae8d5b80,611e7af4dbc6468aa143742d,
,,,,space,0.395,,0,311,311,94,1,C, , , , ,space,2000,2,610959927a28affd512bbe78,001,2021-08-19_16h38.44.755,natb3,2021.2.3,MacIntel,111.1111111,610959927a28affd512bbe78,611e07ecdcc96256ae8d5b80,611e7af4dbc6468aa143742d,
,,,,space,0.666,,0,312,312,316,1,Z, , , , ,space,1500,1.5,610959927a28affd512bbe78,001,2021-08-19_16h38.44.755,natb3,2021.2.3,MacIntel,111.1111111,610959927a28affd512bbe78,611e07ecdcc96256ae8d5b80,611e7af4dbc6468aa143742d,
,,,,space,0.352,,0,313,313,215,1,E, , , , ,space,2500,2.5,610959927a28affd512bbe78,001,2021-08-19_16h38.44.755,natb3,2021.2.3,MacIntel,111.1111111,610959927a28affd512bbe78,611e07ecdcc96256ae8d5b80,611e7af4dbc6468aa143742d,
,,,,space,0.345,,0,314,314,190,1,P, , , , ,space,2000,2,610959927a28affd512bbe78,001,2021-08-19_16h38.44.755,natb3,2021.2.3,MacIntel,111.1111111,610959927a28affd512bbe78,611e07ecdcc96256ae8d5b80,611e7af4dbc6468aa143742d,
,,,,space,0.365,,0,315,315,26,1,C, , , , ,space,2000,2,610959927a28affd512bbe78,001,2021-08-19_16h38.44.755,natb3,2021.2.3,MacIntel,111.1111111,610959927a28affd512bbe78,611e07ecdcc96256ae8d5b80,611e7af4dbc6468aa143742d,
,,,,space,0.368,,0,316,316,152,1,U, , , , ,space,2000,2,610959927a28affd512bbe78,001,2021-08-19_16h38.44.755,natb3,2021.2.3,MacIntel,111.1111111,610959927a28affd512bbe78,611e07ecdcc96256ae8d5b80,611e7af4dbc6468aa143742d,
,,,,space,0.331,,0,317,317,85,1,F, , , , ,space,2500,2.5,610959927a28affd512bbe78,001,2021-08-19_16h38.44.755,natb3,2021.2.3,MacIntel,111.1111111,610959927a28affd512bbe78,611e07ecdcc96256ae8d5b80,611e7af4dbc6468aa143742d,
,,,,,,,0,318,318,23,1,X,1, ,5, ,,2000,2,610959927a28affd512bbe78,001,2021-08-19_16h38.44.755,natb3,2021.2.3,MacIntel,111.1111111,610959927a28affd512bbe78,611e07ecdcc96256ae8d5b80,611e7af4dbc6468aa143742d,
,,,,space,0.368,,0,319,319,120,1,U, , , , ,space,1500,1.5,610959927a28affd512bbe78,001,2021-08-19_16h38.44.755,natb3,2021.2.3,MacIntel,111.1111111,610959927a28affd512bbe78,611e07ecdcc96256ae8d5b80,611e7af4dbc6468aa143742d,
,,,,space,0.361,,0,320,320,92,1,Z, , , , ,space,1500,1.5,610959927a28affd512bbe78,001,2021-08-19_16h38.44.755,natb3,2021.2.3,MacIntel,111.1111111,610959927a28affd512bbe78,611e07ecdcc96256ae8d5b80,611e7af4dbc6468aa143742d,
,,,,space,0.319,,0,321,321,153,1,X,4,7, ,6,,2000,2,610959927a28affd512bbe78,001,2021-08-19_16h38.44.755,natb3,2021.2.3,MacIntel,111.1111111,610959927a28affd512bbe78,611e07ecdcc96256ae8d5b80,611e7af4dbc6468aa143742d,
,,,,space,0.446,,0,322,322,262,1,Y, , , , ,space,2500,2.5,610959927a28affd512bbe78,001,2021-08-19_16h38.44.755,natb3,2021.2.3,MacIntel,111.1111111,610959927a28affd512bbe78,611e07ecdcc96256ae8d5b80,611e7af4dbc6468aa143742d,
,,,,space,0.453,,0,323,323,121,1,I, , , , ,space,2000,2,610959927a28affd512bbe78,001,2021-08-19_16h38.44.755,natb3,2021.2.3,MacIntel,111.1111111,610959927a28affd512bbe78,611e07ecdcc96256ae8d5b80,611e7af4dbc6468aa143742d,
,,,,,,,0,324,324,305,1,X, , , , ,,1500,1.5,610959927a28affd512bbe78,001,2021-08-19_16h38.44.755,natb3,2021.2.3,MacIntel,111.1111111,610959927a28affd512bbe78,611e07ecdcc96256ae8d5b80,611e7af4dbc6468aa143742d,
,,,,space,0.328,,0,325,325,222,1,O, , , , ,space,2000,2,610959927a28affd512bbe78,001,2021-08-19_16h38.44.755,natb3,2021.2.3,MacIntel,111.1111111,610959927a28affd512bbe78,611e07ecdcc96256ae8d5b80,611e7af4dbc6468aa143742d,
,,,,space,0.357,,0,326,326,323,1,M, , , , ,space,2500,2.5,610959927a28affd512bbe78,001,2021-08-19_16h38.44.755,natb3,2021.2.3,MacIntel,111.1111111,610959927a28affd512bbe78,611e07ecdcc96256ae8d5b80,611e7af4dbc6468aa143742d,
,,,,,,,0,327,327,175,1,X,7, ,4,2,,1500,1.5,610959927a28affd512bbe78,001,2021-08-19_16h38.44.755,natb3,2021.2.3,MacIntel,111.1111111,610959927a28affd512bbe78,611e07ecdcc96256ae8d5b80,611e7af4dbc6468aa143742d,
,,,,space,0.383,,0,328,328,278,1,J, , , , ,space,2000,2,610959927a28affd512bbe78,001,2021-08-19_16h38.44.755,natb3,2021.2.3,MacIntel,111.1111111,610959927a28affd512bbe78,611e07ecdcc96256ae8d5b80,611e7af4dbc6468aa143742d,
,,,,space,0.432,,0,329,329,139,1,V, , , , ,space,2000,2,610959927a28affd512bbe78,001,2021-08-19_16h38.44.755,natb3,2021.2.3,MacIntel,111.1111111,610959927a28affd512bbe78,611e07ecdcc96256ae8d5b80,611e7af4dbc6468aa143742d,
,,,,space,0.385,,0,330,330,303,1,A, , , , ,space,2000,2,610959927a28affd512bbe78,001,2021-08-19_16h38.44.755,natb3,2021.2.3,MacIntel,111.1111111,610959927a28affd512bbe78,611e07ecdcc96256ae8d5b80,611e7af4dbc6468aa143742d,
,,,,,,,0,331,331,291,1,X, , , , ,,2000,2,610959927a28affd512bbe78,001,2021-08-19_16h38.44.755,natb3,2021.2.3,MacIntel,111.1111111,610959927a28affd512bbe78,611e07ecdcc96256ae8d5b80,611e7af4dbc6468aa143742d,
,,,,space,0.339,,0,332,332,304,1,S, , , , ,space,2000,2,610959927a28affd512bbe78,001,2021-08-19_16h38.44.755,natb3,2021.2.3,MacIntel,111.1111111,610959927a28affd512bbe78,611e07ecdcc96256ae8d5b80,611e7af4dbc6468aa143742d,
,,,,,,,0,333,333,325,1,X, , , , ,,2500,2.5,610959927a28affd512bbe78,001,2021-08-19_16h38.44.755,natb3,2021.2.3,MacIntel,111.1111111,610959927a28affd512bbe78,611e07ecdcc96256ae8d5b80,611e7af4dbc6468aa143742d,
,,,,space,0.302,,0,334,334,163,1,G, , , , ,space,2500,2.5,610959927a28affd512bbe78,001,2021-08-19_16h38.44.755,natb3,2021.2.3,MacIntel,111.1111111,610959927a28affd512bbe78,611e07ecdcc96256ae8d5b80,611e7af4dbc6468aa143742d,
,,,,,,,0,335,335,125,1,X, , , , ,,2000,2,610959927a28affd512bbe78,001,2021-08-19_16h38.44.755,natb3,2021.2.3,MacIntel,111.1111111,610959927a28affd512bbe78,611e07ecdcc96256ae8d5b80,611e7af4dbc6468aa143742d,
