key_resp_2.keys,key_resp_2.rt,key_resp_3.keys,key_resp_3.rt,key_resp.keys,key_resp.rt,key_resp_4.keys,trials.thisRepN,trials.thisTrialN,trials.thisN,trials.thisIndex,trials.ran,stimulus,distractor1,distractor2,distractor3,distractor4,CorrAns,isi_duration,isi_dur_in_seconds,participant,session,date,expName,psychopyVersion,OS,frameRate,PROLIFIC_PID,STUDY_ID,SESSION_ID,key_resp_4.rt
return,21.4824,space,11.7156,space,0.8387,,0,0,0,260,1,R, , , , ,space,2000,2,610c2fa7c00d1fe37f49a110,001,2021-08-19_16h29.56.208,natb3,2021.2.3,Win32,59.17860102,610c2fa7c00d1fe37f49a110,611e07ecdcc96256ae8d5b80,611e77838905a8420b90e703,
,,,,space,0.5306,,0,1,1,97,1,B, , , , ,space,2500,2.5,610c2fa7c00d1fe37f49a110,001,2021-08-19_16h29.56.208,natb3,2021.2.3,Win32,59.17860102,610c2fa7c00d1fe37f49a110,611e07ecdcc96256ae8d5b80,611e77838905a8420b90e703,
,,,,space,0.4693,,0,2,2,142,1,N, , , , ,space,2500,2.5,610c2fa7c00d1fe37f49a110,001,2021-08-19_16h29.56.208,natb3,2021.2.3,Win32,59.17860102,610c2fa7c00d1fe37f49a110,611e07ecdcc96256ae8d5b80,611e77838905a8420b90e703,
,,,,space,0.5254,,0,3,3,139,1,V, , , , ,space,2000,2,610c2fa7c00d1fe37f49a110,001,2021-08-19_16h29.56.208,natb3,2021.2.3,Win32,59.17860102,610c2fa7c00d1fe37f49a110,611e07ecdcc96256ae8d5b80,611e77838905a8420b90e703,
,,,,,,,0,4,4,15,1,X, , , , ,,1500,1.5,610c2fa7c00d1fe37f49a110,001,2021-08-19_16h29.56.208,natb3,2021.2.3,Win32,59.17860102,610c2fa7c00d1fe37f49a110,611e07ecdcc96256ae8d5b80,611e77838905a8420b90e703,
,,,,space,0.461,,0,5,5,177,1,M, , , , ,space,2500,2.5,610c2fa7c00d1fe37f49a110,001,2021-08-19_16h29.56.208,natb3,2021.2.3,Win32,59.17860102,610c2fa7c00d1fe37f49a110,611e07ecdcc96256ae8d5b80,611e77838905a8420b90e703,
,,,,,,,0,6,6,60,1,X,7,3,5, ,,1500,1.5,610c2fa7c00d1fe37f49a110,001,2021-08-19_16h29.56.208,natb3,2021.2.3,Win32,59.17860102,610c2fa7c00d1fe37f49a110,611e07ecdcc96256ae8d5b80,611e77838905a8420b90e703,
,,,,space,0.5153,,0,7,7,333,1,I, , , , ,space,1500,1.5,610c2fa7c00d1fe37f49a110,001,2021-08-19_16h29.56.208,natb3,2021.2.3,Win32,59.17860102,610c2fa7c00d1fe37f49a110,611e07ecdcc96256ae8d5b80,611e77838905a8420b90e703,
,,,,space,0.5652,,0,8,8,72,1,T, , , , ,space,1500,1.5,610c2fa7c00d1fe37f49a110,001,2021-08-19_16h29.56.208,natb3,2021.2.3,Win32,59.17860102,610c2fa7c00d1fe37f49a110,611e07ecdcc96256ae8d5b80,611e77838905a8420b90e703,
,,,,,,,0,9,9,31,1,X, , , , ,,1500,1.5,610c2fa7c00d1fe37f49a110,001,2021-08-19_16h29.56.208,natb3,2021.2.3,Win32,59.17860102,610c2fa7c00d1fe37f49a110,611e07ecdcc96256ae8d5b80,611e77838905a8420b90e703,
,,,,,,,0,10,10,98,1,X, , , , ,,2500,2.5,610c2fa7c00d1fe37f49a110,001,2021-08-19_16h29.56.208,natb3,2021.2.3,Win32,59.17860102,610c2fa7c00d1fe37f49a110,611e07ecdcc96256ae8d5b80,611e77838905a8420b90e703,
,,,,,,,0,11,11,69,1,X, , , , ,,1500,1.5,610c2fa7c00d1fe37f49a110,001,2021-08-19_16h29.56.208,natb3,2021.2.3,Win32,59.17860102,610c2fa7c00d1fe37f49a110,611e07ecdcc96256ae8d5b80,611e77838905a8420b90e703,
,,,,,,,0,12,12,51,1,X,7,5,8, ,,1500,1.5,610c2fa7c00d1fe37f49a110,001,2021-08-19_16h29.56.208,natb3,2021.2.3,Win32,59.17860102,610c2fa7c00d1fe37f49a110,611e07ecdcc96256ae8d5b80,611e77838905a8420b90e703,
,,,,space,0.5205,,0,13,13,28,1,V, , , , ,space,1500,1.5,610c2fa7c00d1fe37f49a110,001,2021-08-19_16h29.56.208,natb3,2021.2.3,Win32,59.17860102,610c2fa7c00d1fe37f49a110,611e07ecdcc96256ae8d5b80,611e77838905a8420b90e703,
,,,,space,0.6062,,0,14,14,189,1,O, , , , ,space,1500,1.5,610c2fa7c00d1fe37f49a110,001,2021-08-19_16h29.56.208,natb3,2021.2.3,Win32,59.17860102,610c2fa7c00d1fe37f49a110,611e07ecdcc96256ae8d5b80,611e77838905a8420b90e703,
,,,,space,0.4646,,0,15,15,112,1,Q, , , , ,space,2500,2.5,610c2fa7c00d1fe37f49a110,001,2021-08-19_16h29.56.208,natb3,2021.2.3,Win32,59.17860102,610c2fa7c00d1fe37f49a110,611e07ecdcc96256ae8d5b80,611e77838905a8420b90e703,
,,,,space,0.51,,0,16,16,202,1,L, , , , ,space,2500,2.5,610c2fa7c00d1fe37f49a110,001,2021-08-19_16h29.56.208,natb3,2021.2.3,Win32,59.17860102,610c2fa7c00d1fe37f49a110,611e07ecdcc96256ae8d5b80,611e77838905a8420b90e703,
,,,,space,0.7227,,0,17,17,140,1,B, , , , ,space,2500,2.5,610c2fa7c00d1fe37f49a110,001,2021-08-19_16h29.56.208,natb3,2021.2.3,Win32,59.17860102,610c2fa7c00d1fe37f49a110,611e07ecdcc96256ae8d5b80,611e77838905a8420b90e703,
,,,,space,0.7613,,0,18,18,251,1,B, , , , ,space,1500,1.5,610c2fa7c00d1fe37f49a110,001,2021-08-19_16h29.56.208,natb3,2021.2.3,Win32,59.17860102,610c2fa7c00d1fe37f49a110,611e07ecdcc96256ae8d5b80,611e77838905a8420b90e703,
,,,,space,0.9182,,0,19,19,328,1,R, , , , ,space,1500,1.5,610c2fa7c00d1fe37f49a110,001,2021-08-19_16h29.56.208,natb3,2021.2.3,Win32,59.17860102,610c2fa7c00d1fe37f49a110,611e07ecdcc96256ae8d5b80,611e77838905a8420b90e703,
,,,,space,0.6845,,0,20,20,324,1,Q, , , , ,space,2000,2,610c2fa7c00d1fe37f49a110,001,2021-08-19_16h29.56.208,natb3,2021.2.3,Win32,59.17860102,610c2fa7c00d1fe37f49a110,611e07ecdcc96256ae8d5b80,611e77838905a8420b90e703,
,,,,space,0.7521,,0,21,21,20,1,H, , , , ,space,1500,1.5,610c2fa7c00d1fe37f49a110,001,2021-08-19_16h29.56.208,natb3,2021.2.3,Win32,59.17860102,610c2fa7c00d1fe37f49a110,611e07ecdcc96256ae8d5b80,611e77838905a8420b90e703,
,,,,space,0.5244,,0,22,22,261,1,T, , , , ,space,2000,2,610c2fa7c00d1fe37f49a110,001,2021-08-19_16h29.56.208,natb3,2021.2.3,Win32,59.17860102,610c2fa7c00d1fe37f49a110,611e07ecdcc96256ae8d5b80,611e77838905a8420b90e703,
,,,,space,0.5893,,0,23,23,63,1,B, , , , ,space,2000,2,610c2fa7c00d1fe37f49a110,001,2021-08-19_16h29.56.208,natb3,2021.2.3,Win32,59.17860102,610c2fa7c00d1fe37f49a110,611e07ecdcc96256ae8d5b80,611e77838905a8420b90e703,
,,,,space,0.4995,,0,24,24,292,1,E, , , , ,space,2000,2,610c2fa7c00d1fe37f49a110,001,2021-08-19_16h29.56.208,natb3,2021.2.3,Win32,59.17860102,610c2fa7c00d1fe37f49a110,611e07ecdcc96256ae8d5b80,611e77838905a8420b90e703,
,,,,space,0.4762,,0,25,25,212,1,Q, , , , ,space,2500,2.5,610c2fa7c00d1fe37f49a110,001,2021-08-19_16h29.56.208,natb3,2021.2.3,Win32,59.17860102,610c2fa7c00d1fe37f49a110,611e07ecdcc96256ae8d5b80,611e77838905a8420b90e703,
,,,,space,0.8248,,0,26,26,170,1,Z, , , , ,space,2000,2,610c2fa7c00d1fe37f49a110,001,2021-08-19_16h29.56.208,natb3,2021.2.3,Win32,59.17860102,610c2fa7c00d1fe37f49a110,611e07ecdcc96256ae8d5b80,611e77838905a8420b90e703,
,,,,space,0.5697,,0,27,27,246,1,L, , , , ,space,2500,2.5,610c2fa7c00d1fe37f49a110,001,2021-08-19_16h29.56.208,natb3,2021.2.3,Win32,59.17860102,610c2fa7c00d1fe37f49a110,611e07ecdcc96256ae8d5b80,611e77838905a8420b90e703,
,,,,space,0.6763,,0,28,28,144,1,Q, , , , ,space,2500,2.5,610c2fa7c00d1fe37f49a110,001,2021-08-19_16h29.56.208,natb3,2021.2.3,Win32,59.17860102,610c2fa7c00d1fe37f49a110,611e07ecdcc96256ae8d5b80,611e77838905a8420b90e703,
,,,,space,0.6175,,0,29,29,5,1,T, , , , ,space,2000,2,610c2fa7c00d1fe37f49a110,001,2021-08-19_16h29.56.208,natb3,2021.2.3,Win32,59.17860102,610c2fa7c00d1fe37f49a110,611e07ecdcc96256ae8d5b80,611e77838905a8420b90e703,
,,,,space,0.6687,,0,30,30,196,1,F, , , , ,space,1500,1.5,610c2fa7c00d1fe37f49a110,001,2021-08-19_16h29.56.208,natb3,2021.2.3,Win32,59.17860102,610c2fa7c00d1fe37f49a110,611e07ecdcc96256ae8d5b80,611e77838905a8420b90e703,
,,,,space,0.6172,,0,31,31,79,1,P, , , , ,space,2000,2,610c2fa7c00d1fe37f49a110,001,2021-08-19_16h29.56.208,natb3,2021.2.3,Win32,59.17860102,610c2fa7c00d1fe37f49a110,611e07ecdcc96256ae8d5b80,611e77838905a8420b90e703,
,,,,space,0.8905,,0,32,32,160,1,D, , , , ,space,1500,1.5,610c2fa7c00d1fe37f49a110,001,2021-08-19_16h29.56.208,natb3,2021.2.3,Win32,59.17860102,610c2fa7c00d1fe37f49a110,611e07ecdcc96256ae8d5b80,611e77838905a8420b90e703,
,,,,,,,0,33,33,311,1,X,1,2,7,3,,2500,2.5,610c2fa7c00d1fe37f49a110,001,2021-08-19_16h29.56.208,natb3,2021.2.3,Win32,59.17860102,610c2fa7c00d1fe37f49a110,611e07ecdcc96256ae8d5b80,611e77838905a8420b90e703,
,,,,space,0.4641,,0,34,34,14,1,S, , , , ,space,2500,2.5,610c2fa7c00d1fe37f49a110,001,2021-08-19_16h29.56.208,natb3,2021.2.3,Win32,59.17860102,610c2fa7c00d1fe37f49a110,611e07ecdcc96256ae8d5b80,611e77838905a8420b90e703,
,,,,,,,0,35,35,193,1,S, , , , ,space,2500,2.5,610c2fa7c00d1fe37f49a110,001,2021-08-19_16h29.56.208,natb3,2021.2.3,Win32,59.17860102,610c2fa7c00d1fe37f49a110,611e07ecdcc96256ae8d5b80,611e77838905a8420b90e703,
,,,,space,0.5696,,0,36,36,307,1,F, , , , ,space,2500,2.5,610c2fa7c00d1fe37f49a110,001,2021-08-19_16h29.56.208,natb3,2021.2.3,Win32,59.17860102,610c2fa7c00d1fe37f49a110,611e07ecdcc96256ae8d5b80,611e77838905a8420b90e703,
,,,,space,0.5462,,0,37,37,55,1,H, , , , ,space,2500,2.5,610c2fa7c00d1fe37f49a110,001,2021-08-19_16h29.56.208,natb3,2021.2.3,Win32,59.17860102,610c2fa7c00d1fe37f49a110,611e07ecdcc96256ae8d5b80,611e77838905a8420b90e703,
,,,,,,,0,38,38,153,1,X,4,7, ,6,,2000,2,610c2fa7c00d1fe37f49a110,001,2021-08-19_16h29.56.208,natb3,2021.2.3,Win32,59.17860102,610c2fa7c00d1fe37f49a110,611e07ecdcc96256ae8d5b80,611e77838905a8420b90e703,
,,,,space,0.5733,,0,39,39,323,1,M, , , , ,space,2500,2.5,610c2fa7c00d1fe37f49a110,001,2021-08-19_16h29.56.208,natb3,2021.2.3,Win32,59.17860102,610c2fa7c00d1fe37f49a110,611e07ecdcc96256ae8d5b80,611e77838905a8420b90e703,
,,,,space,0.6011,,0,40,40,103,1,W, , , , ,space,2000,2,610c2fa7c00d1fe37f49a110,001,2021-08-19_16h29.56.208,natb3,2021.2.3,Win32,59.17860102,610c2fa7c00d1fe37f49a110,611e07ecdcc96256ae8d5b80,611e77838905a8420b90e703,
,,,,,,,0,41,41,299,1,X, , , , ,,2500,2.5,610c2fa7c00d1fe37f49a110,001,2021-08-19_16h29.56.208,natb3,2021.2.3,Win32,59.17860102,610c2fa7c00d1fe37f49a110,611e07ecdcc96256ae8d5b80,611e77838905a8420b90e703,
,,,,space,0.5749,,0,42,42,147,1,E, , , , ,space,2000,2,610c2fa7c00d1fe37f49a110,001,2021-08-19_16h29.56.208,natb3,2021.2.3,Win32,59.17860102,610c2fa7c00d1fe37f49a110,611e07ecdcc96256ae8d5b80,611e77838905a8420b90e703,
,,,,space,0.4576,,0,43,43,11,1,P, , , , ,space,2500,2.5,610c2fa7c00d1fe37f49a110,001,2021-08-19_16h29.56.208,natb3,2021.2.3,Win32,59.17860102,610c2fa7c00d1fe37f49a110,611e07ecdcc96256ae8d5b80,611e77838905a8420b90e703,
,,,,space,0.4815,,0,44,44,262,1,Y, , , , ,space,2500,2.5,610c2fa7c00d1fe37f49a110,001,2021-08-19_16h29.56.208,natb3,2021.2.3,Win32,59.17860102,610c2fa7c00d1fe37f49a110,611e07ecdcc96256ae8d5b80,611e77838905a8420b90e703,
,,,,space,0.7882,,0,45,45,235,1,A, , , , ,space,1500,1.5,610c2fa7c00d1fe37f49a110,001,2021-08-19_16h29.56.208,natb3,2021.2.3,Win32,59.17860102,610c2fa7c00d1fe37f49a110,611e07ecdcc96256ae8d5b80,611e77838905a8420b90e703,
,,,,space,0.4122,,0,46,46,253,1,N, , , , ,space,2500,2.5,610c2fa7c00d1fe37f49a110,001,2021-08-19_16h29.56.208,natb3,2021.2.3,Win32,59.17860102,610c2fa7c00d1fe37f49a110,611e07ecdcc96256ae8d5b80,611e77838905a8420b90e703,
,,,,space,0.4072,,0,47,47,330,1,T, , , , ,space,2500,2.5,610c2fa7c00d1fe37f49a110,001,2021-08-19_16h29.56.208,natb3,2021.2.3,Win32,59.17860102,610c2fa7c00d1fe37f49a110,611e07ecdcc96256ae8d5b80,611e77838905a8420b90e703,
,,,,space,0.5163,,0,48,48,289,1,Q, , , , ,space,2000,2,610c2fa7c00d1fe37f49a110,001,2021-08-19_16h29.56.208,natb3,2021.2.3,Win32,59.17860102,610c2fa7c00d1fe37f49a110,611e07ecdcc96256ae8d5b80,611e77838905a8420b90e703,
,,,,space,0.4701,,0,49,49,42,1,U, , , , ,space,1500,1.5,610c2fa7c00d1fe37f49a110,001,2021-08-19_16h29.56.208,natb3,2021.2.3,Win32,59.17860102,610c2fa7c00d1fe37f49a110,611e07ecdcc96256ae8d5b80,611e77838905a8420b90e703,
,,,,space,0.4897,,0,50,50,290,1,W, , , , ,space,1500,1.5,610c2fa7c00d1fe37f49a110,001,2021-08-19_16h29.56.208,natb3,2021.2.3,Win32,59.17860102,610c2fa7c00d1fe37f49a110,611e07ecdcc96256ae8d5b80,611e77838905a8420b90e703,
,,,,space,0.5098,,0,51,51,230,1,U, , , , ,space,1500,1.5,610c2fa7c00d1fe37f49a110,001,2021-08-19_16h29.56.208,natb3,2021.2.3,Win32,59.17860102,610c2fa7c00d1fe37f49a110,611e07ecdcc96256ae8d5b80,611e77838905a8420b90e703,
,,,,,,,0,52,52,335,1,P,,,,,space,1500,1.5,610c2fa7c00d1fe37f49a110,001,2021-08-19_16h29.56.208,natb3,2021.2.3,Win32,59.17860102,610c2fa7c00d1fe37f49a110,611e07ecdcc96256ae8d5b80,611e77838905a8420b90e703,
,,,,,,,0,53,53,325,1,X, , , , ,,2500,2.5,610c2fa7c00d1fe37f49a110,001,2021-08-19_16h29.56.208,natb3,2021.2.3,Win32,59.17860102,610c2fa7c00d1fe37f49a110,611e07ecdcc96256ae8d5b80,611e77838905a8420b90e703,
,,,,space,0.5129,,0,54,54,21,1,J, , , , ,space,1500,1.5,610c2fa7c00d1fe37f49a110,001,2021-08-19_16h29.56.208,natb3,2021.2.3,Win32,59.17860102,610c2fa7c00d1fe37f49a110,611e07ecdcc96256ae8d5b80,611e77838905a8420b90e703,
,,,,space,0.4946,,0,55,55,124,1,P, , , , ,space,2000,2,610c2fa7c00d1fe37f49a110,001,2021-08-19_16h29.56.208,natb3,2021.2.3,Win32,59.17860102,610c2fa7c00d1fe37f49a110,611e07ecdcc96256ae8d5b80,611e77838905a8420b90e703,
,,,,space,0.5207,,0,56,56,188,1,I, , , , ,space,2500,2.5,610c2fa7c00d1fe37f49a110,001,2021-08-19_16h29.56.208,natb3,2021.2.3,Win32,59.17860102,610c2fa7c00d1fe37f49a110,611e07ecdcc96256ae8d5b80,611e77838905a8420b90e703,
,,,,space,0.4349,,0,57,57,164,1,H, , , , ,space,2500,2.5,610c2fa7c00d1fe37f49a110,001,2021-08-19_16h29.56.208,natb3,2021.2.3,Win32,59.17860102,610c2fa7c00d1fe37f49a110,611e07ecdcc96256ae8d5b80,611e77838905a8420b90e703,
,,,,space,0.4235,,0,58,58,169,1,L, , , , ,space,2500,2.5,610c2fa7c00d1fe37f49a110,001,2021-08-19_16h29.56.208,natb3,2021.2.3,Win32,59.17860102,610c2fa7c00d1fe37f49a110,611e07ecdcc96256ae8d5b80,611e77838905a8420b90e703,
,,,,,,,0,59,59,93,1,X,5, ,7, ,,2500,2.5,610c2fa7c00d1fe37f49a110,001,2021-08-19_16h29.56.208,natb3,2021.2.3,Win32,59.17860102,610c2fa7c00d1fe37f49a110,611e07ecdcc96256ae8d5b80,611e77838905a8420b90e703,
,,,,space,0.4575,,0,60,60,242,1,H, , , , ,space,2500,2.5,610c2fa7c00d1fe37f49a110,001,2021-08-19_16h29.56.208,natb3,2021.2.3,Win32,59.17860102,610c2fa7c00d1fe37f49a110,611e07ecdcc96256ae8d5b80,611e77838905a8420b90e703,
,,,,,,,0,61,61,129,1,X,2,3,5, ,,1500,1.5,610c2fa7c00d1fe37f49a110,001,2021-08-19_16h29.56.208,natb3,2021.2.3,Win32,59.17860102,610c2fa7c00d1fe37f49a110,611e07ecdcc96256ae8d5b80,611e77838905a8420b90e703,
,,,,space,0.4219,,0,62,62,150,1,T, , , , ,space,2500,2.5,610c2fa7c00d1fe37f49a110,001,2021-08-19_16h29.56.208,natb3,2021.2.3,Win32,59.17860102,610c2fa7c00d1fe37f49a110,611e07ecdcc96256ae8d5b80,611e77838905a8420b90e703,
,,,,space,0.5318,,0,63,63,100,1,M, , , , ,space,2000,2,610c2fa7c00d1fe37f49a110,001,2021-08-19_16h29.56.208,natb3,2021.2.3,Win32,59.17860102,610c2fa7c00d1fe37f49a110,611e07ecdcc96256ae8d5b80,611e77838905a8420b90e703,
,,,,space,0.5047,,0,64,64,159,1,S, , , , ,space,2500,2.5,610c2fa7c00d1fe37f49a110,001,2021-08-19_16h29.56.208,natb3,2021.2.3,Win32,59.17860102,610c2fa7c00d1fe37f49a110,611e07ecdcc96256ae8d5b80,611e77838905a8420b90e703,
,,,,space,0.4588,,0,65,65,75,1,U, , , , ,space,1500,1.5,610c2fa7c00d1fe37f49a110,001,2021-08-19_16h29.56.208,natb3,2021.2.3,Win32,59.17860102,610c2fa7c00d1fe37f49a110,611e07ecdcc96256ae8d5b80,611e77838905a8420b90e703,
,,,,space,0.5874,,0,66,66,208,1,B, , , , ,space,1500,1.5,610c2fa7c00d1fe37f49a110,001,2021-08-19_16h29.56.208,natb3,2021.2.3,Win32,59.17860102,610c2fa7c00d1fe37f49a110,611e07ecdcc96256ae8d5b80,611e77838905a8420b90e703,
,,,,,,,0,67,67,148,1,X, , , , ,,2000,2,610c2fa7c00d1fe37f49a110,001,2021-08-19_16h29.56.208,natb3,2021.2.3,Win32,59.17860102,610c2fa7c00d1fe37f49a110,611e07ecdcc96256ae8d5b80,611e77838905a8420b90e703,
,,,,space,0.4448,,0,68,68,227,1,T, , , , ,space,1500,1.5,610c2fa7c00d1fe37f49a110,001,2021-08-19_16h29.56.208,natb3,2021.2.3,Win32,59.17860102,610c2fa7c00d1fe37f49a110,611e07ecdcc96256ae8d5b80,611e77838905a8420b90e703,
,,,,space,0.8147,,0,69,69,192,1,A, , , , ,space,2000,2,610c2fa7c00d1fe37f49a110,001,2021-08-19_16h29.56.208,natb3,2021.2.3,Win32,59.17860102,610c2fa7c00d1fe37f49a110,611e07ecdcc96256ae8d5b80,611e77838905a8420b90e703,
,,,,,,,0,70,70,74,1,X, ,4,3,2,,1500,1.5,610c2fa7c00d1fe37f49a110,001,2021-08-19_16h29.56.208,natb3,2021.2.3,Win32,59.17860102,610c2fa7c00d1fe37f49a110,611e07ecdcc96256ae8d5b80,611e77838905a8420b90e703,
,,,,space,0.486,,0,71,71,232,1,O, , , , ,space,2500,2.5,610c2fa7c00d1fe37f49a110,001,2021-08-19_16h29.56.208,natb3,2021.2.3,Win32,59.17860102,610c2fa7c00d1fe37f49a110,611e07ecdcc96256ae8d5b80,611e77838905a8420b90e703,
,,,,space,0.488,,0,72,72,81,1,S, , , , ,space,2000,2,610c2fa7c00d1fe37f49a110,001,2021-08-19_16h29.56.208,natb3,2021.2.3,Win32,59.17860102,610c2fa7c00d1fe37f49a110,611e07ecdcc96256ae8d5b80,611e77838905a8420b90e703,
,,,,,,,0,73,73,133,1,X, ,4, ,6,,2500,2.5,610c2fa7c00d1fe37f49a110,001,2021-08-19_16h29.56.208,natb3,2021.2.3,Win32,59.17860102,610c2fa7c00d1fe37f49a110,611e07ecdcc96256ae8d5b80,611e77838905a8420b90e703,
,,,,,,,0,74,74,113,1,W, , , , ,space,2500,2.5,610c2fa7c00d1fe37f49a110,001,2021-08-19_16h29.56.208,natb3,2021.2.3,Win32,59.17860102,610c2fa7c00d1fe37f49a110,611e07ecdcc96256ae8d5b80,611e77838905a8420b90e703,
,,,,space,0.6847,,0,75,75,91,1,L, , , , ,space,2000,2,610c2fa7c00d1fe37f49a110,001,2021-08-19_16h29.56.208,natb3,2021.2.3,Win32,59.17860102,610c2fa7c00d1fe37f49a110,611e07ecdcc96256ae8d5b80,611e77838905a8420b90e703,
,,,,space,0.708,,0,76,76,104,1,E, , , , ,space,2000,2,610c2fa7c00d1fe37f49a110,001,2021-08-19_16h29.56.208,natb3,2021.2.3,Win32,59.17860102,610c2fa7c00d1fe37f49a110,611e07ecdcc96256ae8d5b80,611e77838905a8420b90e703,
,,,,space,0.5427,,0,77,77,331,1,Y, , , , ,space,2500,2.5,610c2fa7c00d1fe37f49a110,001,2021-08-19_16h29.56.208,natb3,2021.2.3,Win32,59.17860102,610c2fa7c00d1fe37f49a110,611e07ecdcc96256ae8d5b80,611e77838905a8420b90e703,
,,,,,,,0,78,78,236,1,X,3, ,4,7,,2500,2.5,610c2fa7c00d1fe37f49a110,001,2021-08-19_16h29.56.208,natb3,2021.2.3,Win32,59.17860102,610c2fa7c00d1fe37f49a110,611e07ecdcc96256ae8d5b80,611e77838905a8420b90e703,
,,,,space,0.5215,,0,79,79,48,1,A, , , , ,space,2500,2.5,610c2fa7c00d1fe37f49a110,001,2021-08-19_16h29.56.208,natb3,2021.2.3,Win32,59.17860102,610c2fa7c00d1fe37f49a110,611e07ecdcc96256ae8d5b80,611e77838905a8420b90e703,
,,,,space,0.6657,,0,80,80,306,1,D, , , , ,space,2000,2,610c2fa7c00d1fe37f49a110,001,2021-08-19_16h29.56.208,natb3,2021.2.3,Win32,59.17860102,610c2fa7c00d1fe37f49a110,611e07ecdcc96256ae8d5b80,611e77838905a8420b90e703,
,,,,space,0.6884,,0,81,81,45,1,O, , , , ,space,2000,2,610c2fa7c00d1fe37f49a110,001,2021-08-19_16h29.56.208,natb3,2021.2.3,Win32,59.17860102,610c2fa7c00d1fe37f49a110,611e07ecdcc96256ae8d5b80,611e77838905a8420b90e703,
,,,,space,0.4491,,0,82,82,119,1,Y, , , , ,space,2500,2.5,610c2fa7c00d1fe37f49a110,001,2021-08-19_16h29.56.208,natb3,2021.2.3,Win32,59.17860102,610c2fa7c00d1fe37f49a110,611e07ecdcc96256ae8d5b80,611e77838905a8420b90e703,
,,,,space,0.5293,,0,83,83,181,1,E, , , , ,space,1500,1.5,610c2fa7c00d1fe37f49a110,001,2021-08-19_16h29.56.208,natb3,2021.2.3,Win32,59.17860102,610c2fa7c00d1fe37f49a110,611e07ecdcc96256ae8d5b80,611e77838905a8420b90e703,
,,,,space,0.5322,,0,84,84,300,1,O, , , , ,space,2500,2.5,610c2fa7c00d1fe37f49a110,001,2021-08-19_16h29.56.208,natb3,2021.2.3,Win32,59.17860102,610c2fa7c00d1fe37f49a110,611e07ecdcc96256ae8d5b80,611e77838905a8420b90e703,
,,,,space,0.5689,,0,85,85,47,1,P, , , , ,space,2000,2,610c2fa7c00d1fe37f49a110,001,2021-08-19_16h29.56.208,natb3,2021.2.3,Win32,59.17860102,610c2fa7c00d1fe37f49a110,611e07ecdcc96256ae8d5b80,611e77838905a8420b90e703,
,,,,space,0.455,,0,86,86,16,1,D, , , , ,space,1500,1.5,610c2fa7c00d1fe37f49a110,001,2021-08-19_16h29.56.208,natb3,2021.2.3,Win32,59.17860102,610c2fa7c00d1fe37f49a110,611e07ecdcc96256ae8d5b80,611e77838905a8420b90e703,
,,,,,,,0,87,87,35,1,X, , , , ,,2500,2.5,610c2fa7c00d1fe37f49a110,001,2021-08-19_16h29.56.208,natb3,2021.2.3,Win32,59.17860102,610c2fa7c00d1fe37f49a110,611e07ecdcc96256ae8d5b80,611e77838905a8420b90e703,
,,,,,,,0,88,88,218,1,X,1,3, ,8,,1500,1.5,610c2fa7c00d1fe37f49a110,001,2021-08-19_16h29.56.208,natb3,2021.2.3,Win32,59.17860102,610c2fa7c00d1fe37f49a110,611e07ecdcc96256ae8d5b80,611e77838905a8420b90e703,
,,,,,,,0,89,89,179,1,X, ,9, ,2,,1500,1.5,610c2fa7c00d1fe37f49a110,001,2021-08-19_16h29.56.208,natb3,2021.2.3,Win32,59.17860102,610c2fa7c00d1fe37f49a110,611e07ecdcc96256ae8d5b80,611e77838905a8420b90e703,
,,,,space,0.4593,,0,90,90,301,1,P, , , , ,space,1500,1.5,610c2fa7c00d1fe37f49a110,001,2021-08-19_16h29.56.208,natb3,2021.2.3,Win32,59.17860102,610c2fa7c00d1fe37f49a110,611e07ecdcc96256ae8d5b80,611e77838905a8420b90e703,
,,,,space,0.6133,,0,91,91,109,1,U, , , , ,space,1500,1.5,610c2fa7c00d1fe37f49a110,001,2021-08-19_16h29.56.208,natb3,2021.2.3,Win32,59.17860102,610c2fa7c00d1fe37f49a110,611e07ecdcc96256ae8d5b80,611e77838905a8420b90e703,
,,,,space,0.5562,,0,92,92,1,1,W, , , , ,space,2000,2,610c2fa7c00d1fe37f49a110,001,2021-08-19_16h29.56.208,natb3,2021.2.3,Win32,59.17860102,610c2fa7c00d1fe37f49a110,611e07ecdcc96256ae8d5b80,611e77838905a8420b90e703,
,,,,space,0.6315,,0,93,93,25,1,Z, , , , ,space,2500,2.5,610c2fa7c00d1fe37f49a110,001,2021-08-19_16h29.56.208,natb3,2021.2.3,Win32,59.17860102,610c2fa7c00d1fe37f49a110,611e07ecdcc96256ae8d5b80,611e77838905a8420b90e703,
,,,,space,0.5717,,0,94,94,303,1,A, , , , ,space,2000,2,610c2fa7c00d1fe37f49a110,001,2021-08-19_16h29.56.208,natb3,2021.2.3,Win32,59.17860102,610c2fa7c00d1fe37f49a110,611e07ecdcc96256ae8d5b80,611e77838905a8420b90e703,
,,,,,,,0,95,95,27,1,X,5, ,1,3,,1500,1.5,610c2fa7c00d1fe37f49a110,001,2021-08-19_16h29.56.208,natb3,2021.2.3,Win32,59.17860102,610c2fa7c00d1fe37f49a110,611e07ecdcc96256ae8d5b80,611e77838905a8420b90e703,
,,,,space,0.5474,,0,96,96,90,1,K, , , , ,space,2000,2,610c2fa7c00d1fe37f49a110,001,2021-08-19_16h29.56.208,natb3,2021.2.3,Win32,59.17860102,610c2fa7c00d1fe37f49a110,611e07ecdcc96256ae8d5b80,611e77838905a8420b90e703,
,,,,,,,0,97,97,171,1,X, , , , ,,1500,1.5,610c2fa7c00d1fe37f49a110,001,2021-08-19_16h29.56.208,natb3,2021.2.3,Win32,59.17860102,610c2fa7c00d1fe37f49a110,611e07ecdcc96256ae8d5b80,611e77838905a8420b90e703,
,,,,space,0.5151,,0,98,98,298,1,I, , , , ,space,2000,2,610c2fa7c00d1fe37f49a110,001,2021-08-19_16h29.56.208,natb3,2021.2.3,Win32,59.17860102,610c2fa7c00d1fe37f49a110,611e07ecdcc96256ae8d5b80,611e77838905a8420b90e703,
,,,,,,,0,99,99,107,1,X,9,3, ,2,,2000,2,610c2fa7c00d1fe37f49a110,001,2021-08-19_16h29.56.208,natb3,2021.2.3,Win32,59.17860102,610c2fa7c00d1fe37f49a110,611e07ecdcc96256ae8d5b80,611e77838905a8420b90e703,
,,,,,,,0,100,100,314,1,L, , , , ,space,1500,1.5,610c2fa7c00d1fe37f49a110,001,2021-08-19_16h29.56.208,natb3,2021.2.3,Win32,59.17860102,610c2fa7c00d1fe37f49a110,611e07ecdcc96256ae8d5b80,611e77838905a8420b90e703,
,,,,,,,0,101,101,243,1,X, , , , ,,2500,2.5,610c2fa7c00d1fe37f49a110,001,2021-08-19_16h29.56.208,natb3,2021.2.3,Win32,59.17860102,610c2fa7c00d1fe37f49a110,611e07ecdcc96256ae8d5b80,611e77838905a8420b90e703,
,,,,,,,0,102,102,281,1,Z, , , , ,space,1500,1.5,610c2fa7c00d1fe37f49a110,001,2021-08-19_16h29.56.208,natb3,2021.2.3,Win32,59.17860102,610c2fa7c00d1fe37f49a110,611e07ecdcc96256ae8d5b80,611e77838905a8420b90e703,
,,,,space,0.6013,,0,103,103,37,1,E, , , , ,space,2500,2.5,610c2fa7c00d1fe37f49a110,001,2021-08-19_16h29.56.208,natb3,2021.2.3,Win32,59.17860102,610c2fa7c00d1fe37f49a110,611e07ecdcc96256ae8d5b80,611e77838905a8420b90e703,
,,,,space,0.8609,,0,104,104,62,1,V, , , , ,space,1500,1.5,610c2fa7c00d1fe37f49a110,001,2021-08-19_16h29.56.208,natb3,2021.2.3,Win32,59.17860102,610c2fa7c00d1fe37f49a110,611e07ecdcc96256ae8d5b80,611e77838905a8420b90e703,
,,,,space,0.8161,,0,105,105,123,1,O, , , , ,space,1500,1.5,610c2fa7c00d1fe37f49a110,001,2021-08-19_16h29.56.208,natb3,2021.2.3,Win32,59.17860102,610c2fa7c00d1fe37f49a110,611e07ecdcc96256ae8d5b80,611e77838905a8420b90e703,
,,,,,,,0,106,106,277,1,X,8,5, ,2,,2000,2,610c2fa7c00d1fe37f49a110,001,2021-08-19_16h29.56.208,natb3,2021.2.3,Win32,59.17860102,610c2fa7c00d1fe37f49a110,611e07ecdcc96256ae8d5b80,611e77838905a8420b90e703,
,,,,,,,0,107,107,96,1,X, , , , ,,1500,1.5,610c2fa7c00d1fe37f49a110,001,2021-08-19_16h29.56.208,natb3,2021.2.3,Win32,59.17860102,610c2fa7c00d1fe37f49a110,611e07ecdcc96256ae8d5b80,611e77838905a8420b90e703,
,,,,space,0.5563,,0,108,108,50,1,D, , , , ,space,1500,1.5,610c2fa7c00d1fe37f49a110,001,2021-08-19_16h29.56.208,natb3,2021.2.3,Win32,59.17860102,610c2fa7c00d1fe37f49a110,611e07ecdcc96256ae8d5b80,611e77838905a8420b90e703,
,,,,space,0.7898,,0,109,109,58,1,L, , , , ,space,2000,2,610c2fa7c00d1fe37f49a110,001,2021-08-19_16h29.56.208,natb3,2021.2.3,Win32,59.17860102,610c2fa7c00d1fe37f49a110,611e07ecdcc96256ae8d5b80,611e77838905a8420b90e703,
,,,,,,,0,110,110,291,1,X, , , , ,,2000,2,610c2fa7c00d1fe37f49a110,001,2021-08-19_16h29.56.208,natb3,2021.2.3,Win32,59.17860102,610c2fa7c00d1fe37f49a110,611e07ecdcc96256ae8d5b80,611e77838905a8420b90e703,
,,,,space,0.6788,,0,111,111,317,1,C, , , , ,space,2000,2,610c2fa7c00d1fe37f49a110,001,2021-08-19_16h29.56.208,natb3,2021.2.3,Win32,59.17860102,610c2fa7c00d1fe37f49a110,611e07ecdcc96256ae8d5b80,611e77838905a8420b90e703,
,,,,space,0.4721,,0,112,112,206,1,V, , , , ,space,2000,2,610c2fa7c00d1fe37f49a110,001,2021-08-19_16h29.56.208,natb3,2021.2.3,Win32,59.17860102,610c2fa7c00d1fe37f49a110,611e07ecdcc96256ae8d5b80,611e77838905a8420b90e703,
,,,,space,0.9175,,0,113,113,40,1,T, , , , ,space,1500,1.5,610c2fa7c00d1fe37f49a110,001,2021-08-19_16h29.56.208,natb3,2021.2.3,Win32,59.17860102,610c2fa7c00d1fe37f49a110,611e07ecdcc96256ae8d5b80,611e77838905a8420b90e703,
,,,,space,0.5843,,0,114,114,214,1,W, , , , ,space,2000,2,610c2fa7c00d1fe37f49a110,001,2021-08-19_16h29.56.208,natb3,2021.2.3,Win32,59.17860102,610c2fa7c00d1fe37f49a110,611e07ecdcc96256ae8d5b80,611e77838905a8420b90e703,
,,,,,,,0,115,115,195,1,X, , , , ,,1500,1.5,610c2fa7c00d1fe37f49a110,001,2021-08-19_16h29.56.208,natb3,2021.2.3,Win32,59.17860102,610c2fa7c00d1fe37f49a110,611e07ecdcc96256ae8d5b80,611e77838905a8420b90e703,
,,,,space,0.5235,,0,116,116,288,1,M, , , , ,space,1500,1.5,610c2fa7c00d1fe37f49a110,001,2021-08-19_16h29.56.208,natb3,2021.2.3,Win32,59.17860102,610c2fa7c00d1fe37f49a110,611e07ecdcc96256ae8d5b80,611e77838905a8420b90e703,
,,,,space,0.6553,,0,117,117,134,1,J, , , , ,space,2000,2,610c2fa7c00d1fe37f49a110,001,2021-08-19_16h29.56.208,natb3,2021.2.3,Win32,59.17860102,610c2fa7c00d1fe37f49a110,611e07ecdcc96256ae8d5b80,611e77838905a8420b90e703,
,,,,space,0.6899,,0,118,118,110,1,I, , , , ,space,1500,1.5,610c2fa7c00d1fe37f49a110,001,2021-08-19_16h29.56.208,natb3,2021.2.3,Win32,59.17860102,610c2fa7c00d1fe37f49a110,611e07ecdcc96256ae8d5b80,611e77838905a8420b90e703,
,,,,space,0.6007,,0,119,119,321,1,N, , , , ,space,2000,2,610c2fa7c00d1fe37f49a110,001,2021-08-19_16h29.56.208,natb3,2021.2.3,Win32,59.17860102,610c2fa7c00d1fe37f49a110,611e07ecdcc96256ae8d5b80,611e77838905a8420b90e703,
,,,,space,0.8235,,0,120,120,59,1,Z, , , , ,space,2000,2,610c2fa7c00d1fe37f49a110,001,2021-08-19_16h29.56.208,natb3,2021.2.3,Win32,59.17860102,610c2fa7c00d1fe37f49a110,611e07ecdcc96256ae8d5b80,611e77838905a8420b90e703,
,,,,space,0.6824,,0,121,121,105,1,R, , , , ,space,2500,2.5,610c2fa7c00d1fe37f49a110,001,2021-08-19_16h29.56.208,natb3,2021.2.3,Win32,59.17860102,610c2fa7c00d1fe37f49a110,611e07ecdcc96256ae8d5b80,611e77838905a8420b90e703,
,,,,,,,0,122,122,259,1,X,8, , ,3,,2500,2.5,610c2fa7c00d1fe37f49a110,001,2021-08-19_16h29.56.208,natb3,2021.2.3,Win32,59.17860102,610c2fa7c00d1fe37f49a110,611e07ecdcc96256ae8d5b80,611e77838905a8420b90e703,
,,,,space,0.4866,,0,123,123,194,1,D, , , , ,space,2000,2,610c2fa7c00d1fe37f49a110,001,2021-08-19_16h29.56.208,natb3,2021.2.3,Win32,59.17860102,610c2fa7c00d1fe37f49a110,611e07ecdcc96256ae8d5b80,611e77838905a8420b90e703,
,,,,,,,0,124,124,156,1,P, , , , ,space,1500,1.5,610c2fa7c00d1fe37f49a110,001,2021-08-19_16h29.56.208,natb3,2021.2.3,Win32,59.17860102,610c2fa7c00d1fe37f49a110,611e07ecdcc96256ae8d5b80,611e77838905a8420b90e703,
,,,,,,,0,125,125,175,1,X,7, ,4,2,,1500,1.5,610c2fa7c00d1fe37f49a110,001,2021-08-19_16h29.56.208,natb3,2021.2.3,Win32,59.17860102,610c2fa7c00d1fe37f49a110,611e07ecdcc96256ae8d5b80,611e77838905a8420b90e703,
,,,,space,0.7072,,0,126,126,204,1,Z, , , , ,space,2000,2,610c2fa7c00d1fe37f49a110,001,2021-08-19_16h29.56.208,natb3,2021.2.3,Win32,59.17860102,610c2fa7c00d1fe37f49a110,611e07ecdcc96256ae8d5b80,611e77838905a8420b90e703,
,,,,space,0.6191,,0,127,127,225,1,E, , , , ,space,2000,2,610c2fa7c00d1fe37f49a110,001,2021-08-19_16h29.56.208,natb3,2021.2.3,Win32,59.17860102,610c2fa7c00d1fe37f49a110,611e07ecdcc96256ae8d5b80,611e77838905a8420b90e703,
,,,,space,0.887,,0,128,128,282,1,X, , , , ,,2500,2.5,610c2fa7c00d1fe37f49a110,001,2021-08-19_16h29.56.208,natb3,2021.2.3,Win32,59.17860102,610c2fa7c00d1fe37f49a110,611e07ecdcc96256ae8d5b80,611e77838905a8420b90e703,
,,,,,,,0,129,129,82,1,X,4,6,1,7,,2000,2,610c2fa7c00d1fe37f49a110,001,2021-08-19_16h29.56.208,natb3,2021.2.3,Win32,59.17860102,610c2fa7c00d1fe37f49a110,611e07ecdcc96256ae8d5b80,611e77838905a8420b90e703,
,,,,,,,0,130,130,233,1,X, ,2, ,5,,1500,1.5,610c2fa7c00d1fe37f49a110,001,2021-08-19_16h29.56.208,natb3,2021.2.3,Win32,59.17860102,610c2fa7c00d1fe37f49a110,611e07ecdcc96256ae8d5b80,611e77838905a8420b90e703,
,,,,,,,0,131,131,168,1,X, , , , ,,2500,2.5,610c2fa7c00d1fe37f49a110,001,2021-08-19_16h29.56.208,natb3,2021.2.3,Win32,59.17860102,610c2fa7c00d1fe37f49a110,611e07ecdcc96256ae8d5b80,611e77838905a8420b90e703,
,,,,space,0.4869,,0,132,132,176,1,N, , , , ,space,1500,1.5,610c2fa7c00d1fe37f49a110,001,2021-08-19_16h29.56.208,natb3,2021.2.3,Win32,59.17860102,610c2fa7c00d1fe37f49a110,611e07ecdcc96256ae8d5b80,611e77838905a8420b90e703,
,,,,space,0.8422,,0,133,133,70,1,E, , , , ,space,2500,2.5,610c2fa7c00d1fe37f49a110,001,2021-08-19_16h29.56.208,natb3,2021.2.3,Win32,59.17860102,610c2fa7c00d1fe37f49a110,611e07ecdcc96256ae8d5b80,611e77838905a8420b90e703,
,,,,space,0.6031,,0,134,134,326,1,W, , , , ,space,2000,2,610c2fa7c00d1fe37f49a110,001,2021-08-19_16h29.56.208,natb3,2021.2.3,Win32,59.17860102,610c2fa7c00d1fe37f49a110,611e07ecdcc96256ae8d5b80,611e77838905a8420b90e703,
,,,,space,0.5362,,0,135,135,198,1,H, , , , ,space,2500,2.5,610c2fa7c00d1fe37f49a110,001,2021-08-19_16h29.56.208,natb3,2021.2.3,Win32,59.17860102,610c2fa7c00d1fe37f49a110,611e07ecdcc96256ae8d5b80,611e77838905a8420b90e703,
,,,,,,,0,136,136,316,1,Z, , , , ,space,1500,1.5,610c2fa7c00d1fe37f49a110,001,2021-08-19_16h29.56.208,natb3,2021.2.3,Win32,59.17860102,610c2fa7c00d1fe37f49a110,611e07ecdcc96256ae8d5b80,611e77838905a8420b90e703,
,,,,space,0.5502,,0,137,137,173,1,V, , , , ,space,1500,1.5,610c2fa7c00d1fe37f49a110,001,2021-08-19_16h29.56.208,natb3,2021.2.3,Win32,59.17860102,610c2fa7c00d1fe37f49a110,611e07ecdcc96256ae8d5b80,611e77838905a8420b90e703,
,,,,,,,0,138,138,66,1,X, ,4,7, ,,2000,2,610c2fa7c00d1fe37f49a110,001,2021-08-19_16h29.56.208,natb3,2021.2.3,Win32,59.17860102,610c2fa7c00d1fe37f49a110,611e07ecdcc96256ae8d5b80,611e77838905a8420b90e703,
,,,,,,,0,139,139,200,1,X,7, ,5,3,,1500,1.5,610c2fa7c00d1fe37f49a110,001,2021-08-19_16h29.56.208,natb3,2021.2.3,Win32,59.17860102,610c2fa7c00d1fe37f49a110,611e07ecdcc96256ae8d5b80,611e77838905a8420b90e703,
,,,,space,0.8331,,0,140,140,280,1,L, , , , ,space,1500,1.5,610c2fa7c00d1fe37f49a110,001,2021-08-19_16h29.56.208,natb3,2021.2.3,Win32,59.17860102,610c2fa7c00d1fe37f49a110,611e07ecdcc96256ae8d5b80,611e77838905a8420b90e703,
,,,,space,0.7032,,0,141,141,216,1,R, , , , ,space,1500,1.5,610c2fa7c00d1fe37f49a110,001,2021-08-19_16h29.56.208,natb3,2021.2.3,Win32,59.17860102,610c2fa7c00d1fe37f49a110,611e07ecdcc96256ae8d5b80,611e77838905a8420b90e703,
,,,,space,0.4658,,0,142,142,155,1,O, , , , ,space,1500,1.5,610c2fa7c00d1fe37f49a110,001,2021-08-19_16h29.56.208,natb3,2021.2.3,Win32,59.17860102,610c2fa7c00d1fe37f49a110,611e07ecdcc96256ae8d5b80,611e77838905a8420b90e703,
,,,,,,,0,143,143,137,1,C, , , , ,space,2500,2.5,610c2fa7c00d1fe37f49a110,001,2021-08-19_16h29.56.208,natb3,2021.2.3,Win32,59.17860102,610c2fa7c00d1fe37f49a110,611e07ecdcc96256ae8d5b80,611e77838905a8420b90e703,
,,,,,,,0,144,144,234,1,P, , , , ,space,2000,2,610c2fa7c00d1fe37f49a110,001,2021-08-19_16h29.56.208,natb3,2021.2.3,Win32,59.17860102,610c2fa7c00d1fe37f49a110,611e07ecdcc96256ae8d5b80,611e77838905a8420b90e703,
,,,,,,,0,145,145,85,1,F, , , , ,space,2500,2.5,610c2fa7c00d1fe37f49a110,001,2021-08-19_16h29.56.208,natb3,2021.2.3,Win32,59.17860102,610c2fa7c00d1fe37f49a110,611e07ecdcc96256ae8d5b80,611e77838905a8420b90e703,
,,,,space,0.6499,,0,146,146,167,1,K, , , , ,space,1500,1.5,610c2fa7c00d1fe37f49a110,001,2021-08-19_16h29.56.208,natb3,2021.2.3,Win32,59.17860102,610c2fa7c00d1fe37f49a110,611e07ecdcc96256ae8d5b80,611e77838905a8420b90e703,
,,,,space,0.6812,,0,147,147,241,1,G, , , , ,space,2500,2.5,610c2fa7c00d1fe37f49a110,001,2021-08-19_16h29.56.208,natb3,2021.2.3,Win32,59.17860102,610c2fa7c00d1fe37f49a110,611e07ecdcc96256ae8d5b80,611e77838905a8420b90e703,
,,,,,,,0,148,148,266,1,O, , , , ,space,1500,1.5,610c2fa7c00d1fe37f49a110,001,2021-08-19_16h29.56.208,natb3,2021.2.3,Win32,59.17860102,610c2fa7c00d1fe37f49a110,611e07ecdcc96256ae8d5b80,611e77838905a8420b90e703,
,,,,,,,0,149,149,271,1,X, , , , ,,2500,2.5,610c2fa7c00d1fe37f49a110,001,2021-08-19_16h29.56.208,natb3,2021.2.3,Win32,59.17860102,610c2fa7c00d1fe37f49a110,611e07ecdcc96256ae8d5b80,611e77838905a8420b90e703,
,,,,,,,0,150,150,118,1,X, , , , ,,2000,2,610c2fa7c00d1fe37f49a110,001,2021-08-19_16h29.56.208,natb3,2021.2.3,Win32,59.17860102,610c2fa7c00d1fe37f49a110,611e07ecdcc96256ae8d5b80,611e77838905a8420b90e703,
,,,,space,0.4793,,0,151,151,86,1,G, , , , ,space,2000,2,610c2fa7c00d1fe37f49a110,001,2021-08-19_16h29.56.208,natb3,2021.2.3,Win32,59.17860102,610c2fa7c00d1fe37f49a110,611e07ecdcc96256ae8d5b80,611e77838905a8420b90e703,
,,,,,,,0,152,152,116,1,X, , , , ,,2000,2,610c2fa7c00d1fe37f49a110,001,2021-08-19_16h29.56.208,natb3,2021.2.3,Win32,59.17860102,610c2fa7c00d1fe37f49a110,611e07ecdcc96256ae8d5b80,611e77838905a8420b90e703,
,,,,,,,0,153,153,322,1,X, , ,1,6,,2000,2,610c2fa7c00d1fe37f49a110,001,2021-08-19_16h29.56.208,natb3,2021.2.3,Win32,59.17860102,610c2fa7c00d1fe37f49a110,611e07ecdcc96256ae8d5b80,611e77838905a8420b90e703,
,,,,space,0.5154,,0,154,154,131,1,G, , , , ,space,1500,1.5,610c2fa7c00d1fe37f49a110,001,2021-08-19_16h29.56.208,natb3,2021.2.3,Win32,59.17860102,610c2fa7c00d1fe37f49a110,611e07ecdcc96256ae8d5b80,611e77838905a8420b90e703,
,,,,space,0.6946,,0,155,155,312,1,K, , , , ,space,2000,2,610c2fa7c00d1fe37f49a110,001,2021-08-19_16h29.56.208,natb3,2021.2.3,Win32,59.17860102,610c2fa7c00d1fe37f49a110,611e07ecdcc96256ae8d5b80,611e77838905a8420b90e703,
,,,,space,0.6266,,0,156,156,53,1,G, , , , ,space,2500,2.5,610c2fa7c00d1fe37f49a110,001,2021-08-19_16h29.56.208,natb3,2021.2.3,Win32,59.17860102,610c2fa7c00d1fe37f49a110,611e07ecdcc96256ae8d5b80,611e77838905a8420b90e703,
,,,,space,0.5032,,0,157,157,130,1,F, , , , ,space,2000,2,610c2fa7c00d1fe37f49a110,001,2021-08-19_16h29.56.208,natb3,2021.2.3,Win32,59.17860102,610c2fa7c00d1fe37f49a110,611e07ecdcc96256ae8d5b80,611e77838905a8420b90e703,
,,,,space,0.6937,,0,158,158,286,1,N, , , , ,space,1500,1.5,610c2fa7c00d1fe37f49a110,001,2021-08-19_16h29.56.208,natb3,2021.2.3,Win32,59.17860102,610c2fa7c00d1fe37f49a110,611e07ecdcc96256ae8d5b80,611e77838905a8420b90e703,
,,,,space,0.7325,,0,159,159,334,1,O, , , , ,space,1500,1.5,610c2fa7c00d1fe37f49a110,001,2021-08-19_16h29.56.208,natb3,2021.2.3,Win32,59.17860102,610c2fa7c00d1fe37f49a110,611e07ecdcc96256ae8d5b80,611e77838905a8420b90e703,
,,,,,,,0,160,160,122,1,X,1, , ,8,,1500,1.5,610c2fa7c00d1fe37f49a110,001,2021-08-19_16h29.56.208,natb3,2021.2.3,Win32,59.17860102,610c2fa7c00d1fe37f49a110,611e07ecdcc96256ae8d5b80,611e77838905a8420b90e703,
,,,,,,,0,161,161,287,1,X, ,2, ,9,,2000,2,610c2fa7c00d1fe37f49a110,001,2021-08-19_16h29.56.208,natb3,2021.2.3,Win32,59.17860102,610c2fa7c00d1fe37f49a110,611e07ecdcc96256ae8d5b80,611e77838905a8420b90e703,
,,,,space,0.4705,,0,162,162,161,1,F, , , , ,space,1500,1.5,610c2fa7c00d1fe37f49a110,001,2021-08-19_16h29.56.208,natb3,2021.2.3,Win32,59.17860102,610c2fa7c00d1fe37f49a110,611e07ecdcc96256ae8d5b80,611e77838905a8420b90e703,
,,,,space,0.4857,,0,163,163,68,1,W, , , , ,space,2500,2.5,610c2fa7c00d1fe37f49a110,001,2021-08-19_16h29.56.208,natb3,2021.2.3,Win32,59.17860102,610c2fa7c00d1fe37f49a110,611e07ecdcc96256ae8d5b80,611e77838905a8420b90e703,
,,,,,,,0,164,164,78,1,X, , , , ,,2000,2,610c2fa7c00d1fe37f49a110,001,2021-08-19_16h29.56.208,natb3,2021.2.3,Win32,59.17860102,610c2fa7c00d1fe37f49a110,611e07ecdcc96256ae8d5b80,611e77838905a8420b90e703,
,,,,space,0.5073,,0,165,165,163,1,G, , , , ,space,2500,2.5,610c2fa7c00d1fe37f49a110,001,2021-08-19_16h29.56.208,natb3,2021.2.3,Win32,59.17860102,610c2fa7c00d1fe37f49a110,611e07ecdcc96256ae8d5b80,611e77838905a8420b90e703,
,,,,space,0.6075,,0,166,166,180,1,W, , , , ,space,2000,2,610c2fa7c00d1fe37f49a110,001,2021-08-19_16h29.56.208,natb3,2021.2.3,Win32,59.17860102,610c2fa7c00d1fe37f49a110,611e07ecdcc96256ae8d5b80,611e77838905a8420b90e703,
,,,,space,0.665,space,0,167,167,2,1,E, , , , ,space,2500,2.5,610c2fa7c00d1fe37f49a110,001,2021-08-19_16h29.56.208,natb3,2021.2.3,Win32,59.17860102,610c2fa7c00d1fe37f49a110,611e07ecdcc96256ae8d5b80,611e77838905a8420b90e703,76.2969
,,,,,,,0,168,168,210,1,M, , , , ,space,1500,1.5,610c2fa7c00d1fe37f49a110,001,2021-08-19_16h29.56.208,natb3,2021.2.3,Win32,59.17860102,610c2fa7c00d1fe37f49a110,611e07ecdcc96256ae8d5b80,611e77838905a8420b90e703,
,,,,,,,0,169,169,84,1,X, , , , ,,2000,2,610c2fa7c00d1fe37f49a110,001,2021-08-19_16h29.56.208,natb3,2021.2.3,Win32,59.17860102,610c2fa7c00d1fe37f49a110,611e07ecdcc96256ae8d5b80,611e77838905a8420b90e703,
,,,,space,0.4059,,0,170,170,294,1,T, , , , ,space,2000,2,610c2fa7c00d1fe37f49a110,001,2021-08-19_16h29.56.208,natb3,2021.2.3,Win32,59.17860102,610c2fa7c00d1fe37f49a110,611e07ecdcc96256ae8d5b80,611e77838905a8420b90e703,
,,,,space,0.4432,,0,171,171,127,1,S, , , , ,space,2500,2.5,610c2fa7c00d1fe37f49a110,001,2021-08-19_16h29.56.208,natb3,2021.2.3,Win32,59.17860102,610c2fa7c00d1fe37f49a110,611e07ecdcc96256ae8d5b80,611e77838905a8420b90e703,
,,,,space,0.4346,,0,172,172,151,1,Y, , , , ,space,2500,2.5,610c2fa7c00d1fe37f49a110,001,2021-08-19_16h29.56.208,natb3,2021.2.3,Win32,59.17860102,610c2fa7c00d1fe37f49a110,611e07ecdcc96256ae8d5b80,611e77838905a8420b90e703,
,,,,space,0.5031,,0,173,173,215,1,E, , , , ,space,2500,2.5,610c2fa7c00d1fe37f49a110,001,2021-08-19_16h29.56.208,natb3,2021.2.3,Win32,59.17860102,610c2fa7c00d1fe37f49a110,611e07ecdcc96256ae8d5b80,611e77838905a8420b90e703,
,,,,space,0.9325,,0,174,174,22,1,K, , , , ,space,2000,2,610c2fa7c00d1fe37f49a110,001,2021-08-19_16h29.56.208,natb3,2021.2.3,Win32,59.17860102,610c2fa7c00d1fe37f49a110,611e07ecdcc96256ae8d5b80,611e77838905a8420b90e703,
,,,,space,0.4129,,0,175,175,149,1,R, , , , ,space,2000,2,610c2fa7c00d1fe37f49a110,001,2021-08-19_16h29.56.208,natb3,2021.2.3,Win32,59.17860102,610c2fa7c00d1fe37f49a110,611e07ecdcc96256ae8d5b80,611e77838905a8420b90e703,
,,,,space,0.5604,,0,176,176,38,1,R, , , , ,space,2500,2.5,610c2fa7c00d1fe37f49a110,001,2021-08-19_16h29.56.208,natb3,2021.2.3,Win32,59.17860102,610c2fa7c00d1fe37f49a110,611e07ecdcc96256ae8d5b80,611e77838905a8420b90e703,
,,,,space,0.638,,0,177,177,114,1,E, , , , ,space,2000,2,610c2fa7c00d1fe37f49a110,001,2021-08-19_16h29.56.208,natb3,2021.2.3,Win32,59.17860102,610c2fa7c00d1fe37f49a110,611e07ecdcc96256ae8d5b80,611e77838905a8420b90e703,
,,,,space,0.5344,,0,178,178,61,1,C, , , , ,space,2000,2,610c2fa7c00d1fe37f49a110,001,2021-08-19_16h29.56.208,natb3,2021.2.3,Win32,59.17860102,610c2fa7c00d1fe37f49a110,611e07ecdcc96256ae8d5b80,611e77838905a8420b90e703,
,,,,space,0.4864,,0,179,179,219,1,Y, , , , ,space,2000,2,610c2fa7c00d1fe37f49a110,001,2021-08-19_16h29.56.208,natb3,2021.2.3,Win32,59.17860102,610c2fa7c00d1fe37f49a110,611e07ecdcc96256ae8d5b80,611e77838905a8420b90e703,
,,,,space,0.4273,,0,180,180,126,1,A, , , , ,space,2500,2.5,610c2fa7c00d1fe37f49a110,001,2021-08-19_16h29.56.208,natb3,2021.2.3,Win32,59.17860102,610c2fa7c00d1fe37f49a110,611e07ecdcc96256ae8d5b80,611e77838905a8420b90e703,
,,,,,,,0,181,181,39,1,X,6,2, , ,,1500,1.5,610c2fa7c00d1fe37f49a110,001,2021-08-19_16h29.56.208,natb3,2021.2.3,Win32,59.17860102,610c2fa7c00d1fe37f49a110,611e07ecdcc96256ae8d5b80,611e77838905a8420b90e703,
,,,,,,,0,182,182,318,1,X, , , , ,,1500,1.5,610c2fa7c00d1fe37f49a110,001,2021-08-19_16h29.56.208,natb3,2021.2.3,Win32,59.17860102,610c2fa7c00d1fe37f49a110,611e07ecdcc96256ae8d5b80,611e77838905a8420b90e703,
,,,,space,0.455,,0,183,183,56,1,J, , , , ,space,1500,1.5,610c2fa7c00d1fe37f49a110,001,2021-08-19_16h29.56.208,natb3,2021.2.3,Win32,59.17860102,610c2fa7c00d1fe37f49a110,611e07ecdcc96256ae8d5b80,611e77838905a8420b90e703,
,,,,,,,0,184,184,302,1,X, , , , ,,2000,2,610c2fa7c00d1fe37f49a110,001,2021-08-19_16h29.56.208,natb3,2021.2.3,Win32,59.17860102,610c2fa7c00d1fe37f49a110,611e07ecdcc96256ae8d5b80,611e77838905a8420b90e703,
,,,,space,0.5176,,0,185,185,272,1,D, , , , ,space,2000,2,610c2fa7c00d1fe37f49a110,001,2021-08-19_16h29.56.208,natb3,2021.2.3,Win32,59.17860102,610c2fa7c00d1fe37f49a110,611e07ecdcc96256ae8d5b80,611e77838905a8420b90e703,
,,,,space,0.0983,,0,186,186,108,1,Y, , , , ,space,2500,2.5,610c2fa7c00d1fe37f49a110,001,2021-08-19_16h29.56.208,natb3,2021.2.3,Win32,59.17860102,610c2fa7c00d1fe37f49a110,611e07ecdcc96256ae8d5b80,611e77838905a8420b90e703,
,,,,,,,0,187,187,54,1,X, , , , ,,2000,2,610c2fa7c00d1fe37f49a110,001,2021-08-19_16h29.56.208,natb3,2021.2.3,Win32,59.17860102,610c2fa7c00d1fe37f49a110,611e07ecdcc96256ae8d5b80,611e77838905a8420b90e703,
,,,,,,,0,188,188,295,1,X,8,7,5, ,,2500,2.5,610c2fa7c00d1fe37f49a110,001,2021-08-19_16h29.56.208,natb3,2021.2.3,Win32,59.17860102,610c2fa7c00d1fe37f49a110,611e07ecdcc96256ae8d5b80,611e77838905a8420b90e703,
,,,,,,,0,189,189,211,1,X, , , , ,,2500,2.5,610c2fa7c00d1fe37f49a110,001,2021-08-19_16h29.56.208,natb3,2021.2.3,Win32,59.17860102,610c2fa7c00d1fe37f49a110,611e07ecdcc96256ae8d5b80,611e77838905a8420b90e703,
,,,,space,0.4679,,0,190,190,228,1,Y, , , , ,space,2000,2,610c2fa7c00d1fe37f49a110,001,2021-08-19_16h29.56.208,natb3,2021.2.3,Win32,59.17860102,610c2fa7c00d1fe37f49a110,611e07ecdcc96256ae8d5b80,611e77838905a8420b90e703,
,,,,space,0.6155,,0,191,191,332,1,U, , , , ,space,2000,2,610c2fa7c00d1fe37f49a110,001,2021-08-19_16h29.56.208,natb3,2021.2.3,Win32,59.17860102,610c2fa7c00d1fe37f49a110,611e07ecdcc96256ae8d5b80,611e77838905a8420b90e703,
,,,,space,0.5556,,0,192,192,83,1,D, , , , ,space,2000,2,610c2fa7c00d1fe37f49a110,001,2021-08-19_16h29.56.208,natb3,2021.2.3,Win32,59.17860102,610c2fa7c00d1fe37f49a110,611e07ecdcc96256ae8d5b80,611e77838905a8420b90e703,
,,,,,,,0,193,193,191,1,X,1, ,3,4,,2500,2.5,610c2fa7c00d1fe37f49a110,001,2021-08-19_16h29.56.208,natb3,2021.2.3,Win32,59.17860102,610c2fa7c00d1fe37f49a110,611e07ecdcc96256ae8d5b80,611e77838905a8420b90e703,
,,,,space,0.5483,,0,194,194,297,1,U, , , , ,space,2000,2,610c2fa7c00d1fe37f49a110,001,2021-08-19_16h29.56.208,natb3,2021.2.3,Win32,59.17860102,610c2fa7c00d1fe37f49a110,611e07ecdcc96256ae8d5b80,611e77838905a8420b90e703,
,,,,,,,0,195,195,143,1,M, , , , ,space,2500,2.5,610c2fa7c00d1fe37f49a110,001,2021-08-19_16h29.56.208,natb3,2021.2.3,Win32,59.17860102,610c2fa7c00d1fe37f49a110,611e07ecdcc96256ae8d5b80,611e77838905a8420b90e703,
,,,,space,0.5996,,0,196,196,157,1,A, , , , ,space,2500,2.5,610c2fa7c00d1fe37f49a110,001,2021-08-19_16h29.56.208,natb3,2021.2.3,Win32,59.17860102,610c2fa7c00d1fe37f49a110,611e07ecdcc96256ae8d5b80,611e77838905a8420b90e703,
,,,,,,,0,197,197,138,1,X,8,5, ,3,,2000,2,610c2fa7c00d1fe37f49a110,001,2021-08-19_16h29.56.208,natb3,2021.2.3,Win32,59.17860102,610c2fa7c00d1fe37f49a110,611e07ecdcc96256ae8d5b80,611e77838905a8420b90e703,
,,,,space,0.6041,,0,198,198,197,1,G, , , , ,space,2500,2.5,610c2fa7c00d1fe37f49a110,001,2021-08-19_16h29.56.208,natb3,2021.2.3,Win32,59.17860102,610c2fa7c00d1fe37f49a110,611e07ecdcc96256ae8d5b80,611e77838905a8420b90e703,
,,,,space,0.7452,,0,199,199,0,1,Q, , , , ,space,1500,1.5,610c2fa7c00d1fe37f49a110,001,2021-08-19_16h29.56.208,natb3,2021.2.3,Win32,59.17860102,610c2fa7c00d1fe37f49a110,611e07ecdcc96256ae8d5b80,611e77838905a8420b90e703,
,,,,,,,0,200,200,46,1,X, , , , ,,2000,2,610c2fa7c00d1fe37f49a110,001,2021-08-19_16h29.56.208,natb3,2021.2.3,Win32,59.17860102,610c2fa7c00d1fe37f49a110,611e07ecdcc96256ae8d5b80,611e77838905a8420b90e703,
,,,,space,0.4728,,0,201,201,224,1,W, , , , ,space,1500,1.5,610c2fa7c00d1fe37f49a110,001,2021-08-19_16h29.56.208,natb3,2021.2.3,Win32,59.17860102,610c2fa7c00d1fe37f49a110,611e07ecdcc96256ae8d5b80,611e77838905a8420b90e703,
,,,,,,,0,202,202,152,1,U, , , , ,space,2000,2,610c2fa7c00d1fe37f49a110,001,2021-08-19_16h29.56.208,natb3,2021.2.3,Win32,59.17860102,610c2fa7c00d1fe37f49a110,611e07ecdcc96256ae8d5b80,611e77838905a8420b90e703,
,,,,space,0.5536,,0,203,203,226,1,R, , , , ,space,2000,2,610c2fa7c00d1fe37f49a110,001,2021-08-19_16h29.56.208,natb3,2021.2.3,Win32,59.17860102,610c2fa7c00d1fe37f49a110,611e07ecdcc96256ae8d5b80,611e77838905a8420b90e703,
,,,,,,,0,204,204,255,1,X, , , , ,,1500,1.5,610c2fa7c00d1fe37f49a110,001,2021-08-19_16h29.56.208,natb3,2021.2.3,Win32,59.17860102,610c2fa7c00d1fe37f49a110,611e07ecdcc96256ae8d5b80,611e77838905a8420b90e703,
,,,,space,0.5359,,0,205,205,146,1,W, , , , ,space,1500,1.5,610c2fa7c00d1fe37f49a110,001,2021-08-19_16h29.56.208,natb3,2021.2.3,Win32,59.17860102,610c2fa7c00d1fe37f49a110,611e07ecdcc96256ae8d5b80,611e77838905a8420b90e703,
,,,,space,0.5901,,0,206,206,87,1,H, , , , ,space,1500,1.5,610c2fa7c00d1fe37f49a110,001,2021-08-19_16h29.56.208,natb3,2021.2.3,Win32,59.17860102,610c2fa7c00d1fe37f49a110,611e07ecdcc96256ae8d5b80,611e77838905a8420b90e703,
,,,,,,,0,207,207,158,1,X, , , , ,,1500,1.5,610c2fa7c00d1fe37f49a110,001,2021-08-19_16h29.56.208,natb3,2021.2.3,Win32,59.17860102,610c2fa7c00d1fe37f49a110,611e07ecdcc96256ae8d5b80,611e77838905a8420b90e703,
,,,,,,,0,208,208,305,1,X, , , , ,,1500,1.5,610c2fa7c00d1fe37f49a110,001,2021-08-19_16h29.56.208,natb3,2021.2.3,Win32,59.17860102,610c2fa7c00d1fe37f49a110,611e07ecdcc96256ae8d5b80,611e77838905a8420b90e703,
,,,,space,0.962,,0,209,209,136,1,Z, , , , ,space,2500,2.5,610c2fa7c00d1fe37f49a110,001,2021-08-19_16h29.56.208,natb3,2021.2.3,Win32,59.17860102,610c2fa7c00d1fe37f49a110,611e07ecdcc96256ae8d5b80,611e77838905a8420b90e703,
,,,,space,0.6851,,0,210,210,6,1,Y, , , , ,space,2500,2.5,610c2fa7c00d1fe37f49a110,001,2021-08-19_16h29.56.208,natb3,2021.2.3,Win32,59.17860102,610c2fa7c00d1fe37f49a110,611e07ecdcc96256ae8d5b80,611e77838905a8420b90e703,
,,,,space,0.6496,,0,211,211,64,1,N, , , , ,space,2000,2,610c2fa7c00d1fe37f49a110,001,2021-08-19_16h29.56.208,natb3,2021.2.3,Win32,59.17860102,610c2fa7c00d1fe37f49a110,611e07ecdcc96256ae8d5b80,611e77838905a8420b90e703,
,,,,space,0.6622,,0,212,212,217,1,T, , , , ,space,2500,2.5,610c2fa7c00d1fe37f49a110,001,2021-08-19_16h29.56.208,natb3,2021.2.3,Win32,59.17860102,610c2fa7c00d1fe37f49a110,611e07ecdcc96256ae8d5b80,611e77838905a8420b90e703,
,,,,space,0.7344,,0,213,213,237,1,S, , , , ,space,1500,1.5,610c2fa7c00d1fe37f49a110,001,2021-08-19_16h29.56.208,natb3,2021.2.3,Win32,59.17860102,610c2fa7c00d1fe37f49a110,611e07ecdcc96256ae8d5b80,611e77838905a8420b90e703,
,,,,space,0.6541,,0,214,214,115,1,R, , , , ,space,1500,1.5,610c2fa7c00d1fe37f49a110,001,2021-08-19_16h29.56.208,natb3,2021.2.3,Win32,59.17860102,610c2fa7c00d1fe37f49a110,611e07ecdcc96256ae8d5b80,611e77838905a8420b90e703,
,,,,,,,0,215,215,182,1,X, , , , ,,1500,1.5,610c2fa7c00d1fe37f49a110,001,2021-08-19_16h29.56.208,natb3,2021.2.3,Win32,59.17860102,610c2fa7c00d1fe37f49a110,611e07ecdcc96256ae8d5b80,611e77838905a8420b90e703,
,,,,space,0.6369,,0,216,216,8,1,U, , , , ,space,1500,1.5,610c2fa7c00d1fe37f49a110,001,2021-08-19_16h29.56.208,natb3,2021.2.3,Win32,59.17860102,610c2fa7c00d1fe37f49a110,611e07ecdcc96256ae8d5b80,611e77838905a8420b90e703,
,,,,space,0.6015,,0,217,217,308,1,G, , , , ,space,1500,1.5,610c2fa7c00d1fe37f49a110,001,2021-08-19_16h29.56.208,natb3,2021.2.3,Win32,59.17860102,610c2fa7c00d1fe37f49a110,611e07ecdcc96256ae8d5b80,611e77838905a8420b90e703,
,,,,space,0.5307,,0,218,218,184,1,T, , , , ,space,2000,2,610c2fa7c00d1fe37f49a110,001,2021-08-19_16h29.56.208,natb3,2021.2.3,Win32,59.17860102,610c2fa7c00d1fe37f49a110,611e07ecdcc96256ae8d5b80,611e77838905a8420b90e703,
,,,,space,0.468,,0,219,219,3,1,R, , , , ,space,2000,2,610c2fa7c00d1fe37f49a110,001,2021-08-19_16h29.56.208,natb3,2021.2.3,Win32,59.17860102,610c2fa7c00d1fe37f49a110,611e07ecdcc96256ae8d5b80,611e77838905a8420b90e703,
,,,,,,,0,220,220,229,1,X,8, ,2,6,,2500,2.5,610c2fa7c00d1fe37f49a110,001,2021-08-19_16h29.56.208,natb3,2021.2.3,Win32,59.17860102,610c2fa7c00d1fe37f49a110,611e07ecdcc96256ae8d5b80,611e77838905a8420b90e703,
,,,,space,0.5767,,0,221,221,135,1,K, , , , ,space,1500,1.5,610c2fa7c00d1fe37f49a110,001,2021-08-19_16h29.56.208,natb3,2021.2.3,Win32,59.17860102,610c2fa7c00d1fe37f49a110,611e07ecdcc96256ae8d5b80,611e77838905a8420b90e703,
,,,,,,,0,222,222,125,1,X, , , , ,,2000,2,610c2fa7c00d1fe37f49a110,001,2021-08-19_16h29.56.208,natb3,2021.2.3,Win32,59.17860102,610c2fa7c00d1fe37f49a110,611e07ecdcc96256ae8d5b80,611e77838905a8420b90e703,
,,,,,,,0,223,223,213,1,X, , , , ,,2500,2.5,610c2fa7c00d1fe37f49a110,001,2021-08-19_16h29.56.208,natb3,2021.2.3,Win32,59.17860102,610c2fa7c00d1fe37f49a110,611e07ecdcc96256ae8d5b80,611e77838905a8420b90e703,
,,,,,,,0,224,224,141,1,X,1, ,4,6,,1500,1.5,610c2fa7c00d1fe37f49a110,001,2021-08-19_16h29.56.208,natb3,2021.2.3,Win32,59.17860102,610c2fa7c00d1fe37f49a110,611e07ecdcc96256ae8d5b80,611e77838905a8420b90e703,
,,,,space,0.4422,,0,225,225,257,1,W, , , , ,space,2000,2,610c2fa7c00d1fe37f49a110,001,2021-08-19_16h29.56.208,natb3,2021.2.3,Win32,59.17860102,610c2fa7c00d1fe37f49a110,611e07ecdcc96256ae8d5b80,611e77838905a8420b90e703,
,,,,,,,0,226,226,106,1,T, , , , ,space,1500,1.5,610c2fa7c00d1fe37f49a110,001,2021-08-19_16h29.56.208,natb3,2021.2.3,Win32,59.17860102,610c2fa7c00d1fe37f49a110,611e07ecdcc96256ae8d5b80,611e77838905a8420b90e703,
,,,,space,0.6505,,0,227,227,222,1,O, , , , ,space,2000,2,610c2fa7c00d1fe37f49a110,001,2021-08-19_16h29.56.208,natb3,2021.2.3,Win32,59.17860102,610c2fa7c00d1fe37f49a110,611e07ecdcc96256ae8d5b80,611e77838905a8420b90e703,
,,,,,,,0,228,228,23,1,X,1, ,5, ,,2000,2,610c2fa7c00d1fe37f49a110,001,2021-08-19_16h29.56.208,natb3,2021.2.3,Win32,59.17860102,610c2fa7c00d1fe37f49a110,611e07ecdcc96256ae8d5b80,611e77838905a8420b90e703,
,,,,space,0.5403,,0,229,229,250,1,V, , , , ,space,2000,2,610c2fa7c00d1fe37f49a110,001,2021-08-19_16h29.56.208,natb3,2021.2.3,Win32,59.17860102,610c2fa7c00d1fe37f49a110,611e07ecdcc96256ae8d5b80,611e77838905a8420b90e703,
,,,,,,,0,230,230,315,1,X, , , , ,,2500,2.5,610c2fa7c00d1fe37f49a110,001,2021-08-19_16h29.56.208,natb3,2021.2.3,Win32,59.17860102,610c2fa7c00d1fe37f49a110,611e07ecdcc96256ae8d5b80,611e77838905a8420b90e703,
,,,,space,0.5021,,0,231,231,209,1,N, , , , ,space,2000,2,610c2fa7c00d1fe37f49a110,001,2021-08-19_16h29.56.208,natb3,2021.2.3,Win32,59.17860102,610c2fa7c00d1fe37f49a110,611e07ecdcc96256ae8d5b80,611e77838905a8420b90e703,
,,,,,,,0,232,232,102,1,X, ,6, , ,,1500,1.5,610c2fa7c00d1fe37f49a110,001,2021-08-19_16h29.56.208,natb3,2021.2.3,Win32,59.17860102,610c2fa7c00d1fe37f49a110,611e07ecdcc96256ae8d5b80,611e77838905a8420b90e703,
,,,,space,0.5097,,0,233,233,174,1,B, , , , ,space,2500,2.5,610c2fa7c00d1fe37f49a110,001,2021-08-19_16h29.56.208,natb3,2021.2.3,Win32,59.17860102,610c2fa7c00d1fe37f49a110,611e07ecdcc96256ae8d5b80,611e77838905a8420b90e703,
,,,,space,0.6018,,0,234,234,49,1,S, , , , ,space,1500,1.5,610c2fa7c00d1fe37f49a110,001,2021-08-19_16h29.56.208,natb3,2021.2.3,Win32,59.17860102,610c2fa7c00d1fe37f49a110,611e07ecdcc96256ae8d5b80,611e77838905a8420b90e703,
,,,,space,0.5421,,0,235,235,309,1,H, , , , ,space,2500,2.5,610c2fa7c00d1fe37f49a110,001,2021-08-19_16h29.56.208,natb3,2021.2.3,Win32,59.17860102,610c2fa7c00d1fe37f49a110,611e07ecdcc96256ae8d5b80,611e77838905a8420b90e703,
,,,,,,,0,236,236,240,1,F, , , , ,space,2500,2.5,610c2fa7c00d1fe37f49a110,001,2021-08-19_16h29.56.208,natb3,2021.2.3,Win32,59.17860102,610c2fa7c00d1fe37f49a110,611e07ecdcc96256ae8d5b80,611e77838905a8420b90e703,
,,,,space,0.6477,,0,237,237,88,1,J, , , , ,space,2500,2.5,610c2fa7c00d1fe37f49a110,001,2021-08-19_16h29.56.208,natb3,2021.2.3,Win32,59.17860102,610c2fa7c00d1fe37f49a110,611e07ecdcc96256ae8d5b80,611e77838905a8420b90e703,
,,,,space,0.885,,0,238,238,13,1,A, , , , ,space,2000,2,610c2fa7c00d1fe37f49a110,001,2021-08-19_16h29.56.208,natb3,2021.2.3,Win32,59.17860102,610c2fa7c00d1fe37f49a110,611e07ecdcc96256ae8d5b80,611e77838905a8420b90e703,
,,,,space,0.7553,,0,239,239,172,1,C, , , , ,space,1500,1.5,610c2fa7c00d1fe37f49a110,001,2021-08-19_16h29.56.208,natb3,2021.2.3,Win32,59.17860102,610c2fa7c00d1fe37f49a110,611e07ecdcc96256ae8d5b80,611e77838905a8420b90e703,
,,,,space,0.5233,,0,240,240,17,1,F, , , , ,space,2500,2.5,610c2fa7c00d1fe37f49a110,001,2021-08-19_16h29.56.208,natb3,2021.2.3,Win32,59.17860102,610c2fa7c00d1fe37f49a110,611e07ecdcc96256ae8d5b80,611e77838905a8420b90e703,
,,,,space,0.8337,,0,241,241,283,1,C, , , , ,space,1500,1.5,610c2fa7c00d1fe37f49a110,001,2021-08-19_16h29.56.208,natb3,2021.2.3,Win32,59.17860102,610c2fa7c00d1fe37f49a110,611e07ecdcc96256ae8d5b80,611e77838905a8420b90e703,
,,,,space,0.6751,,0,242,242,154,1,I, , , , ,space,2500,2.5,610c2fa7c00d1fe37f49a110,001,2021-08-19_16h29.56.208,natb3,2021.2.3,Win32,59.17860102,610c2fa7c00d1fe37f49a110,611e07ecdcc96256ae8d5b80,611e77838905a8420b90e703,
,,,,space,0.4559,,0,243,243,94,1,C, , , , ,space,2000,2,610c2fa7c00d1fe37f49a110,001,2021-08-19_16h29.56.208,natb3,2021.2.3,Win32,59.17860102,610c2fa7c00d1fe37f49a110,611e07ecdcc96256ae8d5b80,611e77838905a8420b90e703,
,,,,,,,0,244,244,120,1,U, , , , ,space,1500,1.5,610c2fa7c00d1fe37f49a110,001,2021-08-19_16h29.56.208,natb3,2021.2.3,Win32,59.17860102,610c2fa7c00d1fe37f49a110,611e07ecdcc96256ae8d5b80,611e77838905a8420b90e703,
,,,,space,0.4896,,0,245,245,285,1,B, , , , ,space,1500,1.5,610c2fa7c00d1fe37f49a110,001,2021-08-19_16h29.56.208,natb3,2021.2.3,Win32,59.17860102,610c2fa7c00d1fe37f49a110,611e07ecdcc96256ae8d5b80,611e77838905a8420b90e703,
,,,,space,0.7013,,0,246,246,9,1,I, , , , ,space,1500,1.5,610c2fa7c00d1fe37f49a110,001,2021-08-19_16h29.56.208,natb3,2021.2.3,Win32,59.17860102,610c2fa7c00d1fe37f49a110,611e07ecdcc96256ae8d5b80,611e77838905a8420b90e703,
,,,,space,0.9533,,0,247,247,284,1,V, , , , ,space,2500,2.5,610c2fa7c00d1fe37f49a110,001,2021-08-19_16h29.56.208,natb3,2021.2.3,Win32,59.17860102,610c2fa7c00d1fe37f49a110,611e07ecdcc96256ae8d5b80,611e77838905a8420b90e703,
,,,,,,,0,248,248,274,1,F, , , , ,space,2000,2,610c2fa7c00d1fe37f49a110,001,2021-08-19_16h29.56.208,natb3,2021.2.3,Win32,59.17860102,610c2fa7c00d1fe37f49a110,611e07ecdcc96256ae8d5b80,611e77838905a8420b90e703,
,,,,space,0.4078,,0,249,249,178,1,Q, , , , ,space,1500,1.5,610c2fa7c00d1fe37f49a110,001,2021-08-19_16h29.56.208,natb3,2021.2.3,Win32,59.17860102,610c2fa7c00d1fe37f49a110,611e07ecdcc96256ae8d5b80,611e77838905a8420b90e703,
,,,,space,0.6303,,0,250,250,36,1,W, , , , ,space,2000,2,610c2fa7c00d1fe37f49a110,001,2021-08-19_16h29.56.208,natb3,2021.2.3,Win32,59.17860102,610c2fa7c00d1fe37f49a110,611e07ecdcc96256ae8d5b80,611e77838905a8420b90e703,
,,,,space,0.4011,,0,251,251,278,1,J, , , , ,space,2000,2,610c2fa7c00d1fe37f49a110,001,2021-08-19_16h29.56.208,natb3,2021.2.3,Win32,59.17860102,610c2fa7c00d1fe37f49a110,611e07ecdcc96256ae8d5b80,611e77838905a8420b90e703,
,,,,space,0.4584,,0,252,252,57,1,K, , , , ,space,2500,2.5,610c2fa7c00d1fe37f49a110,001,2021-08-19_16h29.56.208,natb3,2021.2.3,Win32,59.17860102,610c2fa7c00d1fe37f49a110,611e07ecdcc96256ae8d5b80,611e77838905a8420b90e703,
,,,,space,0.4822,,0,253,253,77,1,O, , , , ,space,2000,2,610c2fa7c00d1fe37f49a110,001,2021-08-19_16h29.56.208,natb3,2021.2.3,Win32,59.17860102,610c2fa7c00d1fe37f49a110,611e07ecdcc96256ae8d5b80,611e77838905a8420b90e703,
,,,,space,0.4713,,0,254,254,258,1,E, , , , ,space,1500,1.5,610c2fa7c00d1fe37f49a110,001,2021-08-19_16h29.56.208,natb3,2021.2.3,Win32,59.17860102,610c2fa7c00d1fe37f49a110,611e07ecdcc96256ae8d5b80,611e77838905a8420b90e703,
,,,,space,0.4259,,0,255,255,304,1,S, , , , ,space,2000,2,610c2fa7c00d1fe37f49a110,001,2021-08-19_16h29.56.208,natb3,2021.2.3,Win32,59.17860102,610c2fa7c00d1fe37f49a110,611e07ecdcc96256ae8d5b80,611e77838905a8420b90e703,
,,,,,,,0,256,256,252,1,X,3, ,6,9,,2000,2,610c2fa7c00d1fe37f49a110,001,2021-08-19_16h29.56.208,natb3,2021.2.3,Win32,59.17860102,610c2fa7c00d1fe37f49a110,611e07ecdcc96256ae8d5b80,611e77838905a8420b90e703,
,,,,,,,0,257,257,12,1,X, , , , ,,1500,1.5,610c2fa7c00d1fe37f49a110,001,2021-08-19_16h29.56.208,natb3,2021.2.3,Win32,59.17860102,610c2fa7c00d1fe37f49a110,611e07ecdcc96256ae8d5b80,611e77838905a8420b90e703,
,,,,,,,0,258,258,203,1,X, , , , ,,2500,2.5,610c2fa7c00d1fe37f49a110,001,2021-08-19_16h29.56.208,natb3,2021.2.3,Win32,59.17860102,610c2fa7c00d1fe37f49a110,611e07ecdcc96256ae8d5b80,611e77838905a8420b90e703,
,,,,space,0.5087,,0,259,259,67,1,Q, , , , ,space,2000,2,610c2fa7c00d1fe37f49a110,001,2021-08-19_16h29.56.208,natb3,2021.2.3,Win32,59.17860102,610c2fa7c00d1fe37f49a110,611e07ecdcc96256ae8d5b80,611e77838905a8420b90e703,
,,,,space,0.5874,,0,260,260,186,1,U, , , , ,space,2500,2.5,610c2fa7c00d1fe37f49a110,001,2021-08-19_16h29.56.208,natb3,2021.2.3,Win32,59.17860102,610c2fa7c00d1fe37f49a110,611e07ecdcc96256ae8d5b80,611e77838905a8420b90e703,
,,,,space,0.6017,,0,261,261,310,1,J, , , , ,space,2500,2.5,610c2fa7c00d1fe37f49a110,001,2021-08-19_16h29.56.208,natb3,2021.2.3,Win32,59.17860102,610c2fa7c00d1fe37f49a110,611e07ecdcc96256ae8d5b80,611e77838905a8420b90e703,
,,,,space,0.6263,,0,262,262,249,1,C, , , , ,space,2000,2,610c2fa7c00d1fe37f49a110,001,2021-08-19_16h29.56.208,natb3,2021.2.3,Win32,59.17860102,610c2fa7c00d1fe37f49a110,611e07ecdcc96256ae8d5b80,611e77838905a8420b90e703,
,,,,space,0.57,,0,263,263,190,1,P, , , , ,space,2000,2,610c2fa7c00d1fe37f49a110,001,2021-08-19_16h29.56.208,natb3,2021.2.3,Win32,59.17860102,610c2fa7c00d1fe37f49a110,611e07ecdcc96256ae8d5b80,611e77838905a8420b90e703,
,,,,,,,0,264,264,239,1,X, , , , ,,2000,2,610c2fa7c00d1fe37f49a110,001,2021-08-19_16h29.56.208,natb3,2021.2.3,Win32,59.17860102,610c2fa7c00d1fe37f49a110,611e07ecdcc96256ae8d5b80,611e77838905a8420b90e703,
,,,,space,0.5144,,0,265,265,296,1,Y, , , , ,space,2500,2.5,610c2fa7c00d1fe37f49a110,001,2021-08-19_16h29.56.208,natb3,2021.2.3,Win32,59.17860102,610c2fa7c00d1fe37f49a110,611e07ecdcc96256ae8d5b80,611e77838905a8420b90e703,
,,,,space,0.441,,0,266,266,205,1,C, , , , ,space,2000,2,610c2fa7c00d1fe37f49a110,001,2021-08-19_16h29.56.208,natb3,2021.2.3,Win32,59.17860102,610c2fa7c00d1fe37f49a110,611e07ecdcc96256ae8d5b80,611e77838905a8420b90e703,
,,,,space,0.4704,,0,267,267,44,1,I, , , , ,space,2500,2.5,610c2fa7c00d1fe37f49a110,001,2021-08-19_16h29.56.208,natb3,2021.2.3,Win32,59.17860102,610c2fa7c00d1fe37f49a110,611e07ecdcc96256ae8d5b80,611e77838905a8420b90e703,
,,,,space,0.538,,0,268,268,221,1,I, , , , ,space,2500,2.5,610c2fa7c00d1fe37f49a110,001,2021-08-19_16h29.56.208,natb3,2021.2.3,Win32,59.17860102,610c2fa7c00d1fe37f49a110,611e07ecdcc96256ae8d5b80,611e77838905a8420b90e703,
,,,,space,0.513,,0,269,269,267,1,P, , , , ,space,2000,2,610c2fa7c00d1fe37f49a110,001,2021-08-19_16h29.56.208,natb3,2021.2.3,Win32,59.17860102,610c2fa7c00d1fe37f49a110,611e07ecdcc96256ae8d5b80,611e77838905a8420b90e703,
,,,,space,0.6406,,0,270,270,10,1,O, , , , ,space,2000,2,610c2fa7c00d1fe37f49a110,001,2021-08-19_16h29.56.208,natb3,2021.2.3,Win32,59.17860102,610c2fa7c00d1fe37f49a110,611e07ecdcc96256ae8d5b80,611e77838905a8420b90e703,
,,,,,,,0,271,271,18,1,X, ,2,5,8,,2500,2.5,610c2fa7c00d1fe37f49a110,001,2021-08-19_16h29.56.208,natb3,2021.2.3,Win32,59.17860102,610c2fa7c00d1fe37f49a110,611e07ecdcc96256ae8d5b80,611e77838905a8420b90e703,
,,,,space,0.7811,,0,272,272,128,1,D, , , , ,space,2500,2.5,610c2fa7c00d1fe37f49a110,001,2021-08-19_16h29.56.208,natb3,2021.2.3,Win32,59.17860102,610c2fa7c00d1fe37f49a110,611e07ecdcc96256ae8d5b80,611e77838905a8420b90e703,
,,,,space,0.782,,0,273,273,65,1,M, , , , ,space,1500,1.5,610c2fa7c00d1fe37f49a110,001,2021-08-19_16h29.56.208,natb3,2021.2.3,Win32,59.17860102,610c2fa7c00d1fe37f49a110,611e07ecdcc96256ae8d5b80,611e77838905a8420b90e703,
,,,,,,,0,274,274,269,1,A, , , , ,space,2500,2.5,610c2fa7c00d1fe37f49a110,001,2021-08-19_16h29.56.208,natb3,2021.2.3,Win32,59.17860102,610c2fa7c00d1fe37f49a110,611e07ecdcc96256ae8d5b80,611e77838905a8420b90e703,
,,,,,,,0,275,275,33,1,X, , , , ,,1500,1.5,610c2fa7c00d1fe37f49a110,001,2021-08-19_16h29.56.208,natb3,2021.2.3,Win32,59.17860102,610c2fa7c00d1fe37f49a110,611e07ecdcc96256ae8d5b80,611e77838905a8420b90e703,
,,,,space,0.4869,,0,276,276,121,1,I, , , , ,space,2000,2,610c2fa7c00d1fe37f49a110,001,2021-08-19_16h29.56.208,natb3,2021.2.3,Win32,59.17860102,610c2fa7c00d1fe37f49a110,611e07ecdcc96256ae8d5b80,611e77838905a8420b90e703,
,,,,space,0.7952,,0,277,277,270,1,S, , , , ,space,1500,1.5,610c2fa7c00d1fe37f49a110,001,2021-08-19_16h29.56.208,natb3,2021.2.3,Win32,59.17860102,610c2fa7c00d1fe37f49a110,611e07ecdcc96256ae8d5b80,611e77838905a8420b90e703,
,,,,space,0.6984,,0,278,278,7,1,X, , , , ,,1500,1.5,610c2fa7c00d1fe37f49a110,001,2021-08-19_16h29.56.208,natb3,2021.2.3,Win32,59.17860102,610c2fa7c00d1fe37f49a110,611e07ecdcc96256ae8d5b80,611e77838905a8420b90e703,
,,,,space,0.5336,,0,279,279,29,1,B, , , , ,space,1500,1.5,610c2fa7c00d1fe37f49a110,001,2021-08-19_16h29.56.208,natb3,2021.2.3,Win32,59.17860102,610c2fa7c00d1fe37f49a110,611e07ecdcc96256ae8d5b80,611e77838905a8420b90e703,
,,,,,,,0,280,280,89,1,X,3, , , ,,2000,2,610c2fa7c00d1fe37f49a110,001,2021-08-19_16h29.56.208,natb3,2021.2.3,Win32,59.17860102,610c2fa7c00d1fe37f49a110,611e07ecdcc96256ae8d5b80,611e77838905a8420b90e703,
,,,,space,0.8824,,0,281,281,52,1,F, , , , ,space,1500,1.5,610c2fa7c00d1fe37f49a110,001,2021-08-19_16h29.56.208,natb3,2021.2.3,Win32,59.17860102,610c2fa7c00d1fe37f49a110,611e07ecdcc96256ae8d5b80,611e77838905a8420b90e703,
,,,,space,0.5149,,0,282,282,111,1,O, , , , ,space,2000,2,610c2fa7c00d1fe37f49a110,001,2021-08-19_16h29.56.208,natb3,2021.2.3,Win32,59.17860102,610c2fa7c00d1fe37f49a110,611e07ecdcc96256ae8d5b80,611e77838905a8420b90e703,
,,,,,,,0,283,283,207,1,X,9, ,2, ,,2500,2.5,610c2fa7c00d1fe37f49a110,001,2021-08-19_16h29.56.208,natb3,2021.2.3,Win32,59.17860102,610c2fa7c00d1fe37f49a110,611e07ecdcc96256ae8d5b80,611e77838905a8420b90e703,
,,,,space,0.5099,,0,284,284,276,1,H, , , , ,space,2000,2,610c2fa7c00d1fe37f49a110,001,2021-08-19_16h29.56.208,natb3,2021.2.3,Win32,59.17860102,610c2fa7c00d1fe37f49a110,611e07ecdcc96256ae8d5b80,611e77838905a8420b90e703,
,,,,space,0.6655,,0,285,285,238,1,D, , , , ,space,1500,1.5,610c2fa7c00d1fe37f49a110,001,2021-08-19_16h29.56.208,natb3,2021.2.3,Win32,59.17860102,610c2fa7c00d1fe37f49a110,611e07ecdcc96256ae8d5b80,611e77838905a8420b90e703,
,,,,space,0.4368,,0,286,286,30,1,N, , , , ,space,2500,2.5,610c2fa7c00d1fe37f49a110,001,2021-08-19_16h29.56.208,natb3,2021.2.3,Win32,59.17860102,610c2fa7c00d1fe37f49a110,611e07ecdcc96256ae8d5b80,611e77838905a8420b90e703,
,,,,space,0.398,,0,287,287,32,1,M, , , , ,space,1500,1.5,610c2fa7c00d1fe37f49a110,001,2021-08-19_16h29.56.208,natb3,2021.2.3,Win32,59.17860102,610c2fa7c00d1fe37f49a110,611e07ecdcc96256ae8d5b80,611e77838905a8420b90e703,
,,,,space,0.9591,,0,288,288,273,1,X, , , , ,,2000,2,610c2fa7c00d1fe37f49a110,001,2021-08-19_16h29.56.208,natb3,2021.2.3,Win32,59.17860102,610c2fa7c00d1fe37f49a110,611e07ecdcc96256ae8d5b80,611e77838905a8420b90e703,
,,,,,,,0,289,289,165,1,J, , , , ,space,2500,2.5,610c2fa7c00d1fe37f49a110,001,2021-08-19_16h29.56.208,natb3,2021.2.3,Win32,59.17860102,610c2fa7c00d1fe37f49a110,611e07ecdcc96256ae8d5b80,611e77838905a8420b90e703,
,,,,,,,0,290,290,80,1,A, , , , ,space,2000,2,610c2fa7c00d1fe37f49a110,001,2021-08-19_16h29.56.208,natb3,2021.2.3,Win32,59.17860102,610c2fa7c00d1fe37f49a110,611e07ecdcc96256ae8d5b80,611e77838905a8420b90e703,
,,,,space,0.9431,,0,291,291,264,1,U, , , , ,space,2000,2,610c2fa7c00d1fe37f49a110,001,2021-08-19_16h29.56.208,natb3,2021.2.3,Win32,59.17860102,610c2fa7c00d1fe37f49a110,611e07ecdcc96256ae8d5b80,611e77838905a8420b90e703,
,,,,,,,0,292,292,329,1,X,3,4, ,2,,2500,2.5,610c2fa7c00d1fe37f49a110,001,2021-08-19_16h29.56.208,natb3,2021.2.3,Win32,59.17860102,610c2fa7c00d1fe37f49a110,611e07ecdcc96256ae8d5b80,611e77838905a8420b90e703,
,,,,,,,0,293,293,248,1,X, ,1,5, ,,1500,1.5,610c2fa7c00d1fe37f49a110,001,2021-08-19_16h29.56.208,natb3,2021.2.3,Win32,59.17860102,610c2fa7c00d1fe37f49a110,611e07ecdcc96256ae8d5b80,611e77838905a8420b90e703,
,,,,space,0.5239,,0,294,294,201,1,K, , , , ,space,1500,1.5,610c2fa7c00d1fe37f49a110,001,2021-08-19_16h29.56.208,natb3,2021.2.3,Win32,59.17860102,610c2fa7c00d1fe37f49a110,611e07ecdcc96256ae8d5b80,611e77838905a8420b90e703,
,,,,,,,0,295,295,162,1,X,1,6, ,2,,1500,1.5,610c2fa7c00d1fe37f49a110,001,2021-08-19_16h29.56.208,natb3,2021.2.3,Win32,59.17860102,610c2fa7c00d1fe37f49a110,611e07ecdcc96256ae8d5b80,611e77838905a8420b90e703,
,,,,space,0.496,,0,296,296,101,1,Q, , , , ,space,2500,2.5,610c2fa7c00d1fe37f49a110,001,2021-08-19_16h29.56.208,natb3,2021.2.3,Win32,59.17860102,610c2fa7c00d1fe37f49a110,611e07ecdcc96256ae8d5b80,611e77838905a8420b90e703,
,,,,space,0.7376,,0,297,297,185,1,Y, , , , ,space,2500,2.5,610c2fa7c00d1fe37f49a110,001,2021-08-19_16h29.56.208,natb3,2021.2.3,Win32,59.17860102,610c2fa7c00d1fe37f49a110,611e07ecdcc96256ae8d5b80,611e77838905a8420b90e703,
,,,,,,,0,298,298,245,1,K, , , , ,space,2000,2,610c2fa7c00d1fe37f49a110,001,2021-08-19_16h29.56.208,natb3,2021.2.3,Win32,59.17860102,610c2fa7c00d1fe37f49a110,611e07ecdcc96256ae8d5b80,611e77838905a8420b90e703,
,,,,,,,0,299,299,313,1,X, , , , ,,2500,2.5,610c2fa7c00d1fe37f49a110,001,2021-08-19_16h29.56.208,natb3,2021.2.3,Win32,59.17860102,610c2fa7c00d1fe37f49a110,611e07ecdcc96256ae8d5b80,611e77838905a8420b90e703,
,,,,space,0.5664,,0,300,300,183,1,R, , , , ,space,1500,1.5,610c2fa7c00d1fe37f49a110,001,2021-08-19_16h29.56.208,natb3,2021.2.3,Win32,59.17860102,610c2fa7c00d1fe37f49a110,611e07ecdcc96256ae8d5b80,611e77838905a8420b90e703,
,,,,space,0.7472,,0,301,301,92,1,Z, , , , ,space,1500,1.5,610c2fa7c00d1fe37f49a110,001,2021-08-19_16h29.56.208,natb3,2021.2.3,Win32,59.17860102,610c2fa7c00d1fe37f49a110,611e07ecdcc96256ae8d5b80,611e77838905a8420b90e703,
,,,,space,0.7008,,0,302,302,263,1,X,4, ,6, ,,1500,1.5,610c2fa7c00d1fe37f49a110,001,2021-08-19_16h29.56.208,natb3,2021.2.3,Win32,59.17860102,610c2fa7c00d1fe37f49a110,611e07ecdcc96256ae8d5b80,611e77838905a8420b90e703,
,,,,space,0.4432,,0,303,303,99,1,N, , , , ,space,2500,2.5,610c2fa7c00d1fe37f49a110,001,2021-08-19_16h29.56.208,natb3,2021.2.3,Win32,59.17860102,610c2fa7c00d1fe37f49a110,611e07ecdcc96256ae8d5b80,611e77838905a8420b90e703,
,,,,space,0.5158,,0,304,304,244,1,J, , , , ,space,1500,1.5,610c2fa7c00d1fe37f49a110,001,2021-08-19_16h29.56.208,natb3,2021.2.3,Win32,59.17860102,610c2fa7c00d1fe37f49a110,611e07ecdcc96256ae8d5b80,611e77838905a8420b90e703,
,,,,space,0.5332,,0,305,305,327,1,E, , , , ,space,1500,1.5,610c2fa7c00d1fe37f49a110,001,2021-08-19_16h29.56.208,natb3,2021.2.3,Win32,59.17860102,610c2fa7c00d1fe37f49a110,611e07ecdcc96256ae8d5b80,611e77838905a8420b90e703,
,,,,,,,0,306,306,4,1,X, , , , ,,2000,2,610c2fa7c00d1fe37f49a110,001,2021-08-19_16h29.56.208,natb3,2021.2.3,Win32,59.17860102,610c2fa7c00d1fe37f49a110,611e07ecdcc96256ae8d5b80,611e77838905a8420b90e703,
,,,,space,0.7303,,0,307,307,132,1,H, , , , ,space,2500,2.5,610c2fa7c00d1fe37f49a110,001,2021-08-19_16h29.56.208,natb3,2021.2.3,Win32,59.17860102,610c2fa7c00d1fe37f49a110,611e07ecdcc96256ae8d5b80,611e77838905a8420b90e703,
,,,,space,0.5838,,0,308,308,34,1,Q, , , , ,space,2500,2.5,610c2fa7c00d1fe37f49a110,001,2021-08-19_16h29.56.208,natb3,2021.2.3,Win32,59.17860102,610c2fa7c00d1fe37f49a110,611e07ecdcc96256ae8d5b80,611e77838905a8420b90e703,
,,,,space,0.6816,,0,309,309,41,1,Y, , , , ,space,2500,2.5,610c2fa7c00d1fe37f49a110,001,2021-08-19_16h29.56.208,natb3,2021.2.3,Win32,59.17860102,610c2fa7c00d1fe37f49a110,611e07ecdcc96256ae8d5b80,611e77838905a8420b90e703,
,,,,space,0.5968,,0,310,310,319,1,V, , , , ,space,2000,2,610c2fa7c00d1fe37f49a110,001,2021-08-19_16h29.56.208,natb3,2021.2.3,Win32,59.17860102,610c2fa7c00d1fe37f49a110,611e07ecdcc96256ae8d5b80,611e77838905a8420b90e703,
,,,,,,,0,311,311,265,1,I, , , , ,space,2000,2,610c2fa7c00d1fe37f49a110,001,2021-08-19_16h29.56.208,natb3,2021.2.3,Win32,59.17860102,610c2fa7c00d1fe37f49a110,611e07ecdcc96256ae8d5b80,611e77838905a8420b90e703,
,,,,space,0.3568,,0,312,312,199,1,J, , , , ,space,2500,2.5,610c2fa7c00d1fe37f49a110,001,2021-08-19_16h29.56.208,natb3,2021.2.3,Win32,59.17860102,610c2fa7c00d1fe37f49a110,611e07ecdcc96256ae8d5b80,611e77838905a8420b90e703,
,,,,space,0.5155,,0,313,313,26,1,C, , , , ,space,2000,2,610c2fa7c00d1fe37f49a110,001,2021-08-19_16h29.56.208,natb3,2021.2.3,Win32,59.17860102,610c2fa7c00d1fe37f49a110,611e07ecdcc96256ae8d5b80,611e77838905a8420b90e703,
,,,,space,0.4707,,0,314,314,256,1,Q, , , , ,space,2000,2,610c2fa7c00d1fe37f49a110,001,2021-08-19_16h29.56.208,natb3,2021.2.3,Win32,59.17860102,610c2fa7c00d1fe37f49a110,611e07ecdcc96256ae8d5b80,611e77838905a8420b90e703,
,,,,space,0.6552,,0,315,315,71,1,R, , , , ,space,2500,2.5,610c2fa7c00d1fe37f49a110,001,2021-08-19_16h29.56.208,natb3,2021.2.3,Win32,59.17860102,610c2fa7c00d1fe37f49a110,611e07ecdcc96256ae8d5b80,611e77838905a8420b90e703,
,,,,,,,0,316,316,43,1,X, ,6, ,2,,2500,2.5,610c2fa7c00d1fe37f49a110,001,2021-08-19_16h29.56.208,natb3,2021.2.3,Win32,59.17860102,610c2fa7c00d1fe37f49a110,611e07ecdcc96256ae8d5b80,611e77838905a8420b90e703,
,,,,space,0.4585,,0,317,317,247,1,Z, , , , ,space,1500,1.5,610c2fa7c00d1fe37f49a110,001,2021-08-19_16h29.56.208,natb3,2021.2.3,Win32,59.17860102,610c2fa7c00d1fe37f49a110,611e07ecdcc96256ae8d5b80,611e77838905a8420b90e703,
,,,,space,0.5121,,0,318,318,254,1,M, , , , ,space,1500,1.5,610c2fa7c00d1fe37f49a110,001,2021-08-19_16h29.56.208,natb3,2021.2.3,Win32,59.17860102,610c2fa7c00d1fe37f49a110,611e07ecdcc96256ae8d5b80,611e77838905a8420b90e703,
,,,,space,0.461,,0,319,319,275,1,G, , , , ,space,1500,1.5,610c2fa7c00d1fe37f49a110,001,2021-08-19_16h29.56.208,natb3,2021.2.3,Win32,59.17860102,610c2fa7c00d1fe37f49a110,611e07ecdcc96256ae8d5b80,611e77838905a8420b90e703,
,,,,space,0.4318,,0,320,320,73,1,Y, , , , ,space,2000,2,610c2fa7c00d1fe37f49a110,001,2021-08-19_16h29.56.208,natb3,2021.2.3,Win32,59.17860102,610c2fa7c00d1fe37f49a110,611e07ecdcc96256ae8d5b80,611e77838905a8420b90e703,
,,,,space,0.4281,,0,321,321,223,1,Q, , , , ,space,2000,2,610c2fa7c00d1fe37f49a110,001,2021-08-19_16h29.56.208,natb3,2021.2.3,Win32,59.17860102,610c2fa7c00d1fe37f49a110,611e07ecdcc96256ae8d5b80,611e77838905a8420b90e703,
,,,,space,0.5325,,0,322,322,76,1,I, , , , ,space,2000,2,610c2fa7c00d1fe37f49a110,001,2021-08-19_16h29.56.208,natb3,2021.2.3,Win32,59.17860102,610c2fa7c00d1fe37f49a110,611e07ecdcc96256ae8d5b80,611e77838905a8420b90e703,
,,,,space,0.5272,,0,323,323,19,1,G, , , , ,space,1500,1.5,610c2fa7c00d1fe37f49a110,001,2021-08-19_16h29.56.208,natb3,2021.2.3,Win32,59.17860102,610c2fa7c00d1fe37f49a110,611e07ecdcc96256ae8d5b80,611e77838905a8420b90e703,
,,,,space,0.5001,,0,324,324,231,1,I, , , , ,space,2500,2.5,610c2fa7c00d1fe37f49a110,001,2021-08-19_16h29.56.208,natb3,2021.2.3,Win32,59.17860102,610c2fa7c00d1fe37f49a110,611e07ecdcc96256ae8d5b80,611e77838905a8420b90e703,
,,,,space,0.4846,,0,325,325,293,1,R, , , , ,space,2500,2.5,610c2fa7c00d1fe37f49a110,001,2021-08-19_16h29.56.208,natb3,2021.2.3,Win32,59.17860102,610c2fa7c00d1fe37f49a110,611e07ecdcc96256ae8d5b80,611e77838905a8420b90e703,
,,,,space,0.5833,,0,326,326,279,1,K, , , , ,space,2500,2.5,610c2fa7c00d1fe37f49a110,001,2021-08-19_16h29.56.208,natb3,2021.2.3,Win32,59.17860102,610c2fa7c00d1fe37f49a110,611e07ecdcc96256ae8d5b80,611e77838905a8420b90e703,
,,,,space,0.5665,,0,327,327,95,1,V, , , , ,space,1500,1.5,610c2fa7c00d1fe37f49a110,001,2021-08-19_16h29.56.208,natb3,2021.2.3,Win32,59.17860102,610c2fa7c00d1fe37f49a110,611e07ecdcc96256ae8d5b80,611e77838905a8420b90e703,
,,,,,,,0,328,328,166,1,X, , , , ,,2000,2,610c2fa7c00d1fe37f49a110,001,2021-08-19_16h29.56.208,natb3,2021.2.3,Win32,59.17860102,610c2fa7c00d1fe37f49a110,611e07ecdcc96256ae8d5b80,611e77838905a8420b90e703,
,,,,space,0.8144,,0,329,329,220,1,U, , , , ,space,2500,2.5,610c2fa7c00d1fe37f49a110,001,2021-08-19_16h29.56.208,natb3,2021.2.3,Win32,59.17860102,610c2fa7c00d1fe37f49a110,611e07ecdcc96256ae8d5b80,611e77838905a8420b90e703,
,,,,,,,0,330,330,145,1,X, , , , ,,2000,2,610c2fa7c00d1fe37f49a110,001,2021-08-19_16h29.56.208,natb3,2021.2.3,Win32,59.17860102,610c2fa7c00d1fe37f49a110,611e07ecdcc96256ae8d5b80,611e77838905a8420b90e703,
,,,,,,,0,331,331,268,1,X,6, ,3, ,,2500,2.5,610c2fa7c00d1fe37f49a110,001,2021-08-19_16h29.56.208,natb3,2021.2.3,Win32,59.17860102,610c2fa7c00d1fe37f49a110,611e07ecdcc96256ae8d5b80,611e77838905a8420b90e703,
,,,,space,0.6343,,0,332,332,117,1,T, , , , ,space,2500,2.5,610c2fa7c00d1fe37f49a110,001,2021-08-19_16h29.56.208,natb3,2021.2.3,Win32,59.17860102,610c2fa7c00d1fe37f49a110,611e07ecdcc96256ae8d5b80,611e77838905a8420b90e703,
,,,,space,0.6181,,0,333,333,24,1,L, , , , ,space,2500,2.5,610c2fa7c00d1fe37f49a110,001,2021-08-19_16h29.56.208,natb3,2021.2.3,Win32,59.17860102,610c2fa7c00d1fe37f49a110,611e07ecdcc96256ae8d5b80,611e77838905a8420b90e703,
,,,,space,0.7127,,0,334,334,320,1,B, , , , ,space,1500,1.5,610c2fa7c00d1fe37f49a110,001,2021-08-19_16h29.56.208,natb3,2021.2.3,Win32,59.17860102,610c2fa7c00d1fe37f49a110,611e07ecdcc96256ae8d5b80,611e77838905a8420b90e703,
,,,,,,,0,335,335,187,1,X, ,3,7,4,,1500,1.5,610c2fa7c00d1fe37f49a110,001,2021-08-19_16h29.56.208,natb3,2021.2.3,Win32,59.17860102,610c2fa7c00d1fe37f49a110,611e07ecdcc96256ae8d5b80,611e77838905a8420b90e703,
