key_resp_2.keys,key_resp_2.rt,key_resp_3.keys,key_resp_3.rt,key_resp.keys,key_resp.rt,key_resp_4.keys,trials.thisRepN,trials.thisTrialN,trials.thisN,trials.thisIndex,trials.ran,stimulus,distractor1,distractor2,distractor3,distractor4,CorrAns,isi_duration,isi_dur_in_seconds,participant,session,date,expName,psychopyVersion,OS,frameRate,PROLIFIC_PID,STUDY_ID,SESSION_ID,key_resp_4.rt
return,10.3176,space,13.5682,space,0.3478,,0,0,0,10,1,O, , , , ,space,2000,2,6113f27738dd95b65e7194f5,001,2021-08-19_16h49.17.458,natb3,2021.2.3,MacIntel,60.0024001,6113f27738dd95b65e7194f5,611e07ecdcc96256ae8d5b80,611e7d6d5eca34be6e744440,
,,,,space,0.5255,,0,1,1,249,1,C, , , , ,space,2000,2,6113f27738dd95b65e7194f5,001,2021-08-19_16h49.17.458,natb3,2021.2.3,MacIntel,60.0024001,6113f27738dd95b65e7194f5,611e07ecdcc96256ae8d5b80,611e7d6d5eca34be6e744440,
,,,,,,,0,2,2,74,1,X, ,4,3,2,,1500,1.5,6113f27738dd95b65e7194f5,001,2021-08-19_16h49.17.458,natb3,2021.2.3,MacIntel,60.0024001,6113f27738dd95b65e7194f5,611e07ecdcc96256ae8d5b80,611e7d6d5eca34be6e744440,
,,,,space,0.7547,,0,3,3,301,1,P, , , , ,space,1500,1.5,6113f27738dd95b65e7194f5,001,2021-08-19_16h49.17.458,natb3,2021.2.3,MacIntel,60.0024001,6113f27738dd95b65e7194f5,611e07ecdcc96256ae8d5b80,611e7d6d5eca34be6e744440,
,,,,space,0.3982,,0,4,4,156,1,P, , , , ,space,1500,1.5,6113f27738dd95b65e7194f5,001,2021-08-19_16h49.17.458,natb3,2021.2.3,MacIntel,60.0024001,6113f27738dd95b65e7194f5,611e07ecdcc96256ae8d5b80,611e7d6d5eca34be6e744440,
,,,,space,0.4498,,0,5,5,119,1,Y, , , , ,space,2500,2.5,6113f27738dd95b65e7194f5,001,2021-08-19_16h49.17.458,natb3,2021.2.3,MacIntel,60.0024001,6113f27738dd95b65e7194f5,611e07ecdcc96256ae8d5b80,611e7d6d5eca34be6e744440,
,,,,space,0.5265,,0,6,6,307,1,F, , , , ,space,2500,2.5,6113f27738dd95b65e7194f5,001,2021-08-19_16h49.17.458,natb3,2021.2.3,MacIntel,60.0024001,6113f27738dd95b65e7194f5,611e07ecdcc96256ae8d5b80,611e7d6d5eca34be6e744440,
,,,,space,0.3741,,0,7,7,48,1,A, , , , ,space,2500,2.5,6113f27738dd95b65e7194f5,001,2021-08-19_16h49.17.458,natb3,2021.2.3,MacIntel,60.0024001,6113f27738dd95b65e7194f5,611e07ecdcc96256ae8d5b80,611e7d6d5eca34be6e744440,
,,,,space,0.3409,,0,8,8,272,1,D, , , , ,space,2000,2,6113f27738dd95b65e7194f5,001,2021-08-19_16h49.17.458,natb3,2021.2.3,MacIntel,60.0024001,6113f27738dd95b65e7194f5,611e07ecdcc96256ae8d5b80,611e7d6d5eca34be6e744440,
,,,,space,0.3156,,0,9,9,142,1,N, , , , ,space,2500,2.5,6113f27738dd95b65e7194f5,001,2021-08-19_16h49.17.458,natb3,2021.2.3,MacIntel,60.0024001,6113f27738dd95b65e7194f5,611e07ecdcc96256ae8d5b80,611e7d6d5eca34be6e744440,
,,,,space,0.474,,0,10,10,63,1,B, , , , ,space,2000,2,6113f27738dd95b65e7194f5,001,2021-08-19_16h49.17.458,natb3,2021.2.3,MacIntel,60.0024001,6113f27738dd95b65e7194f5,611e07ecdcc96256ae8d5b80,611e7d6d5eca34be6e744440,
,,,,space,0.3026,,0,11,11,269,1,A, , , , ,space,2500,2.5,6113f27738dd95b65e7194f5,001,2021-08-19_16h49.17.458,natb3,2021.2.3,MacIntel,60.0024001,6113f27738dd95b65e7194f5,611e07ecdcc96256ae8d5b80,611e7d6d5eca34be6e744440,
,,,,space,0.2856,,0,12,12,13,1,A, , , , ,space,2000,2,6113f27738dd95b65e7194f5,001,2021-08-19_16h49.17.458,natb3,2021.2.3,MacIntel,60.0024001,6113f27738dd95b65e7194f5,611e07ecdcc96256ae8d5b80,611e7d6d5eca34be6e744440,
,,,,space,0.3643,,0,13,13,31,1,X, , , , ,,1500,1.5,6113f27738dd95b65e7194f5,001,2021-08-19_16h49.17.458,natb3,2021.2.3,MacIntel,60.0024001,6113f27738dd95b65e7194f5,611e07ecdcc96256ae8d5b80,611e7d6d5eca34be6e744440,
,,,,space,0.4175,,0,14,14,185,1,Y, , , , ,space,2500,2.5,6113f27738dd95b65e7194f5,001,2021-08-19_16h49.17.458,natb3,2021.2.3,MacIntel,60.0024001,6113f27738dd95b65e7194f5,611e07ecdcc96256ae8d5b80,611e7d6d5eca34be6e744440,
,,,,,,,0,15,15,175,1,X,7, ,4,2,,1500,1.5,6113f27738dd95b65e7194f5,001,2021-08-19_16h49.17.458,natb3,2021.2.3,MacIntel,60.0024001,6113f27738dd95b65e7194f5,611e07ecdcc96256ae8d5b80,611e7d6d5eca34be6e744440,
,,,,space,0.6975,,0,16,16,283,1,C, , , , ,space,1500,1.5,6113f27738dd95b65e7194f5,001,2021-08-19_16h49.17.458,natb3,2021.2.3,MacIntel,60.0024001,6113f27738dd95b65e7194f5,611e07ecdcc96256ae8d5b80,611e7d6d5eca34be6e744440,
,,,,space,0.3191,,0,17,17,255,1,X, , , , ,,1500,1.5,6113f27738dd95b65e7194f5,001,2021-08-19_16h49.17.458,natb3,2021.2.3,MacIntel,60.0024001,6113f27738dd95b65e7194f5,611e07ecdcc96256ae8d5b80,611e7d6d5eca34be6e744440,
,,,,,,,0,18,18,51,1,X,7,5,8, ,,1500,1.5,6113f27738dd95b65e7194f5,001,2021-08-19_16h49.17.458,natb3,2021.2.3,MacIntel,60.0024001,6113f27738dd95b65e7194f5,611e07ecdcc96256ae8d5b80,611e7d6d5eca34be6e744440,
,,,,,,,0,19,19,158,1,X, , , , ,,1500,1.5,6113f27738dd95b65e7194f5,001,2021-08-19_16h49.17.458,natb3,2021.2.3,MacIntel,60.0024001,6113f27738dd95b65e7194f5,611e07ecdcc96256ae8d5b80,611e7d6d5eca34be6e744440,
,,,,,,,0,20,20,129,1,X,2,3,5, ,,1500,1.5,6113f27738dd95b65e7194f5,001,2021-08-19_16h49.17.458,natb3,2021.2.3,MacIntel,60.0024001,6113f27738dd95b65e7194f5,611e07ecdcc96256ae8d5b80,611e7d6d5eca34be6e744440,
,,,,space,0.5827,,0,21,21,289,1,Q, , , , ,space,2000,2,6113f27738dd95b65e7194f5,001,2021-08-19_16h49.17.458,natb3,2021.2.3,MacIntel,60.0024001,6113f27738dd95b65e7194f5,611e07ecdcc96256ae8d5b80,611e7d6d5eca34be6e744440,
,,,,space,0.6166,,0,22,22,242,1,H, , , , ,space,2500,2.5,6113f27738dd95b65e7194f5,001,2021-08-19_16h49.17.458,natb3,2021.2.3,MacIntel,60.0024001,6113f27738dd95b65e7194f5,611e07ecdcc96256ae8d5b80,611e7d6d5eca34be6e744440,
,,,,,,,0,23,23,179,1,X, ,9, ,2,,1500,1.5,6113f27738dd95b65e7194f5,001,2021-08-19_16h49.17.458,natb3,2021.2.3,MacIntel,60.0024001,6113f27738dd95b65e7194f5,611e07ecdcc96256ae8d5b80,611e7d6d5eca34be6e744440,
,,,,space,0.8106,,0,24,24,279,1,K, , , , ,space,2500,2.5,6113f27738dd95b65e7194f5,001,2021-08-19_16h49.17.458,natb3,2021.2.3,MacIntel,60.0024001,6113f27738dd95b65e7194f5,611e07ecdcc96256ae8d5b80,611e7d6d5eca34be6e744440,
,,,,space,0.5323,,0,25,25,91,1,L, , , , ,space,2000,2,6113f27738dd95b65e7194f5,001,2021-08-19_16h49.17.458,natb3,2021.2.3,MacIntel,60.0024001,6113f27738dd95b65e7194f5,611e07ecdcc96256ae8d5b80,611e7d6d5eca34be6e744440,
,,,,space,0.4464,,0,26,26,286,1,N, , , , ,space,1500,1.5,6113f27738dd95b65e7194f5,001,2021-08-19_16h49.17.458,natb3,2021.2.3,MacIntel,60.0024001,6113f27738dd95b65e7194f5,611e07ecdcc96256ae8d5b80,611e7d6d5eca34be6e744440,
,,,,space,0.4299,,0,27,27,19,1,G, , , , ,space,1500,1.5,6113f27738dd95b65e7194f5,001,2021-08-19_16h49.17.458,natb3,2021.2.3,MacIntel,60.0024001,6113f27738dd95b65e7194f5,611e07ecdcc96256ae8d5b80,611e7d6d5eca34be6e744440,
,,,,space,0.3804,,0,28,28,225,1,E, , , , ,space,2000,2,6113f27738dd95b65e7194f5,001,2021-08-19_16h49.17.458,natb3,2021.2.3,MacIntel,60.0024001,6113f27738dd95b65e7194f5,611e07ecdcc96256ae8d5b80,611e7d6d5eca34be6e744440,
,,,,space,0.3309,,0,29,29,306,1,D, , , , ,space,2000,2,6113f27738dd95b65e7194f5,001,2021-08-19_16h49.17.458,natb3,2021.2.3,MacIntel,60.0024001,6113f27738dd95b65e7194f5,611e07ecdcc96256ae8d5b80,611e7d6d5eca34be6e744440,
,,,,space,0.3969,,0,30,30,24,1,L, , , , ,space,2500,2.5,6113f27738dd95b65e7194f5,001,2021-08-19_16h49.17.458,natb3,2021.2.3,MacIntel,60.0024001,6113f27738dd95b65e7194f5,611e07ecdcc96256ae8d5b80,611e7d6d5eca34be6e744440,
,,,,space,0.4482,,0,31,31,131,1,G, , , , ,space,1500,1.5,6113f27738dd95b65e7194f5,001,2021-08-19_16h49.17.458,natb3,2021.2.3,MacIntel,60.0024001,6113f27738dd95b65e7194f5,611e07ecdcc96256ae8d5b80,611e7d6d5eca34be6e744440,
,,,,space,0.3996,,0,32,32,22,1,K, , , , ,space,2000,2,6113f27738dd95b65e7194f5,001,2021-08-19_16h49.17.458,natb3,2021.2.3,MacIntel,60.0024001,6113f27738dd95b65e7194f5,611e07ecdcc96256ae8d5b80,611e7d6d5eca34be6e744440,
,,,,space,0.4485,,0,33,33,217,1,T, , , , ,space,2500,2.5,6113f27738dd95b65e7194f5,001,2021-08-19_16h49.17.458,natb3,2021.2.3,MacIntel,60.0024001,6113f27738dd95b65e7194f5,611e07ecdcc96256ae8d5b80,611e7d6d5eca34be6e744440,
,,,,,,,0,34,34,252,1,X,3, ,6,9,,2000,2,6113f27738dd95b65e7194f5,001,2021-08-19_16h49.17.458,natb3,2021.2.3,MacIntel,60.0024001,6113f27738dd95b65e7194f5,611e07ecdcc96256ae8d5b80,611e7d6d5eca34be6e744440,
,,,,space,0.4308,,0,35,35,7,1,X, , , , ,,1500,1.5,6113f27738dd95b65e7194f5,001,2021-08-19_16h49.17.458,natb3,2021.2.3,MacIntel,60.0024001,6113f27738dd95b65e7194f5,611e07ecdcc96256ae8d5b80,611e7d6d5eca34be6e744440,
,,,,,,,0,36,36,145,1,X, , , , ,,2000,2,6113f27738dd95b65e7194f5,001,2021-08-19_16h49.17.458,natb3,2021.2.3,MacIntel,60.0024001,6113f27738dd95b65e7194f5,611e07ecdcc96256ae8d5b80,611e7d6d5eca34be6e744440,
,,,,space,0.4158,,0,37,37,278,1,J, , , , ,space,2000,2,6113f27738dd95b65e7194f5,001,2021-08-19_16h49.17.458,natb3,2021.2.3,MacIntel,60.0024001,6113f27738dd95b65e7194f5,611e07ecdcc96256ae8d5b80,611e7d6d5eca34be6e744440,
,,,,space,0.4088,,0,38,38,1,1,W, , , , ,space,2000,2,6113f27738dd95b65e7194f5,001,2021-08-19_16h49.17.458,natb3,2021.2.3,MacIntel,60.0024001,6113f27738dd95b65e7194f5,611e07ecdcc96256ae8d5b80,611e7d6d5eca34be6e744440,
,,,,space,0.2987,,0,39,39,207,1,X,9, ,2, ,,2500,2.5,6113f27738dd95b65e7194f5,001,2021-08-19_16h49.17.458,natb3,2021.2.3,MacIntel,60.0024001,6113f27738dd95b65e7194f5,611e07ecdcc96256ae8d5b80,611e7d6d5eca34be6e744440,
,,,,space,0.3914,,0,40,40,2,1,E, , , , ,space,2500,2.5,6113f27738dd95b65e7194f5,001,2021-08-19_16h49.17.458,natb3,2021.2.3,MacIntel,60.0024001,6113f27738dd95b65e7194f5,611e07ecdcc96256ae8d5b80,611e7d6d5eca34be6e744440,
,,,,space,0.4004,,0,41,41,275,1,G, , , , ,space,1500,1.5,6113f27738dd95b65e7194f5,001,2021-08-19_16h49.17.458,natb3,2021.2.3,MacIntel,60.0024001,6113f27738dd95b65e7194f5,611e07ecdcc96256ae8d5b80,611e7d6d5eca34be6e744440,
,,,,space,0.3304,,0,42,42,194,1,D, , , , ,space,2000,2,6113f27738dd95b65e7194f5,001,2021-08-19_16h49.17.458,natb3,2021.2.3,MacIntel,60.0024001,6113f27738dd95b65e7194f5,611e07ecdcc96256ae8d5b80,611e7d6d5eca34be6e744440,
,,,,space,0.4954,,0,43,43,204,1,Z, , , , ,space,2000,2,6113f27738dd95b65e7194f5,001,2021-08-19_16h49.17.458,natb3,2021.2.3,MacIntel,60.0024001,6113f27738dd95b65e7194f5,611e07ecdcc96256ae8d5b80,611e7d6d5eca34be6e744440,
,,,,space,0.3385,,0,44,44,79,1,P, , , , ,space,2000,2,6113f27738dd95b65e7194f5,001,2021-08-19_16h49.17.458,natb3,2021.2.3,MacIntel,60.0024001,6113f27738dd95b65e7194f5,611e07ecdcc96256ae8d5b80,611e7d6d5eca34be6e744440,
,,,,space,0.2999,,0,45,45,111,1,O, , , , ,space,2000,2,6113f27738dd95b65e7194f5,001,2021-08-19_16h49.17.458,natb3,2021.2.3,MacIntel,60.0024001,6113f27738dd95b65e7194f5,611e07ecdcc96256ae8d5b80,611e7d6d5eca34be6e744440,
,,,,space,0.2794,,0,46,46,256,1,Q, , , , ,space,2000,2,6113f27738dd95b65e7194f5,001,2021-08-19_16h49.17.458,natb3,2021.2.3,MacIntel,60.0024001,6113f27738dd95b65e7194f5,611e07ecdcc96256ae8d5b80,611e7d6d5eca34be6e744440,
,,,,space,0.3798,,0,47,47,32,1,M, , , , ,space,1500,1.5,6113f27738dd95b65e7194f5,001,2021-08-19_16h49.17.458,natb3,2021.2.3,MacIntel,60.0024001,6113f27738dd95b65e7194f5,611e07ecdcc96256ae8d5b80,611e7d6d5eca34be6e744440,
,,,,space,0.3008,,0,48,48,112,1,Q, , , , ,space,2500,2.5,6113f27738dd95b65e7194f5,001,2021-08-19_16h49.17.458,natb3,2021.2.3,MacIntel,60.0024001,6113f27738dd95b65e7194f5,611e07ecdcc96256ae8d5b80,611e7d6d5eca34be6e744440,
,,,,space,0.3652,,0,49,49,290,1,W, , , , ,space,1500,1.5,6113f27738dd95b65e7194f5,001,2021-08-19_16h49.17.458,natb3,2021.2.3,MacIntel,60.0024001,6113f27738dd95b65e7194f5,611e07ecdcc96256ae8d5b80,611e7d6d5eca34be6e744440,
,,,,space,0.4991,,0,50,50,199,1,J, , , , ,space,2500,2.5,6113f27738dd95b65e7194f5,001,2021-08-19_16h49.17.458,natb3,2021.2.3,MacIntel,60.0024001,6113f27738dd95b65e7194f5,611e07ecdcc96256ae8d5b80,611e7d6d5eca34be6e744440,
,,,,space,0.4329,,0,51,51,8,1,U, , , , ,space,1500,1.5,6113f27738dd95b65e7194f5,001,2021-08-19_16h49.17.458,natb3,2021.2.3,MacIntel,60.0024001,6113f27738dd95b65e7194f5,611e07ecdcc96256ae8d5b80,611e7d6d5eca34be6e744440,
,,,,space,0.279,,0,52,52,40,1,T, , , , ,space,1500,1.5,6113f27738dd95b65e7194f5,001,2021-08-19_16h49.17.458,natb3,2021.2.3,MacIntel,60.0024001,6113f27738dd95b65e7194f5,611e07ecdcc96256ae8d5b80,611e7d6d5eca34be6e744440,
,,,,space,0.301,,0,53,53,136,1,Z, , , , ,space,2500,2.5,6113f27738dd95b65e7194f5,001,2021-08-19_16h49.17.458,natb3,2021.2.3,MacIntel,60.0024001,6113f27738dd95b65e7194f5,611e07ecdcc96256ae8d5b80,611e7d6d5eca34be6e744440,
,,,,space,0.3501,,0,54,54,118,1,X, , , , ,,2000,2,6113f27738dd95b65e7194f5,001,2021-08-19_16h49.17.458,natb3,2021.2.3,MacIntel,60.0024001,6113f27738dd95b65e7194f5,611e07ecdcc96256ae8d5b80,611e7d6d5eca34be6e744440,
,,,,space,0.1178,,0,55,55,180,1,W, , , , ,space,2000,2,6113f27738dd95b65e7194f5,001,2021-08-19_16h49.17.458,natb3,2021.2.3,MacIntel,60.0024001,6113f27738dd95b65e7194f5,611e07ecdcc96256ae8d5b80,611e7d6d5eca34be6e744440,
,,,,space,0.2438,,0,56,56,28,1,V, , , , ,space,1500,1.5,6113f27738dd95b65e7194f5,001,2021-08-19_16h49.17.458,natb3,2021.2.3,MacIntel,60.0024001,6113f27738dd95b65e7194f5,611e07ecdcc96256ae8d5b80,611e7d6d5eca34be6e744440,
,,,,space,0.2685,,0,57,57,161,1,F, , , , ,space,1500,1.5,6113f27738dd95b65e7194f5,001,2021-08-19_16h49.17.458,natb3,2021.2.3,MacIntel,60.0024001,6113f27738dd95b65e7194f5,611e07ecdcc96256ae8d5b80,611e7d6d5eca34be6e744440,
,,,,space,0.2818,,0,58,58,218,1,X,1,3, ,8,,1500,1.5,6113f27738dd95b65e7194f5,001,2021-08-19_16h49.17.458,natb3,2021.2.3,MacIntel,60.0024001,6113f27738dd95b65e7194f5,611e07ecdcc96256ae8d5b80,611e7d6d5eca34be6e744440,
,,,,space,0.2614,,0,59,59,153,1,X,4,7, ,6,,2000,2,6113f27738dd95b65e7194f5,001,2021-08-19_16h49.17.458,natb3,2021.2.3,MacIntel,60.0024001,6113f27738dd95b65e7194f5,611e07ecdcc96256ae8d5b80,611e7d6d5eca34be6e744440,
,,,,space,0.2991,,0,60,60,99,1,N, , , , ,space,2500,2.5,6113f27738dd95b65e7194f5,001,2021-08-19_16h49.17.458,natb3,2021.2.3,MacIntel,60.0024001,6113f27738dd95b65e7194f5,611e07ecdcc96256ae8d5b80,611e7d6d5eca34be6e744440,
,,,,space,0.3333,,0,61,61,50,1,D, , , , ,space,1500,1.5,6113f27738dd95b65e7194f5,001,2021-08-19_16h49.17.458,natb3,2021.2.3,MacIntel,60.0024001,6113f27738dd95b65e7194f5,611e07ecdcc96256ae8d5b80,611e7d6d5eca34be6e744440,
,,,,space,0.3142,,0,62,62,108,1,Y, , , , ,space,2500,2.5,6113f27738dd95b65e7194f5,001,2021-08-19_16h49.17.458,natb3,2021.2.3,MacIntel,60.0024001,6113f27738dd95b65e7194f5,611e07ecdcc96256ae8d5b80,611e7d6d5eca34be6e744440,
,,,,space,0.2748,,0,63,63,296,1,Y, , , , ,space,2500,2.5,6113f27738dd95b65e7194f5,001,2021-08-19_16h49.17.458,natb3,2021.2.3,MacIntel,60.0024001,6113f27738dd95b65e7194f5,611e07ecdcc96256ae8d5b80,611e7d6d5eca34be6e744440,
,,,,space,0.2861,,0,64,64,138,1,X,8,5, ,3,,2000,2,6113f27738dd95b65e7194f5,001,2021-08-19_16h49.17.458,natb3,2021.2.3,MacIntel,60.0024001,6113f27738dd95b65e7194f5,611e07ecdcc96256ae8d5b80,611e7d6d5eca34be6e744440,
,,,,space,0.0609,,0,65,65,115,1,R, , , , ,space,1500,1.5,6113f27738dd95b65e7194f5,001,2021-08-19_16h49.17.458,natb3,2021.2.3,MacIntel,60.0024001,6113f27738dd95b65e7194f5,611e07ecdcc96256ae8d5b80,611e7d6d5eca34be6e744440,
,,,,space,0.2818,,0,66,66,240,1,F, , , , ,space,2500,2.5,6113f27738dd95b65e7194f5,001,2021-08-19_16h49.17.458,natb3,2021.2.3,MacIntel,60.0024001,6113f27738dd95b65e7194f5,611e07ecdcc96256ae8d5b80,611e7d6d5eca34be6e744440,
,,,,space,0.2347,,0,67,67,235,1,A, , , , ,space,1500,1.5,6113f27738dd95b65e7194f5,001,2021-08-19_16h49.17.458,natb3,2021.2.3,MacIntel,60.0024001,6113f27738dd95b65e7194f5,611e07ecdcc96256ae8d5b80,611e7d6d5eca34be6e744440,
,,,,space,0.2655,,0,68,68,72,1,T, , , , ,space,1500,1.5,6113f27738dd95b65e7194f5,001,2021-08-19_16h49.17.458,natb3,2021.2.3,MacIntel,60.0024001,6113f27738dd95b65e7194f5,611e07ecdcc96256ae8d5b80,611e7d6d5eca34be6e744440,
,,,,space,0.3523,,0,69,69,126,1,A, , , , ,space,2500,2.5,6113f27738dd95b65e7194f5,001,2021-08-19_16h49.17.458,natb3,2021.2.3,MacIntel,60.0024001,6113f27738dd95b65e7194f5,611e07ecdcc96256ae8d5b80,611e7d6d5eca34be6e744440,
,,,,,,,0,70,70,248,1,X, ,1,5, ,,1500,1.5,6113f27738dd95b65e7194f5,001,2021-08-19_16h49.17.458,natb3,2021.2.3,MacIntel,60.0024001,6113f27738dd95b65e7194f5,611e07ecdcc96256ae8d5b80,611e7d6d5eca34be6e744440,
,,,,space,0.3819,,0,71,71,143,1,M, , , , ,space,2500,2.5,6113f27738dd95b65e7194f5,001,2021-08-19_16h49.17.458,natb3,2021.2.3,MacIntel,60.0024001,6113f27738dd95b65e7194f5,611e07ecdcc96256ae8d5b80,611e7d6d5eca34be6e744440,
,,,,space,0.3881,,0,72,72,176,1,N, , , , ,space,1500,1.5,6113f27738dd95b65e7194f5,001,2021-08-19_16h49.17.458,natb3,2021.2.3,MacIntel,60.0024001,6113f27738dd95b65e7194f5,611e07ecdcc96256ae8d5b80,611e7d6d5eca34be6e744440,
,,,,,,,0,73,73,162,1,X,1,6, ,2,,1500,1.5,6113f27738dd95b65e7194f5,001,2021-08-19_16h49.17.458,natb3,2021.2.3,MacIntel,60.0024001,6113f27738dd95b65e7194f5,611e07ecdcc96256ae8d5b80,611e7d6d5eca34be6e744440,
,,,,space,0.4986,,0,74,74,139,1,V, , , , ,space,2000,2,6113f27738dd95b65e7194f5,001,2021-08-19_16h49.17.458,natb3,2021.2.3,MacIntel,60.0024001,6113f27738dd95b65e7194f5,611e07ecdcc96256ae8d5b80,611e7d6d5eca34be6e744440,
,,,,space,0.3466,,0,75,75,86,1,G, , , , ,space,2000,2,6113f27738dd95b65e7194f5,001,2021-08-19_16h49.17.458,natb3,2021.2.3,MacIntel,60.0024001,6113f27738dd95b65e7194f5,611e07ecdcc96256ae8d5b80,611e7d6d5eca34be6e744440,
,,,,space,0.2961,,0,76,76,325,1,X, , , , ,,2500,2.5,6113f27738dd95b65e7194f5,001,2021-08-19_16h49.17.458,natb3,2021.2.3,MacIntel,60.0024001,6113f27738dd95b65e7194f5,611e07ecdcc96256ae8d5b80,611e7d6d5eca34be6e744440,
,,,,space,0.0375,,0,77,77,195,1,X, , , , ,,1500,1.5,6113f27738dd95b65e7194f5,001,2021-08-19_16h49.17.458,natb3,2021.2.3,MacIntel,60.0024001,6113f27738dd95b65e7194f5,611e07ecdcc96256ae8d5b80,611e7d6d5eca34be6e744440,
,,,,space,0.1795,,0,78,78,30,1,N, , , , ,space,2500,2.5,6113f27738dd95b65e7194f5,001,2021-08-19_16h49.17.458,natb3,2021.2.3,MacIntel,60.0024001,6113f27738dd95b65e7194f5,611e07ecdcc96256ae8d5b80,611e7d6d5eca34be6e744440,
,,,,space,0.4308,,0,79,79,132,1,H, , , , ,space,2500,2.5,6113f27738dd95b65e7194f5,001,2021-08-19_16h49.17.458,natb3,2021.2.3,MacIntel,60.0024001,6113f27738dd95b65e7194f5,611e07ecdcc96256ae8d5b80,611e7d6d5eca34be6e744440,
,,,,space,0.2839,,0,80,80,297,1,U, , , , ,space,2000,2,6113f27738dd95b65e7194f5,001,2021-08-19_16h49.17.458,natb3,2021.2.3,MacIntel,60.0024001,6113f27738dd95b65e7194f5,611e07ecdcc96256ae8d5b80,611e7d6d5eca34be6e744440,
,,,,space,0.7768,,0,81,81,250,1,V, , , , ,space,2000,2,6113f27738dd95b65e7194f5,001,2021-08-19_16h49.17.458,natb3,2021.2.3,MacIntel,60.0024001,6113f27738dd95b65e7194f5,611e07ecdcc96256ae8d5b80,611e7d6d5eca34be6e744440,
,,,,space,0.7651,,0,82,82,328,1,R, , , , ,space,1500,1.5,6113f27738dd95b65e7194f5,001,2021-08-19_16h49.17.458,natb3,2021.2.3,MacIntel,60.0024001,6113f27738dd95b65e7194f5,611e07ecdcc96256ae8d5b80,611e7d6d5eca34be6e744440,
,,,,space,0.5322,,0,83,83,308,1,G, , , , ,space,1500,1.5,6113f27738dd95b65e7194f5,001,2021-08-19_16h49.17.458,natb3,2021.2.3,MacIntel,60.0024001,6113f27738dd95b65e7194f5,611e07ecdcc96256ae8d5b80,611e7d6d5eca34be6e744440,
,,,,,,,0,84,84,16,1,D, , , , ,space,1500,1.5,6113f27738dd95b65e7194f5,001,2021-08-19_16h49.17.458,natb3,2021.2.3,MacIntel,60.0024001,6113f27738dd95b65e7194f5,611e07ecdcc96256ae8d5b80,611e7d6d5eca34be6e744440,
,,,,space,0.3003,,0,85,85,76,1,I, , , , ,space,2000,2,6113f27738dd95b65e7194f5,001,2021-08-19_16h49.17.458,natb3,2021.2.3,MacIntel,60.0024001,6113f27738dd95b65e7194f5,611e07ecdcc96256ae8d5b80,611e7d6d5eca34be6e744440,
,,,,space,0.2473,,0,86,86,330,1,T, , , , ,space,2500,2.5,6113f27738dd95b65e7194f5,001,2021-08-19_16h49.17.458,natb3,2021.2.3,MacIntel,60.0024001,6113f27738dd95b65e7194f5,611e07ecdcc96256ae8d5b80,611e7d6d5eca34be6e744440,
,,,,space,0.8808,,0,87,87,302,1,X, , , , ,,2000,2,6113f27738dd95b65e7194f5,001,2021-08-19_16h49.17.458,natb3,2021.2.3,MacIntel,60.0024001,6113f27738dd95b65e7194f5,611e07ecdcc96256ae8d5b80,611e7d6d5eca34be6e744440,
,,,,space,0.3179,,0,88,88,226,1,R, , , , ,space,2000,2,6113f27738dd95b65e7194f5,001,2021-08-19_16h49.17.458,natb3,2021.2.3,MacIntel,60.0024001,6113f27738dd95b65e7194f5,611e07ecdcc96256ae8d5b80,611e7d6d5eca34be6e744440,
,,,,space,0.251,,0,89,89,165,1,J, , , , ,space,2500,2.5,6113f27738dd95b65e7194f5,001,2021-08-19_16h49.17.458,natb3,2021.2.3,MacIntel,60.0024001,6113f27738dd95b65e7194f5,611e07ecdcc96256ae8d5b80,611e7d6d5eca34be6e744440,
,,,,space,0.5942,,0,90,90,221,1,I, , , , ,space,2500,2.5,6113f27738dd95b65e7194f5,001,2021-08-19_16h49.17.458,natb3,2021.2.3,MacIntel,60.0024001,6113f27738dd95b65e7194f5,611e07ecdcc96256ae8d5b80,611e7d6d5eca34be6e744440,
,,,,,,,0,91,91,230,1,U, , , , ,space,1500,1.5,6113f27738dd95b65e7194f5,001,2021-08-19_16h49.17.458,natb3,2021.2.3,MacIntel,60.0024001,6113f27738dd95b65e7194f5,611e07ecdcc96256ae8d5b80,611e7d6d5eca34be6e744440,
,,,,,,,0,92,92,146,1,W, , , , ,space,1500,1.5,6113f27738dd95b65e7194f5,001,2021-08-19_16h49.17.458,natb3,2021.2.3,MacIntel,60.0024001,6113f27738dd95b65e7194f5,611e07ecdcc96256ae8d5b80,611e7d6d5eca34be6e744440,
,,,,space,0.278,,0,93,93,314,1,L, , , , ,space,1500,1.5,6113f27738dd95b65e7194f5,001,2021-08-19_16h49.17.458,natb3,2021.2.3,MacIntel,60.0024001,6113f27738dd95b65e7194f5,611e07ecdcc96256ae8d5b80,611e7d6d5eca34be6e744440,
,,,,space,0.0006,,0,94,94,213,1,X, , , , ,,2500,2.5,6113f27738dd95b65e7194f5,001,2021-08-19_16h49.17.458,natb3,2021.2.3,MacIntel,60.0024001,6113f27738dd95b65e7194f5,611e07ecdcc96256ae8d5b80,611e7d6d5eca34be6e744440,
,,,,space,0.1066,,0,95,95,70,1,E, , , , ,space,2500,2.5,6113f27738dd95b65e7194f5,001,2021-08-19_16h49.17.458,natb3,2021.2.3,MacIntel,60.0024001,6113f27738dd95b65e7194f5,611e07ecdcc96256ae8d5b80,611e7d6d5eca34be6e744440,
,,,,space,0.2087,,0,96,96,151,1,Y, , , , ,space,2500,2.5,6113f27738dd95b65e7194f5,001,2021-08-19_16h49.17.458,natb3,2021.2.3,MacIntel,60.0024001,6113f27738dd95b65e7194f5,611e07ecdcc96256ae8d5b80,611e7d6d5eca34be6e744440,
,,,,space,0.0509,,0,97,97,95,1,V, , , , ,space,1500,1.5,6113f27738dd95b65e7194f5,001,2021-08-19_16h49.17.458,natb3,2021.2.3,MacIntel,60.0024001,6113f27738dd95b65e7194f5,611e07ecdcc96256ae8d5b80,611e7d6d5eca34be6e744440,
,,,,space,0.1109,,0,98,98,104,1,E, , , , ,space,2000,2,6113f27738dd95b65e7194f5,001,2021-08-19_16h49.17.458,natb3,2021.2.3,MacIntel,60.0024001,6113f27738dd95b65e7194f5,611e07ecdcc96256ae8d5b80,611e7d6d5eca34be6e744440,
,,,,space,0.0285,,0,99,99,154,1,I, , , , ,space,2500,2.5,6113f27738dd95b65e7194f5,001,2021-08-19_16h49.17.458,natb3,2021.2.3,MacIntel,60.0024001,6113f27738dd95b65e7194f5,611e07ecdcc96256ae8d5b80,611e7d6d5eca34be6e744440,
,,,,space,0.0927,,0,100,100,41,1,Y, , , , ,space,2500,2.5,6113f27738dd95b65e7194f5,001,2021-08-19_16h49.17.458,natb3,2021.2.3,MacIntel,60.0024001,6113f27738dd95b65e7194f5,611e07ecdcc96256ae8d5b80,611e7d6d5eca34be6e744440,
,,,,space,0.1323,,0,101,101,241,1,G, , , , ,space,2500,2.5,6113f27738dd95b65e7194f5,001,2021-08-19_16h49.17.458,natb3,2021.2.3,MacIntel,60.0024001,6113f27738dd95b65e7194f5,611e07ecdcc96256ae8d5b80,611e7d6d5eca34be6e744440,
,,,,space,0.1667,,0,102,102,317,1,C, , , , ,space,2000,2,6113f27738dd95b65e7194f5,001,2021-08-19_16h49.17.458,natb3,2021.2.3,MacIntel,60.0024001,6113f27738dd95b65e7194f5,611e07ecdcc96256ae8d5b80,611e7d6d5eca34be6e744440,
,,,,space,0.264,,0,103,103,84,1,X, , , , ,,2000,2,6113f27738dd95b65e7194f5,001,2021-08-19_16h49.17.458,natb3,2021.2.3,MacIntel,60.0024001,6113f27738dd95b65e7194f5,611e07ecdcc96256ae8d5b80,611e7d6d5eca34be6e744440,
,,,,space,0.1451,,0,104,104,25,1,Z, , , , ,space,2500,2.5,6113f27738dd95b65e7194f5,001,2021-08-19_16h49.17.458,natb3,2021.2.3,MacIntel,60.0024001,6113f27738dd95b65e7194f5,611e07ecdcc96256ae8d5b80,611e7d6d5eca34be6e744440,
,,,,space,0.0702,,0,105,105,273,1,X, , , , ,,2000,2,6113f27738dd95b65e7194f5,001,2021-08-19_16h49.17.458,natb3,2021.2.3,MacIntel,60.0024001,6113f27738dd95b65e7194f5,611e07ecdcc96256ae8d5b80,611e7d6d5eca34be6e744440,
,,,,space,0.0619,,0,106,106,58,1,L, , , , ,space,2000,2,6113f27738dd95b65e7194f5,001,2021-08-19_16h49.17.458,natb3,2021.2.3,MacIntel,60.0024001,6113f27738dd95b65e7194f5,611e07ecdcc96256ae8d5b80,611e7d6d5eca34be6e744440,
,,,,space,0.1528,,0,107,107,258,1,E, , , , ,space,1500,1.5,6113f27738dd95b65e7194f5,001,2021-08-19_16h49.17.458,natb3,2021.2.3,MacIntel,60.0024001,6113f27738dd95b65e7194f5,611e07ecdcc96256ae8d5b80,611e7d6d5eca34be6e744440,
,,,,space,0.2273,,0,108,108,100,1,M, , , , ,space,2000,2,6113f27738dd95b65e7194f5,001,2021-08-19_16h49.17.458,natb3,2021.2.3,MacIntel,60.0024001,6113f27738dd95b65e7194f5,611e07ecdcc96256ae8d5b80,611e7d6d5eca34be6e744440,
,,,,space,0.0773,,0,109,109,85,1,F, , , , ,space,2500,2.5,6113f27738dd95b65e7194f5,001,2021-08-19_16h49.17.458,natb3,2021.2.3,MacIntel,60.0024001,6113f27738dd95b65e7194f5,611e07ecdcc96256ae8d5b80,611e7d6d5eca34be6e744440,
,,,,space,0.0386,,0,110,110,133,1,X, ,4, ,6,,2500,2.5,6113f27738dd95b65e7194f5,001,2021-08-19_16h49.17.458,natb3,2021.2.3,MacIntel,60.0024001,6113f27738dd95b65e7194f5,611e07ecdcc96256ae8d5b80,611e7d6d5eca34be6e744440,
,,,,space,0.1094,,0,111,111,38,1,R, , , , ,space,2500,2.5,6113f27738dd95b65e7194f5,001,2021-08-19_16h49.17.458,natb3,2021.2.3,MacIntel,60.0024001,6113f27738dd95b65e7194f5,611e07ecdcc96256ae8d5b80,611e7d6d5eca34be6e744440,
,,,,space,0.0788,,0,112,112,267,1,P, , , , ,space,2000,2,6113f27738dd95b65e7194f5,001,2021-08-19_16h49.17.458,natb3,2021.2.3,MacIntel,60.0024001,6113f27738dd95b65e7194f5,611e07ecdcc96256ae8d5b80,611e7d6d5eca34be6e744440,
,,,,space,0.1439,,0,113,113,68,1,W, , , , ,space,2500,2.5,6113f27738dd95b65e7194f5,001,2021-08-19_16h49.17.458,natb3,2021.2.3,MacIntel,60.0024001,6113f27738dd95b65e7194f5,611e07ecdcc96256ae8d5b80,611e7d6d5eca34be6e744440,
,,,,space,0.0884,,0,114,114,34,1,Q, , , , ,space,2500,2.5,6113f27738dd95b65e7194f5,001,2021-08-19_16h49.17.458,natb3,2021.2.3,MacIntel,60.0024001,6113f27738dd95b65e7194f5,611e07ecdcc96256ae8d5b80,611e7d6d5eca34be6e744440,
,,,,space,0.1909,,0,115,115,329,1,X,3,4, ,2,,2500,2.5,6113f27738dd95b65e7194f5,001,2021-08-19_16h49.17.458,natb3,2021.2.3,MacIntel,60.0024001,6113f27738dd95b65e7194f5,611e07ecdcc96256ae8d5b80,611e7d6d5eca34be6e744440,
,,,,space,0.0109,,0,116,116,29,1,B, , , , ,space,1500,1.5,6113f27738dd95b65e7194f5,001,2021-08-19_16h49.17.458,natb3,2021.2.3,MacIntel,60.0024001,6113f27738dd95b65e7194f5,611e07ecdcc96256ae8d5b80,611e7d6d5eca34be6e744440,
,,,,space,0.145,,0,117,117,220,1,U, , , , ,space,2500,2.5,6113f27738dd95b65e7194f5,001,2021-08-19_16h49.17.458,natb3,2021.2.3,MacIntel,60.0024001,6113f27738dd95b65e7194f5,611e07ecdcc96256ae8d5b80,611e7d6d5eca34be6e744440,
,,,,space,0.2706,,0,118,118,42,1,U, , , , ,space,1500,1.5,6113f27738dd95b65e7194f5,001,2021-08-19_16h49.17.458,natb3,2021.2.3,MacIntel,60.0024001,6113f27738dd95b65e7194f5,611e07ecdcc96256ae8d5b80,611e7d6d5eca34be6e744440,
,,,,space,0.7126,,0,119,119,52,1,F, , , , ,space,1500,1.5,6113f27738dd95b65e7194f5,001,2021-08-19_16h49.17.458,natb3,2021.2.3,MacIntel,60.0024001,6113f27738dd95b65e7194f5,611e07ecdcc96256ae8d5b80,611e7d6d5eca34be6e744440,
,,,,space,0.2718,,0,120,120,292,1,E, , , , ,space,2000,2,6113f27738dd95b65e7194f5,001,2021-08-19_16h49.17.458,natb3,2021.2.3,MacIntel,60.0024001,6113f27738dd95b65e7194f5,611e07ecdcc96256ae8d5b80,611e7d6d5eca34be6e744440,
,,,,,,,0,121,121,94,1,C, , , , ,space,2000,2,6113f27738dd95b65e7194f5,001,2021-08-19_16h49.17.458,natb3,2021.2.3,MacIntel,60.0024001,6113f27738dd95b65e7194f5,611e07ecdcc96256ae8d5b80,611e7d6d5eca34be6e744440,
,,,,space,0.3395,,0,122,122,193,1,S, , , , ,space,2500,2.5,6113f27738dd95b65e7194f5,001,2021-08-19_16h49.17.458,natb3,2021.2.3,MacIntel,60.0024001,6113f27738dd95b65e7194f5,611e07ecdcc96256ae8d5b80,611e7d6d5eca34be6e744440,
,,,,,,,0,123,123,311,1,X,1,2,7,3,,2500,2.5,6113f27738dd95b65e7194f5,001,2021-08-19_16h49.17.458,natb3,2021.2.3,MacIntel,60.0024001,6113f27738dd95b65e7194f5,611e07ecdcc96256ae8d5b80,611e7d6d5eca34be6e744440,
,,,,,,,0,124,124,197,1,G, , , , ,space,2500,2.5,6113f27738dd95b65e7194f5,001,2021-08-19_16h49.17.458,natb3,2021.2.3,MacIntel,60.0024001,6113f27738dd95b65e7194f5,611e07ecdcc96256ae8d5b80,611e7d6d5eca34be6e744440,
,,,,,,,0,125,125,122,1,X,1, , ,8,,1500,1.5,6113f27738dd95b65e7194f5,001,2021-08-19_16h49.17.458,natb3,2021.2.3,MacIntel,60.0024001,6113f27738dd95b65e7194f5,611e07ecdcc96256ae8d5b80,611e7d6d5eca34be6e744440,
,,,,,,,0,126,126,271,1,X, , , , ,,2500,2.5,6113f27738dd95b65e7194f5,001,2021-08-19_16h49.17.458,natb3,2021.2.3,MacIntel,60.0024001,6113f27738dd95b65e7194f5,611e07ecdcc96256ae8d5b80,611e7d6d5eca34be6e744440,
,,,,,,,0,127,127,12,1,X, , , , ,,1500,1.5,6113f27738dd95b65e7194f5,001,2021-08-19_16h49.17.458,natb3,2021.2.3,MacIntel,60.0024001,6113f27738dd95b65e7194f5,611e07ecdcc96256ae8d5b80,611e7d6d5eca34be6e744440,
,,,,space,0.6813,,0,128,128,196,1,F, , , , ,space,1500,1.5,6113f27738dd95b65e7194f5,001,2021-08-19_16h49.17.458,natb3,2021.2.3,MacIntel,60.0024001,6113f27738dd95b65e7194f5,611e07ecdcc96256ae8d5b80,611e7d6d5eca34be6e744440,
,,,,,,,0,129,129,282,1,X, , , , ,,2500,2.5,6113f27738dd95b65e7194f5,001,2021-08-19_16h49.17.458,natb3,2021.2.3,MacIntel,60.0024001,6113f27738dd95b65e7194f5,611e07ecdcc96256ae8d5b80,611e7d6d5eca34be6e744440,
,,,,space,0.4954,,0,130,130,103,1,W, , , , ,space,2000,2,6113f27738dd95b65e7194f5,001,2021-08-19_16h49.17.458,natb3,2021.2.3,MacIntel,60.0024001,6113f27738dd95b65e7194f5,611e07ecdcc96256ae8d5b80,611e7d6d5eca34be6e744440,
,,,,,,,0,131,131,56,1,J, , , , ,space,1500,1.5,6113f27738dd95b65e7194f5,001,2021-08-19_16h49.17.458,natb3,2021.2.3,MacIntel,60.0024001,6113f27738dd95b65e7194f5,611e07ecdcc96256ae8d5b80,611e7d6d5eca34be6e744440,
,,,,space,0.251,,0,132,132,37,1,E, , , , ,space,2500,2.5,6113f27738dd95b65e7194f5,001,2021-08-19_16h49.17.458,natb3,2021.2.3,MacIntel,60.0024001,6113f27738dd95b65e7194f5,611e07ecdcc96256ae8d5b80,611e7d6d5eca34be6e744440,
,,,,space,0.3807,,0,133,133,117,1,T, , , , ,space,2500,2.5,6113f27738dd95b65e7194f5,001,2021-08-19_16h49.17.458,natb3,2021.2.3,MacIntel,60.0024001,6113f27738dd95b65e7194f5,611e07ecdcc96256ae8d5b80,611e7d6d5eca34be6e744440,
,,,,space,0.3354,,0,134,134,333,1,I, , , , ,space,1500,1.5,6113f27738dd95b65e7194f5,001,2021-08-19_16h49.17.458,natb3,2021.2.3,MacIntel,60.0024001,6113f27738dd95b65e7194f5,611e07ecdcc96256ae8d5b80,611e7d6d5eca34be6e744440,
,,,,space,0.2838,,0,135,135,140,1,B, , , , ,space,2500,2.5,6113f27738dd95b65e7194f5,001,2021-08-19_16h49.17.458,natb3,2021.2.3,MacIntel,60.0024001,6113f27738dd95b65e7194f5,611e07ecdcc96256ae8d5b80,611e7d6d5eca34be6e744440,
,,,,space,0.2643,,0,136,136,174,1,B, , , , ,space,2500,2.5,6113f27738dd95b65e7194f5,001,2021-08-19_16h49.17.458,natb3,2021.2.3,MacIntel,60.0024001,6113f27738dd95b65e7194f5,611e07ecdcc96256ae8d5b80,611e7d6d5eca34be6e744440,
,,,,space,0.2621,,0,137,137,61,1,C, , , , ,space,2000,2,6113f27738dd95b65e7194f5,001,2021-08-19_16h49.17.458,natb3,2021.2.3,MacIntel,60.0024001,6113f27738dd95b65e7194f5,611e07ecdcc96256ae8d5b80,611e7d6d5eca34be6e744440,
,,,,space,0.263,,0,138,138,147,1,E, , , , ,space,2000,2,6113f27738dd95b65e7194f5,001,2021-08-19_16h49.17.458,natb3,2021.2.3,MacIntel,60.0024001,6113f27738dd95b65e7194f5,611e07ecdcc96256ae8d5b80,611e7d6d5eca34be6e744440,
,,,,space,0.2461,,0,139,139,149,1,R, , , , ,space,2000,2,6113f27738dd95b65e7194f5,001,2021-08-19_16h49.17.458,natb3,2021.2.3,MacIntel,60.0024001,6113f27738dd95b65e7194f5,611e07ecdcc96256ae8d5b80,611e7d6d5eca34be6e744440,
,,,,space,0.4274,,0,140,140,247,1,Z, , , , ,space,1500,1.5,6113f27738dd95b65e7194f5,001,2021-08-19_16h49.17.458,natb3,2021.2.3,MacIntel,60.0024001,6113f27738dd95b65e7194f5,611e07ecdcc96256ae8d5b80,611e7d6d5eca34be6e744440,
,,,,space,0.2682,,0,141,141,320,1,B, , , , ,space,1500,1.5,6113f27738dd95b65e7194f5,001,2021-08-19_16h49.17.458,natb3,2021.2.3,MacIntel,60.0024001,6113f27738dd95b65e7194f5,611e07ecdcc96256ae8d5b80,611e7d6d5eca34be6e744440,
,,,,space,0.2988,,0,142,142,295,1,X,8,7,5, ,,2500,2.5,6113f27738dd95b65e7194f5,001,2021-08-19_16h49.17.458,natb3,2021.2.3,MacIntel,60.0024001,6113f27738dd95b65e7194f5,611e07ecdcc96256ae8d5b80,611e7d6d5eca34be6e744440,
,,,,space,0.2972,,0,143,143,92,1,Z, , , , ,space,1500,1.5,6113f27738dd95b65e7194f5,001,2021-08-19_16h49.17.458,natb3,2021.2.3,MacIntel,60.0024001,6113f27738dd95b65e7194f5,611e07ecdcc96256ae8d5b80,611e7d6d5eca34be6e744440,
,,,,space,0.2795,,0,144,144,190,1,P, , , , ,space,2000,2,6113f27738dd95b65e7194f5,001,2021-08-19_16h49.17.458,natb3,2021.2.3,MacIntel,60.0024001,6113f27738dd95b65e7194f5,611e07ecdcc96256ae8d5b80,611e7d6d5eca34be6e744440,
,,,,,,,0,145,145,324,1,Q, , , , ,space,2000,2,6113f27738dd95b65e7194f5,001,2021-08-19_16h49.17.458,natb3,2021.2.3,MacIntel,60.0024001,6113f27738dd95b65e7194f5,611e07ecdcc96256ae8d5b80,611e7d6d5eca34be6e744440,
,,,,,,,0,146,146,53,1,G, , , , ,space,2500,2.5,6113f27738dd95b65e7194f5,001,2021-08-19_16h49.17.458,natb3,2021.2.3,MacIntel,60.0024001,6113f27738dd95b65e7194f5,611e07ecdcc96256ae8d5b80,611e7d6d5eca34be6e744440,
,,,,,,,0,147,147,280,1,L, , , , ,space,1500,1.5,6113f27738dd95b65e7194f5,001,2021-08-19_16h49.17.458,natb3,2021.2.3,MacIntel,60.0024001,6113f27738dd95b65e7194f5,611e07ecdcc96256ae8d5b80,611e7d6d5eca34be6e744440,
,,,,,,,0,148,148,239,1,X, , , , ,,2000,2,6113f27738dd95b65e7194f5,001,2021-08-19_16h49.17.458,natb3,2021.2.3,MacIntel,60.0024001,6113f27738dd95b65e7194f5,611e07ecdcc96256ae8d5b80,611e7d6d5eca34be6e744440,
,,,,,,,0,149,149,148,1,X, , , , ,,2000,2,6113f27738dd95b65e7194f5,001,2021-08-19_16h49.17.458,natb3,2021.2.3,MacIntel,60.0024001,6113f27738dd95b65e7194f5,611e07ecdcc96256ae8d5b80,611e7d6d5eca34be6e744440,
,,,,,,,0,150,150,288,1,M, , , , ,space,1500,1.5,6113f27738dd95b65e7194f5,001,2021-08-19_16h49.17.458,natb3,2021.2.3,MacIntel,60.0024001,6113f27738dd95b65e7194f5,611e07ecdcc96256ae8d5b80,611e7d6d5eca34be6e744440,
,,,,,,,0,151,151,234,1,P, , , , ,space,2000,2,6113f27738dd95b65e7194f5,001,2021-08-19_16h49.17.458,natb3,2021.2.3,MacIntel,60.0024001,6113f27738dd95b65e7194f5,611e07ecdcc96256ae8d5b80,611e7d6d5eca34be6e744440,
,,,,,,,0,152,152,244,1,J, , , , ,space,1500,1.5,6113f27738dd95b65e7194f5,001,2021-08-19_16h49.17.458,natb3,2021.2.3,MacIntel,60.0024001,6113f27738dd95b65e7194f5,611e07ecdcc96256ae8d5b80,611e7d6d5eca34be6e744440,
,,,,,,,0,153,153,170,1,Z, , , , ,space,2000,2,6113f27738dd95b65e7194f5,001,2021-08-19_16h49.17.458,natb3,2021.2.3,MacIntel,60.0024001,6113f27738dd95b65e7194f5,611e07ecdcc96256ae8d5b80,611e7d6d5eca34be6e744440,
,,,,,,,0,154,154,285,1,B, , , , ,space,1500,1.5,6113f27738dd95b65e7194f5,001,2021-08-19_16h49.17.458,natb3,2021.2.3,MacIntel,60.0024001,6113f27738dd95b65e7194f5,611e07ecdcc96256ae8d5b80,611e7d6d5eca34be6e744440,
,,,,space,0.3943,,0,155,155,57,1,K, , , , ,space,2500,2.5,6113f27738dd95b65e7194f5,001,2021-08-19_16h49.17.458,natb3,2021.2.3,MacIntel,60.0024001,6113f27738dd95b65e7194f5,611e07ecdcc96256ae8d5b80,611e7d6d5eca34be6e744440,
,,,,,,,0,156,156,60,1,X,7,3,5, ,,1500,1.5,6113f27738dd95b65e7194f5,001,2021-08-19_16h49.17.458,natb3,2021.2.3,MacIntel,60.0024001,6113f27738dd95b65e7194f5,611e07ecdcc96256ae8d5b80,611e7d6d5eca34be6e744440,
,,,,,,,0,157,157,27,1,X,5, ,1,3,,1500,1.5,6113f27738dd95b65e7194f5,001,2021-08-19_16h49.17.458,natb3,2021.2.3,MacIntel,60.0024001,6113f27738dd95b65e7194f5,611e07ecdcc96256ae8d5b80,611e7d6d5eca34be6e744440,
,,,,,,,0,158,158,125,1,X, , , , ,,2000,2,6113f27738dd95b65e7194f5,001,2021-08-19_16h49.17.458,natb3,2021.2.3,MacIntel,60.0024001,6113f27738dd95b65e7194f5,611e07ecdcc96256ae8d5b80,611e7d6d5eca34be6e744440,
,,,,,,,0,159,159,253,1,N, , , , ,space,2500,2.5,6113f27738dd95b65e7194f5,001,2021-08-19_16h49.17.458,natb3,2021.2.3,MacIntel,60.0024001,6113f27738dd95b65e7194f5,611e07ecdcc96256ae8d5b80,611e7d6d5eca34be6e744440,
,,,,,,,0,160,160,214,1,W, , , , ,space,2000,2,6113f27738dd95b65e7194f5,001,2021-08-19_16h49.17.458,natb3,2021.2.3,MacIntel,60.0024001,6113f27738dd95b65e7194f5,611e07ecdcc96256ae8d5b80,611e7d6d5eca34be6e744440,
,,,,,,,0,161,161,319,1,V, , , , ,space,2000,2,6113f27738dd95b65e7194f5,001,2021-08-19_16h49.17.458,natb3,2021.2.3,MacIntel,60.0024001,6113f27738dd95b65e7194f5,611e07ecdcc96256ae8d5b80,611e7d6d5eca34be6e744440,
,,,,,,,0,162,162,321,1,N, , , , ,space,2000,2,6113f27738dd95b65e7194f5,001,2021-08-19_16h49.17.458,natb3,2021.2.3,MacIntel,60.0024001,6113f27738dd95b65e7194f5,611e07ecdcc96256ae8d5b80,611e7d6d5eca34be6e744440,
,,,,,,,0,163,163,90,1,K, , , , ,space,2000,2,6113f27738dd95b65e7194f5,001,2021-08-19_16h49.17.458,natb3,2021.2.3,MacIntel,60.0024001,6113f27738dd95b65e7194f5,611e07ecdcc96256ae8d5b80,611e7d6d5eca34be6e744440,
,,,,,,,0,164,164,211,1,X, , , , ,,2500,2.5,6113f27738dd95b65e7194f5,001,2021-08-19_16h49.17.458,natb3,2021.2.3,MacIntel,60.0024001,6113f27738dd95b65e7194f5,611e07ecdcc96256ae8d5b80,611e7d6d5eca34be6e744440,
,,,,,,,0,165,165,35,1,X, , , , ,,2500,2.5,6113f27738dd95b65e7194f5,001,2021-08-19_16h49.17.458,natb3,2021.2.3,MacIntel,60.0024001,6113f27738dd95b65e7194f5,611e07ecdcc96256ae8d5b80,611e7d6d5eca34be6e744440,
,,,,space,0.4319,,0,166,166,81,1,S, , , , ,space,2000,2,6113f27738dd95b65e7194f5,001,2021-08-19_16h49.17.458,natb3,2021.2.3,MacIntel,60.0024001,6113f27738dd95b65e7194f5,611e07ecdcc96256ae8d5b80,611e7d6d5eca34be6e744440,
,,,,,,space,0,167,167,229,1,X,8, ,2,6,,2500,2.5,6113f27738dd95b65e7194f5,001,2021-08-19_16h49.17.458,natb3,2021.2.3,MacIntel,60.0024001,6113f27738dd95b65e7194f5,611e07ecdcc96256ae8d5b80,611e7d6d5eca34be6e744440,23.1125
,,,,,,,0,168,168,14,1,S, , , , ,space,2500,2.5,6113f27738dd95b65e7194f5,001,2021-08-19_16h49.17.458,natb3,2021.2.3,MacIntel,60.0024001,6113f27738dd95b65e7194f5,611e07ecdcc96256ae8d5b80,611e7d6d5eca34be6e744440,
,,,,space,0.5815,,0,169,169,231,1,I, , , , ,space,2500,2.5,6113f27738dd95b65e7194f5,001,2021-08-19_16h49.17.458,natb3,2021.2.3,MacIntel,60.0024001,6113f27738dd95b65e7194f5,611e07ecdcc96256ae8d5b80,611e7d6d5eca34be6e744440,
,,,,,,,0,170,170,172,1,C, , , , ,space,1500,1.5,6113f27738dd95b65e7194f5,001,2021-08-19_16h49.17.458,natb3,2021.2.3,MacIntel,60.0024001,6113f27738dd95b65e7194f5,611e07ecdcc96256ae8d5b80,611e7d6d5eca34be6e744440,
,,,,,,,0,171,171,268,1,X,6, ,3, ,,2500,2.5,6113f27738dd95b65e7194f5,001,2021-08-19_16h49.17.458,natb3,2021.2.3,MacIntel,60.0024001,6113f27738dd95b65e7194f5,611e07ecdcc96256ae8d5b80,611e7d6d5eca34be6e744440,
,,,,,,,0,172,172,334,1,O, , , , ,space,1500,1.5,6113f27738dd95b65e7194f5,001,2021-08-19_16h49.17.458,natb3,2021.2.3,MacIntel,60.0024001,6113f27738dd95b65e7194f5,611e07ecdcc96256ae8d5b80,611e7d6d5eca34be6e744440,
,,,,,,,0,173,173,135,1,K, , , , ,space,1500,1.5,6113f27738dd95b65e7194f5,001,2021-08-19_16h49.17.458,natb3,2021.2.3,MacIntel,60.0024001,6113f27738dd95b65e7194f5,611e07ecdcc96256ae8d5b80,611e7d6d5eca34be6e744440,
,,,,,,,0,174,174,182,1,X, , , , ,,1500,1.5,6113f27738dd95b65e7194f5,001,2021-08-19_16h49.17.458,natb3,2021.2.3,MacIntel,60.0024001,6113f27738dd95b65e7194f5,611e07ecdcc96256ae8d5b80,611e7d6d5eca34be6e744440,
,,,,space,0.5135,,0,175,175,160,1,D, , , , ,space,1500,1.5,6113f27738dd95b65e7194f5,001,2021-08-19_16h49.17.458,natb3,2021.2.3,MacIntel,60.0024001,6113f27738dd95b65e7194f5,611e07ecdcc96256ae8d5b80,611e7d6d5eca34be6e744440,
,,,,,,,0,176,176,82,1,X,4,6,1,7,,2000,2,6113f27738dd95b65e7194f5,001,2021-08-19_16h49.17.458,natb3,2021.2.3,MacIntel,60.0024001,6113f27738dd95b65e7194f5,611e07ecdcc96256ae8d5b80,611e7d6d5eca34be6e744440,
,,,,,,,0,177,177,114,1,E, , , , ,space,2000,2,6113f27738dd95b65e7194f5,001,2021-08-19_16h49.17.458,natb3,2021.2.3,MacIntel,60.0024001,6113f27738dd95b65e7194f5,611e07ecdcc96256ae8d5b80,611e7d6d5eca34be6e744440,
,,,,,,,0,178,178,75,1,U, , , , ,space,1500,1.5,6113f27738dd95b65e7194f5,001,2021-08-19_16h49.17.458,natb3,2021.2.3,MacIntel,60.0024001,6113f27738dd95b65e7194f5,611e07ecdcc96256ae8d5b80,611e7d6d5eca34be6e744440,
,,,,,,,0,179,179,77,1,O, , , , ,space,2000,2,6113f27738dd95b65e7194f5,001,2021-08-19_16h49.17.458,natb3,2021.2.3,MacIntel,60.0024001,6113f27738dd95b65e7194f5,611e07ecdcc96256ae8d5b80,611e7d6d5eca34be6e744440,
,,,,,,,0,180,180,294,1,T, , , , ,space,2000,2,6113f27738dd95b65e7194f5,001,2021-08-19_16h49.17.458,natb3,2021.2.3,MacIntel,60.0024001,6113f27738dd95b65e7194f5,611e07ecdcc96256ae8d5b80,611e7d6d5eca34be6e744440,
,,,,,,,0,181,181,107,1,X,9,3, ,2,,2000,2,6113f27738dd95b65e7194f5,001,2021-08-19_16h49.17.458,natb3,2021.2.3,MacIntel,60.0024001,6113f27738dd95b65e7194f5,611e07ecdcc96256ae8d5b80,611e7d6d5eca34be6e744440,
,,,,space,0.4565,,0,182,182,163,1,G, , , , ,space,2500,2.5,6113f27738dd95b65e7194f5,001,2021-08-19_16h49.17.458,natb3,2021.2.3,MacIntel,60.0024001,6113f27738dd95b65e7194f5,611e07ecdcc96256ae8d5b80,611e7d6d5eca34be6e744440,
,,,,,,,0,183,183,23,1,X,1, ,5, ,,2000,2,6113f27738dd95b65e7194f5,001,2021-08-19_16h49.17.458,natb3,2021.2.3,MacIntel,60.0024001,6113f27738dd95b65e7194f5,611e07ecdcc96256ae8d5b80,611e7d6d5eca34be6e744440,
,,,,,,,0,184,184,237,1,S, , , , ,space,1500,1.5,6113f27738dd95b65e7194f5,001,2021-08-19_16h49.17.458,natb3,2021.2.3,MacIntel,60.0024001,6113f27738dd95b65e7194f5,611e07ecdcc96256ae8d5b80,611e7d6d5eca34be6e744440,
,,,,,,,0,185,185,141,1,X,1, ,4,6,,1500,1.5,6113f27738dd95b65e7194f5,001,2021-08-19_16h49.17.458,natb3,2021.2.3,MacIntel,60.0024001,6113f27738dd95b65e7194f5,611e07ecdcc96256ae8d5b80,611e7d6d5eca34be6e744440,
,,,,,,,0,186,186,130,1,F, , , , ,space,2000,2,6113f27738dd95b65e7194f5,001,2021-08-19_16h49.17.458,natb3,2021.2.3,MacIntel,60.0024001,6113f27738dd95b65e7194f5,611e07ecdcc96256ae8d5b80,611e7d6d5eca34be6e744440,
,,,,,,,0,187,187,106,1,T, , , , ,space,1500,1.5,6113f27738dd95b65e7194f5,001,2021-08-19_16h49.17.458,natb3,2021.2.3,MacIntel,60.0024001,6113f27738dd95b65e7194f5,611e07ecdcc96256ae8d5b80,611e7d6d5eca34be6e744440,
,,,,,,,0,188,188,198,1,H, , , , ,space,2500,2.5,6113f27738dd95b65e7194f5,001,2021-08-19_16h49.17.458,natb3,2021.2.3,MacIntel,60.0024001,6113f27738dd95b65e7194f5,611e07ecdcc96256ae8d5b80,611e7d6d5eca34be6e744440,
,,,,,,,0,189,189,101,1,Q, , , , ,space,2500,2.5,6113f27738dd95b65e7194f5,001,2021-08-19_16h49.17.458,natb3,2021.2.3,MacIntel,60.0024001,6113f27738dd95b65e7194f5,611e07ecdcc96256ae8d5b80,611e7d6d5eca34be6e744440,
,,,,,,,0,190,190,54,1,X, , , , ,,2000,2,6113f27738dd95b65e7194f5,001,2021-08-19_16h49.17.458,natb3,2021.2.3,MacIntel,60.0024001,6113f27738dd95b65e7194f5,611e07ecdcc96256ae8d5b80,611e7d6d5eca34be6e744440,
,,,,,,,0,191,191,177,1,M, , , , ,space,2500,2.5,6113f27738dd95b65e7194f5,001,2021-08-19_16h49.17.458,natb3,2021.2.3,MacIntel,60.0024001,6113f27738dd95b65e7194f5,611e07ecdcc96256ae8d5b80,611e7d6d5eca34be6e744440,
,,,,,,,0,192,192,164,1,H, , , , ,space,2500,2.5,6113f27738dd95b65e7194f5,001,2021-08-19_16h49.17.458,natb3,2021.2.3,MacIntel,60.0024001,6113f27738dd95b65e7194f5,611e07ecdcc96256ae8d5b80,611e7d6d5eca34be6e744440,
,,,,,,,0,193,193,223,1,Q, , , , ,space,2000,2,6113f27738dd95b65e7194f5,001,2021-08-19_16h49.17.458,natb3,2021.2.3,MacIntel,60.0024001,6113f27738dd95b65e7194f5,611e07ecdcc96256ae8d5b80,611e7d6d5eca34be6e744440,
,,,,,,,0,194,194,43,1,X, ,6, ,2,,2500,2.5,6113f27738dd95b65e7194f5,001,2021-08-19_16h49.17.458,natb3,2021.2.3,MacIntel,60.0024001,6113f27738dd95b65e7194f5,611e07ecdcc96256ae8d5b80,611e7d6d5eca34be6e744440,
,,,,,,,0,195,195,238,1,D, , , , ,space,1500,1.5,6113f27738dd95b65e7194f5,001,2021-08-19_16h49.17.458,natb3,2021.2.3,MacIntel,60.0024001,6113f27738dd95b65e7194f5,611e07ecdcc96256ae8d5b80,611e7d6d5eca34be6e744440,
,,,,space,0.8983,,0,196,196,110,1,I, , , , ,space,1500,1.5,6113f27738dd95b65e7194f5,001,2021-08-19_16h49.17.458,natb3,2021.2.3,MacIntel,60.0024001,6113f27738dd95b65e7194f5,611e07ecdcc96256ae8d5b80,611e7d6d5eca34be6e744440,
,,,,space,0.3493,,0,197,197,73,1,Y, , , , ,space,2000,2,6113f27738dd95b65e7194f5,001,2021-08-19_16h49.17.458,natb3,2021.2.3,MacIntel,60.0024001,6113f27738dd95b65e7194f5,611e07ecdcc96256ae8d5b80,611e7d6d5eca34be6e744440,
,,,,space,0.347,,0,198,198,127,1,S, , , , ,space,2500,2.5,6113f27738dd95b65e7194f5,001,2021-08-19_16h49.17.458,natb3,2021.2.3,MacIntel,60.0024001,6113f27738dd95b65e7194f5,611e07ecdcc96256ae8d5b80,611e7d6d5eca34be6e744440,
,,,,space,0.3002,,0,199,199,0,1,Q, , , , ,space,1500,1.5,6113f27738dd95b65e7194f5,001,2021-08-19_16h49.17.458,natb3,2021.2.3,MacIntel,60.0024001,6113f27738dd95b65e7194f5,611e07ecdcc96256ae8d5b80,611e7d6d5eca34be6e744440,
,,,,space,0.2843,,0,200,200,261,1,T, , , , ,space,2000,2,6113f27738dd95b65e7194f5,001,2021-08-19_16h49.17.458,natb3,2021.2.3,MacIntel,60.0024001,6113f27738dd95b65e7194f5,611e07ecdcc96256ae8d5b80,611e7d6d5eca34be6e744440,
,,,,space,0.2822,,0,201,201,277,1,X,8,5, ,2,,2000,2,6113f27738dd95b65e7194f5,001,2021-08-19_16h49.17.458,natb3,2021.2.3,MacIntel,60.0024001,6113f27738dd95b65e7194f5,611e07ecdcc96256ae8d5b80,611e7d6d5eca34be6e744440,
,,,,,,,0,202,202,318,1,X, , , , ,,1500,1.5,6113f27738dd95b65e7194f5,001,2021-08-19_16h49.17.458,natb3,2021.2.3,MacIntel,60.0024001,6113f27738dd95b65e7194f5,611e07ecdcc96256ae8d5b80,611e7d6d5eca34be6e744440,
,,,,,,,0,203,203,33,1,X, , , , ,,1500,1.5,6113f27738dd95b65e7194f5,001,2021-08-19_16h49.17.458,natb3,2021.2.3,MacIntel,60.0024001,6113f27738dd95b65e7194f5,611e07ecdcc96256ae8d5b80,611e7d6d5eca34be6e744440,
,,,,,,,0,204,204,224,1,W, , , , ,space,1500,1.5,6113f27738dd95b65e7194f5,001,2021-08-19_16h49.17.458,natb3,2021.2.3,MacIntel,60.0024001,6113f27738dd95b65e7194f5,611e07ecdcc96256ae8d5b80,611e7d6d5eca34be6e744440,
,,,,,,,0,205,205,313,1,X, , , , ,,2500,2.5,6113f27738dd95b65e7194f5,001,2021-08-19_16h49.17.458,natb3,2021.2.3,MacIntel,60.0024001,6113f27738dd95b65e7194f5,611e07ecdcc96256ae8d5b80,611e7d6d5eca34be6e744440,
,,,,,,,0,206,206,228,1,Y, , , , ,space,2000,2,6113f27738dd95b65e7194f5,001,2021-08-19_16h49.17.458,natb3,2021.2.3,MacIntel,60.0024001,6113f27738dd95b65e7194f5,611e07ecdcc96256ae8d5b80,611e7d6d5eca34be6e744440,
,,,,,,,0,207,207,21,1,J, , , , ,space,1500,1.5,6113f27738dd95b65e7194f5,001,2021-08-19_16h49.17.458,natb3,2021.2.3,MacIntel,60.0024001,6113f27738dd95b65e7194f5,611e07ecdcc96256ae8d5b80,611e7d6d5eca34be6e744440,
,,,,,,,0,208,208,159,1,S, , , , ,space,2500,2.5,6113f27738dd95b65e7194f5,001,2021-08-19_16h49.17.458,natb3,2021.2.3,MacIntel,60.0024001,6113f27738dd95b65e7194f5,611e07ecdcc96256ae8d5b80,611e7d6d5eca34be6e744440,
,,,,,,,0,209,209,46,1,X, , , , ,,2000,2,6113f27738dd95b65e7194f5,001,2021-08-19_16h49.17.458,natb3,2021.2.3,MacIntel,60.0024001,6113f27738dd95b65e7194f5,611e07ecdcc96256ae8d5b80,611e7d6d5eca34be6e744440,
,,,,,,,0,210,210,315,1,X, , , , ,,2500,2.5,6113f27738dd95b65e7194f5,001,2021-08-19_16h49.17.458,natb3,2021.2.3,MacIntel,60.0024001,6113f27738dd95b65e7194f5,611e07ecdcc96256ae8d5b80,611e7d6d5eca34be6e744440,
,,,,,,,0,211,211,298,1,I, , , , ,space,2000,2,6113f27738dd95b65e7194f5,001,2021-08-19_16h49.17.458,natb3,2021.2.3,MacIntel,60.0024001,6113f27738dd95b65e7194f5,611e07ecdcc96256ae8d5b80,611e7d6d5eca34be6e744440,
,,,,,,,0,212,212,183,1,R, , , , ,space,1500,1.5,6113f27738dd95b65e7194f5,001,2021-08-19_16h49.17.458,natb3,2021.2.3,MacIntel,60.0024001,6113f27738dd95b65e7194f5,611e07ecdcc96256ae8d5b80,611e7d6d5eca34be6e744440,
,,,,,,,0,213,213,243,1,X, , , , ,,2500,2.5,6113f27738dd95b65e7194f5,001,2021-08-19_16h49.17.458,natb3,2021.2.3,MacIntel,60.0024001,6113f27738dd95b65e7194f5,611e07ecdcc96256ae8d5b80,611e7d6d5eca34be6e744440,
,,,,,,,0,214,214,121,1,I, , , , ,space,2000,2,6113f27738dd95b65e7194f5,001,2021-08-19_16h49.17.458,natb3,2021.2.3,MacIntel,60.0024001,6113f27738dd95b65e7194f5,611e07ecdcc96256ae8d5b80,611e7d6d5eca34be6e744440,
,,,,,,,0,215,215,39,1,X,6,2, , ,,1500,1.5,6113f27738dd95b65e7194f5,001,2021-08-19_16h49.17.458,natb3,2021.2.3,MacIntel,60.0024001,6113f27738dd95b65e7194f5,611e07ecdcc96256ae8d5b80,611e7d6d5eca34be6e744440,
,,,,,,,0,216,216,89,1,X,3, , , ,,2000,2,6113f27738dd95b65e7194f5,001,2021-08-19_16h49.17.458,natb3,2021.2.3,MacIntel,60.0024001,6113f27738dd95b65e7194f5,611e07ecdcc96256ae8d5b80,611e7d6d5eca34be6e744440,
,,,,,,,0,217,217,47,1,P, , , , ,space,2000,2,6113f27738dd95b65e7194f5,001,2021-08-19_16h49.17.458,natb3,2021.2.3,MacIntel,60.0024001,6113f27738dd95b65e7194f5,611e07ecdcc96256ae8d5b80,611e7d6d5eca34be6e744440,
,,,,,,,0,218,218,299,1,X, , , , ,,2500,2.5,6113f27738dd95b65e7194f5,001,2021-08-19_16h49.17.458,natb3,2021.2.3,MacIntel,60.0024001,6113f27738dd95b65e7194f5,611e07ecdcc96256ae8d5b80,611e7d6d5eca34be6e744440,
,,,,,,,0,219,219,69,1,X, , , , ,,1500,1.5,6113f27738dd95b65e7194f5,001,2021-08-19_16h49.17.458,natb3,2021.2.3,MacIntel,60.0024001,6113f27738dd95b65e7194f5,611e07ecdcc96256ae8d5b80,611e7d6d5eca34be6e744440,
,,,,,,,0,220,220,200,1,X,7, ,5,3,,1500,1.5,6113f27738dd95b65e7194f5,001,2021-08-19_16h49.17.458,natb3,2021.2.3,MacIntel,60.0024001,6113f27738dd95b65e7194f5,611e07ecdcc96256ae8d5b80,611e7d6d5eca34be6e744440,
,,,,,,,0,221,221,65,1,M, , , , ,space,1500,1.5,6113f27738dd95b65e7194f5,001,2021-08-19_16h49.17.458,natb3,2021.2.3,MacIntel,60.0024001,6113f27738dd95b65e7194f5,611e07ecdcc96256ae8d5b80,611e7d6d5eca34be6e744440,
,,,,,,,0,222,222,124,1,P, , , , ,space,2000,2,6113f27738dd95b65e7194f5,001,2021-08-19_16h49.17.458,natb3,2021.2.3,MacIntel,60.0024001,6113f27738dd95b65e7194f5,611e07ecdcc96256ae8d5b80,611e7d6d5eca34be6e744440,
,,,,,,,0,223,223,260,1,R, , , , ,space,2000,2,6113f27738dd95b65e7194f5,001,2021-08-19_16h49.17.458,natb3,2021.2.3,MacIntel,60.0024001,6113f27738dd95b65e7194f5,611e07ecdcc96256ae8d5b80,611e7d6d5eca34be6e744440,
,,,,,,,0,224,224,137,1,C, , , , ,space,2500,2.5,6113f27738dd95b65e7194f5,001,2021-08-19_16h49.17.458,natb3,2021.2.3,MacIntel,60.0024001,6113f27738dd95b65e7194f5,611e07ecdcc96256ae8d5b80,611e7d6d5eca34be6e744440,
,,,,,,,0,225,225,215,1,E, , , , ,space,2500,2.5,6113f27738dd95b65e7194f5,001,2021-08-19_16h49.17.458,natb3,2021.2.3,MacIntel,60.0024001,6113f27738dd95b65e7194f5,611e07ecdcc96256ae8d5b80,611e7d6d5eca34be6e744440,
,,,,,,,0,226,226,173,1,V, , , , ,space,1500,1.5,6113f27738dd95b65e7194f5,001,2021-08-19_16h49.17.458,natb3,2021.2.3,MacIntel,60.0024001,6113f27738dd95b65e7194f5,611e07ecdcc96256ae8d5b80,611e7d6d5eca34be6e744440,
,,,,,,,0,227,227,208,1,B, , , , ,space,1500,1.5,6113f27738dd95b65e7194f5,001,2021-08-19_16h49.17.458,natb3,2021.2.3,MacIntel,60.0024001,6113f27738dd95b65e7194f5,611e07ecdcc96256ae8d5b80,611e7d6d5eca34be6e744440,
,,,,,,,0,228,228,262,1,Y, , , , ,space,2500,2.5,6113f27738dd95b65e7194f5,001,2021-08-19_16h49.17.458,natb3,2021.2.3,MacIntel,60.0024001,6113f27738dd95b65e7194f5,611e07ecdcc96256ae8d5b80,611e7d6d5eca34be6e744440,
,,,,,,,0,229,229,312,1,K, , , , ,space,2000,2,6113f27738dd95b65e7194f5,001,2021-08-19_16h49.17.458,natb3,2021.2.3,MacIntel,60.0024001,6113f27738dd95b65e7194f5,611e07ecdcc96256ae8d5b80,611e7d6d5eca34be6e744440,
,,,,,,,0,230,230,49,1,S, , , , ,space,1500,1.5,6113f27738dd95b65e7194f5,001,2021-08-19_16h49.17.458,natb3,2021.2.3,MacIntel,60.0024001,6113f27738dd95b65e7194f5,611e07ecdcc96256ae8d5b80,611e7d6d5eca34be6e744440,
,,,,,,,0,231,231,113,1,W, , , , ,space,2500,2.5,6113f27738dd95b65e7194f5,001,2021-08-19_16h49.17.458,natb3,2021.2.3,MacIntel,60.0024001,6113f27738dd95b65e7194f5,611e07ecdcc96256ae8d5b80,611e7d6d5eca34be6e744440,
,,,,,,,0,232,232,205,1,C, , , , ,space,2000,2,6113f27738dd95b65e7194f5,001,2021-08-19_16h49.17.458,natb3,2021.2.3,MacIntel,60.0024001,6113f27738dd95b65e7194f5,611e07ecdcc96256ae8d5b80,611e7d6d5eca34be6e744440,
,,,,,,,0,233,233,216,1,R, , , , ,space,1500,1.5,6113f27738dd95b65e7194f5,001,2021-08-19_16h49.17.458,natb3,2021.2.3,MacIntel,60.0024001,6113f27738dd95b65e7194f5,611e07ecdcc96256ae8d5b80,611e7d6d5eca34be6e744440,
,,,,,,,0,234,234,264,1,U, , , , ,space,2000,2,6113f27738dd95b65e7194f5,001,2021-08-19_16h49.17.458,natb3,2021.2.3,MacIntel,60.0024001,6113f27738dd95b65e7194f5,611e07ecdcc96256ae8d5b80,611e7d6d5eca34be6e744440,
,,,,space,0.9523,,0,235,235,304,1,S, , , , ,space,2000,2,6113f27738dd95b65e7194f5,001,2021-08-19_16h49.17.458,natb3,2021.2.3,MacIntel,60.0024001,6113f27738dd95b65e7194f5,611e07ecdcc96256ae8d5b80,611e7d6d5eca34be6e744440,
,,,,,,,0,236,236,88,1,J, , , , ,space,2500,2.5,6113f27738dd95b65e7194f5,001,2021-08-19_16h49.17.458,natb3,2021.2.3,MacIntel,60.0024001,6113f27738dd95b65e7194f5,611e07ecdcc96256ae8d5b80,611e7d6d5eca34be6e744440,
,,,,,,,0,237,237,251,1,B, , , , ,space,1500,1.5,6113f27738dd95b65e7194f5,001,2021-08-19_16h49.17.458,natb3,2021.2.3,MacIntel,60.0024001,6113f27738dd95b65e7194f5,611e07ecdcc96256ae8d5b80,611e7d6d5eca34be6e744440,
,,,,,,,0,238,238,66,1,X, ,4,7, ,,2000,2,6113f27738dd95b65e7194f5,001,2021-08-19_16h49.17.458,natb3,2021.2.3,MacIntel,60.0024001,6113f27738dd95b65e7194f5,611e07ecdcc96256ae8d5b80,611e7d6d5eca34be6e744440,
,,,,,,,0,239,239,245,1,K, , , , ,space,2000,2,6113f27738dd95b65e7194f5,001,2021-08-19_16h49.17.458,natb3,2021.2.3,MacIntel,60.0024001,6113f27738dd95b65e7194f5,611e07ecdcc96256ae8d5b80,611e7d6d5eca34be6e744440,
,,,,,,,0,240,240,233,1,X, ,2, ,5,,1500,1.5,6113f27738dd95b65e7194f5,001,2021-08-19_16h49.17.458,natb3,2021.2.3,MacIntel,60.0024001,6113f27738dd95b65e7194f5,611e07ecdcc96256ae8d5b80,611e7d6d5eca34be6e744440,
,,,,,,,0,241,241,171,1,X, , , , ,,1500,1.5,6113f27738dd95b65e7194f5,001,2021-08-19_16h49.17.458,natb3,2021.2.3,MacIntel,60.0024001,6113f27738dd95b65e7194f5,611e07ecdcc96256ae8d5b80,611e7d6d5eca34be6e744440,
,,,,space,0.4517,,0,242,242,246,1,L, , , , ,space,2500,2.5,6113f27738dd95b65e7194f5,001,2021-08-19_16h49.17.458,natb3,2021.2.3,MacIntel,60.0024001,6113f27738dd95b65e7194f5,611e07ecdcc96256ae8d5b80,611e7d6d5eca34be6e744440,
,,,,space,0.4667,,0,243,243,55,1,H, , , , ,space,2500,2.5,6113f27738dd95b65e7194f5,001,2021-08-19_16h49.17.458,natb3,2021.2.3,MacIntel,60.0024001,6113f27738dd95b65e7194f5,611e07ecdcc96256ae8d5b80,611e7d6d5eca34be6e744440,
,,,,,,,0,244,244,270,1,S, , , , ,space,1500,1.5,6113f27738dd95b65e7194f5,001,2021-08-19_16h49.17.458,natb3,2021.2.3,MacIntel,60.0024001,6113f27738dd95b65e7194f5,611e07ecdcc96256ae8d5b80,611e7d6d5eca34be6e744440,
,,,,,,,0,245,245,96,1,X, , , , ,,1500,1.5,6113f27738dd95b65e7194f5,001,2021-08-19_16h49.17.458,natb3,2021.2.3,MacIntel,60.0024001,6113f27738dd95b65e7194f5,611e07ecdcc96256ae8d5b80,611e7d6d5eca34be6e744440,
,,,,space,0.4823,,0,246,246,11,1,P, , , , ,space,2500,2.5,6113f27738dd95b65e7194f5,001,2021-08-19_16h49.17.458,natb3,2021.2.3,MacIntel,60.0024001,6113f27738dd95b65e7194f5,611e07ecdcc96256ae8d5b80,611e7d6d5eca34be6e744440,
,,,,,,,0,247,247,305,1,X, , , , ,,1500,1.5,6113f27738dd95b65e7194f5,001,2021-08-19_16h49.17.458,natb3,2021.2.3,MacIntel,60.0024001,6113f27738dd95b65e7194f5,611e07ecdcc96256ae8d5b80,611e7d6d5eca34be6e744440,
,,,,space,0.3251,,0,248,248,265,1,I, , , , ,space,2000,2,6113f27738dd95b65e7194f5,001,2021-08-19_16h49.17.458,natb3,2021.2.3,MacIntel,60.0024001,6113f27738dd95b65e7194f5,611e07ecdcc96256ae8d5b80,611e7d6d5eca34be6e744440,
,,,,,,,0,249,249,6,1,Y, , , , ,space,2500,2.5,6113f27738dd95b65e7194f5,001,2021-08-19_16h49.17.458,natb3,2021.2.3,MacIntel,60.0024001,6113f27738dd95b65e7194f5,611e07ecdcc96256ae8d5b80,611e7d6d5eca34be6e744440,
,,,,space,0.7322,,0,250,250,316,1,Z, , , , ,space,1500,1.5,6113f27738dd95b65e7194f5,001,2021-08-19_16h49.17.458,natb3,2021.2.3,MacIntel,60.0024001,6113f27738dd95b65e7194f5,611e07ecdcc96256ae8d5b80,611e7d6d5eca34be6e744440,
,,,,space,0.9324,,0,251,251,97,1,B, , , , ,space,2500,2.5,6113f27738dd95b65e7194f5,001,2021-08-19_16h49.17.458,natb3,2021.2.3,MacIntel,60.0024001,6113f27738dd95b65e7194f5,611e07ecdcc96256ae8d5b80,611e7d6d5eca34be6e744440,
,,,,,,,0,252,252,303,1,A, , , , ,space,2000,2,6113f27738dd95b65e7194f5,001,2021-08-19_16h49.17.458,natb3,2021.2.3,MacIntel,60.0024001,6113f27738dd95b65e7194f5,611e07ecdcc96256ae8d5b80,611e7d6d5eca34be6e744440,
,,,,,,,0,253,253,192,1,A, , , , ,space,2000,2,6113f27738dd95b65e7194f5,001,2021-08-19_16h49.17.458,natb3,2021.2.3,MacIntel,60.0024001,6113f27738dd95b65e7194f5,611e07ecdcc96256ae8d5b80,611e7d6d5eca34be6e744440,
,,,,,,,0,254,254,281,1,Z, , , , ,space,1500,1.5,6113f27738dd95b65e7194f5,001,2021-08-19_16h49.17.458,natb3,2021.2.3,MacIntel,60.0024001,6113f27738dd95b65e7194f5,611e07ecdcc96256ae8d5b80,611e7d6d5eca34be6e744440,
,,,,,,,0,255,255,26,1,C, , , , ,space,2000,2,6113f27738dd95b65e7194f5,001,2021-08-19_16h49.17.458,natb3,2021.2.3,MacIntel,60.0024001,6113f27738dd95b65e7194f5,611e07ecdcc96256ae8d5b80,611e7d6d5eca34be6e744440,
,,,,,,,0,256,256,232,1,O, , , , ,space,2500,2.5,6113f27738dd95b65e7194f5,001,2021-08-19_16h49.17.458,natb3,2021.2.3,MacIntel,60.0024001,6113f27738dd95b65e7194f5,611e07ecdcc96256ae8d5b80,611e7d6d5eca34be6e744440,
,,,,space,0.3913,,0,257,257,123,1,O, , , , ,space,1500,1.5,6113f27738dd95b65e7194f5,001,2021-08-19_16h49.17.458,natb3,2021.2.3,MacIntel,60.0024001,6113f27738dd95b65e7194f5,611e07ecdcc96256ae8d5b80,611e7d6d5eca34be6e744440,
,,,,,,,0,258,258,36,1,W, , , , ,space,2000,2,6113f27738dd95b65e7194f5,001,2021-08-19_16h49.17.458,natb3,2021.2.3,MacIntel,60.0024001,6113f27738dd95b65e7194f5,611e07ecdcc96256ae8d5b80,611e7d6d5eca34be6e744440,
,,,,,,,0,259,259,105,1,R, , , , ,space,2500,2.5,6113f27738dd95b65e7194f5,001,2021-08-19_16h49.17.458,natb3,2021.2.3,MacIntel,60.0024001,6113f27738dd95b65e7194f5,611e07ecdcc96256ae8d5b80,611e7d6d5eca34be6e744440,
,,,,,,,0,260,260,167,1,K, , , , ,space,1500,1.5,6113f27738dd95b65e7194f5,001,2021-08-19_16h49.17.458,natb3,2021.2.3,MacIntel,60.0024001,6113f27738dd95b65e7194f5,611e07ecdcc96256ae8d5b80,611e7d6d5eca34be6e744440,
,,,,,,,0,261,261,71,1,R, , , , ,space,2500,2.5,6113f27738dd95b65e7194f5,001,2021-08-19_16h49.17.458,natb3,2021.2.3,MacIntel,60.0024001,6113f27738dd95b65e7194f5,611e07ecdcc96256ae8d5b80,611e7d6d5eca34be6e744440,
,,,,space,0.3642,,0,262,262,44,1,I, , , , ,space,2500,2.5,6113f27738dd95b65e7194f5,001,2021-08-19_16h49.17.458,natb3,2021.2.3,MacIntel,60.0024001,6113f27738dd95b65e7194f5,611e07ecdcc96256ae8d5b80,611e7d6d5eca34be6e744440,
,,,,space,0.9633,,0,263,263,331,1,Y, , , , ,space,2500,2.5,6113f27738dd95b65e7194f5,001,2021-08-19_16h49.17.458,natb3,2021.2.3,MacIntel,60.0024001,6113f27738dd95b65e7194f5,611e07ecdcc96256ae8d5b80,611e7d6d5eca34be6e744440,
,,,,,,,0,264,264,144,1,Q, , , , ,space,2500,2.5,6113f27738dd95b65e7194f5,001,2021-08-19_16h49.17.458,natb3,2021.2.3,MacIntel,60.0024001,6113f27738dd95b65e7194f5,611e07ecdcc96256ae8d5b80,611e7d6d5eca34be6e744440,
,,,,,,,0,265,265,168,1,X, , , , ,,2500,2.5,6113f27738dd95b65e7194f5,001,2021-08-19_16h49.17.458,natb3,2021.2.3,MacIntel,60.0024001,6113f27738dd95b65e7194f5,611e07ecdcc96256ae8d5b80,611e7d6d5eca34be6e744440,
,,,,,,,0,266,266,309,1,H, , , , ,space,2500,2.5,6113f27738dd95b65e7194f5,001,2021-08-19_16h49.17.458,natb3,2021.2.3,MacIntel,60.0024001,6113f27738dd95b65e7194f5,611e07ecdcc96256ae8d5b80,611e7d6d5eca34be6e744440,
,,,,,,,0,267,267,187,1,X, ,3,7,4,,1500,1.5,6113f27738dd95b65e7194f5,001,2021-08-19_16h49.17.458,natb3,2021.2.3,MacIntel,60.0024001,6113f27738dd95b65e7194f5,611e07ecdcc96256ae8d5b80,611e7d6d5eca34be6e744440,
,,,,space,0.3565,,0,268,268,109,1,U, , , , ,space,1500,1.5,6113f27738dd95b65e7194f5,001,2021-08-19_16h49.17.458,natb3,2021.2.3,MacIntel,60.0024001,6113f27738dd95b65e7194f5,611e07ecdcc96256ae8d5b80,611e7d6d5eca34be6e744440,
,,,,,,,0,269,269,181,1,E, , , , ,space,1500,1.5,6113f27738dd95b65e7194f5,001,2021-08-19_16h49.17.458,natb3,2021.2.3,MacIntel,60.0024001,6113f27738dd95b65e7194f5,611e07ecdcc96256ae8d5b80,611e7d6d5eca34be6e744440,
,,,,,,,0,270,270,212,1,Q, , , , ,space,2500,2.5,6113f27738dd95b65e7194f5,001,2021-08-19_16h49.17.458,natb3,2021.2.3,MacIntel,60.0024001,6113f27738dd95b65e7194f5,611e07ecdcc96256ae8d5b80,611e7d6d5eca34be6e744440,
,,,,space,0.4807,,0,271,271,3,1,R, , , , ,space,2000,2,6113f27738dd95b65e7194f5,001,2021-08-19_16h49.17.458,natb3,2021.2.3,MacIntel,60.0024001,6113f27738dd95b65e7194f5,611e07ecdcc96256ae8d5b80,611e7d6d5eca34be6e744440,
,,,,,,,0,272,272,259,1,X,8, , ,3,,2500,2.5,6113f27738dd95b65e7194f5,001,2021-08-19_16h49.17.458,natb3,2021.2.3,MacIntel,60.0024001,6113f27738dd95b65e7194f5,611e07ecdcc96256ae8d5b80,611e7d6d5eca34be6e744440,
,,,,,,,0,273,273,93,1,X,5, ,7, ,,2500,2.5,6113f27738dd95b65e7194f5,001,2021-08-19_16h49.17.458,natb3,2021.2.3,MacIntel,60.0024001,6113f27738dd95b65e7194f5,611e07ecdcc96256ae8d5b80,611e7d6d5eca34be6e744440,
,,,,,,,0,274,274,274,1,F, , , , ,space,2000,2,6113f27738dd95b65e7194f5,001,2021-08-19_16h49.17.458,natb3,2021.2.3,MacIntel,60.0024001,6113f27738dd95b65e7194f5,611e07ecdcc96256ae8d5b80,611e7d6d5eca34be6e744440,
,,,,space,0.4112,,0,275,275,102,1,X, ,6, , ,,1500,1.5,6113f27738dd95b65e7194f5,001,2021-08-19_16h49.17.458,natb3,2021.2.3,MacIntel,60.0024001,6113f27738dd95b65e7194f5,611e07ecdcc96256ae8d5b80,611e7d6d5eca34be6e744440,
,,,,space,0.5508,,0,276,276,291,1,X, , , , ,,2000,2,6113f27738dd95b65e7194f5,001,2021-08-19_16h49.17.458,natb3,2021.2.3,MacIntel,60.0024001,6113f27738dd95b65e7194f5,611e07ecdcc96256ae8d5b80,611e7d6d5eca34be6e744440,
,,,,space,0.4747,,0,277,277,45,1,O, , , , ,space,2000,2,6113f27738dd95b65e7194f5,001,2021-08-19_16h49.17.458,natb3,2021.2.3,MacIntel,60.0024001,6113f27738dd95b65e7194f5,611e07ecdcc96256ae8d5b80,611e7d6d5eca34be6e744440,
,,,,,,,0,278,278,310,1,J, , , , ,space,2500,2.5,6113f27738dd95b65e7194f5,001,2021-08-19_16h49.17.458,natb3,2021.2.3,MacIntel,60.0024001,6113f27738dd95b65e7194f5,611e07ecdcc96256ae8d5b80,611e7d6d5eca34be6e744440,
,,,,,,,0,279,279,219,1,Y, , , , ,space,2000,2,6113f27738dd95b65e7194f5,001,2021-08-19_16h49.17.458,natb3,2021.2.3,MacIntel,60.0024001,6113f27738dd95b65e7194f5,611e07ecdcc96256ae8d5b80,611e7d6d5eca34be6e744440,
,,,,,,,0,280,280,4,1,X, , , , ,,2000,2,6113f27738dd95b65e7194f5,001,2021-08-19_16h49.17.458,natb3,2021.2.3,MacIntel,60.0024001,6113f27738dd95b65e7194f5,611e07ecdcc96256ae8d5b80,611e7d6d5eca34be6e744440,
,,,,,,,0,281,281,276,1,H, , , , ,space,2000,2,6113f27738dd95b65e7194f5,001,2021-08-19_16h49.17.458,natb3,2021.2.3,MacIntel,60.0024001,6113f27738dd95b65e7194f5,611e07ecdcc96256ae8d5b80,611e7d6d5eca34be6e744440,
,,,,,,,0,282,282,327,1,E, , , , ,space,1500,1.5,6113f27738dd95b65e7194f5,001,2021-08-19_16h49.17.458,natb3,2021.2.3,MacIntel,60.0024001,6113f27738dd95b65e7194f5,611e07ecdcc96256ae8d5b80,611e7d6d5eca34be6e744440,
,,,,,,,0,283,283,201,1,K, , , , ,space,1500,1.5,6113f27738dd95b65e7194f5,001,2021-08-19_16h49.17.458,natb3,2021.2.3,MacIntel,60.0024001,6113f27738dd95b65e7194f5,611e07ecdcc96256ae8d5b80,611e7d6d5eca34be6e744440,
,,,,,,,0,284,284,87,1,H, , , , ,space,1500,1.5,6113f27738dd95b65e7194f5,001,2021-08-19_16h49.17.458,natb3,2021.2.3,MacIntel,60.0024001,6113f27738dd95b65e7194f5,611e07ecdcc96256ae8d5b80,611e7d6d5eca34be6e744440,
,,,,,,,0,285,285,209,1,N, , , , ,space,2000,2,6113f27738dd95b65e7194f5,001,2021-08-19_16h49.17.458,natb3,2021.2.3,MacIntel,60.0024001,6113f27738dd95b65e7194f5,611e07ecdcc96256ae8d5b80,611e7d6d5eca34be6e744440,
,,,,,,,0,286,286,157,1,A, , , , ,space,2500,2.5,6113f27738dd95b65e7194f5,001,2021-08-19_16h49.17.458,natb3,2021.2.3,MacIntel,60.0024001,6113f27738dd95b65e7194f5,611e07ecdcc96256ae8d5b80,611e7d6d5eca34be6e744440,
,,,,,,,0,287,287,227,1,T, , , , ,space,1500,1.5,6113f27738dd95b65e7194f5,001,2021-08-19_16h49.17.458,natb3,2021.2.3,MacIntel,60.0024001,6113f27738dd95b65e7194f5,611e07ecdcc96256ae8d5b80,611e7d6d5eca34be6e744440,
,,,,,,,0,288,288,206,1,V, , , , ,space,2000,2,6113f27738dd95b65e7194f5,001,2021-08-19_16h49.17.458,natb3,2021.2.3,MacIntel,60.0024001,6113f27738dd95b65e7194f5,611e07ecdcc96256ae8d5b80,611e7d6d5eca34be6e744440,
,,,,,,,0,289,289,116,1,X, , , , ,,2000,2,6113f27738dd95b65e7194f5,001,2021-08-19_16h49.17.458,natb3,2021.2.3,MacIntel,60.0024001,6113f27738dd95b65e7194f5,611e07ecdcc96256ae8d5b80,611e7d6d5eca34be6e744440,
,,,,,,,0,290,290,184,1,T, , , , ,space,2000,2,6113f27738dd95b65e7194f5,001,2021-08-19_16h49.17.458,natb3,2021.2.3,MacIntel,60.0024001,6113f27738dd95b65e7194f5,611e07ecdcc96256ae8d5b80,611e7d6d5eca34be6e744440,
,,,,space,0.3742,,0,291,291,20,1,H, , , , ,space,1500,1.5,6113f27738dd95b65e7194f5,001,2021-08-19_16h49.17.458,natb3,2021.2.3,MacIntel,60.0024001,6113f27738dd95b65e7194f5,611e07ecdcc96256ae8d5b80,611e7d6d5eca34be6e744440,
,,,,,,,0,292,292,266,1,O, , , , ,space,1500,1.5,6113f27738dd95b65e7194f5,001,2021-08-19_16h49.17.458,natb3,2021.2.3,MacIntel,60.0024001,6113f27738dd95b65e7194f5,611e07ecdcc96256ae8d5b80,611e7d6d5eca34be6e744440,
,,,,space,0.3787,,0,293,293,178,1,Q, , , , ,space,1500,1.5,6113f27738dd95b65e7194f5,001,2021-08-19_16h49.17.458,natb3,2021.2.3,MacIntel,60.0024001,6113f27738dd95b65e7194f5,611e07ecdcc96256ae8d5b80,611e7d6d5eca34be6e744440,
,,,,space,0.765,,0,294,294,202,1,L, , , , ,space,2500,2.5,6113f27738dd95b65e7194f5,001,2021-08-19_16h49.17.458,natb3,2021.2.3,MacIntel,60.0024001,6113f27738dd95b65e7194f5,611e07ecdcc96256ae8d5b80,611e7d6d5eca34be6e744440,
,,,,,,,0,295,295,236,1,X,3, ,4,7,,2500,2.5,6113f27738dd95b65e7194f5,001,2021-08-19_16h49.17.458,natb3,2021.2.3,MacIntel,60.0024001,6113f27738dd95b65e7194f5,611e07ecdcc96256ae8d5b80,611e7d6d5eca34be6e744440,
,,,,,,,0,296,296,17,1,F, , , , ,space,2500,2.5,6113f27738dd95b65e7194f5,001,2021-08-19_16h49.17.458,natb3,2021.2.3,MacIntel,60.0024001,6113f27738dd95b65e7194f5,611e07ecdcc96256ae8d5b80,611e7d6d5eca34be6e744440,
,,,,,,,0,297,297,9,1,I, , , , ,space,1500,1.5,6113f27738dd95b65e7194f5,001,2021-08-19_16h49.17.458,natb3,2021.2.3,MacIntel,60.0024001,6113f27738dd95b65e7194f5,611e07ecdcc96256ae8d5b80,611e7d6d5eca34be6e744440,
,,,,,,,0,298,298,78,1,X, , , , ,,2000,2,6113f27738dd95b65e7194f5,001,2021-08-19_16h49.17.458,natb3,2021.2.3,MacIntel,60.0024001,6113f27738dd95b65e7194f5,611e07ecdcc96256ae8d5b80,611e7d6d5eca34be6e744440,
,,,,,,,0,299,299,188,1,I, , , , ,space,2500,2.5,6113f27738dd95b65e7194f5,001,2021-08-19_16h49.17.458,natb3,2021.2.3,MacIntel,60.0024001,6113f27738dd95b65e7194f5,611e07ecdcc96256ae8d5b80,611e7d6d5eca34be6e744440,
,,,,,,,0,300,300,64,1,N, , , , ,space,2000,2,6113f27738dd95b65e7194f5,001,2021-08-19_16h49.17.458,natb3,2021.2.3,MacIntel,60.0024001,6113f27738dd95b65e7194f5,611e07ecdcc96256ae8d5b80,611e7d6d5eca34be6e744440,
,,,,,,,0,301,301,59,1,Z, , , , ,space,2000,2,6113f27738dd95b65e7194f5,001,2021-08-19_16h49.17.458,natb3,2021.2.3,MacIntel,60.0024001,6113f27738dd95b65e7194f5,611e07ecdcc96256ae8d5b80,611e7d6d5eca34be6e744440,
,,,,,,,0,302,302,254,1,M, , , , ,space,1500,1.5,6113f27738dd95b65e7194f5,001,2021-08-19_16h49.17.458,natb3,2021.2.3,MacIntel,60.0024001,6113f27738dd95b65e7194f5,611e07ecdcc96256ae8d5b80,611e7d6d5eca34be6e744440,
,,,,,,,0,303,303,210,1,M, , , , ,space,1500,1.5,6113f27738dd95b65e7194f5,001,2021-08-19_16h49.17.458,natb3,2021.2.3,MacIntel,60.0024001,6113f27738dd95b65e7194f5,611e07ecdcc96256ae8d5b80,611e7d6d5eca34be6e744440,
,,,,,,,0,304,304,134,1,J, , , , ,space,2000,2,6113f27738dd95b65e7194f5,001,2021-08-19_16h49.17.458,natb3,2021.2.3,MacIntel,60.0024001,6113f27738dd95b65e7194f5,611e07ecdcc96256ae8d5b80,611e7d6d5eca34be6e744440,
,,,,space,0.335,,0,305,305,332,1,U, , , , ,space,2000,2,6113f27738dd95b65e7194f5,001,2021-08-19_16h49.17.458,natb3,2021.2.3,MacIntel,60.0024001,6113f27738dd95b65e7194f5,611e07ecdcc96256ae8d5b80,611e7d6d5eca34be6e744440,
,,,,,,,0,306,306,263,1,X,4, ,6, ,,1500,1.5,6113f27738dd95b65e7194f5,001,2021-08-19_16h49.17.458,natb3,2021.2.3,MacIntel,60.0024001,6113f27738dd95b65e7194f5,611e07ecdcc96256ae8d5b80,611e7d6d5eca34be6e744440,
,,,,,,,0,307,307,287,1,X, ,2, ,9,,2000,2,6113f27738dd95b65e7194f5,001,2021-08-19_16h49.17.458,natb3,2021.2.3,MacIntel,60.0024001,6113f27738dd95b65e7194f5,611e07ecdcc96256ae8d5b80,611e7d6d5eca34be6e744440,
,,,,,,,0,308,308,186,1,U, , , , ,space,2500,2.5,6113f27738dd95b65e7194f5,001,2021-08-19_16h49.17.458,natb3,2021.2.3,MacIntel,60.0024001,6113f27738dd95b65e7194f5,611e07ecdcc96256ae8d5b80,611e7d6d5eca34be6e744440,
,,,,,,,0,309,309,128,1,D, , , , ,space,2500,2.5,6113f27738dd95b65e7194f5,001,2021-08-19_16h49.17.458,natb3,2021.2.3,MacIntel,60.0024001,6113f27738dd95b65e7194f5,611e07ecdcc96256ae8d5b80,611e7d6d5eca34be6e744440,
,,,,,,,0,310,310,18,1,X, ,2,5,8,,2500,2.5,6113f27738dd95b65e7194f5,001,2021-08-19_16h49.17.458,natb3,2021.2.3,MacIntel,60.0024001,6113f27738dd95b65e7194f5,611e07ecdcc96256ae8d5b80,611e7d6d5eca34be6e744440,
,,,,,,,0,311,311,155,1,O, , , , ,space,1500,1.5,6113f27738dd95b65e7194f5,001,2021-08-19_16h49.17.458,natb3,2021.2.3,MacIntel,60.0024001,6113f27738dd95b65e7194f5,611e07ecdcc96256ae8d5b80,611e7d6d5eca34be6e744440,
,,,,,,,0,312,312,300,1,O, , , , ,space,2500,2.5,6113f27738dd95b65e7194f5,001,2021-08-19_16h49.17.458,natb3,2021.2.3,MacIntel,60.0024001,6113f27738dd95b65e7194f5,611e07ecdcc96256ae8d5b80,611e7d6d5eca34be6e744440,
,,,,,,,0,313,313,98,1,X, , , , ,,2500,2.5,6113f27738dd95b65e7194f5,001,2021-08-19_16h49.17.458,natb3,2021.2.3,MacIntel,60.0024001,6113f27738dd95b65e7194f5,611e07ecdcc96256ae8d5b80,611e7d6d5eca34be6e744440,
,,,,,,,0,314,314,166,1,X, , , , ,,2000,2,6113f27738dd95b65e7194f5,001,2021-08-19_16h49.17.458,natb3,2021.2.3,MacIntel,60.0024001,6113f27738dd95b65e7194f5,611e07ecdcc96256ae8d5b80,611e7d6d5eca34be6e744440,
,,,,,,,0,315,315,67,1,Q, , , , ,space,2000,2,6113f27738dd95b65e7194f5,001,2021-08-19_16h49.17.458,natb3,2021.2.3,MacIntel,60.0024001,6113f27738dd95b65e7194f5,611e07ecdcc96256ae8d5b80,611e7d6d5eca34be6e744440,
,,,,,,,0,316,316,222,1,O, , , , ,space,2000,2,6113f27738dd95b65e7194f5,001,2021-08-19_16h49.17.458,natb3,2021.2.3,MacIntel,60.0024001,6113f27738dd95b65e7194f5,611e07ecdcc96256ae8d5b80,611e7d6d5eca34be6e744440,
,,,,space,0.5282,,0,317,317,152,1,U, , , , ,space,2000,2,6113f27738dd95b65e7194f5,001,2021-08-19_16h49.17.458,natb3,2021.2.3,MacIntel,60.0024001,6113f27738dd95b65e7194f5,611e07ecdcc96256ae8d5b80,611e7d6d5eca34be6e744440,
,,,,space,0.3965,,0,318,318,83,1,D, , , , ,space,2000,2,6113f27738dd95b65e7194f5,001,2021-08-19_16h49.17.458,natb3,2021.2.3,MacIntel,60.0024001,6113f27738dd95b65e7194f5,611e07ecdcc96256ae8d5b80,611e7d6d5eca34be6e744440,
,,,,space,0.6799,,0,319,319,80,1,A, , , , ,space,2000,2,6113f27738dd95b65e7194f5,001,2021-08-19_16h49.17.458,natb3,2021.2.3,MacIntel,60.0024001,6113f27738dd95b65e7194f5,611e07ecdcc96256ae8d5b80,611e7d6d5eca34be6e744440,
,,,,,,,0,320,320,15,1,X, , , , ,,1500,1.5,6113f27738dd95b65e7194f5,001,2021-08-19_16h49.17.458,natb3,2021.2.3,MacIntel,60.0024001,6113f27738dd95b65e7194f5,611e07ecdcc96256ae8d5b80,611e7d6d5eca34be6e744440,
,,,,,,,0,321,321,335,1,P,,,,,space,1500,1.5,6113f27738dd95b65e7194f5,001,2021-08-19_16h49.17.458,natb3,2021.2.3,MacIntel,60.0024001,6113f27738dd95b65e7194f5,611e07ecdcc96256ae8d5b80,611e7d6d5eca34be6e744440,
,,,,,,,0,322,322,257,1,W, , , , ,space,2000,2,6113f27738dd95b65e7194f5,001,2021-08-19_16h49.17.458,natb3,2021.2.3,MacIntel,60.0024001,6113f27738dd95b65e7194f5,611e07ecdcc96256ae8d5b80,611e7d6d5eca34be6e744440,
,,,,,,,0,323,323,203,1,X, , , , ,,2500,2.5,6113f27738dd95b65e7194f5,001,2021-08-19_16h49.17.458,natb3,2021.2.3,MacIntel,60.0024001,6113f27738dd95b65e7194f5,611e07ecdcc96256ae8d5b80,611e7d6d5eca34be6e744440,
,,,,,,,0,324,324,189,1,O, , , , ,space,1500,1.5,6113f27738dd95b65e7194f5,001,2021-08-19_16h49.17.458,natb3,2021.2.3,MacIntel,60.0024001,6113f27738dd95b65e7194f5,611e07ecdcc96256ae8d5b80,611e7d6d5eca34be6e744440,
,,,,space,0.5817,,0,325,325,323,1,M, , , , ,space,2500,2.5,6113f27738dd95b65e7194f5,001,2021-08-19_16h49.17.458,natb3,2021.2.3,MacIntel,60.0024001,6113f27738dd95b65e7194f5,611e07ecdcc96256ae8d5b80,611e7d6d5eca34be6e744440,
,,,,space,0.4688,,0,326,326,326,1,W, , , , ,space,2000,2,6113f27738dd95b65e7194f5,001,2021-08-19_16h49.17.458,natb3,2021.2.3,MacIntel,60.0024001,6113f27738dd95b65e7194f5,611e07ecdcc96256ae8d5b80,611e7d6d5eca34be6e744440,
,,,,space,0.7121,,0,327,327,62,1,V, , , , ,space,1500,1.5,6113f27738dd95b65e7194f5,001,2021-08-19_16h49.17.458,natb3,2021.2.3,MacIntel,60.0024001,6113f27738dd95b65e7194f5,611e07ecdcc96256ae8d5b80,611e7d6d5eca34be6e744440,
,,,,space,0.6983,,0,328,328,120,1,U, , , , ,space,1500,1.5,6113f27738dd95b65e7194f5,001,2021-08-19_16h49.17.458,natb3,2021.2.3,MacIntel,60.0024001,6113f27738dd95b65e7194f5,611e07ecdcc96256ae8d5b80,611e7d6d5eca34be6e744440,
,,,,space,0.3146,,0,329,329,293,1,R, , , , ,space,2500,2.5,6113f27738dd95b65e7194f5,001,2021-08-19_16h49.17.458,natb3,2021.2.3,MacIntel,60.0024001,6113f27738dd95b65e7194f5,611e07ecdcc96256ae8d5b80,611e7d6d5eca34be6e744440,
,,,,space,0.4958,,0,330,330,150,1,T, , , , ,space,2500,2.5,6113f27738dd95b65e7194f5,001,2021-08-19_16h49.17.458,natb3,2021.2.3,MacIntel,60.0024001,6113f27738dd95b65e7194f5,611e07ecdcc96256ae8d5b80,611e7d6d5eca34be6e744440,
,,,,space,0.7663,,0,331,331,5,1,T, , , , ,space,2000,2,6113f27738dd95b65e7194f5,001,2021-08-19_16h49.17.458,natb3,2021.2.3,MacIntel,60.0024001,6113f27738dd95b65e7194f5,611e07ecdcc96256ae8d5b80,611e7d6d5eca34be6e744440,
,,,,,,,0,332,332,191,1,X,1, ,3,4,,2500,2.5,6113f27738dd95b65e7194f5,001,2021-08-19_16h49.17.458,natb3,2021.2.3,MacIntel,60.0024001,6113f27738dd95b65e7194f5,611e07ecdcc96256ae8d5b80,611e7d6d5eca34be6e744440,
,,,,,,,0,333,333,284,1,V, , , , ,space,2500,2.5,6113f27738dd95b65e7194f5,001,2021-08-19_16h49.17.458,natb3,2021.2.3,MacIntel,60.0024001,6113f27738dd95b65e7194f5,611e07ecdcc96256ae8d5b80,611e7d6d5eca34be6e744440,
,,,,,,,0,334,334,322,1,X, , ,1,6,,2000,2,6113f27738dd95b65e7194f5,001,2021-08-19_16h49.17.458,natb3,2021.2.3,MacIntel,60.0024001,6113f27738dd95b65e7194f5,611e07ecdcc96256ae8d5b80,611e7d6d5eca34be6e744440,
,,,,,,,0,335,335,169,1,L, , , , ,space,2500,2.5,6113f27738dd95b65e7194f5,001,2021-08-19_16h49.17.458,natb3,2021.2.3,MacIntel,60.0024001,6113f27738dd95b65e7194f5,611e07ecdcc96256ae8d5b80,611e7d6d5eca34be6e744440,
