key_resp_2.keys,key_resp_2.rt,key_resp_3.keys,key_resp_3.rt,key_resp.keys,key_resp.rt,key_resp_4.keys,trials.thisRepN,trials.thisTrialN,trials.thisN,trials.thisIndex,trials.ran,stimulus,distractor1,distractor2,distractor3,distractor4,CorrAns,isi_duration,isi_dur_in_seconds,participant,session,date,expName,psychopyVersion,OS,frameRate,PROLIFIC_PID,STUDY_ID,SESSION_ID,key_resp_4.rt
return,20.4376,space,18.3036,space,0.3462,,0,0,0,326,1,W, , , , ,space,2000,2,61153ed3ef855854b11551d9,001,2021-08-19_18h26.10.550,natb3,2021.2.3,Win32,59.98440405,61153ed3ef855854b11551d9,611e07ecdcc96256ae8d5b80,611e8e29c4d2d33d087a0957,
,,,,space,0.2964,,0,1,1,327,1,E, , , , ,space,1500,1.5,61153ed3ef855854b11551d9,001,2021-08-19_18h26.10.550,natb3,2021.2.3,Win32,59.98440405,61153ed3ef855854b11551d9,611e07ecdcc96256ae8d5b80,611e8e29c4d2d33d087a0957,
,,,,space,0.3965,,0,2,2,128,1,D, , , , ,space,2500,2.5,61153ed3ef855854b11551d9,001,2021-08-19_18h26.10.550,natb3,2021.2.3,Win32,59.98440405,61153ed3ef855854b11551d9,611e07ecdcc96256ae8d5b80,611e8e29c4d2d33d087a0957,
,,,,space,0.3242,,0,3,3,197,1,G, , , , ,space,2500,2.5,61153ed3ef855854b11551d9,001,2021-08-19_18h26.10.550,natb3,2021.2.3,Win32,59.98440405,61153ed3ef855854b11551d9,611e07ecdcc96256ae8d5b80,611e8e29c4d2d33d087a0957,
,,,,,,,0,4,4,39,1,X,6,2, , ,,1500,1.5,61153ed3ef855854b11551d9,001,2021-08-19_18h26.10.550,natb3,2021.2.3,Win32,59.98440405,61153ed3ef855854b11551d9,611e07ecdcc96256ae8d5b80,611e8e29c4d2d33d087a0957,
,,,,space,0.412,,0,5,5,289,1,Q, , , , ,space,2000,2,61153ed3ef855854b11551d9,001,2021-08-19_18h26.10.550,natb3,2021.2.3,Win32,59.98440405,61153ed3ef855854b11551d9,611e07ecdcc96256ae8d5b80,611e8e29c4d2d33d087a0957,
,,,,space,0.3816,,0,6,6,183,1,R, , , , ,space,1500,1.5,61153ed3ef855854b11551d9,001,2021-08-19_18h26.10.550,natb3,2021.2.3,Win32,59.98440405,61153ed3ef855854b11551d9,611e07ecdcc96256ae8d5b80,611e8e29c4d2d33d087a0957,
,,,,space,0.4855,,0,7,7,124,1,P, , , , ,space,2000,2,61153ed3ef855854b11551d9,001,2021-08-19_18h26.10.550,natb3,2021.2.3,Win32,59.98440405,61153ed3ef855854b11551d9,611e07ecdcc96256ae8d5b80,611e8e29c4d2d33d087a0957,
,,,,space,0.4214,,0,8,8,230,1,U, , , , ,space,1500,1.5,61153ed3ef855854b11551d9,001,2021-08-19_18h26.10.550,natb3,2021.2.3,Win32,59.98440405,61153ed3ef855854b11551d9,611e07ecdcc96256ae8d5b80,611e8e29c4d2d33d087a0957,
,,,,space,0.3534,,0,9,9,172,1,C, , , , ,space,1500,1.5,61153ed3ef855854b11551d9,001,2021-08-19_18h26.10.550,natb3,2021.2.3,Win32,59.98440405,61153ed3ef855854b11551d9,611e07ecdcc96256ae8d5b80,611e8e29c4d2d33d087a0957,
,,,,space,0.3716,,0,10,10,30,1,N, , , , ,space,2500,2.5,61153ed3ef855854b11551d9,001,2021-08-19_18h26.10.550,natb3,2021.2.3,Win32,59.98440405,61153ed3ef855854b11551d9,611e07ecdcc96256ae8d5b80,611e8e29c4d2d33d087a0957,
,,,,space,0.3257,,0,11,11,195,1,X, , , , ,,1500,1.5,61153ed3ef855854b11551d9,001,2021-08-19_18h26.10.550,natb3,2021.2.3,Win32,59.98440405,61153ed3ef855854b11551d9,611e07ecdcc96256ae8d5b80,611e8e29c4d2d33d087a0957,
,,,,space,0.3882,,0,12,12,215,1,E, , , , ,space,2500,2.5,61153ed3ef855854b11551d9,001,2021-08-19_18h26.10.550,natb3,2021.2.3,Win32,59.98440405,61153ed3ef855854b11551d9,611e07ecdcc96256ae8d5b80,611e8e29c4d2d33d087a0957,
,,,,,,,0,13,13,325,1,X, , , , ,,2500,2.5,61153ed3ef855854b11551d9,001,2021-08-19_18h26.10.550,natb3,2021.2.3,Win32,59.98440405,61153ed3ef855854b11551d9,611e07ecdcc96256ae8d5b80,611e8e29c4d2d33d087a0957,
,,,,space,0.4553,,0,14,14,234,1,P, , , , ,space,2000,2,61153ed3ef855854b11551d9,001,2021-08-19_18h26.10.550,natb3,2021.2.3,Win32,59.98440405,61153ed3ef855854b11551d9,611e07ecdcc96256ae8d5b80,611e8e29c4d2d33d087a0957,
,,,,space,0.4516,,0,15,15,64,1,N, , , , ,space,2000,2,61153ed3ef855854b11551d9,001,2021-08-19_18h26.10.550,natb3,2021.2.3,Win32,59.98440405,61153ed3ef855854b11551d9,611e07ecdcc96256ae8d5b80,611e8e29c4d2d33d087a0957,
,,,,space,0.4393,,0,16,16,53,1,G, , , , ,space,2500,2.5,61153ed3ef855854b11551d9,001,2021-08-19_18h26.10.550,natb3,2021.2.3,Win32,59.98440405,61153ed3ef855854b11551d9,611e07ecdcc96256ae8d5b80,611e8e29c4d2d33d087a0957,
,,,,space,0.5169,,0,17,17,9,1,I, , , , ,space,1500,1.5,61153ed3ef855854b11551d9,001,2021-08-19_18h26.10.550,natb3,2021.2.3,Win32,59.98440405,61153ed3ef855854b11551d9,611e07ecdcc96256ae8d5b80,611e8e29c4d2d33d087a0957,
,,,,,,,0,18,18,7,1,X, , , , ,,1500,1.5,61153ed3ef855854b11551d9,001,2021-08-19_18h26.10.550,natb3,2021.2.3,Win32,59.98440405,61153ed3ef855854b11551d9,611e07ecdcc96256ae8d5b80,611e8e29c4d2d33d087a0957,
,,,,space,0.3961,,0,19,19,140,1,B, , , , ,space,2500,2.5,61153ed3ef855854b11551d9,001,2021-08-19_18h26.10.550,natb3,2021.2.3,Win32,59.98440405,61153ed3ef855854b11551d9,611e07ecdcc96256ae8d5b80,611e8e29c4d2d33d087a0957,
,,,,space,0.5096,,0,20,20,206,1,V, , , , ,space,2000,2,61153ed3ef855854b11551d9,001,2021-08-19_18h26.10.550,natb3,2021.2.3,Win32,59.98440405,61153ed3ef855854b11551d9,611e07ecdcc96256ae8d5b80,611e8e29c4d2d33d087a0957,
,,,,space,0.4125,,0,21,21,285,1,B, , , , ,space,1500,1.5,61153ed3ef855854b11551d9,001,2021-08-19_18h26.10.550,natb3,2021.2.3,Win32,59.98440405,61153ed3ef855854b11551d9,611e07ecdcc96256ae8d5b80,611e8e29c4d2d33d087a0957,
,,,,,,,0,22,22,84,1,X, , , , ,,2000,2,61153ed3ef855854b11551d9,001,2021-08-19_18h26.10.550,natb3,2021.2.3,Win32,59.98440405,61153ed3ef855854b11551d9,611e07ecdcc96256ae8d5b80,611e8e29c4d2d33d087a0957,
,,,,,,,0,23,23,138,1,X,8,5, ,3,,2000,2,61153ed3ef855854b11551d9,001,2021-08-19_18h26.10.550,natb3,2021.2.3,Win32,59.98440405,61153ed3ef855854b11551d9,611e07ecdcc96256ae8d5b80,611e8e29c4d2d33d087a0957,
,,,,space,0.3928,,0,24,24,214,1,W, , , , ,space,2000,2,61153ed3ef855854b11551d9,001,2021-08-19_18h26.10.550,natb3,2021.2.3,Win32,59.98440405,61153ed3ef855854b11551d9,611e07ecdcc96256ae8d5b80,611e8e29c4d2d33d087a0957,
,,,,space,0.4525,,0,25,25,48,1,A, , , , ,space,2500,2.5,61153ed3ef855854b11551d9,001,2021-08-19_18h26.10.550,natb3,2021.2.3,Win32,59.98440405,61153ed3ef855854b11551d9,611e07ecdcc96256ae8d5b80,611e8e29c4d2d33d087a0957,
,,,,,,,0,26,26,93,1,X,5, ,7, ,,2500,2.5,61153ed3ef855854b11551d9,001,2021-08-19_18h26.10.550,natb3,2021.2.3,Win32,59.98440405,61153ed3ef855854b11551d9,611e07ecdcc96256ae8d5b80,611e8e29c4d2d33d087a0957,
,,,,space,0.4698,,0,27,27,176,1,N, , , , ,space,1500,1.5,61153ed3ef855854b11551d9,001,2021-08-19_18h26.10.550,natb3,2021.2.3,Win32,59.98440405,61153ed3ef855854b11551d9,611e07ecdcc96256ae8d5b80,611e8e29c4d2d33d087a0957,
,,,,space,0.4086,,0,28,28,237,1,S, , , , ,space,1500,1.5,61153ed3ef855854b11551d9,001,2021-08-19_18h26.10.550,natb3,2021.2.3,Win32,59.98440405,61153ed3ef855854b11551d9,611e07ecdcc96256ae8d5b80,611e8e29c4d2d33d087a0957,
,,,,space,0.3738,,0,29,29,264,1,U, , , , ,space,2000,2,61153ed3ef855854b11551d9,001,2021-08-19_18h26.10.550,natb3,2021.2.3,Win32,59.98440405,61153ed3ef855854b11551d9,611e07ecdcc96256ae8d5b80,611e8e29c4d2d33d087a0957,
,,,,space,0.3549,,0,30,30,45,1,O, , , , ,space,2000,2,61153ed3ef855854b11551d9,001,2021-08-19_18h26.10.550,natb3,2021.2.3,Win32,59.98440405,61153ed3ef855854b11551d9,611e07ecdcc96256ae8d5b80,611e8e29c4d2d33d087a0957,
,,,,space,0.46,,0,31,31,159,1,S, , , , ,space,2500,2.5,61153ed3ef855854b11551d9,001,2021-08-19_18h26.10.550,natb3,2021.2.3,Win32,59.98440405,61153ed3ef855854b11551d9,611e07ecdcc96256ae8d5b80,611e8e29c4d2d33d087a0957,
,,,,space,0.4567,,0,32,32,29,1,B, , , , ,space,1500,1.5,61153ed3ef855854b11551d9,001,2021-08-19_18h26.10.550,natb3,2021.2.3,Win32,59.98440405,61153ed3ef855854b11551d9,611e07ecdcc96256ae8d5b80,611e8e29c4d2d33d087a0957,
,,,,space,0.4328,,0,33,33,292,1,E, , , , ,space,2000,2,61153ed3ef855854b11551d9,001,2021-08-19_18h26.10.550,natb3,2021.2.3,Win32,59.98440405,61153ed3ef855854b11551d9,611e07ecdcc96256ae8d5b80,611e8e29c4d2d33d087a0957,
,,,,,,,0,34,34,299,1,X, , , , ,,2500,2.5,61153ed3ef855854b11551d9,001,2021-08-19_18h26.10.550,natb3,2021.2.3,Win32,59.98440405,61153ed3ef855854b11551d9,611e07ecdcc96256ae8d5b80,611e8e29c4d2d33d087a0957,
,,,,space,0.5203,,0,35,35,328,1,R, , , , ,space,1500,1.5,61153ed3ef855854b11551d9,001,2021-08-19_18h26.10.550,natb3,2021.2.3,Win32,59.98440405,61153ed3ef855854b11551d9,611e07ecdcc96256ae8d5b80,611e8e29c4d2d33d087a0957,
,,,,space,0.3984,,0,36,36,90,1,K, , , , ,space,2000,2,61153ed3ef855854b11551d9,001,2021-08-19_18h26.10.550,natb3,2021.2.3,Win32,59.98440405,61153ed3ef855854b11551d9,611e07ecdcc96256ae8d5b80,611e8e29c4d2d33d087a0957,
,,,,space,0.4383,,0,37,37,34,1,Q, , , , ,space,2500,2.5,61153ed3ef855854b11551d9,001,2021-08-19_18h26.10.550,natb3,2021.2.3,Win32,59.98440405,61153ed3ef855854b11551d9,611e07ecdcc96256ae8d5b80,611e8e29c4d2d33d087a0957,
,,,,,,,0,38,38,102,1,X, ,6, , ,,1500,1.5,61153ed3ef855854b11551d9,001,2021-08-19_18h26.10.550,natb3,2021.2.3,Win32,59.98440405,61153ed3ef855854b11551d9,611e07ecdcc96256ae8d5b80,611e8e29c4d2d33d087a0957,
,,,,space,0.3689,,0,39,39,238,1,D, , , , ,space,1500,1.5,61153ed3ef855854b11551d9,001,2021-08-19_18h26.10.550,natb3,2021.2.3,Win32,59.98440405,61153ed3ef855854b11551d9,611e07ecdcc96256ae8d5b80,611e8e29c4d2d33d087a0957,
,,,,space,0.4509,,0,40,40,265,1,I, , , , ,space,2000,2,61153ed3ef855854b11551d9,001,2021-08-19_18h26.10.550,natb3,2021.2.3,Win32,59.98440405,61153ed3ef855854b11551d9,611e07ecdcc96256ae8d5b80,611e8e29c4d2d33d087a0957,
,,,,,,,0,41,41,31,1,X, , , , ,,1500,1.5,61153ed3ef855854b11551d9,001,2021-08-19_18h26.10.550,natb3,2021.2.3,Win32,59.98440405,61153ed3ef855854b11551d9,611e07ecdcc96256ae8d5b80,611e8e29c4d2d33d087a0957,
,,,,space,0.424,,0,42,42,2,1,E, , , , ,space,2500,2.5,61153ed3ef855854b11551d9,001,2021-08-19_18h26.10.550,natb3,2021.2.3,Win32,59.98440405,61153ed3ef855854b11551d9,611e07ecdcc96256ae8d5b80,611e8e29c4d2d33d087a0957,
,,,,space,0.4492,,0,43,43,216,1,R, , , , ,space,1500,1.5,61153ed3ef855854b11551d9,001,2021-08-19_18h26.10.550,natb3,2021.2.3,Win32,59.98440405,61153ed3ef855854b11551d9,611e07ecdcc96256ae8d5b80,611e8e29c4d2d33d087a0957,
,,,,space,0.4171,,0,44,44,87,1,H, , , , ,space,1500,1.5,61153ed3ef855854b11551d9,001,2021-08-19_18h26.10.550,natb3,2021.2.3,Win32,59.98440405,61153ed3ef855854b11551d9,611e07ecdcc96256ae8d5b80,611e8e29c4d2d33d087a0957,
,,,,space,0.3706,,0,45,45,279,1,K, , , , ,space,2500,2.5,61153ed3ef855854b11551d9,001,2021-08-19_18h26.10.550,natb3,2021.2.3,Win32,59.98440405,61153ed3ef855854b11551d9,611e07ecdcc96256ae8d5b80,611e8e29c4d2d33d087a0957,
,,,,space,0.4443,,0,46,46,73,1,Y, , , , ,space,2000,2,61153ed3ef855854b11551d9,001,2021-08-19_18h26.10.550,natb3,2021.2.3,Win32,59.98440405,61153ed3ef855854b11551d9,611e07ecdcc96256ae8d5b80,611e8e29c4d2d33d087a0957,
,,,,space,0.4616,,0,47,47,226,1,R, , , , ,space,2000,2,61153ed3ef855854b11551d9,001,2021-08-19_18h26.10.550,natb3,2021.2.3,Win32,59.98440405,61153ed3ef855854b11551d9,611e07ecdcc96256ae8d5b80,611e8e29c4d2d33d087a0957,
,,,,space,0.4108,,0,48,48,282,1,X, , , , ,,2500,2.5,61153ed3ef855854b11551d9,001,2021-08-19_18h26.10.550,natb3,2021.2.3,Win32,59.98440405,61153ed3ef855854b11551d9,611e07ecdcc96256ae8d5b80,611e8e29c4d2d33d087a0957,
,,,,space,0.5121,,0,49,49,301,1,P, , , , ,space,1500,1.5,61153ed3ef855854b11551d9,001,2021-08-19_18h26.10.550,natb3,2021.2.3,Win32,59.98440405,61153ed3ef855854b11551d9,611e07ecdcc96256ae8d5b80,611e8e29c4d2d33d087a0957,
,,,,space,0.5719,,0,50,50,189,1,O, , , , ,space,1500,1.5,61153ed3ef855854b11551d9,001,2021-08-19_18h26.10.550,natb3,2021.2.3,Win32,59.98440405,61153ed3ef855854b11551d9,611e07ecdcc96256ae8d5b80,611e8e29c4d2d33d087a0957,
,,,,space,0.5115,,0,51,51,196,1,F, , , , ,space,1500,1.5,61153ed3ef855854b11551d9,001,2021-08-19_18h26.10.550,natb3,2021.2.3,Win32,59.98440405,61153ed3ef855854b11551d9,611e07ecdcc96256ae8d5b80,611e8e29c4d2d33d087a0957,
,,,,,,,0,52,52,252,1,X,3, ,6,9,,2000,2,61153ed3ef855854b11551d9,001,2021-08-19_18h26.10.550,natb3,2021.2.3,Win32,59.98440405,61153ed3ef855854b11551d9,611e07ecdcc96256ae8d5b80,611e8e29c4d2d33d087a0957,
,,,,,,,0,53,53,15,1,X, , , , ,,1500,1.5,61153ed3ef855854b11551d9,001,2021-08-19_18h26.10.550,natb3,2021.2.3,Win32,59.98440405,61153ed3ef855854b11551d9,611e07ecdcc96256ae8d5b80,611e8e29c4d2d33d087a0957,
,,,,space,0.4601,,0,54,54,101,1,Q, , , , ,space,2500,2.5,61153ed3ef855854b11551d9,001,2021-08-19_18h26.10.550,natb3,2021.2.3,Win32,59.98440405,61153ed3ef855854b11551d9,611e07ecdcc96256ae8d5b80,611e8e29c4d2d33d087a0957,
,,,,space,0.4488,,0,55,55,283,1,C, , , , ,space,1500,1.5,61153ed3ef855854b11551d9,001,2021-08-19_18h26.10.550,natb3,2021.2.3,Win32,59.98440405,61153ed3ef855854b11551d9,611e07ecdcc96256ae8d5b80,611e8e29c4d2d33d087a0957,
,,,,space,0.4441,,0,56,56,169,1,L, , , , ,space,2500,2.5,61153ed3ef855854b11551d9,001,2021-08-19_18h26.10.550,natb3,2021.2.3,Win32,59.98440405,61153ed3ef855854b11551d9,611e07ecdcc96256ae8d5b80,611e8e29c4d2d33d087a0957,
,,,,,,,0,57,57,66,1,X, ,4,7, ,,2000,2,61153ed3ef855854b11551d9,001,2021-08-19_18h26.10.550,natb3,2021.2.3,Win32,59.98440405,61153ed3ef855854b11551d9,611e07ecdcc96256ae8d5b80,611e8e29c4d2d33d087a0957,
,,,,space,0.5331,,0,58,58,131,1,G, , , , ,space,1500,1.5,61153ed3ef855854b11551d9,001,2021-08-19_18h26.10.550,natb3,2021.2.3,Win32,59.98440405,61153ed3ef855854b11551d9,611e07ecdcc96256ae8d5b80,611e8e29c4d2d33d087a0957,
,,,,space,0.7022,,0,59,59,135,1,K, , , , ,space,1500,1.5,61153ed3ef855854b11551d9,001,2021-08-19_18h26.10.550,natb3,2021.2.3,Win32,59.98440405,61153ed3ef855854b11551d9,611e07ecdcc96256ae8d5b80,611e8e29c4d2d33d087a0957,
,,,,space,0.5025,,0,60,60,219,1,Y, , , , ,space,2000,2,61153ed3ef855854b11551d9,001,2021-08-19_18h26.10.550,natb3,2021.2.3,Win32,59.98440405,61153ed3ef855854b11551d9,611e07ecdcc96256ae8d5b80,611e8e29c4d2d33d087a0957,
,,,,space,0.4103,,0,61,61,240,1,F, , , , ,space,2500,2.5,61153ed3ef855854b11551d9,001,2021-08-19_18h26.10.550,natb3,2021.2.3,Win32,59.98440405,61153ed3ef855854b11551d9,611e07ecdcc96256ae8d5b80,611e8e29c4d2d33d087a0957,
,,,,,,,0,62,62,271,1,X, , , , ,,2500,2.5,61153ed3ef855854b11551d9,001,2021-08-19_18h26.10.550,natb3,2021.2.3,Win32,59.98440405,61153ed3ef855854b11551d9,611e07ecdcc96256ae8d5b80,611e8e29c4d2d33d087a0957,
,,,,,,,0,63,63,213,1,X, , , , ,,2500,2.5,61153ed3ef855854b11551d9,001,2021-08-19_18h26.10.550,natb3,2021.2.3,Win32,59.98440405,61153ed3ef855854b11551d9,611e07ecdcc96256ae8d5b80,611e8e29c4d2d33d087a0957,
,,,,space,0.4545,,0,64,64,142,1,N, , , , ,space,2500,2.5,61153ed3ef855854b11551d9,001,2021-08-19_18h26.10.550,natb3,2021.2.3,Win32,59.98440405,61153ed3ef855854b11551d9,611e07ecdcc96256ae8d5b80,611e8e29c4d2d33d087a0957,
,,,,space,0.4047,,0,65,65,225,1,E, , , , ,space,2000,2,61153ed3ef855854b11551d9,001,2021-08-19_18h26.10.550,natb3,2021.2.3,Win32,59.98440405,61153ed3ef855854b11551d9,611e07ecdcc96256ae8d5b80,611e8e29c4d2d33d087a0957,
,,,,space,0.5061,,0,66,66,50,1,D, , , , ,space,1500,1.5,61153ed3ef855854b11551d9,001,2021-08-19_18h26.10.550,natb3,2021.2.3,Win32,59.98440405,61153ed3ef855854b11551d9,611e07ecdcc96256ae8d5b80,611e8e29c4d2d33d087a0957,
,,,,space,0.4328,,0,67,67,331,1,Y, , , , ,space,2500,2.5,61153ed3ef855854b11551d9,001,2021-08-19_18h26.10.550,natb3,2021.2.3,Win32,59.98440405,61153ed3ef855854b11551d9,611e07ecdcc96256ae8d5b80,611e8e29c4d2d33d087a0957,
,,,,space,0.5592,,0,68,68,224,1,W, , , , ,space,1500,1.5,61153ed3ef855854b11551d9,001,2021-08-19_18h26.10.550,natb3,2021.2.3,Win32,59.98440405,61153ed3ef855854b11551d9,611e07ecdcc96256ae8d5b80,611e8e29c4d2d33d087a0957,
,,,,space,0.367,,0,69,69,309,1,H, , , , ,space,2500,2.5,61153ed3ef855854b11551d9,001,2021-08-19_18h26.10.550,natb3,2021.2.3,Win32,59.98440405,61153ed3ef855854b11551d9,611e07ecdcc96256ae8d5b80,611e8e29c4d2d33d087a0957,
,,,,space,0.4328,,0,70,70,324,1,Q, , , , ,space,2000,2,61153ed3ef855854b11551d9,001,2021-08-19_18h26.10.550,natb3,2021.2.3,Win32,59.98440405,61153ed3ef855854b11551d9,611e07ecdcc96256ae8d5b80,611e8e29c4d2d33d087a0957,
,,,,space,0.5845,,0,71,71,232,1,O, , , , ,space,2500,2.5,61153ed3ef855854b11551d9,001,2021-08-19_18h26.10.550,natb3,2021.2.3,Win32,59.98440405,61153ed3ef855854b11551d9,611e07ecdcc96256ae8d5b80,611e8e29c4d2d33d087a0957,
,,,,space,0.4229,,0,72,72,266,1,O, , , , ,space,1500,1.5,61153ed3ef855854b11551d9,001,2021-08-19_18h26.10.550,natb3,2021.2.3,Win32,59.98440405,61153ed3ef855854b11551d9,611e07ecdcc96256ae8d5b80,611e8e29c4d2d33d087a0957,
,,,,space,0.3879,,0,73,73,160,1,D, , , , ,space,1500,1.5,61153ed3ef855854b11551d9,001,2021-08-19_18h26.10.550,natb3,2021.2.3,Win32,59.98440405,61153ed3ef855854b11551d9,611e07ecdcc96256ae8d5b80,611e8e29c4d2d33d087a0957,
,,,,,,,0,74,74,268,1,X,6, ,3, ,,2500,2.5,61153ed3ef855854b11551d9,001,2021-08-19_18h26.10.550,natb3,2021.2.3,Win32,59.98440405,61153ed3ef855854b11551d9,611e07ecdcc96256ae8d5b80,611e8e29c4d2d33d087a0957,
,,,,space,0.4787,,0,75,75,280,1,L, , , , ,space,1500,1.5,61153ed3ef855854b11551d9,001,2021-08-19_18h26.10.550,natb3,2021.2.3,Win32,59.98440405,61153ed3ef855854b11551d9,611e07ecdcc96256ae8d5b80,611e8e29c4d2d33d087a0957,
,,,,,,,0,76,76,335,1,P,,,,,space,1500,1.5,61153ed3ef855854b11551d9,001,2021-08-19_18h26.10.550,natb3,2021.2.3,Win32,59.98440405,61153ed3ef855854b11551d9,611e07ecdcc96256ae8d5b80,611e8e29c4d2d33d087a0957,
,,,,space,0.4528,,0,77,77,117,1,T, , , , ,space,2500,2.5,61153ed3ef855854b11551d9,001,2021-08-19_18h26.10.550,natb3,2021.2.3,Win32,59.98440405,61153ed3ef855854b11551d9,611e07ecdcc96256ae8d5b80,611e8e29c4d2d33d087a0957,
,,,,space,0.4677,,0,78,78,222,1,O, , , , ,space,2000,2,61153ed3ef855854b11551d9,001,2021-08-19_18h26.10.550,natb3,2021.2.3,Win32,59.98440405,61153ed3ef855854b11551d9,611e07ecdcc96256ae8d5b80,611e8e29c4d2d33d087a0957,
,,,,space,0.5519,,0,79,79,254,1,M, , , , ,space,1500,1.5,61153ed3ef855854b11551d9,001,2021-08-19_18h26.10.550,natb3,2021.2.3,Win32,59.98440405,61153ed3ef855854b11551d9,611e07ecdcc96256ae8d5b80,611e8e29c4d2d33d087a0957,
,,,,space,0.3633,,0,80,80,144,1,Q, , , , ,space,2500,2.5,61153ed3ef855854b11551d9,001,2021-08-19_18h26.10.550,natb3,2021.2.3,Win32,59.98440405,61153ed3ef855854b11551d9,611e07ecdcc96256ae8d5b80,611e8e29c4d2d33d087a0957,
,,,,space,0.3662,,0,81,81,11,1,P, , , , ,space,2500,2.5,61153ed3ef855854b11551d9,001,2021-08-19_18h26.10.550,natb3,2021.2.3,Win32,59.98440405,61153ed3ef855854b11551d9,611e07ecdcc96256ae8d5b80,611e8e29c4d2d33d087a0957,
,,,,,,,0,82,82,60,1,X,7,3,5, ,,1500,1.5,61153ed3ef855854b11551d9,001,2021-08-19_18h26.10.550,natb3,2021.2.3,Win32,59.98440405,61153ed3ef855854b11551d9,611e07ecdcc96256ae8d5b80,611e8e29c4d2d33d087a0957,
,,,,space,0.4278,,0,83,83,130,1,F, , , , ,space,2000,2,61153ed3ef855854b11551d9,001,2021-08-19_18h26.10.550,natb3,2021.2.3,Win32,59.98440405,61153ed3ef855854b11551d9,611e07ecdcc96256ae8d5b80,611e8e29c4d2d33d087a0957,
,,,,space,0.4235,,0,84,84,205,1,C, , , , ,space,2000,2,61153ed3ef855854b11551d9,001,2021-08-19_18h26.10.550,natb3,2021.2.3,Win32,59.98440405,61153ed3ef855854b11551d9,611e07ecdcc96256ae8d5b80,611e8e29c4d2d33d087a0957,
,,,,space,0.3886,,0,85,85,22,1,K, , , , ,space,2000,2,61153ed3ef855854b11551d9,001,2021-08-19_18h26.10.550,natb3,2021.2.3,Win32,59.98440405,61153ed3ef855854b11551d9,611e07ecdcc96256ae8d5b80,611e8e29c4d2d33d087a0957,
,,,,space,0.3974,,0,86,86,141,1,X,1, ,4,6,,1500,1.5,61153ed3ef855854b11551d9,001,2021-08-19_18h26.10.550,natb3,2021.2.3,Win32,59.98440405,61153ed3ef855854b11551d9,611e07ecdcc96256ae8d5b80,611e8e29c4d2d33d087a0957,
,,,,space,0.423,,0,87,87,79,1,P, , , , ,space,2000,2,61153ed3ef855854b11551d9,001,2021-08-19_18h26.10.550,natb3,2021.2.3,Win32,59.98440405,61153ed3ef855854b11551d9,611e07ecdcc96256ae8d5b80,611e8e29c4d2d33d087a0957,
,,,,space,0.4077,,0,88,88,121,1,I, , , , ,space,2000,2,61153ed3ef855854b11551d9,001,2021-08-19_18h26.10.550,natb3,2021.2.3,Win32,59.98440405,61153ed3ef855854b11551d9,611e07ecdcc96256ae8d5b80,611e8e29c4d2d33d087a0957,
,,,,space,0.4664,,0,89,89,178,1,Q, , , , ,space,1500,1.5,61153ed3ef855854b11551d9,001,2021-08-19_18h26.10.550,natb3,2021.2.3,Win32,59.98440405,61153ed3ef855854b11551d9,611e07ecdcc96256ae8d5b80,611e8e29c4d2d33d087a0957,
,,,,space,0.3992,,0,90,90,314,1,L, , , , ,space,1500,1.5,61153ed3ef855854b11551d9,001,2021-08-19_18h26.10.550,natb3,2021.2.3,Win32,59.98440405,61153ed3ef855854b11551d9,611e07ecdcc96256ae8d5b80,611e8e29c4d2d33d087a0957,
,,,,,,,0,91,91,233,1,X, ,2, ,5,,1500,1.5,61153ed3ef855854b11551d9,001,2021-08-19_18h26.10.550,natb3,2021.2.3,Win32,59.98440405,61153ed3ef855854b11551d9,611e07ecdcc96256ae8d5b80,611e8e29c4d2d33d087a0957,
,,,,space,0.4334,,0,92,92,212,1,Q, , , , ,space,2500,2.5,61153ed3ef855854b11551d9,001,2021-08-19_18h26.10.550,natb3,2021.2.3,Win32,59.98440405,61153ed3ef855854b11551d9,611e07ecdcc96256ae8d5b80,611e8e29c4d2d33d087a0957,
,,,,space,0.3698,,0,93,93,250,1,V, , , , ,space,2000,2,61153ed3ef855854b11551d9,001,2021-08-19_18h26.10.550,natb3,2021.2.3,Win32,59.98440405,61153ed3ef855854b11551d9,611e07ecdcc96256ae8d5b80,611e8e29c4d2d33d087a0957,
,,,,,,,0,94,94,18,1,X, ,2,5,8,,2500,2.5,61153ed3ef855854b11551d9,001,2021-08-19_18h26.10.550,natb3,2021.2.3,Win32,59.98440405,61153ed3ef855854b11551d9,611e07ecdcc96256ae8d5b80,611e8e29c4d2d33d087a0957,
,,,,,,,0,95,95,203,1,X, , , , ,,2500,2.5,61153ed3ef855854b11551d9,001,2021-08-19_18h26.10.550,natb3,2021.2.3,Win32,59.98440405,61153ed3ef855854b11551d9,611e07ecdcc96256ae8d5b80,611e8e29c4d2d33d087a0957,
,,,,,,,0,96,96,311,1,X,1,2,7,3,,2500,2.5,61153ed3ef855854b11551d9,001,2021-08-19_18h26.10.550,natb3,2021.2.3,Win32,59.98440405,61153ed3ef855854b11551d9,611e07ecdcc96256ae8d5b80,611e8e29c4d2d33d087a0957,
,,,,space,0.4847,,0,97,97,244,1,J, , , , ,space,1500,1.5,61153ed3ef855854b11551d9,001,2021-08-19_18h26.10.550,natb3,2021.2.3,Win32,59.98440405,61153ed3ef855854b11551d9,611e07ecdcc96256ae8d5b80,611e8e29c4d2d33d087a0957,
,,,,space,0.4248,,0,98,98,106,1,T, , , , ,space,1500,1.5,61153ed3ef855854b11551d9,001,2021-08-19_18h26.10.550,natb3,2021.2.3,Win32,59.98440405,61153ed3ef855854b11551d9,611e07ecdcc96256ae8d5b80,611e8e29c4d2d33d087a0957,
,,,,space,0.3988,,0,99,99,304,1,S, , , , ,space,2000,2,61153ed3ef855854b11551d9,001,2021-08-19_18h26.10.550,natb3,2021.2.3,Win32,59.98440405,61153ed3ef855854b11551d9,611e07ecdcc96256ae8d5b80,611e8e29c4d2d33d087a0957,
,,,,space,0.4365,,0,100,100,137,1,C, , , , ,space,2500,2.5,61153ed3ef855854b11551d9,001,2021-08-19_18h26.10.550,natb3,2021.2.3,Win32,59.98440405,61153ed3ef855854b11551d9,611e07ecdcc96256ae8d5b80,611e8e29c4d2d33d087a0957,
,,,,,,,0,101,101,158,1,X, , , , ,,1500,1.5,61153ed3ef855854b11551d9,001,2021-08-19_18h26.10.550,natb3,2021.2.3,Win32,59.98440405,61153ed3ef855854b11551d9,611e07ecdcc96256ae8d5b80,611e8e29c4d2d33d087a0957,
,,,,space,0.4728,,0,102,102,108,1,Y, , , , ,space,2500,2.5,61153ed3ef855854b11551d9,001,2021-08-19_18h26.10.550,natb3,2021.2.3,Win32,59.98440405,61153ed3ef855854b11551d9,611e07ecdcc96256ae8d5b80,611e8e29c4d2d33d087a0957,
,,,,space,0.4019,,0,103,103,112,1,Q, , , , ,space,2500,2.5,61153ed3ef855854b11551d9,001,2021-08-19_18h26.10.550,natb3,2021.2.3,Win32,59.98440405,61153ed3ef855854b11551d9,611e07ecdcc96256ae8d5b80,611e8e29c4d2d33d087a0957,
,,,,space,0.4202,,0,104,104,61,1,C, , , , ,space,2000,2,61153ed3ef855854b11551d9,001,2021-08-19_18h26.10.550,natb3,2021.2.3,Win32,59.98440405,61153ed3ef855854b11551d9,611e07ecdcc96256ae8d5b80,611e8e29c4d2d33d087a0957,
,,,,space,0.4262,,0,105,105,312,1,K, , , , ,space,2000,2,61153ed3ef855854b11551d9,001,2021-08-19_18h26.10.550,natb3,2021.2.3,Win32,59.98440405,61153ed3ef855854b11551d9,611e07ecdcc96256ae8d5b80,611e8e29c4d2d33d087a0957,
,,,,space,0.4821,,0,106,106,247,1,Z, , , , ,space,1500,1.5,61153ed3ef855854b11551d9,001,2021-08-19_18h26.10.550,natb3,2021.2.3,Win32,59.98440405,61153ed3ef855854b11551d9,611e07ecdcc96256ae8d5b80,611e8e29c4d2d33d087a0957,
,,,,,,,0,107,107,305,1,X, , , , ,,1500,1.5,61153ed3ef855854b11551d9,001,2021-08-19_18h26.10.550,natb3,2021.2.3,Win32,59.98440405,61153ed3ef855854b11551d9,611e07ecdcc96256ae8d5b80,611e8e29c4d2d33d087a0957,
,,,,space,0.4198,,0,108,108,19,1,G, , , , ,space,1500,1.5,61153ed3ef855854b11551d9,001,2021-08-19_18h26.10.550,natb3,2021.2.3,Win32,59.98440405,61153ed3ef855854b11551d9,611e07ecdcc96256ae8d5b80,611e8e29c4d2d33d087a0957,
,,,,space,0.3763,,0,109,109,284,1,V, , , , ,space,2500,2.5,61153ed3ef855854b11551d9,001,2021-08-19_18h26.10.550,natb3,2021.2.3,Win32,59.98440405,61153ed3ef855854b11551d9,611e07ecdcc96256ae8d5b80,611e8e29c4d2d33d087a0957,
,,,,,,,0,110,110,122,1,X,1, , ,8,,1500,1.5,61153ed3ef855854b11551d9,001,2021-08-19_18h26.10.550,natb3,2021.2.3,Win32,59.98440405,61153ed3ef855854b11551d9,611e07ecdcc96256ae8d5b80,611e8e29c4d2d33d087a0957,
,,,,space,0.4785,,0,111,111,303,1,A, , , , ,space,2000,2,61153ed3ef855854b11551d9,001,2021-08-19_18h26.10.550,natb3,2021.2.3,Win32,59.98440405,61153ed3ef855854b11551d9,611e07ecdcc96256ae8d5b80,611e8e29c4d2d33d087a0957,
,,,,space,0.4166,,0,112,112,119,1,Y, , , , ,space,2500,2.5,61153ed3ef855854b11551d9,001,2021-08-19_18h26.10.550,natb3,2021.2.3,Win32,59.98440405,61153ed3ef855854b11551d9,611e07ecdcc96256ae8d5b80,611e8e29c4d2d33d087a0957,
,,,,space,0.4441,,0,113,113,227,1,T, , , , ,space,1500,1.5,61153ed3ef855854b11551d9,001,2021-08-19_18h26.10.550,natb3,2021.2.3,Win32,59.98440405,61153ed3ef855854b11551d9,611e07ecdcc96256ae8d5b80,611e8e29c4d2d33d087a0957,
,,,,space,0.3759,,0,114,114,96,1,X, , , , ,,1500,1.5,61153ed3ef855854b11551d9,001,2021-08-19_18h26.10.550,natb3,2021.2.3,Win32,59.98440405,61153ed3ef855854b11551d9,611e07ecdcc96256ae8d5b80,611e8e29c4d2d33d087a0957,
,,,,space,0.4799,,0,115,115,155,1,O, , , , ,space,1500,1.5,61153ed3ef855854b11551d9,001,2021-08-19_18h26.10.550,natb3,2021.2.3,Win32,59.98440405,61153ed3ef855854b11551d9,611e07ecdcc96256ae8d5b80,611e8e29c4d2d33d087a0957,
,,,,space,0.4335,,0,116,116,17,1,F, , , , ,space,2500,2.5,61153ed3ef855854b11551d9,001,2021-08-19_18h26.10.550,natb3,2021.2.3,Win32,59.98440405,61153ed3ef855854b11551d9,611e07ecdcc96256ae8d5b80,611e8e29c4d2d33d087a0957,
,,,,,,,0,117,117,145,1,X, , , , ,,2000,2,61153ed3ef855854b11551d9,001,2021-08-19_18h26.10.550,natb3,2021.2.3,Win32,59.98440405,61153ed3ef855854b11551d9,611e07ecdcc96256ae8d5b80,611e8e29c4d2d33d087a0957,
,,,,space,0.4765,,0,118,118,111,1,O, , , , ,space,2000,2,61153ed3ef855854b11551d9,001,2021-08-19_18h26.10.550,natb3,2021.2.3,Win32,59.98440405,61153ed3ef855854b11551d9,611e07ecdcc96256ae8d5b80,611e8e29c4d2d33d087a0957,
,,,,space,0.5185,,0,119,119,123,1,O, , , , ,space,1500,1.5,61153ed3ef855854b11551d9,001,2021-08-19_18h26.10.550,natb3,2021.2.3,Win32,59.98440405,61153ed3ef855854b11551d9,611e07ecdcc96256ae8d5b80,611e8e29c4d2d33d087a0957,
,,,,space,0.4149,,0,120,120,174,1,B, , , , ,space,2500,2.5,61153ed3ef855854b11551d9,001,2021-08-19_18h26.10.550,natb3,2021.2.3,Win32,59.98440405,61153ed3ef855854b11551d9,611e07ecdcc96256ae8d5b80,611e8e29c4d2d33d087a0957,
,,,,space,0.4833,,0,121,121,37,1,E, , , , ,space,2500,2.5,61153ed3ef855854b11551d9,001,2021-08-19_18h26.10.550,natb3,2021.2.3,Win32,59.98440405,61153ed3ef855854b11551d9,611e07ecdcc96256ae8d5b80,611e8e29c4d2d33d087a0957,
,,,,space,0.5326,,0,122,122,258,1,E, , , , ,space,1500,1.5,61153ed3ef855854b11551d9,001,2021-08-19_18h26.10.550,natb3,2021.2.3,Win32,59.98440405,61153ed3ef855854b11551d9,611e07ecdcc96256ae8d5b80,611e8e29c4d2d33d087a0957,
,,,,space,0.5295,,0,123,123,256,1,Q, , , , ,space,2000,2,61153ed3ef855854b11551d9,001,2021-08-19_18h26.10.550,natb3,2021.2.3,Win32,59.98440405,61153ed3ef855854b11551d9,611e07ecdcc96256ae8d5b80,611e8e29c4d2d33d087a0957,
,,,,space,0.7502,,0,124,124,3,1,R, , , , ,space,2000,2,61153ed3ef855854b11551d9,001,2021-08-19_18h26.10.550,natb3,2021.2.3,Win32,59.98440405,61153ed3ef855854b11551d9,611e07ecdcc96256ae8d5b80,611e8e29c4d2d33d087a0957,
,,,,space,0.6591,,0,125,125,113,1,W, , , , ,space,2500,2.5,61153ed3ef855854b11551d9,001,2021-08-19_18h26.10.550,natb3,2021.2.3,Win32,59.98440405,61153ed3ef855854b11551d9,611e07ecdcc96256ae8d5b80,611e8e29c4d2d33d087a0957,
,,,,space,0.5617,,0,126,126,0,1,Q, , , , ,space,1500,1.5,61153ed3ef855854b11551d9,001,2021-08-19_18h26.10.550,natb3,2021.2.3,Win32,59.98440405,61153ed3ef855854b11551d9,611e07ecdcc96256ae8d5b80,611e8e29c4d2d33d087a0957,
,,,,space,0.4917,,0,127,127,217,1,T, , , , ,space,2500,2.5,61153ed3ef855854b11551d9,001,2021-08-19_18h26.10.550,natb3,2021.2.3,Win32,59.98440405,61153ed3ef855854b11551d9,611e07ecdcc96256ae8d5b80,611e8e29c4d2d33d087a0957,
,,,,,,,0,128,128,207,1,X,9, ,2, ,,2500,2.5,61153ed3ef855854b11551d9,001,2021-08-19_18h26.10.550,natb3,2021.2.3,Win32,59.98440405,61153ed3ef855854b11551d9,611e07ecdcc96256ae8d5b80,611e8e29c4d2d33d087a0957,
,,,,space,0.5422,,0,129,129,164,1,H, , , , ,space,2500,2.5,61153ed3ef855854b11551d9,001,2021-08-19_18h26.10.550,natb3,2021.2.3,Win32,59.98440405,61153ed3ef855854b11551d9,611e07ecdcc96256ae8d5b80,611e8e29c4d2d33d087a0957,
,,,,,,,0,130,130,12,1,X, , , , ,,1500,1.5,61153ed3ef855854b11551d9,001,2021-08-19_18h26.10.550,natb3,2021.2.3,Win32,59.98440405,61153ed3ef855854b11551d9,611e07ecdcc96256ae8d5b80,611e8e29c4d2d33d087a0957,
,,,,space,0.5099,,0,131,131,149,1,R, , , , ,space,2000,2,61153ed3ef855854b11551d9,001,2021-08-19_18h26.10.550,natb3,2021.2.3,Win32,59.98440405,61153ed3ef855854b11551d9,611e07ecdcc96256ae8d5b80,611e8e29c4d2d33d087a0957,
,,,,space,0.7164,,0,132,132,136,1,Z, , , , ,space,2500,2.5,61153ed3ef855854b11551d9,001,2021-08-19_18h26.10.550,natb3,2021.2.3,Win32,59.98440405,61153ed3ef855854b11551d9,611e07ecdcc96256ae8d5b80,611e8e29c4d2d33d087a0957,
,,,,space,0.4358,,0,133,133,261,1,T, , , , ,space,2000,2,61153ed3ef855854b11551d9,001,2021-08-19_18h26.10.550,natb3,2021.2.3,Win32,59.98440405,61153ed3ef855854b11551d9,611e07ecdcc96256ae8d5b80,611e8e29c4d2d33d087a0957,
,,,,space,0.423,,0,134,134,228,1,Y, , , , ,space,2000,2,61153ed3ef855854b11551d9,001,2021-08-19_18h26.10.550,natb3,2021.2.3,Win32,59.98440405,61153ed3ef855854b11551d9,611e07ecdcc96256ae8d5b80,611e8e29c4d2d33d087a0957,
,,,,space,0.4652,,0,135,135,139,1,V, , , , ,space,2000,2,61153ed3ef855854b11551d9,001,2021-08-19_18h26.10.550,natb3,2021.2.3,Win32,59.98440405,61153ed3ef855854b11551d9,611e07ecdcc96256ae8d5b80,611e8e29c4d2d33d087a0957,
,,,,space,0.3833,,0,136,136,294,1,T, , , , ,space,2000,2,61153ed3ef855854b11551d9,001,2021-08-19_18h26.10.550,natb3,2021.2.3,Win32,59.98440405,61153ed3ef855854b11551d9,611e07ecdcc96256ae8d5b80,611e8e29c4d2d33d087a0957,
,,,,,,,0,137,137,259,1,X,8, , ,3,,2500,2.5,61153ed3ef855854b11551d9,001,2021-08-19_18h26.10.550,natb3,2021.2.3,Win32,59.98440405,61153ed3ef855854b11551d9,611e07ecdcc96256ae8d5b80,611e8e29c4d2d33d087a0957,
,,,,space,0.6489,,0,138,138,13,1,A, , , , ,space,2000,2,61153ed3ef855854b11551d9,001,2021-08-19_18h26.10.550,natb3,2021.2.3,Win32,59.98440405,61153ed3ef855854b11551d9,611e07ecdcc96256ae8d5b80,611e8e29c4d2d33d087a0957,
,,,,space,0.6185,,0,139,139,110,1,I, , , , ,space,1500,1.5,61153ed3ef855854b11551d9,001,2021-08-19_18h26.10.550,natb3,2021.2.3,Win32,59.98440405,61153ed3ef855854b11551d9,611e07ecdcc96256ae8d5b80,611e8e29c4d2d33d087a0957,
,,,,,,,0,140,140,168,1,X, , , , ,,2500,2.5,61153ed3ef855854b11551d9,001,2021-08-19_18h26.10.550,natb3,2021.2.3,Win32,59.98440405,61153ed3ef855854b11551d9,611e07ecdcc96256ae8d5b80,611e8e29c4d2d33d087a0957,
,,,,space,0.5817,,0,141,141,49,1,S, , , , ,space,1500,1.5,61153ed3ef855854b11551d9,001,2021-08-19_18h26.10.550,natb3,2021.2.3,Win32,59.98440405,61153ed3ef855854b11551d9,611e07ecdcc96256ae8d5b80,611e8e29c4d2d33d087a0957,
,,,,,,,0,142,142,295,1,X,8,7,5, ,,2500,2.5,61153ed3ef855854b11551d9,001,2021-08-19_18h26.10.550,natb3,2021.2.3,Win32,59.98440405,61153ed3ef855854b11551d9,611e07ecdcc96256ae8d5b80,611e8e29c4d2d33d087a0957,
,,,,space,0.521,,0,143,143,278,1,J, , , , ,space,2000,2,61153ed3ef855854b11551d9,001,2021-08-19_18h26.10.550,natb3,2021.2.3,Win32,59.98440405,61153ed3ef855854b11551d9,611e07ecdcc96256ae8d5b80,611e8e29c4d2d33d087a0957,
,,,,space,0.5126,,0,144,144,184,1,T, , , , ,space,2000,2,61153ed3ef855854b11551d9,001,2021-08-19_18h26.10.550,natb3,2021.2.3,Win32,59.98440405,61153ed3ef855854b11551d9,611e07ecdcc96256ae8d5b80,611e8e29c4d2d33d087a0957,
,,,,space,0.7337,,0,145,145,272,1,D, , , , ,space,2000,2,61153ed3ef855854b11551d9,001,2021-08-19_18h26.10.550,natb3,2021.2.3,Win32,59.98440405,61153ed3ef855854b11551d9,611e07ecdcc96256ae8d5b80,611e8e29c4d2d33d087a0957,
,,,,space,0.44,,0,146,146,126,1,A, , , , ,space,2500,2.5,61153ed3ef855854b11551d9,001,2021-08-19_18h26.10.550,natb3,2021.2.3,Win32,59.98440405,61153ed3ef855854b11551d9,611e07ecdcc96256ae8d5b80,611e8e29c4d2d33d087a0957,
,,,,,,,0,147,147,148,1,X, , , , ,,2000,2,61153ed3ef855854b11551d9,001,2021-08-19_18h26.10.550,natb3,2021.2.3,Win32,59.98440405,61153ed3ef855854b11551d9,611e07ecdcc96256ae8d5b80,611e8e29c4d2d33d087a0957,
,,,,space,0.5745,,0,148,148,6,1,Y, , , , ,space,2500,2.5,61153ed3ef855854b11551d9,001,2021-08-19_18h26.10.550,natb3,2021.2.3,Win32,59.98440405,61153ed3ef855854b11551d9,611e07ecdcc96256ae8d5b80,611e8e29c4d2d33d087a0957,
,,,,space,0.477,,0,149,149,202,1,L, , , , ,space,2500,2.5,61153ed3ef855854b11551d9,001,2021-08-19_18h26.10.550,natb3,2021.2.3,Win32,59.98440405,61153ed3ef855854b11551d9,611e07ecdcc96256ae8d5b80,611e8e29c4d2d33d087a0957,
,,,,space,0.5371,,0,150,150,21,1,J, , , , ,space,1500,1.5,61153ed3ef855854b11551d9,001,2021-08-19_18h26.10.550,natb3,2021.2.3,Win32,59.98440405,61153ed3ef855854b11551d9,611e07ecdcc96256ae8d5b80,611e8e29c4d2d33d087a0957,
,,,,space,0.4739,,0,151,151,193,1,S, , , , ,space,2500,2.5,61153ed3ef855854b11551d9,001,2021-08-19_18h26.10.550,natb3,2021.2.3,Win32,59.98440405,61153ed3ef855854b11551d9,611e07ecdcc96256ae8d5b80,611e8e29c4d2d33d087a0957,
,,,,space,0.4148,,0,152,152,273,1,X, , , , ,,2000,2,61153ed3ef855854b11551d9,001,2021-08-19_18h26.10.550,natb3,2021.2.3,Win32,59.98440405,61153ed3ef855854b11551d9,611e07ecdcc96256ae8d5b80,611e8e29c4d2d33d087a0957,
,,,,,,,0,153,153,302,1,X, , , , ,,2000,2,61153ed3ef855854b11551d9,001,2021-08-19_18h26.10.550,natb3,2021.2.3,Win32,59.98440405,61153ed3ef855854b11551d9,611e07ecdcc96256ae8d5b80,611e8e29c4d2d33d087a0957,
,,,,space,0.5593,,0,154,154,170,1,Z, , , , ,space,2000,2,61153ed3ef855854b11551d9,001,2021-08-19_18h26.10.550,natb3,2021.2.3,Win32,59.98440405,61153ed3ef855854b11551d9,611e07ecdcc96256ae8d5b80,611e8e29c4d2d33d087a0957,
,,,,space,0.5681,,0,155,155,20,1,H, , , , ,space,1500,1.5,61153ed3ef855854b11551d9,001,2021-08-19_18h26.10.550,natb3,2021.2.3,Win32,59.98440405,61153ed3ef855854b11551d9,611e07ecdcc96256ae8d5b80,611e8e29c4d2d33d087a0957,
,,,,space,0.4607,,0,156,156,210,1,M, , , , ,space,1500,1.5,61153ed3ef855854b11551d9,001,2021-08-19_18h26.10.550,natb3,2021.2.3,Win32,59.98440405,61153ed3ef855854b11551d9,611e07ecdcc96256ae8d5b80,611e8e29c4d2d33d087a0957,
,,,,space,0.5245,,0,157,157,317,1,C, , , , ,space,2000,2,61153ed3ef855854b11551d9,001,2021-08-19_18h26.10.550,natb3,2021.2.3,Win32,59.98440405,61153ed3ef855854b11551d9,611e07ecdcc96256ae8d5b80,611e8e29c4d2d33d087a0957,
,,,,space,0.5039,,0,158,158,94,1,C, , , , ,space,2000,2,61153ed3ef855854b11551d9,001,2021-08-19_18h26.10.550,natb3,2021.2.3,Win32,59.98440405,61153ed3ef855854b11551d9,611e07ecdcc96256ae8d5b80,611e8e29c4d2d33d087a0957,
,,,,,,,0,159,159,291,1,X, , , , ,,2000,2,61153ed3ef855854b11551d9,001,2021-08-19_18h26.10.550,natb3,2021.2.3,Win32,59.98440405,61153ed3ef855854b11551d9,611e07ecdcc96256ae8d5b80,611e8e29c4d2d33d087a0957,
,,,,space,0.4699,,0,160,160,246,1,L, , , , ,space,2500,2.5,61153ed3ef855854b11551d9,001,2021-08-19_18h26.10.550,natb3,2021.2.3,Win32,59.98440405,61153ed3ef855854b11551d9,611e07ecdcc96256ae8d5b80,611e8e29c4d2d33d087a0957,
,,,,space,0.4614,,0,161,161,262,1,Y, , , , ,space,2500,2.5,61153ed3ef855854b11551d9,001,2021-08-19_18h26.10.550,natb3,2021.2.3,Win32,59.98440405,61153ed3ef855854b11551d9,611e07ecdcc96256ae8d5b80,611e8e29c4d2d33d087a0957,
,,,,,,,0,162,162,153,1,X,4,7, ,6,,2000,2,61153ed3ef855854b11551d9,001,2021-08-19_18h26.10.550,natb3,2021.2.3,Win32,59.98440405,61153ed3ef855854b11551d9,611e07ecdcc96256ae8d5b80,611e8e29c4d2d33d087a0957,
,,,,space,0.465,,0,163,163,198,1,H, , , , ,space,2500,2.5,61153ed3ef855854b11551d9,001,2021-08-19_18h26.10.550,natb3,2021.2.3,Win32,59.98440405,61153ed3ef855854b11551d9,611e07ecdcc96256ae8d5b80,611e8e29c4d2d33d087a0957,
,,,,,,,0,164,164,43,1,X, ,6, ,2,,2500,2.5,61153ed3ef855854b11551d9,001,2021-08-19_18h26.10.550,natb3,2021.2.3,Win32,59.98440405,61153ed3ef855854b11551d9,611e07ecdcc96256ae8d5b80,611e8e29c4d2d33d087a0957,
,,,,space,0.5498,,0,165,165,58,1,L, , , , ,space,2000,2,61153ed3ef855854b11551d9,001,2021-08-19_18h26.10.550,natb3,2021.2.3,Win32,59.98440405,61153ed3ef855854b11551d9,611e07ecdcc96256ae8d5b80,611e8e29c4d2d33d087a0957,
,,,,space,0.5574,,0,166,166,40,1,T, , , , ,space,1500,1.5,61153ed3ef855854b11551d9,001,2021-08-19_18h26.10.550,natb3,2021.2.3,Win32,59.98440405,61153ed3ef855854b11551d9,611e07ecdcc96256ae8d5b80,611e8e29c4d2d33d087a0957,
,,,,space,0.4782,space,0,167,167,77,1,O, , , , ,space,2000,2,61153ed3ef855854b11551d9,001,2021-08-19_18h26.10.550,natb3,2021.2.3,Win32,59.98440405,61153ed3ef855854b11551d9,611e07ecdcc96256ae8d5b80,611e8e29c4d2d33d087a0957,17.3358
,,,,space,0.3911,,0,168,168,286,1,N, , , , ,space,1500,1.5,61153ed3ef855854b11551d9,001,2021-08-19_18h26.10.550,natb3,2021.2.3,Win32,59.98440405,61153ed3ef855854b11551d9,611e07ecdcc96256ae8d5b80,611e8e29c4d2d33d087a0957,
,,,,space,0.4616,,0,169,169,319,1,V, , , , ,space,2000,2,61153ed3ef855854b11551d9,001,2021-08-19_18h26.10.550,natb3,2021.2.3,Win32,59.98440405,61153ed3ef855854b11551d9,611e07ecdcc96256ae8d5b80,611e8e29c4d2d33d087a0957,
,,,,,,,0,170,170,318,1,X, , , , ,,1500,1.5,61153ed3ef855854b11551d9,001,2021-08-19_18h26.10.550,natb3,2021.2.3,Win32,59.98440405,61153ed3ef855854b11551d9,611e07ecdcc96256ae8d5b80,611e8e29c4d2d33d087a0957,
,,,,,,,0,171,171,287,1,X, ,2, ,9,,2000,2,61153ed3ef855854b11551d9,001,2021-08-19_18h26.10.550,natb3,2021.2.3,Win32,59.98440405,61153ed3ef855854b11551d9,611e07ecdcc96256ae8d5b80,611e8e29c4d2d33d087a0957,
,,,,space,0.4154,,0,172,172,63,1,B, , , , ,space,2000,2,61153ed3ef855854b11551d9,001,2021-08-19_18h26.10.550,natb3,2021.2.3,Win32,59.98440405,61153ed3ef855854b11551d9,611e07ecdcc96256ae8d5b80,611e8e29c4d2d33d087a0957,
,,,,space,0.4757,,0,173,173,41,1,Y, , , , ,space,2500,2.5,61153ed3ef855854b11551d9,001,2021-08-19_18h26.10.550,natb3,2021.2.3,Win32,59.98440405,61153ed3ef855854b11551d9,611e07ecdcc96256ae8d5b80,611e8e29c4d2d33d087a0957,
,,,,space,0.4687,,0,174,174,310,1,J, , , , ,space,2500,2.5,61153ed3ef855854b11551d9,001,2021-08-19_18h26.10.550,natb3,2021.2.3,Win32,59.98440405,61153ed3ef855854b11551d9,611e07ecdcc96256ae8d5b80,611e8e29c4d2d33d087a0957,
,,,,space,0.3873,,0,175,175,44,1,I, , , , ,space,2500,2.5,61153ed3ef855854b11551d9,001,2021-08-19_18h26.10.550,natb3,2021.2.3,Win32,59.98440405,61153ed3ef855854b11551d9,611e07ecdcc96256ae8d5b80,611e8e29c4d2d33d087a0957,
,,,,,,,0,176,176,277,1,X,8,5, ,2,,2000,2,61153ed3ef855854b11551d9,001,2021-08-19_18h26.10.550,natb3,2021.2.3,Win32,59.98440405,61153ed3ef855854b11551d9,611e07ecdcc96256ae8d5b80,611e8e29c4d2d33d087a0957,
,,,,space,0.5749,,0,177,177,181,1,E, , , , ,space,1500,1.5,61153ed3ef855854b11551d9,001,2021-08-19_18h26.10.550,natb3,2021.2.3,Win32,59.98440405,61153ed3ef855854b11551d9,611e07ecdcc96256ae8d5b80,611e8e29c4d2d33d087a0957,
,,,,space,0.4904,,0,178,178,320,1,B, , , , ,space,1500,1.5,61153ed3ef855854b11551d9,001,2021-08-19_18h26.10.550,natb3,2021.2.3,Win32,59.98440405,61153ed3ef855854b11551d9,611e07ecdcc96256ae8d5b80,611e8e29c4d2d33d087a0957,
,,,,space,0.378,,0,179,179,78,1,X, , , , ,,2000,2,61153ed3ef855854b11551d9,001,2021-08-19_18h26.10.550,natb3,2021.2.3,Win32,59.98440405,61153ed3ef855854b11551d9,611e07ecdcc96256ae8d5b80,611e8e29c4d2d33d087a0957,
,,,,space,0.4351,,0,180,180,85,1,F, , , , ,space,2500,2.5,61153ed3ef855854b11551d9,001,2021-08-19_18h26.10.550,natb3,2021.2.3,Win32,59.98440405,61153ed3ef855854b11551d9,611e07ecdcc96256ae8d5b80,611e8e29c4d2d33d087a0957,
,,,,space,0.5003,,0,181,181,298,1,I, , , , ,space,2000,2,61153ed3ef855854b11551d9,001,2021-08-19_18h26.10.550,natb3,2021.2.3,Win32,59.98440405,61153ed3ef855854b11551d9,611e07ecdcc96256ae8d5b80,611e8e29c4d2d33d087a0957,
,,,,,,,0,182,182,116,1,X, , , , ,,2000,2,61153ed3ef855854b11551d9,001,2021-08-19_18h26.10.550,natb3,2021.2.3,Win32,59.98440405,61153ed3ef855854b11551d9,611e07ecdcc96256ae8d5b80,611e8e29c4d2d33d087a0957,
,,,,space,0.3675,,0,183,183,32,1,M, , , , ,space,1500,1.5,61153ed3ef855854b11551d9,001,2021-08-19_18h26.10.550,natb3,2021.2.3,Win32,59.98440405,61153ed3ef855854b11551d9,611e07ecdcc96256ae8d5b80,611e8e29c4d2d33d087a0957,
,,,,space,0.4056,,0,184,184,270,1,S, , , , ,space,1500,1.5,61153ed3ef855854b11551d9,001,2021-08-19_18h26.10.550,natb3,2021.2.3,Win32,59.98440405,61153ed3ef855854b11551d9,611e07ecdcc96256ae8d5b80,611e8e29c4d2d33d087a0957,
,,,,space,0.357,,0,185,185,211,1,X, , , , ,,2500,2.5,61153ed3ef855854b11551d9,001,2021-08-19_18h26.10.550,natb3,2021.2.3,Win32,59.98440405,61153ed3ef855854b11551d9,611e07ecdcc96256ae8d5b80,611e8e29c4d2d33d087a0957,
,,,,,,,0,186,186,69,1,X, , , , ,,1500,1.5,61153ed3ef855854b11551d9,001,2021-08-19_18h26.10.550,natb3,2021.2.3,Win32,59.98440405,61153ed3ef855854b11551d9,611e07ecdcc96256ae8d5b80,611e8e29c4d2d33d087a0957,
,,,,space,0.5569,,0,187,187,204,1,Z, , , , ,space,2000,2,61153ed3ef855854b11551d9,001,2021-08-19_18h26.10.550,natb3,2021.2.3,Win32,59.98440405,61153ed3ef855854b11551d9,611e07ecdcc96256ae8d5b80,611e8e29c4d2d33d087a0957,
,,,,,,,0,188,188,27,1,X,5, ,1,3,,1500,1.5,61153ed3ef855854b11551d9,001,2021-08-19_18h26.10.550,natb3,2021.2.3,Win32,59.98440405,61153ed3ef855854b11551d9,611e07ecdcc96256ae8d5b80,611e8e29c4d2d33d087a0957,
,,,,space,0.3932,,0,189,189,100,1,M, , , , ,space,2000,2,61153ed3ef855854b11551d9,001,2021-08-19_18h26.10.550,natb3,2021.2.3,Win32,59.98440405,61153ed3ef855854b11551d9,611e07ecdcc96256ae8d5b80,611e8e29c4d2d33d087a0957,
,,,,space,0.4341,,0,190,190,257,1,W, , , , ,space,2000,2,61153ed3ef855854b11551d9,001,2021-08-19_18h26.10.550,natb3,2021.2.3,Win32,59.98440405,61153ed3ef855854b11551d9,611e07ecdcc96256ae8d5b80,611e8e29c4d2d33d087a0957,
,,,,,,,0,191,191,129,1,X,2,3,5, ,,1500,1.5,61153ed3ef855854b11551d9,001,2021-08-19_18h26.10.550,natb3,2021.2.3,Win32,59.98440405,61153ed3ef855854b11551d9,611e07ecdcc96256ae8d5b80,611e8e29c4d2d33d087a0957,
,,,,space,0.5354,,0,192,192,47,1,P, , , , ,space,2000,2,61153ed3ef855854b11551d9,001,2021-08-19_18h26.10.550,natb3,2021.2.3,Win32,59.98440405,61153ed3ef855854b11551d9,611e07ecdcc96256ae8d5b80,611e8e29c4d2d33d087a0957,
,,,,space,0.4492,,0,193,193,332,1,U, , , , ,space,2000,2,61153ed3ef855854b11551d9,001,2021-08-19_18h26.10.550,natb3,2021.2.3,Win32,59.98440405,61153ed3ef855854b11551d9,611e07ecdcc96256ae8d5b80,611e8e29c4d2d33d087a0957,
,,,,space,0.5583,,0,194,194,221,1,I, , , , ,space,2500,2.5,61153ed3ef855854b11551d9,001,2021-08-19_18h26.10.550,natb3,2021.2.3,Win32,59.98440405,61153ed3ef855854b11551d9,611e07ecdcc96256ae8d5b80,611e8e29c4d2d33d087a0957,
,,,,space,0.3957,,0,195,195,55,1,H, , , , ,space,2500,2.5,61153ed3ef855854b11551d9,001,2021-08-19_18h26.10.550,natb3,2021.2.3,Win32,59.98440405,61153ed3ef855854b11551d9,611e07ecdcc96256ae8d5b80,611e8e29c4d2d33d087a0957,
,,,,space,0.423,,0,196,196,274,1,F, , , , ,space,2000,2,61153ed3ef855854b11551d9,001,2021-08-19_18h26.10.550,natb3,2021.2.3,Win32,59.98440405,61153ed3ef855854b11551d9,611e07ecdcc96256ae8d5b80,611e8e29c4d2d33d087a0957,
,,,,,,,0,197,197,54,1,X, , , , ,,2000,2,61153ed3ef855854b11551d9,001,2021-08-19_18h26.10.550,natb3,2021.2.3,Win32,59.98440405,61153ed3ef855854b11551d9,611e07ecdcc96256ae8d5b80,611e8e29c4d2d33d087a0957,
,,,,space,0.425,,0,198,198,151,1,Y, , , , ,space,2500,2.5,61153ed3ef855854b11551d9,001,2021-08-19_18h26.10.550,natb3,2021.2.3,Win32,59.98440405,61153ed3ef855854b11551d9,611e07ecdcc96256ae8d5b80,611e8e29c4d2d33d087a0957,
,,,,space,0.3752,,0,199,199,192,1,A, , , , ,space,2000,2,61153ed3ef855854b11551d9,001,2021-08-19_18h26.10.550,natb3,2021.2.3,Win32,59.98440405,61153ed3ef855854b11551d9,611e07ecdcc96256ae8d5b80,611e8e29c4d2d33d087a0957,
,,,,space,0.4485,,0,200,200,120,1,U, , , , ,space,1500,1.5,61153ed3ef855854b11551d9,001,2021-08-19_18h26.10.550,natb3,2021.2.3,Win32,59.98440405,61153ed3ef855854b11551d9,611e07ecdcc96256ae8d5b80,611e8e29c4d2d33d087a0957,
,,,,space,0.4235,,0,201,201,269,1,A, , , , ,space,2500,2.5,61153ed3ef855854b11551d9,001,2021-08-19_18h26.10.550,natb3,2021.2.3,Win32,59.98440405,61153ed3ef855854b11551d9,611e07ecdcc96256ae8d5b80,611e8e29c4d2d33d087a0957,
,,,,space,0.3782,,0,202,202,25,1,Z, , , , ,space,2500,2.5,61153ed3ef855854b11551d9,001,2021-08-19_18h26.10.550,natb3,2021.2.3,Win32,59.98440405,61153ed3ef855854b11551d9,611e07ecdcc96256ae8d5b80,611e8e29c4d2d33d087a0957,
,,,,,,,0,203,203,179,1,X, ,9, ,2,,1500,1.5,61153ed3ef855854b11551d9,001,2021-08-19_18h26.10.550,natb3,2021.2.3,Win32,59.98440405,61153ed3ef855854b11551d9,611e07ecdcc96256ae8d5b80,611e8e29c4d2d33d087a0957,
,,,,space,0.3872,,0,204,204,251,1,B, , , , ,space,1500,1.5,61153ed3ef855854b11551d9,001,2021-08-19_18h26.10.550,natb3,2021.2.3,Win32,59.98440405,61153ed3ef855854b11551d9,611e07ecdcc96256ae8d5b80,611e8e29c4d2d33d087a0957,
,,,,space,0.5676,,0,205,205,156,1,P, , , , ,space,1500,1.5,61153ed3ef855854b11551d9,001,2021-08-19_18h26.10.550,natb3,2021.2.3,Win32,59.98440405,61153ed3ef855854b11551d9,611e07ecdcc96256ae8d5b80,611e8e29c4d2d33d087a0957,
,,,,space,0.3915,,0,206,206,288,1,M, , , , ,space,1500,1.5,61153ed3ef855854b11551d9,001,2021-08-19_18h26.10.550,natb3,2021.2.3,Win32,59.98440405,61153ed3ef855854b11551d9,611e07ecdcc96256ae8d5b80,611e8e29c4d2d33d087a0957,
,,,,space,0.4283,,0,207,207,323,1,M, , , , ,space,2500,2.5,61153ed3ef855854b11551d9,001,2021-08-19_18h26.10.550,natb3,2021.2.3,Win32,59.98440405,61153ed3ef855854b11551d9,611e07ecdcc96256ae8d5b80,611e8e29c4d2d33d087a0957,
,,,,,,,0,208,208,315,1,X, , , , ,,2500,2.5,61153ed3ef855854b11551d9,001,2021-08-19_18h26.10.550,natb3,2021.2.3,Win32,59.98440405,61153ed3ef855854b11551d9,611e07ecdcc96256ae8d5b80,611e8e29c4d2d33d087a0957,
,,,,space,0.4188,,0,209,209,114,1,E, , , , ,space,2000,2,61153ed3ef855854b11551d9,001,2021-08-19_18h26.10.550,natb3,2021.2.3,Win32,59.98440405,61153ed3ef855854b11551d9,611e07ecdcc96256ae8d5b80,611e8e29c4d2d33d087a0957,
,,,,space,0.4173,,0,210,210,115,1,R, , , , ,space,1500,1.5,61153ed3ef855854b11551d9,001,2021-08-19_18h26.10.550,natb3,2021.2.3,Win32,59.98440405,61153ed3ef855854b11551d9,611e07ecdcc96256ae8d5b80,611e8e29c4d2d33d087a0957,
,,,,,,,0,211,211,171,1,X, , , , ,,1500,1.5,61153ed3ef855854b11551d9,001,2021-08-19_18h26.10.550,natb3,2021.2.3,Win32,59.98440405,61153ed3ef855854b11551d9,611e07ecdcc96256ae8d5b80,611e8e29c4d2d33d087a0957,
,,,,space,0.3968,,0,212,212,24,1,L, , , , ,space,2500,2.5,61153ed3ef855854b11551d9,001,2021-08-19_18h26.10.550,natb3,2021.2.3,Win32,59.98440405,61153ed3ef855854b11551d9,611e07ecdcc96256ae8d5b80,611e8e29c4d2d33d087a0957,
,,,,,,,0,213,213,243,1,X, , , , ,,2500,2.5,61153ed3ef855854b11551d9,001,2021-08-19_18h26.10.550,natb3,2021.2.3,Win32,59.98440405,61153ed3ef855854b11551d9,611e07ecdcc96256ae8d5b80,611e8e29c4d2d33d087a0957,
,,,,space,0.402,,0,214,214,99,1,N, , , , ,space,2500,2.5,61153ed3ef855854b11551d9,001,2021-08-19_18h26.10.550,natb3,2021.2.3,Win32,59.98440405,61153ed3ef855854b11551d9,611e07ecdcc96256ae8d5b80,611e8e29c4d2d33d087a0957,
,,,,space,0.418,,0,215,215,14,1,S, , , , ,space,2500,2.5,61153ed3ef855854b11551d9,001,2021-08-19_18h26.10.550,natb3,2021.2.3,Win32,59.98440405,61153ed3ef855854b11551d9,611e07ecdcc96256ae8d5b80,611e8e29c4d2d33d087a0957,
,,,,space,0.4531,,0,216,216,95,1,V, , , , ,space,1500,1.5,61153ed3ef855854b11551d9,001,2021-08-19_18h26.10.550,natb3,2021.2.3,Win32,59.98440405,61153ed3ef855854b11551d9,611e07ecdcc96256ae8d5b80,611e8e29c4d2d33d087a0957,
,,,,space,0.3538,,0,217,217,92,1,Z, , , , ,space,1500,1.5,61153ed3ef855854b11551d9,001,2021-08-19_18h26.10.550,natb3,2021.2.3,Win32,59.98440405,61153ed3ef855854b11551d9,611e07ecdcc96256ae8d5b80,611e8e29c4d2d33d087a0957,
,,,,space,0.3822,,0,218,218,42,1,U, , , , ,space,1500,1.5,61153ed3ef855854b11551d9,001,2021-08-19_18h26.10.550,natb3,2021.2.3,Win32,59.98440405,61153ed3ef855854b11551d9,611e07ecdcc96256ae8d5b80,611e8e29c4d2d33d087a0957,
,,,,,,,0,219,219,89,1,X,3, , , ,,2000,2,61153ed3ef855854b11551d9,001,2021-08-19_18h26.10.550,natb3,2021.2.3,Win32,59.98440405,61153ed3ef855854b11551d9,611e07ecdcc96256ae8d5b80,611e8e29c4d2d33d087a0957,
,,,,,,,0,220,220,229,1,X,8, ,2,6,,2500,2.5,61153ed3ef855854b11551d9,001,2021-08-19_18h26.10.550,natb3,2021.2.3,Win32,59.98440405,61153ed3ef855854b11551d9,611e07ecdcc96256ae8d5b80,611e8e29c4d2d33d087a0957,
,,,,space,0.4209,,0,221,221,134,1,J, , , , ,space,2000,2,61153ed3ef855854b11551d9,001,2021-08-19_18h26.10.550,natb3,2021.2.3,Win32,59.98440405,61153ed3ef855854b11551d9,611e07ecdcc96256ae8d5b80,611e8e29c4d2d33d087a0957,
,,,,space,0.4429,,0,222,222,188,1,I, , , , ,space,2500,2.5,61153ed3ef855854b11551d9,001,2021-08-19_18h26.10.550,natb3,2021.2.3,Win32,59.98440405,61153ed3ef855854b11551d9,611e07ecdcc96256ae8d5b80,611e8e29c4d2d33d087a0957,
,,,,space,0.4413,,0,223,223,334,1,O, , , , ,space,1500,1.5,61153ed3ef855854b11551d9,001,2021-08-19_18h26.10.550,natb3,2021.2.3,Win32,59.98440405,61153ed3ef855854b11551d9,611e07ecdcc96256ae8d5b80,611e8e29c4d2d33d087a0957,
,,,,space,0.4366,,0,224,224,201,1,K, , , , ,space,1500,1.5,61153ed3ef855854b11551d9,001,2021-08-19_18h26.10.550,natb3,2021.2.3,Win32,59.98440405,61153ed3ef855854b11551d9,611e07ecdcc96256ae8d5b80,611e8e29c4d2d33d087a0957,
,,,,space,0.4619,,0,225,225,103,1,W, , , , ,space,2000,2,61153ed3ef855854b11551d9,001,2021-08-19_18h26.10.550,natb3,2021.2.3,Win32,59.98440405,61153ed3ef855854b11551d9,611e07ecdcc96256ae8d5b80,611e8e29c4d2d33d087a0957,
,,,,space,0.378,,0,226,226,67,1,Q, , , , ,space,2000,2,61153ed3ef855854b11551d9,001,2021-08-19_18h26.10.550,natb3,2021.2.3,Win32,59.98440405,61153ed3ef855854b11551d9,611e07ecdcc96256ae8d5b80,611e8e29c4d2d33d087a0957,
,,,,,,,0,227,227,118,1,X, , , , ,,2000,2,61153ed3ef855854b11551d9,001,2021-08-19_18h26.10.550,natb3,2021.2.3,Win32,59.98440405,61153ed3ef855854b11551d9,611e07ecdcc96256ae8d5b80,611e8e29c4d2d33d087a0957,
,,,,space,0.5166,,0,228,228,249,1,C, , , , ,space,2000,2,61153ed3ef855854b11551d9,001,2021-08-19_18h26.10.550,natb3,2021.2.3,Win32,59.98440405,61153ed3ef855854b11551d9,611e07ecdcc96256ae8d5b80,611e8e29c4d2d33d087a0957,
,,,,,,,0,229,229,35,1,X, , , , ,,2500,2.5,61153ed3ef855854b11551d9,001,2021-08-19_18h26.10.550,natb3,2021.2.3,Win32,59.98440405,61153ed3ef855854b11551d9,611e07ecdcc96256ae8d5b80,611e8e29c4d2d33d087a0957,
,,,,space,0.4422,,0,230,230,152,1,U, , , , ,space,2000,2,61153ed3ef855854b11551d9,001,2021-08-19_18h26.10.550,natb3,2021.2.3,Win32,59.98440405,61153ed3ef855854b11551d9,611e07ecdcc96256ae8d5b80,611e8e29c4d2d33d087a0957,
,,,,,,,0,231,231,175,1,X,7, ,4,2,,1500,1.5,61153ed3ef855854b11551d9,001,2021-08-19_18h26.10.550,natb3,2021.2.3,Win32,59.98440405,61153ed3ef855854b11551d9,611e07ecdcc96256ae8d5b80,611e8e29c4d2d33d087a0957,
,,,,space,0.4228,,0,232,232,307,1,F, , , , ,space,2500,2.5,61153ed3ef855854b11551d9,001,2021-08-19_18h26.10.550,natb3,2021.2.3,Win32,59.98440405,61153ed3ef855854b11551d9,611e07ecdcc96256ae8d5b80,611e8e29c4d2d33d087a0957,
,,,,,,,0,233,233,218,1,X,1,3, ,8,,1500,1.5,61153ed3ef855854b11551d9,001,2021-08-19_18h26.10.550,natb3,2021.2.3,Win32,59.98440405,61153ed3ef855854b11551d9,611e07ecdcc96256ae8d5b80,611e8e29c4d2d33d087a0957,
,,,,,,,0,234,234,133,1,X, ,4, ,6,,2500,2.5,61153ed3ef855854b11551d9,001,2021-08-19_18h26.10.550,natb3,2021.2.3,Win32,59.98440405,61153ed3ef855854b11551d9,611e07ecdcc96256ae8d5b80,611e8e29c4d2d33d087a0957,
,,,,space,0.4339,,0,235,235,83,1,D, , , , ,space,2000,2,61153ed3ef855854b11551d9,001,2021-08-19_18h26.10.550,natb3,2021.2.3,Win32,59.98440405,61153ed3ef855854b11551d9,611e07ecdcc96256ae8d5b80,611e8e29c4d2d33d087a0957,
,,,,space,0.4359,,0,236,236,167,1,K, , , , ,space,1500,1.5,61153ed3ef855854b11551d9,001,2021-08-19_18h26.10.550,natb3,2021.2.3,Win32,59.98440405,61153ed3ef855854b11551d9,611e07ecdcc96256ae8d5b80,611e8e29c4d2d33d087a0957,
,,,,space,0.4607,,0,237,237,241,1,G, , , , ,space,2500,2.5,61153ed3ef855854b11551d9,001,2021-08-19_18h26.10.550,natb3,2021.2.3,Win32,59.98440405,61153ed3ef855854b11551d9,611e07ecdcc96256ae8d5b80,611e8e29c4d2d33d087a0957,
,,,,space,0.4262,,0,238,238,38,1,R, , , , ,space,2500,2.5,61153ed3ef855854b11551d9,001,2021-08-19_18h26.10.550,natb3,2021.2.3,Win32,59.98440405,61153ed3ef855854b11551d9,611e07ecdcc96256ae8d5b80,611e8e29c4d2d33d087a0957,
,,,,space,0.4072,,0,239,239,65,1,M, , , , ,space,1500,1.5,61153ed3ef855854b11551d9,001,2021-08-19_18h26.10.550,natb3,2021.2.3,Win32,59.98440405,61153ed3ef855854b11551d9,611e07ecdcc96256ae8d5b80,611e8e29c4d2d33d087a0957,
,,,,space,0.3724,,0,240,240,75,1,U, , , , ,space,1500,1.5,61153ed3ef855854b11551d9,001,2021-08-19_18h26.10.550,natb3,2021.2.3,Win32,59.98440405,61153ed3ef855854b11551d9,611e07ecdcc96256ae8d5b80,611e8e29c4d2d33d087a0957,
,,,,space,0.436,,0,241,241,154,1,I, , , , ,space,2500,2.5,61153ed3ef855854b11551d9,001,2021-08-19_18h26.10.550,natb3,2021.2.3,Win32,59.98440405,61153ed3ef855854b11551d9,611e07ecdcc96256ae8d5b80,611e8e29c4d2d33d087a0957,
,,,,space,0.4764,,0,242,242,208,1,B, , , , ,space,1500,1.5,61153ed3ef855854b11551d9,001,2021-08-19_18h26.10.550,natb3,2021.2.3,Win32,59.98440405,61153ed3ef855854b11551d9,611e07ecdcc96256ae8d5b80,611e8e29c4d2d33d087a0957,
,,,,space,0.7655,,0,243,243,245,1,K, , , , ,space,2000,2,61153ed3ef855854b11551d9,001,2021-08-19_18h26.10.550,natb3,2021.2.3,Win32,59.98440405,61153ed3ef855854b11551d9,611e07ecdcc96256ae8d5b80,611e8e29c4d2d33d087a0957,
,,,,space,0.4095,,0,244,244,28,1,V, , , , ,space,1500,1.5,61153ed3ef855854b11551d9,001,2021-08-19_18h26.10.550,natb3,2021.2.3,Win32,59.98440405,61153ed3ef855854b11551d9,611e07ecdcc96256ae8d5b80,611e8e29c4d2d33d087a0957,
,,,,,,,0,245,245,4,1,X, , , , ,,2000,2,61153ed3ef855854b11551d9,001,2021-08-19_18h26.10.550,natb3,2021.2.3,Win32,59.98440405,61153ed3ef855854b11551d9,611e07ecdcc96256ae8d5b80,611e8e29c4d2d33d087a0957,
,,,,,,,0,246,246,200,1,X,7, ,5,3,,1500,1.5,61153ed3ef855854b11551d9,001,2021-08-19_18h26.10.550,natb3,2021.2.3,Win32,59.98440405,61153ed3ef855854b11551d9,611e07ecdcc96256ae8d5b80,611e8e29c4d2d33d087a0957,
,,,,space,0.4389,,0,247,247,223,1,Q, , , , ,space,2000,2,61153ed3ef855854b11551d9,001,2021-08-19_18h26.10.550,natb3,2021.2.3,Win32,59.98440405,61153ed3ef855854b11551d9,611e07ecdcc96256ae8d5b80,611e8e29c4d2d33d087a0957,
,,,,space,0.4937,,0,248,248,36,1,W, , , , ,space,2000,2,61153ed3ef855854b11551d9,001,2021-08-19_18h26.10.550,natb3,2021.2.3,Win32,59.98440405,61153ed3ef855854b11551d9,611e07ecdcc96256ae8d5b80,611e8e29c4d2d33d087a0957,
,,,,space,0.5341,,0,249,249,10,1,O, , , , ,space,2000,2,61153ed3ef855854b11551d9,001,2021-08-19_18h26.10.550,natb3,2021.2.3,Win32,59.98440405,61153ed3ef855854b11551d9,611e07ecdcc96256ae8d5b80,611e8e29c4d2d33d087a0957,
,,,,space,0.3766,,0,250,250,177,1,M, , , , ,space,2500,2.5,61153ed3ef855854b11551d9,001,2021-08-19_18h26.10.550,natb3,2021.2.3,Win32,59.98440405,61153ed3ef855854b11551d9,611e07ecdcc96256ae8d5b80,611e8e29c4d2d33d087a0957,
,,,,space,0.4221,,0,251,251,165,1,J, , , , ,space,2500,2.5,61153ed3ef855854b11551d9,001,2021-08-19_18h26.10.550,natb3,2021.2.3,Win32,59.98440405,61153ed3ef855854b11551d9,611e07ecdcc96256ae8d5b80,611e8e29c4d2d33d087a0957,
,,,,space,0.468,,0,252,252,56,1,J, , , , ,space,1500,1.5,61153ed3ef855854b11551d9,001,2021-08-19_18h26.10.550,natb3,2021.2.3,Win32,59.98440405,61153ed3ef855854b11551d9,611e07ecdcc96256ae8d5b80,611e8e29c4d2d33d087a0957,
,,,,space,0.4008,,0,253,253,293,1,R, , , , ,space,2500,2.5,61153ed3ef855854b11551d9,001,2021-08-19_18h26.10.550,natb3,2021.2.3,Win32,59.98440405,61153ed3ef855854b11551d9,611e07ecdcc96256ae8d5b80,611e8e29c4d2d33d087a0957,
,,,,space,0.4197,,0,254,254,146,1,W, , , , ,space,1500,1.5,61153ed3ef855854b11551d9,001,2021-08-19_18h26.10.550,natb3,2021.2.3,Win32,59.98440405,61153ed3ef855854b11551d9,611e07ecdcc96256ae8d5b80,611e8e29c4d2d33d087a0957,
,,,,space,0.4008,,0,255,255,97,1,B, , , , ,space,2500,2.5,61153ed3ef855854b11551d9,001,2021-08-19_18h26.10.550,natb3,2021.2.3,Win32,59.98440405,61153ed3ef855854b11551d9,611e07ecdcc96256ae8d5b80,611e8e29c4d2d33d087a0957,
,,,,,,,0,256,256,313,1,X, , , , ,,2500,2.5,61153ed3ef855854b11551d9,001,2021-08-19_18h26.10.550,natb3,2021.2.3,Win32,59.98440405,61153ed3ef855854b11551d9,611e07ecdcc96256ae8d5b80,611e8e29c4d2d33d087a0957,
,,,,space,0.5593,,0,257,257,276,1,H, , , , ,space,2000,2,61153ed3ef855854b11551d9,001,2021-08-19_18h26.10.550,natb3,2021.2.3,Win32,59.98440405,61153ed3ef855854b11551d9,611e07ecdcc96256ae8d5b80,611e8e29c4d2d33d087a0957,
,,,,space,0.4522,,0,258,258,59,1,Z, , , , ,space,2000,2,61153ed3ef855854b11551d9,001,2021-08-19_18h26.10.550,natb3,2021.2.3,Win32,59.98440405,61153ed3ef855854b11551d9,611e07ecdcc96256ae8d5b80,611e8e29c4d2d33d087a0957,
,,,,space,0.428,,0,259,259,8,1,U, , , , ,space,1500,1.5,61153ed3ef855854b11551d9,001,2021-08-19_18h26.10.550,natb3,2021.2.3,Win32,59.98440405,61153ed3ef855854b11551d9,611e07ecdcc96256ae8d5b80,611e8e29c4d2d33d087a0957,
,,,,space,0.3671,,0,260,260,16,1,D, , , , ,space,1500,1.5,61153ed3ef855854b11551d9,001,2021-08-19_18h26.10.550,natb3,2021.2.3,Win32,59.98440405,61153ed3ef855854b11551d9,611e07ecdcc96256ae8d5b80,611e8e29c4d2d33d087a0957,
,,,,space,0.41,,0,261,261,62,1,V, , , , ,space,1500,1.5,61153ed3ef855854b11551d9,001,2021-08-19_18h26.10.550,natb3,2021.2.3,Win32,59.98440405,61153ed3ef855854b11551d9,611e07ecdcc96256ae8d5b80,611e8e29c4d2d33d087a0957,
,,,,space,0.3708,,0,262,262,209,1,N, , , , ,space,2000,2,61153ed3ef855854b11551d9,001,2021-08-19_18h26.10.550,natb3,2021.2.3,Win32,59.98440405,61153ed3ef855854b11551d9,611e07ecdcc96256ae8d5b80,611e8e29c4d2d33d087a0957,
,,,,,,,0,263,263,74,1,X, ,4,3,2,,1500,1.5,61153ed3ef855854b11551d9,001,2021-08-19_18h26.10.550,natb3,2021.2.3,Win32,59.98440405,61153ed3ef855854b11551d9,611e07ecdcc96256ae8d5b80,611e8e29c4d2d33d087a0957,
,,,,space,0.4013,,0,264,264,1,1,W, , , , ,space,2000,2,61153ed3ef855854b11551d9,001,2021-08-19_18h26.10.550,natb3,2021.2.3,Win32,59.98440405,61153ed3ef855854b11551d9,611e07ecdcc96256ae8d5b80,611e8e29c4d2d33d087a0957,
,,,,space,0.4754,,0,265,265,109,1,U, , , , ,space,1500,1.5,61153ed3ef855854b11551d9,001,2021-08-19_18h26.10.550,natb3,2021.2.3,Win32,59.98440405,61153ed3ef855854b11551d9,611e07ecdcc96256ae8d5b80,611e8e29c4d2d33d087a0957,
,,,,space,0.5095,,0,266,266,173,1,V, , , , ,space,1500,1.5,61153ed3ef855854b11551d9,001,2021-08-19_18h26.10.550,natb3,2021.2.3,Win32,59.98440405,61153ed3ef855854b11551d9,611e07ecdcc96256ae8d5b80,611e8e29c4d2d33d087a0957,
,,,,space,0.4457,,0,267,267,143,1,M, , , , ,space,2500,2.5,61153ed3ef855854b11551d9,001,2021-08-19_18h26.10.550,natb3,2021.2.3,Win32,59.98440405,61153ed3ef855854b11551d9,611e07ecdcc96256ae8d5b80,611e8e29c4d2d33d087a0957,
,,,,space,0.4458,,0,268,268,70,1,E, , , , ,space,2500,2.5,61153ed3ef855854b11551d9,001,2021-08-19_18h26.10.550,natb3,2021.2.3,Win32,59.98440405,61153ed3ef855854b11551d9,611e07ecdcc96256ae8d5b80,611e8e29c4d2d33d087a0957,
,,,,space,0.4423,,0,269,269,190,1,P, , , , ,space,2000,2,61153ed3ef855854b11551d9,001,2021-08-19_18h26.10.550,natb3,2021.2.3,Win32,59.98440405,61153ed3ef855854b11551d9,611e07ecdcc96256ae8d5b80,611e8e29c4d2d33d087a0957,
,,,,space,0.3717,,0,270,270,132,1,H, , , , ,space,2500,2.5,61153ed3ef855854b11551d9,001,2021-08-19_18h26.10.550,natb3,2021.2.3,Win32,59.98440405,61153ed3ef855854b11551d9,611e07ecdcc96256ae8d5b80,611e8e29c4d2d33d087a0957,
,,,,space,0.5095,,0,271,271,242,1,H, , , , ,space,2500,2.5,61153ed3ef855854b11551d9,001,2021-08-19_18h26.10.550,natb3,2021.2.3,Win32,59.98440405,61153ed3ef855854b11551d9,611e07ecdcc96256ae8d5b80,611e8e29c4d2d33d087a0957,
,,,,,,,0,272,272,23,1,X,1, ,5, ,,2000,2,61153ed3ef855854b11551d9,001,2021-08-19_18h26.10.550,natb3,2021.2.3,Win32,59.98440405,61153ed3ef855854b11551d9,611e07ecdcc96256ae8d5b80,611e8e29c4d2d33d087a0957,
,,,,space,0.4955,,0,273,273,157,1,A, , , , ,space,2500,2.5,61153ed3ef855854b11551d9,001,2021-08-19_18h26.10.550,natb3,2021.2.3,Win32,59.98440405,61153ed3ef855854b11551d9,611e07ecdcc96256ae8d5b80,611e8e29c4d2d33d087a0957,
,,,,space,0.502,,0,274,274,300,1,O, , , , ,space,2500,2.5,61153ed3ef855854b11551d9,001,2021-08-19_18h26.10.550,natb3,2021.2.3,Win32,59.98440405,61153ed3ef855854b11551d9,611e07ecdcc96256ae8d5b80,611e8e29c4d2d33d087a0957,
,,,,space,0.5096,,0,275,275,253,1,N, , , , ,space,2500,2.5,61153ed3ef855854b11551d9,001,2021-08-19_18h26.10.550,natb3,2021.2.3,Win32,59.98440405,61153ed3ef855854b11551d9,611e07ecdcc96256ae8d5b80,611e8e29c4d2d33d087a0957,
,,,,space,0.5578,,0,276,276,235,1,A, , , , ,space,1500,1.5,61153ed3ef855854b11551d9,001,2021-08-19_18h26.10.550,natb3,2021.2.3,Win32,59.98440405,61153ed3ef855854b11551d9,611e07ecdcc96256ae8d5b80,611e8e29c4d2d33d087a0957,
,,,,space,0.5071,,0,277,277,105,1,R, , , , ,space,2500,2.5,61153ed3ef855854b11551d9,001,2021-08-19_18h26.10.550,natb3,2021.2.3,Win32,59.98440405,61153ed3ef855854b11551d9,611e07ecdcc96256ae8d5b80,611e8e29c4d2d33d087a0957,
,,,,space,0.4016,,0,278,278,180,1,W, , , , ,space,2000,2,61153ed3ef855854b11551d9,001,2021-08-19_18h26.10.550,natb3,2021.2.3,Win32,59.98440405,61153ed3ef855854b11551d9,611e07ecdcc96256ae8d5b80,611e8e29c4d2d33d087a0957,
,,,,,,,0,279,279,255,1,X, , , , ,,1500,1.5,61153ed3ef855854b11551d9,001,2021-08-19_18h26.10.550,natb3,2021.2.3,Win32,59.98440405,61153ed3ef855854b11551d9,611e07ecdcc96256ae8d5b80,611e8e29c4d2d33d087a0957,
,,,,,,,0,280,280,125,1,X, , , , ,,2000,2,61153ed3ef855854b11551d9,001,2021-08-19_18h26.10.550,natb3,2021.2.3,Win32,59.98440405,61153ed3ef855854b11551d9,611e07ecdcc96256ae8d5b80,611e8e29c4d2d33d087a0957,
,,,,space,0.5617,,0,281,281,127,1,S, , , , ,space,2500,2.5,61153ed3ef855854b11551d9,001,2021-08-19_18h26.10.550,natb3,2021.2.3,Win32,59.98440405,61153ed3ef855854b11551d9,611e07ecdcc96256ae8d5b80,611e8e29c4d2d33d087a0957,
,,,,space,0.5846,,0,282,282,57,1,K, , , , ,space,2500,2.5,61153ed3ef855854b11551d9,001,2021-08-19_18h26.10.550,natb3,2021.2.3,Win32,59.98440405,61153ed3ef855854b11551d9,611e07ecdcc96256ae8d5b80,611e8e29c4d2d33d087a0957,
,,,,space,0.503,,0,283,283,71,1,R, , , , ,space,2500,2.5,61153ed3ef855854b11551d9,001,2021-08-19_18h26.10.550,natb3,2021.2.3,Win32,59.98440405,61153ed3ef855854b11551d9,611e07ecdcc96256ae8d5b80,611e8e29c4d2d33d087a0957,
,,,,,,,0,284,284,182,1,X, , , , ,,1500,1.5,61153ed3ef855854b11551d9,001,2021-08-19_18h26.10.550,natb3,2021.2.3,Win32,59.98440405,61153ed3ef855854b11551d9,611e07ecdcc96256ae8d5b80,611e8e29c4d2d33d087a0957,
,,,,,,,0,285,285,191,1,X,1, ,3,4,,2500,2.5,61153ed3ef855854b11551d9,001,2021-08-19_18h26.10.550,natb3,2021.2.3,Win32,59.98440405,61153ed3ef855854b11551d9,611e07ecdcc96256ae8d5b80,611e8e29c4d2d33d087a0957,
,,,,space,0.6528,,0,286,286,308,1,G, , , , ,space,1500,1.5,61153ed3ef855854b11551d9,001,2021-08-19_18h26.10.550,natb3,2021.2.3,Win32,59.98440405,61153ed3ef855854b11551d9,611e07ecdcc96256ae8d5b80,611e8e29c4d2d33d087a0957,
,,,,space,0.4777,,0,287,287,296,1,Y, , , , ,space,2500,2.5,61153ed3ef855854b11551d9,001,2021-08-19_18h26.10.550,natb3,2021.2.3,Win32,59.98440405,61153ed3ef855854b11551d9,611e07ecdcc96256ae8d5b80,611e8e29c4d2d33d087a0957,
,,,,,,,0,288,288,263,1,X,4, ,6, ,,1500,1.5,61153ed3ef855854b11551d9,001,2021-08-19_18h26.10.550,natb3,2021.2.3,Win32,59.98440405,61153ed3ef855854b11551d9,611e07ecdcc96256ae8d5b80,611e8e29c4d2d33d087a0957,
,,,,,,,0,289,289,46,1,X, , , , ,,2000,2,61153ed3ef855854b11551d9,001,2021-08-19_18h26.10.550,natb3,2021.2.3,Win32,59.98440405,61153ed3ef855854b11551d9,611e07ecdcc96256ae8d5b80,611e8e29c4d2d33d087a0957,
,,,,space,0.4217,,0,290,290,52,1,F, , , , ,space,1500,1.5,61153ed3ef855854b11551d9,001,2021-08-19_18h26.10.550,natb3,2021.2.3,Win32,59.98440405,61153ed3ef855854b11551d9,611e07ecdcc96256ae8d5b80,611e8e29c4d2d33d087a0957,
,,,,space,0.4739,,0,291,291,5,1,T, , , , ,space,2000,2,61153ed3ef855854b11551d9,001,2021-08-19_18h26.10.550,natb3,2021.2.3,Win32,59.98440405,61153ed3ef855854b11551d9,611e07ecdcc96256ae8d5b80,611e8e29c4d2d33d087a0957,
,,,,space,0.5358,,0,292,292,186,1,U, , , , ,space,2500,2.5,61153ed3ef855854b11551d9,001,2021-08-19_18h26.10.550,natb3,2021.2.3,Win32,59.98440405,61153ed3ef855854b11551d9,611e07ecdcc96256ae8d5b80,611e8e29c4d2d33d087a0957,
,,,,,,,0,293,293,322,1,X, , ,1,6,,2000,2,61153ed3ef855854b11551d9,001,2021-08-19_18h26.10.550,natb3,2021.2.3,Win32,59.98440405,61153ed3ef855854b11551d9,611e07ecdcc96256ae8d5b80,611e8e29c4d2d33d087a0957,
,,,,space,0.5748,,0,294,294,267,1,P, , , , ,space,2000,2,61153ed3ef855854b11551d9,001,2021-08-19_18h26.10.550,natb3,2021.2.3,Win32,59.98440405,61153ed3ef855854b11551d9,611e07ecdcc96256ae8d5b80,611e8e29c4d2d33d087a0957,
,,,,space,0.5199,,0,295,295,161,1,F, , , , ,space,1500,1.5,61153ed3ef855854b11551d9,001,2021-08-19_18h26.10.550,natb3,2021.2.3,Win32,59.98440405,61153ed3ef855854b11551d9,611e07ecdcc96256ae8d5b80,611e8e29c4d2d33d087a0957,
,,,,space,0.478,,0,296,296,185,1,Y, , , , ,space,2500,2.5,61153ed3ef855854b11551d9,001,2021-08-19_18h26.10.550,natb3,2021.2.3,Win32,59.98440405,61153ed3ef855854b11551d9,611e07ecdcc96256ae8d5b80,611e8e29c4d2d33d087a0957,
,,,,space,0.5042,,0,297,297,275,1,G, , , , ,space,1500,1.5,61153ed3ef855854b11551d9,001,2021-08-19_18h26.10.550,natb3,2021.2.3,Win32,59.98440405,61153ed3ef855854b11551d9,611e07ecdcc96256ae8d5b80,611e8e29c4d2d33d087a0957,
,,,,space,0.4782,,0,298,298,72,1,T, , , , ,space,1500,1.5,61153ed3ef855854b11551d9,001,2021-08-19_18h26.10.550,natb3,2021.2.3,Win32,59.98440405,61153ed3ef855854b11551d9,611e07ecdcc96256ae8d5b80,611e8e29c4d2d33d087a0957,
,,,,space,0.4096,,0,299,299,80,1,A, , , , ,space,2000,2,61153ed3ef855854b11551d9,001,2021-08-19_18h26.10.550,natb3,2021.2.3,Win32,59.98440405,61153ed3ef855854b11551d9,611e07ecdcc96256ae8d5b80,611e8e29c4d2d33d087a0957,
,,,,space,0.6328,,0,300,300,316,1,Z, , , , ,space,1500,1.5,61153ed3ef855854b11551d9,001,2021-08-19_18h26.10.550,natb3,2021.2.3,Win32,59.98440405,61153ed3ef855854b11551d9,611e07ecdcc96256ae8d5b80,611e8e29c4d2d33d087a0957,
,,,,space,0.4305,,0,301,301,81,1,S, , , , ,space,2000,2,61153ed3ef855854b11551d9,001,2021-08-19_18h26.10.550,natb3,2021.2.3,Win32,59.98440405,61153ed3ef855854b11551d9,611e07ecdcc96256ae8d5b80,611e8e29c4d2d33d087a0957,
,,,,space,0.4211,,0,302,302,86,1,G, , , , ,space,2000,2,61153ed3ef855854b11551d9,001,2021-08-19_18h26.10.550,natb3,2021.2.3,Win32,59.98440405,61153ed3ef855854b11551d9,611e07ecdcc96256ae8d5b80,611e8e29c4d2d33d087a0957,
,,,,space,0.3688,,0,303,303,333,1,I, , , , ,space,1500,1.5,61153ed3ef855854b11551d9,001,2021-08-19_18h26.10.550,natb3,2021.2.3,Win32,59.98440405,61153ed3ef855854b11551d9,611e07ecdcc96256ae8d5b80,611e8e29c4d2d33d087a0957,
,,,,space,0.4781,,0,304,304,68,1,W, , , , ,space,2500,2.5,61153ed3ef855854b11551d9,001,2021-08-19_18h26.10.550,natb3,2021.2.3,Win32,59.98440405,61153ed3ef855854b11551d9,611e07ecdcc96256ae8d5b80,611e8e29c4d2d33d087a0957,
,,,,space,0.4289,,0,305,305,26,1,C, , , , ,space,2000,2,61153ed3ef855854b11551d9,001,2021-08-19_18h26.10.550,natb3,2021.2.3,Win32,59.98440405,61153ed3ef855854b11551d9,611e07ecdcc96256ae8d5b80,611e8e29c4d2d33d087a0957,
,,,,space,0.4025,,0,306,306,194,1,D, , , , ,space,2000,2,61153ed3ef855854b11551d9,001,2021-08-19_18h26.10.550,natb3,2021.2.3,Win32,59.98440405,61153ed3ef855854b11551d9,611e07ecdcc96256ae8d5b80,611e8e29c4d2d33d087a0957,
,,,,,,,0,307,307,162,1,X,1,6, ,2,,1500,1.5,61153ed3ef855854b11551d9,001,2021-08-19_18h26.10.550,natb3,2021.2.3,Win32,59.98440405,61153ed3ef855854b11551d9,611e07ecdcc96256ae8d5b80,611e8e29c4d2d33d087a0957,
,,,,,,,0,308,308,82,1,X,4,6,1,7,,2000,2,61153ed3ef855854b11551d9,001,2021-08-19_18h26.10.550,natb3,2021.2.3,Win32,59.98440405,61153ed3ef855854b11551d9,611e07ecdcc96256ae8d5b80,611e8e29c4d2d33d087a0957,
,,,,,,,0,309,309,33,1,X, , , , ,,1500,1.5,61153ed3ef855854b11551d9,001,2021-08-19_18h26.10.550,natb3,2021.2.3,Win32,59.98440405,61153ed3ef855854b11551d9,611e07ecdcc96256ae8d5b80,611e8e29c4d2d33d087a0957,
,,,,,,,0,310,310,187,1,X, ,3,7,4,,1500,1.5,61153ed3ef855854b11551d9,001,2021-08-19_18h26.10.550,natb3,2021.2.3,Win32,59.98440405,61153ed3ef855854b11551d9,611e07ecdcc96256ae8d5b80,611e8e29c4d2d33d087a0957,
,,,,space,0.4082,,0,311,311,306,1,D, , , , ,space,2000,2,61153ed3ef855854b11551d9,001,2021-08-19_18h26.10.550,natb3,2021.2.3,Win32,59.98440405,61153ed3ef855854b11551d9,611e07ecdcc96256ae8d5b80,611e8e29c4d2d33d087a0957,
,,,,space,0.4197,,0,312,312,290,1,W, , , , ,space,1500,1.5,61153ed3ef855854b11551d9,001,2021-08-19_18h26.10.550,natb3,2021.2.3,Win32,59.98440405,61153ed3ef855854b11551d9,611e07ecdcc96256ae8d5b80,611e8e29c4d2d33d087a0957,
,,,,space,0.6064,,0,313,313,91,1,L, , , , ,space,2000,2,61153ed3ef855854b11551d9,001,2021-08-19_18h26.10.550,natb3,2021.2.3,Win32,59.98440405,61153ed3ef855854b11551d9,611e07ecdcc96256ae8d5b80,611e8e29c4d2d33d087a0957,
,,,,space,0.3803,,0,314,314,260,1,R, , , , ,space,2000,2,61153ed3ef855854b11551d9,001,2021-08-19_18h26.10.550,natb3,2021.2.3,Win32,59.98440405,61153ed3ef855854b11551d9,611e07ecdcc96256ae8d5b80,611e8e29c4d2d33d087a0957,
,,,,space,0.3713,,0,315,315,220,1,U, , , , ,space,2500,2.5,61153ed3ef855854b11551d9,001,2021-08-19_18h26.10.550,natb3,2021.2.3,Win32,59.98440405,61153ed3ef855854b11551d9,611e07ecdcc96256ae8d5b80,611e8e29c4d2d33d087a0957,
,,,,space,0.3871,,0,316,316,150,1,T, , , , ,space,2500,2.5,61153ed3ef855854b11551d9,001,2021-08-19_18h26.10.550,natb3,2021.2.3,Win32,59.98440405,61153ed3ef855854b11551d9,611e07ecdcc96256ae8d5b80,611e8e29c4d2d33d087a0957,
,,,,space,0.4522,,0,317,317,281,1,Z, , , , ,space,1500,1.5,61153ed3ef855854b11551d9,001,2021-08-19_18h26.10.550,natb3,2021.2.3,Win32,59.98440405,61153ed3ef855854b11551d9,611e07ecdcc96256ae8d5b80,611e8e29c4d2d33d087a0957,
,,,,space,0.2995,,0,318,318,98,1,X, , , , ,,2500,2.5,61153ed3ef855854b11551d9,001,2021-08-19_18h26.10.550,natb3,2021.2.3,Win32,59.98440405,61153ed3ef855854b11551d9,611e07ecdcc96256ae8d5b80,611e8e29c4d2d33d087a0957,
,,,,space,0.3788,,0,319,319,76,1,I, , , , ,space,2000,2,61153ed3ef855854b11551d9,001,2021-08-19_18h26.10.550,natb3,2021.2.3,Win32,59.98440405,61153ed3ef855854b11551d9,611e07ecdcc96256ae8d5b80,611e8e29c4d2d33d087a0957,
,,,,space,0.3717,,0,320,320,104,1,E, , , , ,space,2000,2,61153ed3ef855854b11551d9,001,2021-08-19_18h26.10.550,natb3,2021.2.3,Win32,59.98440405,61153ed3ef855854b11551d9,611e07ecdcc96256ae8d5b80,611e8e29c4d2d33d087a0957,
,,,,,,,0,321,321,236,1,X,3, ,4,7,,2500,2.5,61153ed3ef855854b11551d9,001,2021-08-19_18h26.10.550,natb3,2021.2.3,Win32,59.98440405,61153ed3ef855854b11551d9,611e07ecdcc96256ae8d5b80,611e8e29c4d2d33d087a0957,
,,,,space,0.3826,,0,322,322,239,1,X, , , , ,,2000,2,61153ed3ef855854b11551d9,001,2021-08-19_18h26.10.550,natb3,2021.2.3,Win32,59.98440405,61153ed3ef855854b11551d9,611e07ecdcc96256ae8d5b80,611e8e29c4d2d33d087a0957,
,,,,space,0.4574,,0,323,323,330,1,T, , , , ,space,2500,2.5,61153ed3ef855854b11551d9,001,2021-08-19_18h26.10.550,natb3,2021.2.3,Win32,59.98440405,61153ed3ef855854b11551d9,611e07ecdcc96256ae8d5b80,611e8e29c4d2d33d087a0957,
,,,,space,0.5371,,0,324,324,321,1,N, , , , ,space,2000,2,61153ed3ef855854b11551d9,001,2021-08-19_18h26.10.550,natb3,2021.2.3,Win32,59.98440405,61153ed3ef855854b11551d9,611e07ecdcc96256ae8d5b80,611e8e29c4d2d33d087a0957,
,,,,,,,0,325,325,107,1,X,9,3, ,2,,2000,2,61153ed3ef855854b11551d9,001,2021-08-19_18h26.10.550,natb3,2021.2.3,Win32,59.98440405,61153ed3ef855854b11551d9,611e07ecdcc96256ae8d5b80,611e8e29c4d2d33d087a0957,
,,,,,,,0,326,326,248,1,X, ,1,5, ,,1500,1.5,61153ed3ef855854b11551d9,001,2021-08-19_18h26.10.550,natb3,2021.2.3,Win32,59.98440405,61153ed3ef855854b11551d9,611e07ecdcc96256ae8d5b80,611e8e29c4d2d33d087a0957,
,,,,,,,0,327,327,329,1,X,3,4, ,2,,2500,2.5,61153ed3ef855854b11551d9,001,2021-08-19_18h26.10.550,natb3,2021.2.3,Win32,59.98440405,61153ed3ef855854b11551d9,611e07ecdcc96256ae8d5b80,611e8e29c4d2d33d087a0957,
,,,,,,,0,328,328,51,1,X,7,5,8, ,,1500,1.5,61153ed3ef855854b11551d9,001,2021-08-19_18h26.10.550,natb3,2021.2.3,Win32,59.98440405,61153ed3ef855854b11551d9,611e07ecdcc96256ae8d5b80,611e8e29c4d2d33d087a0957,
,,,,space,0.5102,,0,329,329,297,1,U, , , , ,space,2000,2,61153ed3ef855854b11551d9,001,2021-08-19_18h26.10.550,natb3,2021.2.3,Win32,59.98440405,61153ed3ef855854b11551d9,611e07ecdcc96256ae8d5b80,611e8e29c4d2d33d087a0957,
,,,,space,0.4796,,0,330,330,199,1,J, , , , ,space,2500,2.5,61153ed3ef855854b11551d9,001,2021-08-19_18h26.10.550,natb3,2021.2.3,Win32,59.98440405,61153ed3ef855854b11551d9,611e07ecdcc96256ae8d5b80,611e8e29c4d2d33d087a0957,
,,,,,,,0,331,331,166,1,X, , , , ,,2000,2,61153ed3ef855854b11551d9,001,2021-08-19_18h26.10.550,natb3,2021.2.3,Win32,59.98440405,61153ed3ef855854b11551d9,611e07ecdcc96256ae8d5b80,611e8e29c4d2d33d087a0957,
,,,,space,0.4718,,0,332,332,163,1,G, , , , ,space,2500,2.5,61153ed3ef855854b11551d9,001,2021-08-19_18h26.10.550,natb3,2021.2.3,Win32,59.98440405,61153ed3ef855854b11551d9,611e07ecdcc96256ae8d5b80,611e8e29c4d2d33d087a0957,
,,,,space,0.6162,,0,333,333,88,1,J, , , , ,space,2500,2.5,61153ed3ef855854b11551d9,001,2021-08-19_18h26.10.550,natb3,2021.2.3,Win32,59.98440405,61153ed3ef855854b11551d9,611e07ecdcc96256ae8d5b80,611e8e29c4d2d33d087a0957,
,,,,space,0.5618,,0,334,334,231,1,I, , , , ,space,2500,2.5,61153ed3ef855854b11551d9,001,2021-08-19_18h26.10.550,natb3,2021.2.3,Win32,59.98440405,61153ed3ef855854b11551d9,611e07ecdcc96256ae8d5b80,611e8e29c4d2d33d087a0957,
,,,,space,0.4455,,0,335,335,147,1,E, , , , ,space,2000,2,61153ed3ef855854b11551d9,001,2021-08-19_18h26.10.550,natb3,2021.2.3,Win32,59.98440405,61153ed3ef855854b11551d9,611e07ecdcc96256ae8d5b80,611e8e29c4d2d33d087a0957,
