key_resp_2.keys,key_resp_2.rt,key_resp_3.keys,key_resp_3.rt,key_resp.keys,key_resp.rt,key_resp_4.keys,trials.thisRepN,trials.thisTrialN,trials.thisN,trials.thisIndex,trials.ran,stimulus,distractor1,distractor2,distractor3,distractor4,CorrAns,isi_duration,isi_dur_in_seconds,participant,session,date,expName,psychopyVersion,OS,frameRate,PROLIFIC_PID,STUDY_ID,SESSION_ID,key_resp_4.rt
return,32.1494,space,17.0901,space,0.4506,,0,0,0,261,1,T, , , , ,space,2000,2,61169988cf61a1a4c41fdf9c,001,2021-08-19_16h31.29.864,natb3,2021.2.3,Win32,74.95128167,61169988cf61a1a4c41fdf9c,611e07ecdcc96256ae8d5b80,611e793ccbeab693d86ace7b,
,,,,space,0.4695,,0,1,1,316,1,Z, , , , ,space,1500,1.5,61169988cf61a1a4c41fdf9c,001,2021-08-19_16h31.29.864,natb3,2021.2.3,Win32,74.95128167,61169988cf61a1a4c41fdf9c,611e07ecdcc96256ae8d5b80,611e793ccbeab693d86ace7b,
,,,,space,0.4337,,0,2,2,30,1,N, , , , ,space,2500,2.5,61169988cf61a1a4c41fdf9c,001,2021-08-19_16h31.29.864,natb3,2021.2.3,Win32,74.95128167,61169988cf61a1a4c41fdf9c,611e07ecdcc96256ae8d5b80,611e793ccbeab693d86ace7b,
,,,,space,0.3999,,0,3,3,81,1,S, , , , ,space,2000,2,61169988cf61a1a4c41fdf9c,001,2021-08-19_16h31.29.864,natb3,2021.2.3,Win32,74.95128167,61169988cf61a1a4c41fdf9c,611e07ecdcc96256ae8d5b80,611e793ccbeab693d86ace7b,
,,,,space,0.4008,,0,4,4,17,1,F, , , , ,space,2500,2.5,61169988cf61a1a4c41fdf9c,001,2021-08-19_16h31.29.864,natb3,2021.2.3,Win32,74.95128167,61169988cf61a1a4c41fdf9c,611e07ecdcc96256ae8d5b80,611e793ccbeab693d86ace7b,
,,,,space,0.4837,,0,5,5,178,1,Q, , , , ,space,1500,1.5,61169988cf61a1a4c41fdf9c,001,2021-08-19_16h31.29.864,natb3,2021.2.3,Win32,74.95128167,61169988cf61a1a4c41fdf9c,611e07ecdcc96256ae8d5b80,611e793ccbeab693d86ace7b,
,,,,space,0.4665,,0,6,6,228,1,Y, , , , ,space,2000,2,61169988cf61a1a4c41fdf9c,001,2021-08-19_16h31.29.864,natb3,2021.2.3,Win32,74.95128167,61169988cf61a1a4c41fdf9c,611e07ecdcc96256ae8d5b80,611e793ccbeab693d86ace7b,
,,,,,,,0,7,7,329,1,X,3,4, ,2,,2500,2.5,61169988cf61a1a4c41fdf9c,001,2021-08-19_16h31.29.864,natb3,2021.2.3,Win32,74.95128167,61169988cf61a1a4c41fdf9c,611e07ecdcc96256ae8d5b80,611e793ccbeab693d86ace7b,
,,,,space,0.416,,0,8,8,64,1,N, , , , ,space,2000,2,61169988cf61a1a4c41fdf9c,001,2021-08-19_16h31.29.864,natb3,2021.2.3,Win32,74.95128167,61169988cf61a1a4c41fdf9c,611e07ecdcc96256ae8d5b80,611e793ccbeab693d86ace7b,
,,,,space,0.5016,,0,9,9,165,1,J, , , , ,space,2500,2.5,61169988cf61a1a4c41fdf9c,001,2021-08-19_16h31.29.864,natb3,2021.2.3,Win32,74.95128167,61169988cf61a1a4c41fdf9c,611e07ecdcc96256ae8d5b80,611e793ccbeab693d86ace7b,
,,,,space,0.5339,,0,10,10,323,1,M, , , , ,space,2500,2.5,61169988cf61a1a4c41fdf9c,001,2021-08-19_16h31.29.864,natb3,2021.2.3,Win32,74.95128167,61169988cf61a1a4c41fdf9c,611e07ecdcc96256ae8d5b80,611e793ccbeab693d86ace7b,
,,,,space,0.3659,,0,11,11,221,1,I, , , , ,space,2500,2.5,61169988cf61a1a4c41fdf9c,001,2021-08-19_16h31.29.864,natb3,2021.2.3,Win32,74.95128167,61169988cf61a1a4c41fdf9c,611e07ecdcc96256ae8d5b80,611e793ccbeab693d86ace7b,
,,,,space,0.4016,,0,12,12,61,1,C, , , , ,space,2000,2,61169988cf61a1a4c41fdf9c,001,2021-08-19_16h31.29.864,natb3,2021.2.3,Win32,74.95128167,61169988cf61a1a4c41fdf9c,611e07ecdcc96256ae8d5b80,611e793ccbeab693d86ace7b,
,,,,space,0.3332,,0,13,13,299,1,X, , , , ,,2500,2.5,61169988cf61a1a4c41fdf9c,001,2021-08-19_16h31.29.864,natb3,2021.2.3,Win32,74.95128167,61169988cf61a1a4c41fdf9c,611e07ecdcc96256ae8d5b80,611e793ccbeab693d86ace7b,
,,,,space,0.4178,,0,14,14,269,1,A, , , , ,space,2500,2.5,61169988cf61a1a4c41fdf9c,001,2021-08-19_16h31.29.864,natb3,2021.2.3,Win32,74.95128167,61169988cf61a1a4c41fdf9c,611e07ecdcc96256ae8d5b80,611e793ccbeab693d86ace7b,
,,,,space,0.5179,,0,15,15,257,1,W, , , , ,space,2000,2,61169988cf61a1a4c41fdf9c,001,2021-08-19_16h31.29.864,natb3,2021.2.3,Win32,74.95128167,61169988cf61a1a4c41fdf9c,611e07ecdcc96256ae8d5b80,611e793ccbeab693d86ace7b,
,,,,space,0.5181,,0,16,16,331,1,Y, , , , ,space,2500,2.5,61169988cf61a1a4c41fdf9c,001,2021-08-19_16h31.29.864,natb3,2021.2.3,Win32,74.95128167,61169988cf61a1a4c41fdf9c,611e07ecdcc96256ae8d5b80,611e793ccbeab693d86ace7b,
,,,,space,0.568,,0,17,17,143,1,M, , , , ,space,2500,2.5,61169988cf61a1a4c41fdf9c,001,2021-08-19_16h31.29.864,natb3,2021.2.3,Win32,74.95128167,61169988cf61a1a4c41fdf9c,611e07ecdcc96256ae8d5b80,611e793ccbeab693d86ace7b,
,,,,space,0.4503,,0,18,18,224,1,W, , , , ,space,1500,1.5,61169988cf61a1a4c41fdf9c,001,2021-08-19_16h31.29.864,natb3,2021.2.3,Win32,74.95128167,61169988cf61a1a4c41fdf9c,611e07ecdcc96256ae8d5b80,611e793ccbeab693d86ace7b,
,,,,space,0.4654,,0,19,19,101,1,Q, , , , ,space,2500,2.5,61169988cf61a1a4c41fdf9c,001,2021-08-19_16h31.29.864,natb3,2021.2.3,Win32,74.95128167,61169988cf61a1a4c41fdf9c,611e07ecdcc96256ae8d5b80,611e793ccbeab693d86ace7b,
,,,,space,0.4834,,0,20,20,333,1,I, , , , ,space,1500,1.5,61169988cf61a1a4c41fdf9c,001,2021-08-19_16h31.29.864,natb3,2021.2.3,Win32,74.95128167,61169988cf61a1a4c41fdf9c,611e07ecdcc96256ae8d5b80,611e793ccbeab693d86ace7b,
,,,,space,0.5157,,0,21,21,314,1,L, , , , ,space,1500,1.5,61169988cf61a1a4c41fdf9c,001,2021-08-19_16h31.29.864,natb3,2021.2.3,Win32,74.95128167,61169988cf61a1a4c41fdf9c,611e07ecdcc96256ae8d5b80,611e793ccbeab693d86ace7b,
,,,,space,0.4013,,0,22,22,324,1,Q, , , , ,space,2000,2,61169988cf61a1a4c41fdf9c,001,2021-08-19_16h31.29.864,natb3,2021.2.3,Win32,74.95128167,61169988cf61a1a4c41fdf9c,611e07ecdcc96256ae8d5b80,611e793ccbeab693d86ace7b,
,,,,,,,0,23,23,259,1,X,8, , ,3,,2500,2.5,61169988cf61a1a4c41fdf9c,001,2021-08-19_16h31.29.864,natb3,2021.2.3,Win32,74.95128167,61169988cf61a1a4c41fdf9c,611e07ecdcc96256ae8d5b80,611e793ccbeab693d86ace7b,
,,,,space,0.5514,,0,24,24,1,1,W, , , , ,space,2000,2,61169988cf61a1a4c41fdf9c,001,2021-08-19_16h31.29.864,natb3,2021.2.3,Win32,74.95128167,61169988cf61a1a4c41fdf9c,611e07ecdcc96256ae8d5b80,611e793ccbeab693d86ace7b,
,,,,space,0.7509,,0,25,25,244,1,J, , , , ,space,1500,1.5,61169988cf61a1a4c41fdf9c,001,2021-08-19_16h31.29.864,natb3,2021.2.3,Win32,74.95128167,61169988cf61a1a4c41fdf9c,611e07ecdcc96256ae8d5b80,611e793ccbeab693d86ace7b,
,,,,,,,0,26,26,302,1,X, , , , ,,2000,2,61169988cf61a1a4c41fdf9c,001,2021-08-19_16h31.29.864,natb3,2021.2.3,Win32,74.95128167,61169988cf61a1a4c41fdf9c,611e07ecdcc96256ae8d5b80,611e793ccbeab693d86ace7b,
,,,,space,0.45,,0,27,27,245,1,K, , , , ,space,2000,2,61169988cf61a1a4c41fdf9c,001,2021-08-19_16h31.29.864,natb3,2021.2.3,Win32,74.95128167,61169988cf61a1a4c41fdf9c,611e07ecdcc96256ae8d5b80,611e793ccbeab693d86ace7b,
,,,,space,0.6015,,0,28,28,201,1,K, , , , ,space,1500,1.5,61169988cf61a1a4c41fdf9c,001,2021-08-19_16h31.29.864,natb3,2021.2.3,Win32,74.95128167,61169988cf61a1a4c41fdf9c,611e07ecdcc96256ae8d5b80,611e793ccbeab693d86ace7b,
,,,,,,,0,29,29,15,1,X, , , , ,,1500,1.5,61169988cf61a1a4c41fdf9c,001,2021-08-19_16h31.29.864,natb3,2021.2.3,Win32,74.95128167,61169988cf61a1a4c41fdf9c,611e07ecdcc96256ae8d5b80,611e793ccbeab693d86ace7b,
,,,,space,0.4173,,0,30,30,327,1,E, , , , ,space,1500,1.5,61169988cf61a1a4c41fdf9c,001,2021-08-19_16h31.29.864,natb3,2021.2.3,Win32,74.95128167,61169988cf61a1a4c41fdf9c,611e07ecdcc96256ae8d5b80,611e793ccbeab693d86ace7b,
,,,,,,,0,31,31,27,1,X,5, ,1,3,,1500,1.5,61169988cf61a1a4c41fdf9c,001,2021-08-19_16h31.29.864,natb3,2021.2.3,Win32,74.95128167,61169988cf61a1a4c41fdf9c,611e07ecdcc96256ae8d5b80,611e793ccbeab693d86ace7b,
,,,,space,0.5165,,0,32,32,198,1,H, , , , ,space,2500,2.5,61169988cf61a1a4c41fdf9c,001,2021-08-19_16h31.29.864,natb3,2021.2.3,Win32,74.95128167,61169988cf61a1a4c41fdf9c,611e07ecdcc96256ae8d5b80,611e793ccbeab693d86ace7b,
,,,,space,0.4515,,0,33,33,317,1,C, , , , ,space,2000,2,61169988cf61a1a4c41fdf9c,001,2021-08-19_16h31.29.864,natb3,2021.2.3,Win32,74.95128167,61169988cf61a1a4c41fdf9c,611e07ecdcc96256ae8d5b80,611e793ccbeab693d86ace7b,
,,,,space,0.5506,,0,34,34,170,1,Z, , , , ,space,2000,2,61169988cf61a1a4c41fdf9c,001,2021-08-19_16h31.29.864,natb3,2021.2.3,Win32,74.95128167,61169988cf61a1a4c41fdf9c,611e07ecdcc96256ae8d5b80,611e793ccbeab693d86ace7b,
,,,,space,0.5664,,0,35,35,189,1,O, , , , ,space,1500,1.5,61169988cf61a1a4c41fdf9c,001,2021-08-19_16h31.29.864,natb3,2021.2.3,Win32,74.95128167,61169988cf61a1a4c41fdf9c,611e07ecdcc96256ae8d5b80,611e793ccbeab693d86ace7b,
,,,,space,0.4502,,0,36,36,321,1,N, , , , ,space,2000,2,61169988cf61a1a4c41fdf9c,001,2021-08-19_16h31.29.864,natb3,2021.2.3,Win32,74.95128167,61169988cf61a1a4c41fdf9c,611e07ecdcc96256ae8d5b80,611e793ccbeab693d86ace7b,
,,,,space,0.3673,,0,37,37,174,1,B, , , , ,space,2500,2.5,61169988cf61a1a4c41fdf9c,001,2021-08-19_16h31.29.864,natb3,2021.2.3,Win32,74.95128167,61169988cf61a1a4c41fdf9c,611e07ecdcc96256ae8d5b80,611e793ccbeab693d86ace7b,
,,,,,,,0,38,38,138,1,X,8,5, ,3,,2000,2,61169988cf61a1a4c41fdf9c,001,2021-08-19_16h31.29.864,natb3,2021.2.3,Win32,74.95128167,61169988cf61a1a4c41fdf9c,611e07ecdcc96256ae8d5b80,611e793ccbeab693d86ace7b,
,,,,space,0.6359,,0,39,39,283,1,C, , , , ,space,1500,1.5,61169988cf61a1a4c41fdf9c,001,2021-08-19_16h31.29.864,natb3,2021.2.3,Win32,74.95128167,61169988cf61a1a4c41fdf9c,611e07ecdcc96256ae8d5b80,611e793ccbeab693d86ace7b,
,,,,,,,0,40,40,287,1,X, ,2, ,9,,2000,2,61169988cf61a1a4c41fdf9c,001,2021-08-19_16h31.29.864,natb3,2021.2.3,Win32,74.95128167,61169988cf61a1a4c41fdf9c,611e07ecdcc96256ae8d5b80,611e793ccbeab693d86ace7b,
,,,,space,0.5174,,0,41,41,214,1,W, , , , ,space,2000,2,61169988cf61a1a4c41fdf9c,001,2021-08-19_16h31.29.864,natb3,2021.2.3,Win32,74.95128167,61169988cf61a1a4c41fdf9c,611e07ecdcc96256ae8d5b80,611e793ccbeab693d86ace7b,
,,,,space,0.568,,0,42,42,288,1,M, , , , ,space,1500,1.5,61169988cf61a1a4c41fdf9c,001,2021-08-19_16h31.29.864,natb3,2021.2.3,Win32,74.95128167,61169988cf61a1a4c41fdf9c,611e07ecdcc96256ae8d5b80,611e793ccbeab693d86ace7b,
,,,,space,0.4504,,0,43,43,25,1,Z, , , , ,space,2500,2.5,61169988cf61a1a4c41fdf9c,001,2021-08-19_16h31.29.864,natb3,2021.2.3,Win32,74.95128167,61169988cf61a1a4c41fdf9c,611e07ecdcc96256ae8d5b80,611e793ccbeab693d86ace7b,
,,,,space,0.3838,,0,44,44,114,1,E, , , , ,space,2000,2,61169988cf61a1a4c41fdf9c,001,2021-08-19_16h31.29.864,natb3,2021.2.3,Win32,74.95128167,61169988cf61a1a4c41fdf9c,611e07ecdcc96256ae8d5b80,611e793ccbeab693d86ace7b,
,,,,space,0.368,,0,45,45,149,1,R, , , , ,space,2000,2,61169988cf61a1a4c41fdf9c,001,2021-08-19_16h31.29.864,natb3,2021.2.3,Win32,74.95128167,61169988cf61a1a4c41fdf9c,611e07ecdcc96256ae8d5b80,611e793ccbeab693d86ace7b,
,,,,space,0.3678,,0,46,46,303,1,A, , , , ,space,2000,2,61169988cf61a1a4c41fdf9c,001,2021-08-19_16h31.29.864,natb3,2021.2.3,Win32,74.95128167,61169988cf61a1a4c41fdf9c,611e07ecdcc96256ae8d5b80,611e793ccbeab693d86ace7b,
,,,,space,0.3834,,0,47,47,137,1,C, , , , ,space,2500,2.5,61169988cf61a1a4c41fdf9c,001,2021-08-19_16h31.29.864,natb3,2021.2.3,Win32,74.95128167,61169988cf61a1a4c41fdf9c,611e07ecdcc96256ae8d5b80,611e793ccbeab693d86ace7b,
,,,,,,,0,48,48,168,1,X, , , , ,,2500,2.5,61169988cf61a1a4c41fdf9c,001,2021-08-19_16h31.29.864,natb3,2021.2.3,Win32,74.95128167,61169988cf61a1a4c41fdf9c,611e07ecdcc96256ae8d5b80,611e793ccbeab693d86ace7b,
,,,,,,,0,49,49,74,1,X, ,4,3,2,,1500,1.5,61169988cf61a1a4c41fdf9c,001,2021-08-19_16h31.29.864,natb3,2021.2.3,Win32,74.95128167,61169988cf61a1a4c41fdf9c,611e07ecdcc96256ae8d5b80,611e793ccbeab693d86ace7b,
,,,,,,,0,50,50,93,1,X,5, ,7, ,,2500,2.5,61169988cf61a1a4c41fdf9c,001,2021-08-19_16h31.29.864,natb3,2021.2.3,Win32,74.95128167,61169988cf61a1a4c41fdf9c,611e07ecdcc96256ae8d5b80,611e793ccbeab693d86ace7b,
,,,,,,,0,51,51,96,1,X, , , , ,,1500,1.5,61169988cf61a1a4c41fdf9c,001,2021-08-19_16h31.29.864,natb3,2021.2.3,Win32,74.95128167,61169988cf61a1a4c41fdf9c,611e07ecdcc96256ae8d5b80,611e793ccbeab693d86ace7b,
,,,,space,0.4005,,0,52,52,276,1,H, , , , ,space,2000,2,61169988cf61a1a4c41fdf9c,001,2021-08-19_16h31.29.864,natb3,2021.2.3,Win32,74.95128167,61169988cf61a1a4c41fdf9c,611e07ecdcc96256ae8d5b80,611e793ccbeab693d86ace7b,
,,,,space,0.4999,,0,53,53,294,1,T, , , , ,space,2000,2,61169988cf61a1a4c41fdf9c,001,2021-08-19_16h31.29.864,natb3,2021.2.3,Win32,74.95128167,61169988cf61a1a4c41fdf9c,611e07ecdcc96256ae8d5b80,611e793ccbeab693d86ace7b,
,,,,space,0.4677,,0,54,54,152,1,U, , , , ,space,2000,2,61169988cf61a1a4c41fdf9c,001,2021-08-19_16h31.29.864,natb3,2021.2.3,Win32,74.95128167,61169988cf61a1a4c41fdf9c,611e07ecdcc96256ae8d5b80,611e793ccbeab693d86ace7b,
,,,,space,0.3846,,0,55,55,58,1,L, , , , ,space,2000,2,61169988cf61a1a4c41fdf9c,001,2021-08-19_16h31.29.864,natb3,2021.2.3,Win32,74.95128167,61169988cf61a1a4c41fdf9c,611e07ecdcc96256ae8d5b80,611e793ccbeab693d86ace7b,
,,,,,,,0,56,56,148,1,X, , , , ,,2000,2,61169988cf61a1a4c41fdf9c,001,2021-08-19_16h31.29.864,natb3,2021.2.3,Win32,74.95128167,61169988cf61a1a4c41fdf9c,611e07ecdcc96256ae8d5b80,611e793ccbeab693d86ace7b,
,,,,,,,0,57,57,158,1,X, , , , ,,1500,1.5,61169988cf61a1a4c41fdf9c,001,2021-08-19_16h31.29.864,natb3,2021.2.3,Win32,74.95128167,61169988cf61a1a4c41fdf9c,611e07ecdcc96256ae8d5b80,611e793ccbeab693d86ace7b,
,,,,,,,0,58,58,12,1,X, , , , ,,1500,1.5,61169988cf61a1a4c41fdf9c,001,2021-08-19_16h31.29.864,natb3,2021.2.3,Win32,74.95128167,61169988cf61a1a4c41fdf9c,611e07ecdcc96256ae8d5b80,611e793ccbeab693d86ace7b,
,,,,space,0.4335,,0,59,59,173,1,V, , , , ,space,1500,1.5,61169988cf61a1a4c41fdf9c,001,2021-08-19_16h31.29.864,natb3,2021.2.3,Win32,74.95128167,61169988cf61a1a4c41fdf9c,611e07ecdcc96256ae8d5b80,611e793ccbeab693d86ace7b,
,,,,space,0.4837,,0,60,60,156,1,P, , , , ,space,1500,1.5,61169988cf61a1a4c41fdf9c,001,2021-08-19_16h31.29.864,natb3,2021.2.3,Win32,74.95128167,61169988cf61a1a4c41fdf9c,611e07ecdcc96256ae8d5b80,611e793ccbeab693d86ace7b,
,,,,space,0.3495,,0,61,61,11,1,P, , , , ,space,2500,2.5,61169988cf61a1a4c41fdf9c,001,2021-08-19_16h31.29.864,natb3,2021.2.3,Win32,74.95128167,61169988cf61a1a4c41fdf9c,611e07ecdcc96256ae8d5b80,611e793ccbeab693d86ace7b,
,,,,,,,0,62,62,182,1,X, , , , ,,1500,1.5,61169988cf61a1a4c41fdf9c,001,2021-08-19_16h31.29.864,natb3,2021.2.3,Win32,74.95128167,61169988cf61a1a4c41fdf9c,611e07ecdcc96256ae8d5b80,611e793ccbeab693d86ace7b,
,,,,space,0.4346,,0,63,63,32,1,M, , , , ,space,1500,1.5,61169988cf61a1a4c41fdf9c,001,2021-08-19_16h31.29.864,natb3,2021.2.3,Win32,74.95128167,61169988cf61a1a4c41fdf9c,611e07ecdcc96256ae8d5b80,611e793ccbeab693d86ace7b,
,,,,space,0.3667,,0,64,64,70,1,E, , , , ,space,2500,2.5,61169988cf61a1a4c41fdf9c,001,2021-08-19_16h31.29.864,natb3,2021.2.3,Win32,74.95128167,61169988cf61a1a4c41fdf9c,611e07ecdcc96256ae8d5b80,611e793ccbeab693d86ace7b,
,,,,space,0.4184,,0,65,65,49,1,S, , , , ,space,1500,1.5,61169988cf61a1a4c41fdf9c,001,2021-08-19_16h31.29.864,natb3,2021.2.3,Win32,74.95128167,61169988cf61a1a4c41fdf9c,611e07ecdcc96256ae8d5b80,611e793ccbeab693d86ace7b,
,,,,,,,0,66,66,129,1,X,2,3,5, ,,1500,1.5,61169988cf61a1a4c41fdf9c,001,2021-08-19_16h31.29.864,natb3,2021.2.3,Win32,74.95128167,61169988cf61a1a4c41fdf9c,611e07ecdcc96256ae8d5b80,611e793ccbeab693d86ace7b,
,,,,,,,0,67,67,60,1,X,7,3,5, ,,1500,1.5,61169988cf61a1a4c41fdf9c,001,2021-08-19_16h31.29.864,natb3,2021.2.3,Win32,74.95128167,61169988cf61a1a4c41fdf9c,611e07ecdcc96256ae8d5b80,611e793ccbeab693d86ace7b,
,,,,,,,0,68,68,122,1,X,1, , ,8,,1500,1.5,61169988cf61a1a4c41fdf9c,001,2021-08-19_16h31.29.864,natb3,2021.2.3,Win32,74.95128167,61169988cf61a1a4c41fdf9c,611e07ecdcc96256ae8d5b80,611e793ccbeab693d86ace7b,
,,,,,,,0,69,69,39,1,X,6,2, , ,,1500,1.5,61169988cf61a1a4c41fdf9c,001,2021-08-19_16h31.29.864,natb3,2021.2.3,Win32,74.95128167,61169988cf61a1a4c41fdf9c,611e07ecdcc96256ae8d5b80,611e793ccbeab693d86ace7b,
,,,,space,0.6174,,0,70,70,106,1,T, , , , ,space,1500,1.5,61169988cf61a1a4c41fdf9c,001,2021-08-19_16h31.29.864,natb3,2021.2.3,Win32,74.95128167,61169988cf61a1a4c41fdf9c,611e07ecdcc96256ae8d5b80,611e793ccbeab693d86ace7b,
,,,,space,0.3996,,0,71,71,150,1,T, , , , ,space,2500,2.5,61169988cf61a1a4c41fdf9c,001,2021-08-19_16h31.29.864,natb3,2021.2.3,Win32,74.95128167,61169988cf61a1a4c41fdf9c,611e07ecdcc96256ae8d5b80,611e793ccbeab693d86ace7b,
,,,,,,,0,72,72,252,1,X,3, ,6,9,,2000,2,61169988cf61a1a4c41fdf9c,001,2021-08-19_16h31.29.864,natb3,2021.2.3,Win32,74.95128167,61169988cf61a1a4c41fdf9c,611e07ecdcc96256ae8d5b80,611e793ccbeab693d86ace7b,
,,,,space,0.5,,0,73,73,281,1,Z, , , , ,space,1500,1.5,61169988cf61a1a4c41fdf9c,001,2021-08-19_16h31.29.864,natb3,2021.2.3,Win32,74.95128167,61169988cf61a1a4c41fdf9c,611e07ecdcc96256ae8d5b80,611e793ccbeab693d86ace7b,
,,,,space,0.5831,,0,74,74,335,1,P,,,,,space,1500,1.5,61169988cf61a1a4c41fdf9c,001,2021-08-19_16h31.29.864,natb3,2021.2.3,Win32,74.95128167,61169988cf61a1a4c41fdf9c,611e07ecdcc96256ae8d5b80,611e793ccbeab693d86ace7b,
,,,,space,0.4338,,0,75,75,92,1,Z, , , , ,space,1500,1.5,61169988cf61a1a4c41fdf9c,001,2021-08-19_16h31.29.864,natb3,2021.2.3,Win32,74.95128167,61169988cf61a1a4c41fdf9c,611e07ecdcc96256ae8d5b80,611e793ccbeab693d86ace7b,
,,,,space,0.4003,,0,76,76,65,1,M, , , , ,space,1500,1.5,61169988cf61a1a4c41fdf9c,001,2021-08-19_16h31.29.864,natb3,2021.2.3,Win32,74.95128167,61169988cf61a1a4c41fdf9c,611e07ecdcc96256ae8d5b80,611e793ccbeab693d86ace7b,
,,,,space,0.4158,,0,77,77,37,1,E, , , , ,space,2500,2.5,61169988cf61a1a4c41fdf9c,001,2021-08-19_16h31.29.864,natb3,2021.2.3,Win32,74.95128167,61169988cf61a1a4c41fdf9c,611e07ecdcc96256ae8d5b80,611e793ccbeab693d86ace7b,
,,,,space,0.4841,,0,78,78,247,1,Z, , , , ,space,1500,1.5,61169988cf61a1a4c41fdf9c,001,2021-08-19_16h31.29.864,natb3,2021.2.3,Win32,74.95128167,61169988cf61a1a4c41fdf9c,611e07ecdcc96256ae8d5b80,611e793ccbeab693d86ace7b,
,,,,,,,0,79,79,255,1,X, , , , ,,1500,1.5,61169988cf61a1a4c41fdf9c,001,2021-08-19_16h31.29.864,natb3,2021.2.3,Win32,74.95128167,61169988cf61a1a4c41fdf9c,611e07ecdcc96256ae8d5b80,611e793ccbeab693d86ace7b,
,,,,space,0.5673,,0,80,80,52,1,F, , , , ,space,1500,1.5,61169988cf61a1a4c41fdf9c,001,2021-08-19_16h31.29.864,natb3,2021.2.3,Win32,74.95128167,61169988cf61a1a4c41fdf9c,611e07ecdcc96256ae8d5b80,611e793ccbeab693d86ace7b,
,,,,space,0.3672,,0,81,81,279,1,K, , , , ,space,2500,2.5,61169988cf61a1a4c41fdf9c,001,2021-08-19_16h31.29.864,natb3,2021.2.3,Win32,74.95128167,61169988cf61a1a4c41fdf9c,611e07ecdcc96256ae8d5b80,611e793ccbeab693d86ace7b,
,,,,space,0.4163,,0,82,82,104,1,E, , , , ,space,2000,2,61169988cf61a1a4c41fdf9c,001,2021-08-19_16h31.29.864,natb3,2021.2.3,Win32,74.95128167,61169988cf61a1a4c41fdf9c,611e07ecdcc96256ae8d5b80,611e793ccbeab693d86ace7b,
,,,,space,0.3841,,0,83,83,147,1,E, , , , ,space,2000,2,61169988cf61a1a4c41fdf9c,001,2021-08-19_16h31.29.864,natb3,2021.2.3,Win32,74.95128167,61169988cf61a1a4c41fdf9c,611e07ecdcc96256ae8d5b80,611e793ccbeab693d86ace7b,
,,,,space,0.4156,,0,84,84,0,1,Q, , , , ,space,1500,1.5,61169988cf61a1a4c41fdf9c,001,2021-08-19_16h31.29.864,natb3,2021.2.3,Win32,74.95128167,61169988cf61a1a4c41fdf9c,611e07ecdcc96256ae8d5b80,611e793ccbeab693d86ace7b,
,,,,space,0.3165,,0,85,85,308,1,G, , , , ,space,1500,1.5,61169988cf61a1a4c41fdf9c,001,2021-08-19_16h31.29.864,natb3,2021.2.3,Win32,74.95128167,61169988cf61a1a4c41fdf9c,611e07ecdcc96256ae8d5b80,611e793ccbeab693d86ace7b,
,,,,space,0.3824,,0,86,86,332,1,U, , , , ,space,2000,2,61169988cf61a1a4c41fdf9c,001,2021-08-19_16h31.29.864,natb3,2021.2.3,Win32,74.95128167,61169988cf61a1a4c41fdf9c,611e07ecdcc96256ae8d5b80,611e793ccbeab693d86ace7b,
,,,,space,0.3021,,0,87,87,23,1,X,1, ,5, ,,2000,2,61169988cf61a1a4c41fdf9c,001,2021-08-19_16h31.29.864,natb3,2021.2.3,Win32,74.95128167,61169988cf61a1a4c41fdf9c,611e07ecdcc96256ae8d5b80,611e793ccbeab693d86ace7b,
,,,,space,0.4183,,0,88,88,190,1,P, , , , ,space,2000,2,61169988cf61a1a4c41fdf9c,001,2021-08-19_16h31.29.864,natb3,2021.2.3,Win32,74.95128167,61169988cf61a1a4c41fdf9c,611e07ecdcc96256ae8d5b80,611e793ccbeab693d86ace7b,
,,,,space,0.3335,,0,89,89,115,1,R, , , , ,space,1500,1.5,61169988cf61a1a4c41fdf9c,001,2021-08-19_16h31.29.864,natb3,2021.2.3,Win32,74.95128167,61169988cf61a1a4c41fdf9c,611e07ecdcc96256ae8d5b80,611e793ccbeab693d86ace7b,
,,,,space,0.3835,,0,90,90,186,1,U, , , , ,space,2500,2.5,61169988cf61a1a4c41fdf9c,001,2021-08-19_16h31.29.864,natb3,2021.2.3,Win32,74.95128167,61169988cf61a1a4c41fdf9c,611e07ecdcc96256ae8d5b80,611e793ccbeab693d86ace7b,
,,,,space,0.3995,,0,91,91,284,1,V, , , , ,space,2500,2.5,61169988cf61a1a4c41fdf9c,001,2021-08-19_16h31.29.864,natb3,2021.2.3,Win32,74.95128167,61169988cf61a1a4c41fdf9c,611e07ecdcc96256ae8d5b80,611e793ccbeab693d86ace7b,
,,,,space,0.3832,,0,92,92,63,1,B, , , , ,space,2000,2,61169988cf61a1a4c41fdf9c,001,2021-08-19_16h31.29.864,natb3,2021.2.3,Win32,74.95128167,61169988cf61a1a4c41fdf9c,611e07ecdcc96256ae8d5b80,611e793ccbeab693d86ace7b,
,,,,space,0.35,,0,93,93,235,1,A, , , , ,space,1500,1.5,61169988cf61a1a4c41fdf9c,001,2021-08-19_16h31.29.864,natb3,2021.2.3,Win32,74.95128167,61169988cf61a1a4c41fdf9c,611e07ecdcc96256ae8d5b80,611e793ccbeab693d86ace7b,
,,,,space,0.4677,,0,94,94,274,1,F, , , , ,space,2000,2,61169988cf61a1a4c41fdf9c,001,2021-08-19_16h31.29.864,natb3,2021.2.3,Win32,74.95128167,61169988cf61a1a4c41fdf9c,611e07ecdcc96256ae8d5b80,611e793ccbeab693d86ace7b,
,,,,space,0.4016,,0,95,95,155,1,O, , , , ,space,1500,1.5,61169988cf61a1a4c41fdf9c,001,2021-08-19_16h31.29.864,natb3,2021.2.3,Win32,74.95128167,61169988cf61a1a4c41fdf9c,611e07ecdcc96256ae8d5b80,611e793ccbeab693d86ace7b,
,,,,space,0.3842,,0,96,96,290,1,W, , , , ,space,1500,1.5,61169988cf61a1a4c41fdf9c,001,2021-08-19_16h31.29.864,natb3,2021.2.3,Win32,74.95128167,61169988cf61a1a4c41fdf9c,611e07ecdcc96256ae8d5b80,611e793ccbeab693d86ace7b,
,,,,space,0.4167,,0,97,97,41,1,Y, , , , ,space,2500,2.5,61169988cf61a1a4c41fdf9c,001,2021-08-19_16h31.29.864,natb3,2021.2.3,Win32,74.95128167,61169988cf61a1a4c41fdf9c,611e07ecdcc96256ae8d5b80,611e793ccbeab693d86ace7b,
,,,,space,0.4005,,0,98,98,266,1,O, , , , ,space,1500,1.5,61169988cf61a1a4c41fdf9c,001,2021-08-19_16h31.29.864,natb3,2021.2.3,Win32,74.95128167,61169988cf61a1a4c41fdf9c,611e07ecdcc96256ae8d5b80,611e793ccbeab693d86ace7b,
,,,,space,0.3681,,0,99,99,230,1,U, , , , ,space,1500,1.5,61169988cf61a1a4c41fdf9c,001,2021-08-19_16h31.29.864,natb3,2021.2.3,Win32,74.95128167,61169988cf61a1a4c41fdf9c,611e07ecdcc96256ae8d5b80,611e793ccbeab693d86ace7b,
,,,,space,0.4176,,0,100,100,197,1,G, , , , ,space,2500,2.5,61169988cf61a1a4c41fdf9c,001,2021-08-19_16h31.29.864,natb3,2021.2.3,Win32,74.95128167,61169988cf61a1a4c41fdf9c,611e07ecdcc96256ae8d5b80,611e793ccbeab693d86ace7b,
,,,,space,0.3673,,0,101,101,204,1,Z, , , , ,space,2000,2,61169988cf61a1a4c41fdf9c,001,2021-08-19_16h31.29.864,natb3,2021.2.3,Win32,74.95128167,61169988cf61a1a4c41fdf9c,611e07ecdcc96256ae8d5b80,611e793ccbeab693d86ace7b,
,,,,space,0.383,,0,102,102,226,1,R, , , , ,space,2000,2,61169988cf61a1a4c41fdf9c,001,2021-08-19_16h31.29.864,natb3,2021.2.3,Win32,74.95128167,61169988cf61a1a4c41fdf9c,611e07ecdcc96256ae8d5b80,611e793ccbeab693d86ace7b,
,,,,,,,0,103,103,54,1,X, , , , ,,2000,2,61169988cf61a1a4c41fdf9c,001,2021-08-19_16h31.29.864,natb3,2021.2.3,Win32,74.95128167,61169988cf61a1a4c41fdf9c,611e07ecdcc96256ae8d5b80,611e793ccbeab693d86ace7b,
,,,,space,0.4341,,0,104,104,163,1,G, , , , ,space,2500,2.5,61169988cf61a1a4c41fdf9c,001,2021-08-19_16h31.29.864,natb3,2021.2.3,Win32,74.95128167,61169988cf61a1a4c41fdf9c,611e07ecdcc96256ae8d5b80,611e793ccbeab693d86ace7b,
,,,,space,0.3841,,0,105,105,193,1,S, , , , ,space,2500,2.5,61169988cf61a1a4c41fdf9c,001,2021-08-19_16h31.29.864,natb3,2021.2.3,Win32,74.95128167,61169988cf61a1a4c41fdf9c,611e07ecdcc96256ae8d5b80,611e793ccbeab693d86ace7b,
,,,,space,0.4005,,0,106,106,18,1,X, ,2,5,8,,2500,2.5,61169988cf61a1a4c41fdf9c,001,2021-08-19_16h31.29.864,natb3,2021.2.3,Win32,74.95128167,61169988cf61a1a4c41fdf9c,611e07ecdcc96256ae8d5b80,611e793ccbeab693d86ace7b,
,,,,,,,0,107,107,295,1,X,8,7,5, ,,2500,2.5,61169988cf61a1a4c41fdf9c,001,2021-08-19_16h31.29.864,natb3,2021.2.3,Win32,74.95128167,61169988cf61a1a4c41fdf9c,611e07ecdcc96256ae8d5b80,611e793ccbeab693d86ace7b,
,,,,space,0.65,,0,108,108,151,1,Y, , , , ,space,2500,2.5,61169988cf61a1a4c41fdf9c,001,2021-08-19_16h31.29.864,natb3,2021.2.3,Win32,74.95128167,61169988cf61a1a4c41fdf9c,611e07ecdcc96256ae8d5b80,611e793ccbeab693d86ace7b,
,,,,,,,0,109,109,218,1,X,1,3, ,8,,1500,1.5,61169988cf61a1a4c41fdf9c,001,2021-08-19_16h31.29.864,natb3,2021.2.3,Win32,74.95128167,61169988cf61a1a4c41fdf9c,611e07ecdcc96256ae8d5b80,611e793ccbeab693d86ace7b,
,,,,space,0.4843,,0,110,110,167,1,K, , , , ,space,1500,1.5,61169988cf61a1a4c41fdf9c,001,2021-08-19_16h31.29.864,natb3,2021.2.3,Win32,74.95128167,61169988cf61a1a4c41fdf9c,611e07ecdcc96256ae8d5b80,611e793ccbeab693d86ace7b,
,,,,space,0.4682,,0,111,111,219,1,Y, , , , ,space,2000,2,61169988cf61a1a4c41fdf9c,001,2021-08-19_16h31.29.864,natb3,2021.2.3,Win32,74.95128167,61169988cf61a1a4c41fdf9c,611e07ecdcc96256ae8d5b80,611e793ccbeab693d86ace7b,
,,,,space,0.5832,,0,112,112,296,1,Y, , , , ,space,2500,2.5,61169988cf61a1a4c41fdf9c,001,2021-08-19_16h31.29.864,natb3,2021.2.3,Win32,74.95128167,61169988cf61a1a4c41fdf9c,611e07ecdcc96256ae8d5b80,611e793ccbeab693d86ace7b,
,,,,,,,0,113,113,229,1,X,8, ,2,6,,2500,2.5,61169988cf61a1a4c41fdf9c,001,2021-08-19_16h31.29.864,natb3,2021.2.3,Win32,74.95128167,61169988cf61a1a4c41fdf9c,611e07ecdcc96256ae8d5b80,611e793ccbeab693d86ace7b,
,,,,space,0.4514,,0,114,114,164,1,H, , , , ,space,2500,2.5,61169988cf61a1a4c41fdf9c,001,2021-08-19_16h31.29.864,natb3,2021.2.3,Win32,74.95128167,61169988cf61a1a4c41fdf9c,611e07ecdcc96256ae8d5b80,611e793ccbeab693d86ace7b,
,,,,space,0.5846,,0,115,115,134,1,J, , , , ,space,2000,2,61169988cf61a1a4c41fdf9c,001,2021-08-19_16h31.29.864,natb3,2021.2.3,Win32,74.95128167,61169988cf61a1a4c41fdf9c,611e07ecdcc96256ae8d5b80,611e793ccbeab693d86ace7b,
,,,,space,0.5182,,0,116,116,310,1,J, , , , ,space,2500,2.5,61169988cf61a1a4c41fdf9c,001,2021-08-19_16h31.29.864,natb3,2021.2.3,Win32,74.95128167,61169988cf61a1a4c41fdf9c,611e07ecdcc96256ae8d5b80,611e793ccbeab693d86ace7b,
,,,,space,0.3671,,0,117,117,334,1,O, , , , ,space,1500,1.5,61169988cf61a1a4c41fdf9c,001,2021-08-19_16h31.29.864,natb3,2021.2.3,Win32,74.95128167,61169988cf61a1a4c41fdf9c,611e07ecdcc96256ae8d5b80,611e793ccbeab693d86ace7b,
,,,,space,0.4335,,0,118,118,246,1,L, , , , ,space,2500,2.5,61169988cf61a1a4c41fdf9c,001,2021-08-19_16h31.29.864,natb3,2021.2.3,Win32,74.95128167,61169988cf61a1a4c41fdf9c,611e07ecdcc96256ae8d5b80,611e793ccbeab693d86ace7b,
,,,,space,0.3826,,0,119,119,258,1,E, , , , ,space,1500,1.5,61169988cf61a1a4c41fdf9c,001,2021-08-19_16h31.29.864,natb3,2021.2.3,Win32,74.95128167,61169988cf61a1a4c41fdf9c,611e07ecdcc96256ae8d5b80,611e793ccbeab693d86ace7b,
,,,,space,0.4006,,0,120,120,254,1,M, , , , ,space,1500,1.5,61169988cf61a1a4c41fdf9c,001,2021-08-19_16h31.29.864,natb3,2021.2.3,Win32,74.95128167,61169988cf61a1a4c41fdf9c,611e07ecdcc96256ae8d5b80,611e793ccbeab693d86ace7b,
,,,,space,0.351,,0,121,121,90,1,K, , , , ,space,2000,2,61169988cf61a1a4c41fdf9c,001,2021-08-19_16h31.29.864,natb3,2021.2.3,Win32,74.95128167,61169988cf61a1a4c41fdf9c,611e07ecdcc96256ae8d5b80,611e793ccbeab693d86ace7b,
,,,,space,0.3215,,0,122,122,124,1,P, , , , ,space,2000,2,61169988cf61a1a4c41fdf9c,001,2021-08-19_16h31.29.864,natb3,2021.2.3,Win32,74.95128167,61169988cf61a1a4c41fdf9c,611e07ecdcc96256ae8d5b80,611e793ccbeab693d86ace7b,
,,,,space,0.3672,,0,123,123,161,1,F, , , , ,space,1500,1.5,61169988cf61a1a4c41fdf9c,001,2021-08-19_16h31.29.864,natb3,2021.2.3,Win32,74.95128167,61169988cf61a1a4c41fdf9c,611e07ecdcc96256ae8d5b80,611e793ccbeab693d86ace7b,
,,,,space,0.3163,,0,124,124,121,1,I, , , , ,space,2000,2,61169988cf61a1a4c41fdf9c,001,2021-08-19_16h31.29.864,natb3,2021.2.3,Win32,74.95128167,61169988cf61a1a4c41fdf9c,611e07ecdcc96256ae8d5b80,611e793ccbeab693d86ace7b,
,,,,space,0.3675,,0,125,125,280,1,L, , , , ,space,1500,1.5,61169988cf61a1a4c41fdf9c,001,2021-08-19_16h31.29.864,natb3,2021.2.3,Win32,74.95128167,61169988cf61a1a4c41fdf9c,611e07ecdcc96256ae8d5b80,611e793ccbeab693d86ace7b,
,,,,space,0.3495,,0,126,126,318,1,X, , , , ,,1500,1.5,61169988cf61a1a4c41fdf9c,001,2021-08-19_16h31.29.864,natb3,2021.2.3,Win32,74.95128167,61169988cf61a1a4c41fdf9c,611e07ecdcc96256ae8d5b80,611e793ccbeab693d86ace7b,
,,,,space,0.3327,,0,127,127,71,1,R, , , , ,space,2500,2.5,61169988cf61a1a4c41fdf9c,001,2021-08-19_16h31.29.864,natb3,2021.2.3,Win32,74.95128167,61169988cf61a1a4c41fdf9c,611e07ecdcc96256ae8d5b80,611e793ccbeab693d86ace7b,
,,,,space,0.3836,,0,128,128,87,1,H, , , , ,space,1500,1.5,61169988cf61a1a4c41fdf9c,001,2021-08-19_16h31.29.864,natb3,2021.2.3,Win32,74.95128167,61169988cf61a1a4c41fdf9c,611e07ecdcc96256ae8d5b80,611e793ccbeab693d86ace7b,
,,,,space,0.4347,,0,129,129,99,1,N, , , , ,space,2500,2.5,61169988cf61a1a4c41fdf9c,001,2021-08-19_16h31.29.864,natb3,2021.2.3,Win32,74.95128167,61169988cf61a1a4c41fdf9c,611e07ecdcc96256ae8d5b80,611e793ccbeab693d86ace7b,
,,,,,,,0,130,130,315,1,X, , , , ,,2500,2.5,61169988cf61a1a4c41fdf9c,001,2021-08-19_16h31.29.864,natb3,2021.2.3,Win32,74.95128167,61169988cf61a1a4c41fdf9c,611e07ecdcc96256ae8d5b80,611e793ccbeab693d86ace7b,
,,,,space,0.4005,,0,131,131,260,1,R, , , , ,space,2000,2,61169988cf61a1a4c41fdf9c,001,2021-08-19_16h31.29.864,natb3,2021.2.3,Win32,74.95128167,61169988cf61a1a4c41fdf9c,611e07ecdcc96256ae8d5b80,611e793ccbeab693d86ace7b,
,,,,,,,0,132,132,311,1,X,1,2,7,3,,2500,2.5,61169988cf61a1a4c41fdf9c,001,2021-08-19_16h31.29.864,natb3,2021.2.3,Win32,74.95128167,61169988cf61a1a4c41fdf9c,611e07ecdcc96256ae8d5b80,611e793ccbeab693d86ace7b,
,,,,,,,0,133,133,118,1,X, , , , ,,2000,2,61169988cf61a1a4c41fdf9c,001,2021-08-19_16h31.29.864,natb3,2021.2.3,Win32,74.95128167,61169988cf61a1a4c41fdf9c,611e07ecdcc96256ae8d5b80,611e793ccbeab693d86ace7b,
,,,,,,,0,134,134,102,1,X, ,6, , ,,1500,1.5,61169988cf61a1a4c41fdf9c,001,2021-08-19_16h31.29.864,natb3,2021.2.3,Win32,74.95128167,61169988cf61a1a4c41fdf9c,611e07ecdcc96256ae8d5b80,611e793ccbeab693d86ace7b,
,,,,,,,0,135,135,305,1,X, , , , ,,1500,1.5,61169988cf61a1a4c41fdf9c,001,2021-08-19_16h31.29.864,natb3,2021.2.3,Win32,74.95128167,61169988cf61a1a4c41fdf9c,611e07ecdcc96256ae8d5b80,611e793ccbeab693d86ace7b,
,,,,,,,0,136,136,191,1,X,1, ,3,4,,2500,2.5,61169988cf61a1a4c41fdf9c,001,2021-08-19_16h31.29.864,natb3,2021.2.3,Win32,74.95128167,61169988cf61a1a4c41fdf9c,611e07ecdcc96256ae8d5b80,611e793ccbeab693d86ace7b,
,,,,space,0.5657,,0,137,137,146,1,W, , , , ,space,1500,1.5,61169988cf61a1a4c41fdf9c,001,2021-08-19_16h31.29.864,natb3,2021.2.3,Win32,74.95128167,61169988cf61a1a4c41fdf9c,611e07ecdcc96256ae8d5b80,611e793ccbeab693d86ace7b,
,,,,space,0.5501,,0,138,138,184,1,T, , , , ,space,2000,2,61169988cf61a1a4c41fdf9c,001,2021-08-19_16h31.29.864,natb3,2021.2.3,Win32,74.95128167,61169988cf61a1a4c41fdf9c,611e07ecdcc96256ae8d5b80,611e793ccbeab693d86ace7b,
,,,,space,0.4329,,0,139,139,181,1,E, , , , ,space,1500,1.5,61169988cf61a1a4c41fdf9c,001,2021-08-19_16h31.29.864,natb3,2021.2.3,Win32,74.95128167,61169988cf61a1a4c41fdf9c,611e07ecdcc96256ae8d5b80,611e793ccbeab693d86ace7b,
,,,,,,,0,140,140,66,1,X, ,4,7, ,,2000,2,61169988cf61a1a4c41fdf9c,001,2021-08-19_16h31.29.864,natb3,2021.2.3,Win32,74.95128167,61169988cf61a1a4c41fdf9c,611e07ecdcc96256ae8d5b80,611e793ccbeab693d86ace7b,
,,,,space,0.3844,,0,141,141,77,1,O, , , , ,space,2000,2,61169988cf61a1a4c41fdf9c,001,2021-08-19_16h31.29.864,natb3,2021.2.3,Win32,74.95128167,61169988cf61a1a4c41fdf9c,611e07ecdcc96256ae8d5b80,611e793ccbeab693d86ace7b,
,,,,,,,0,142,142,203,1,X, , , , ,,2500,2.5,61169988cf61a1a4c41fdf9c,001,2021-08-19_16h31.29.864,natb3,2021.2.3,Win32,74.95128167,61169988cf61a1a4c41fdf9c,611e07ecdcc96256ae8d5b80,611e793ccbeab693d86ace7b,
,,,,space,0.4664,,0,143,143,75,1,U, , , , ,space,1500,1.5,61169988cf61a1a4c41fdf9c,001,2021-08-19_16h31.29.864,natb3,2021.2.3,Win32,74.95128167,61169988cf61a1a4c41fdf9c,611e07ecdcc96256ae8d5b80,611e793ccbeab693d86ace7b,
,,,,space,0.2847,,0,144,144,166,1,X, , , , ,,2000,2,61169988cf61a1a4c41fdf9c,001,2021-08-19_16h31.29.864,natb3,2021.2.3,Win32,74.95128167,61169988cf61a1a4c41fdf9c,611e07ecdcc96256ae8d5b80,611e793ccbeab693d86ace7b,
,,,,space,0.318,,0,145,145,249,1,C, , , , ,space,2000,2,61169988cf61a1a4c41fdf9c,001,2021-08-19_16h31.29.864,natb3,2021.2.3,Win32,74.95128167,61169988cf61a1a4c41fdf9c,611e07ecdcc96256ae8d5b80,611e793ccbeab693d86ace7b,
,,,,,,,0,146,146,282,1,X, , , , ,,2500,2.5,61169988cf61a1a4c41fdf9c,001,2021-08-19_16h31.29.864,natb3,2021.2.3,Win32,74.95128167,61169988cf61a1a4c41fdf9c,611e07ecdcc96256ae8d5b80,611e793ccbeab693d86ace7b,
,,,,,,,0,147,147,248,1,X, ,1,5, ,,1500,1.5,61169988cf61a1a4c41fdf9c,001,2021-08-19_16h31.29.864,natb3,2021.2.3,Win32,74.95128167,61169988cf61a1a4c41fdf9c,611e07ecdcc96256ae8d5b80,611e793ccbeab693d86ace7b,
,,,,space,0.4672,,0,148,148,76,1,I, , , , ,space,2000,2,61169988cf61a1a4c41fdf9c,001,2021-08-19_16h31.29.864,natb3,2021.2.3,Win32,74.95128167,61169988cf61a1a4c41fdf9c,611e07ecdcc96256ae8d5b80,611e793ccbeab693d86ace7b,
,,,,,,,0,149,149,33,1,X, , , , ,,1500,1.5,61169988cf61a1a4c41fdf9c,001,2021-08-19_16h31.29.864,natb3,2021.2.3,Win32,74.95128167,61169988cf61a1a4c41fdf9c,611e07ecdcc96256ae8d5b80,611e793ccbeab693d86ace7b,
,,,,space,0.5017,,0,150,150,227,1,T, , , , ,space,1500,1.5,61169988cf61a1a4c41fdf9c,001,2021-08-19_16h31.29.864,natb3,2021.2.3,Win32,74.95128167,61169988cf61a1a4c41fdf9c,611e07ecdcc96256ae8d5b80,611e793ccbeab693d86ace7b,
,,,,space,0.434,,0,151,151,220,1,U, , , , ,space,2500,2.5,61169988cf61a1a4c41fdf9c,001,2021-08-19_16h31.29.864,natb3,2021.2.3,Win32,74.95128167,61169988cf61a1a4c41fdf9c,611e07ecdcc96256ae8d5b80,611e793ccbeab693d86ace7b,
,,,,space,0.5337,,0,152,152,300,1,O, , , , ,space,2500,2.5,61169988cf61a1a4c41fdf9c,001,2021-08-19_16h31.29.864,natb3,2021.2.3,Win32,74.95128167,61169988cf61a1a4c41fdf9c,611e07ecdcc96256ae8d5b80,611e793ccbeab693d86ace7b,
,,,,space,0.5067,,0,153,153,172,1,C, , , , ,space,1500,1.5,61169988cf61a1a4c41fdf9c,001,2021-08-19_16h31.29.864,natb3,2021.2.3,Win32,74.95128167,61169988cf61a1a4c41fdf9c,611e07ecdcc96256ae8d5b80,611e793ccbeab693d86ace7b,
,,,,space,0.4844,,0,154,154,83,1,D, , , , ,space,2000,2,61169988cf61a1a4c41fdf9c,001,2021-08-19_16h31.29.864,natb3,2021.2.3,Win32,74.95128167,61169988cf61a1a4c41fdf9c,611e07ecdcc96256ae8d5b80,611e793ccbeab693d86ace7b,
,,,,space,0.5643,,0,155,155,128,1,D, , , , ,space,2500,2.5,61169988cf61a1a4c41fdf9c,001,2021-08-19_16h31.29.864,natb3,2021.2.3,Win32,74.95128167,61169988cf61a1a4c41fdf9c,611e07ecdcc96256ae8d5b80,611e793ccbeab693d86ace7b,
,,,,space,0.5005,,0,156,156,105,1,R, , , , ,space,2500,2.5,61169988cf61a1a4c41fdf9c,001,2021-08-19_16h31.29.864,natb3,2021.2.3,Win32,74.95128167,61169988cf61a1a4c41fdf9c,611e07ecdcc96256ae8d5b80,611e793ccbeab693d86ace7b,
,,,,space,0.5083,,0,157,157,292,1,E, , , , ,space,2000,2,61169988cf61a1a4c41fdf9c,001,2021-08-19_16h31.29.864,natb3,2021.2.3,Win32,74.95128167,61169988cf61a1a4c41fdf9c,611e07ecdcc96256ae8d5b80,611e793ccbeab693d86ace7b,
,,,,,,,0,158,158,31,1,X, , , , ,,1500,1.5,61169988cf61a1a4c41fdf9c,001,2021-08-19_16h31.29.864,natb3,2021.2.3,Win32,74.95128167,61169988cf61a1a4c41fdf9c,611e07ecdcc96256ae8d5b80,611e793ccbeab693d86ace7b,
,,,,space,0.5349,,0,159,159,231,1,I, , , , ,space,2500,2.5,61169988cf61a1a4c41fdf9c,001,2021-08-19_16h31.29.864,natb3,2021.2.3,Win32,74.95128167,61169988cf61a1a4c41fdf9c,611e07ecdcc96256ae8d5b80,611e793ccbeab693d86ace7b,
,,,,space,0.4999,,0,160,160,19,1,G, , , , ,space,1500,1.5,61169988cf61a1a4c41fdf9c,001,2021-08-19_16h31.29.864,natb3,2021.2.3,Win32,74.95128167,61169988cf61a1a4c41fdf9c,611e07ecdcc96256ae8d5b80,611e793ccbeab693d86ace7b,
,,,,,,,0,161,161,233,1,X, ,2, ,5,,1500,1.5,61169988cf61a1a4c41fdf9c,001,2021-08-19_16h31.29.864,natb3,2021.2.3,Win32,74.95128167,61169988cf61a1a4c41fdf9c,611e07ecdcc96256ae8d5b80,611e793ccbeab693d86ace7b,
,,,,space,0.4171,,0,162,162,275,1,G, , , , ,space,1500,1.5,61169988cf61a1a4c41fdf9c,001,2021-08-19_16h31.29.864,natb3,2021.2.3,Win32,74.95128167,61169988cf61a1a4c41fdf9c,611e07ecdcc96256ae8d5b80,611e793ccbeab693d86ace7b,
,,,,space,0.3857,,0,163,163,69,1,X, , , , ,,1500,1.5,61169988cf61a1a4c41fdf9c,001,2021-08-19_16h31.29.864,natb3,2021.2.3,Win32,74.95128167,61169988cf61a1a4c41fdf9c,611e07ecdcc96256ae8d5b80,611e793ccbeab693d86ace7b,
,,,,,,,0,164,164,7,1,X, , , , ,,1500,1.5,61169988cf61a1a4c41fdf9c,001,2021-08-19_16h31.29.864,natb3,2021.2.3,Win32,74.95128167,61169988cf61a1a4c41fdf9c,611e07ecdcc96256ae8d5b80,611e793ccbeab693d86ace7b,
,,,,space,0.4837,,0,165,165,328,1,R, , , , ,space,1500,1.5,61169988cf61a1a4c41fdf9c,001,2021-08-19_16h31.29.864,natb3,2021.2.3,Win32,74.95128167,61169988cf61a1a4c41fdf9c,611e07ecdcc96256ae8d5b80,611e793ccbeab693d86ace7b,
,,,,space,0.4669,,0,166,166,24,1,L, , , , ,space,2500,2.5,61169988cf61a1a4c41fdf9c,001,2021-08-19_16h31.29.864,natb3,2021.2.3,Win32,74.95128167,61169988cf61a1a4c41fdf9c,611e07ecdcc96256ae8d5b80,611e793ccbeab693d86ace7b,
,,,,space,0.5155,space,0,167,167,212,1,Q, , , , ,space,2500,2.5,61169988cf61a1a4c41fdf9c,001,2021-08-19_16h31.29.864,natb3,2021.2.3,Win32,74.95128167,61169988cf61a1a4c41fdf9c,611e07ecdcc96256ae8d5b80,611e793ccbeab693d86ace7b,22.5342
,,,,space,0.5501,,0,168,168,91,1,L, , , , ,space,2000,2,61169988cf61a1a4c41fdf9c,001,2021-08-19_16h31.29.864,natb3,2021.2.3,Win32,74.95128167,61169988cf61a1a4c41fdf9c,611e07ecdcc96256ae8d5b80,611e793ccbeab693d86ace7b,
,,,,space,0.4003,,0,169,169,223,1,Q, , , , ,space,2000,2,61169988cf61a1a4c41fdf9c,001,2021-08-19_16h31.29.864,natb3,2021.2.3,Win32,74.95128167,61169988cf61a1a4c41fdf9c,611e07ecdcc96256ae8d5b80,611e793ccbeab693d86ace7b,
,,,,space,0.4513,,0,170,170,217,1,T, , , , ,space,2500,2.5,61169988cf61a1a4c41fdf9c,001,2021-08-19_16h31.29.864,natb3,2021.2.3,Win32,74.95128167,61169988cf61a1a4c41fdf9c,611e07ecdcc96256ae8d5b80,611e793ccbeab693d86ace7b,
,,,,space,0.4155,,0,171,171,250,1,V, , , , ,space,2000,2,61169988cf61a1a4c41fdf9c,001,2021-08-19_16h31.29.864,natb3,2021.2.3,Win32,74.95128167,61169988cf61a1a4c41fdf9c,611e07ecdcc96256ae8d5b80,611e793ccbeab693d86ace7b,
,,,,space,0.5326,,0,172,172,188,1,I, , , , ,space,2500,2.5,61169988cf61a1a4c41fdf9c,001,2021-08-19_16h31.29.864,natb3,2021.2.3,Win32,74.95128167,61169988cf61a1a4c41fdf9c,611e07ecdcc96256ae8d5b80,611e793ccbeab693d86ace7b,
,,,,space,0.4162,,0,173,173,21,1,J, , , , ,space,1500,1.5,61169988cf61a1a4c41fdf9c,001,2021-08-19_16h31.29.864,natb3,2021.2.3,Win32,74.95128167,61169988cf61a1a4c41fdf9c,611e07ecdcc96256ae8d5b80,611e793ccbeab693d86ace7b,
,,,,,,,0,174,174,277,1,X,8,5, ,2,,2000,2,61169988cf61a1a4c41fdf9c,001,2021-08-19_16h31.29.864,natb3,2021.2.3,Win32,74.95128167,61169988cf61a1a4c41fdf9c,611e07ecdcc96256ae8d5b80,611e793ccbeab693d86ace7b,
,,,,space,0.4667,,0,175,175,304,1,S, , , , ,space,2000,2,61169988cf61a1a4c41fdf9c,001,2021-08-19_16h31.29.864,natb3,2021.2.3,Win32,74.95128167,61169988cf61a1a4c41fdf9c,611e07ecdcc96256ae8d5b80,611e793ccbeab693d86ace7b,
,,,,space,0.6005,,0,176,176,130,1,F, , , , ,space,2000,2,61169988cf61a1a4c41fdf9c,001,2021-08-19_16h31.29.864,natb3,2021.2.3,Win32,74.95128167,61169988cf61a1a4c41fdf9c,611e07ecdcc96256ae8d5b80,611e793ccbeab693d86ace7b,
,,,,space,0.5002,,0,177,177,6,1,Y, , , , ,space,2500,2.5,61169988cf61a1a4c41fdf9c,001,2021-08-19_16h31.29.864,natb3,2021.2.3,Win32,74.95128167,61169988cf61a1a4c41fdf9c,611e07ecdcc96256ae8d5b80,611e793ccbeab693d86ace7b,
,,,,space,0.5842,,0,178,178,34,1,Q, , , , ,space,2500,2.5,61169988cf61a1a4c41fdf9c,001,2021-08-19_16h31.29.864,natb3,2021.2.3,Win32,74.95128167,61169988cf61a1a4c41fdf9c,611e07ecdcc96256ae8d5b80,611e793ccbeab693d86ace7b,
,,,,,,,0,179,179,325,1,X, , , , ,,2500,2.5,61169988cf61a1a4c41fdf9c,001,2021-08-19_16h31.29.864,natb3,2021.2.3,Win32,74.95128167,61169988cf61a1a4c41fdf9c,611e07ecdcc96256ae8d5b80,611e793ccbeab693d86ace7b,
,,,,space,0.4664,,0,180,180,113,1,W, , , , ,space,2500,2.5,61169988cf61a1a4c41fdf9c,001,2021-08-19_16h31.29.864,natb3,2021.2.3,Win32,74.95128167,61169988cf61a1a4c41fdf9c,611e07ecdcc96256ae8d5b80,611e793ccbeab693d86ace7b,
,,,,,,,0,181,181,291,1,X, , , , ,,2000,2,61169988cf61a1a4c41fdf9c,001,2021-08-19_16h31.29.864,natb3,2021.2.3,Win32,74.95128167,61169988cf61a1a4c41fdf9c,611e07ecdcc96256ae8d5b80,611e793ccbeab693d86ace7b,
,,,,space,0.5334,,0,182,182,97,1,B, , , , ,space,2500,2.5,61169988cf61a1a4c41fdf9c,001,2021-08-19_16h31.29.864,natb3,2021.2.3,Win32,74.95128167,61169988cf61a1a4c41fdf9c,611e07ecdcc96256ae8d5b80,611e793ccbeab693d86ace7b,
,,,,space,0.5665,,0,183,183,62,1,V, , , , ,space,1500,1.5,61169988cf61a1a4c41fdf9c,001,2021-08-19_16h31.29.864,natb3,2021.2.3,Win32,74.95128167,61169988cf61a1a4c41fdf9c,611e07ecdcc96256ae8d5b80,611e793ccbeab693d86ace7b,
,,,,space,0.4507,,0,184,184,20,1,H, , , , ,space,1500,1.5,61169988cf61a1a4c41fdf9c,001,2021-08-19_16h31.29.864,natb3,2021.2.3,Win32,74.95128167,61169988cf61a1a4c41fdf9c,611e07ecdcc96256ae8d5b80,611e793ccbeab693d86ace7b,
,,,,space,0.5851,,0,185,185,29,1,B, , , , ,space,1500,1.5,61169988cf61a1a4c41fdf9c,001,2021-08-19_16h31.29.864,natb3,2021.2.3,Win32,74.95128167,61169988cf61a1a4c41fdf9c,611e07ecdcc96256ae8d5b80,611e793ccbeab693d86ace7b,
,,,,space,0.4334,,0,186,186,132,1,H, , , , ,space,2500,2.5,61169988cf61a1a4c41fdf9c,001,2021-08-19_16h31.29.864,natb3,2021.2.3,Win32,74.95128167,61169988cf61a1a4c41fdf9c,611e07ecdcc96256ae8d5b80,611e793ccbeab693d86ace7b,
,,,,space,0.4998,,0,187,187,116,1,X, , , , ,,2000,2,61169988cf61a1a4c41fdf9c,001,2021-08-19_16h31.29.864,natb3,2021.2.3,Win32,74.95128167,61169988cf61a1a4c41fdf9c,611e07ecdcc96256ae8d5b80,611e793ccbeab693d86ace7b,
,,,,,,,0,188,188,43,1,X, ,6, ,2,,2500,2.5,61169988cf61a1a4c41fdf9c,001,2021-08-19_16h31.29.864,natb3,2021.2.3,Win32,74.95128167,61169988cf61a1a4c41fdf9c,611e07ecdcc96256ae8d5b80,611e793ccbeab693d86ace7b,
,,,,,,,0,189,189,107,1,X,9,3, ,2,,2000,2,61169988cf61a1a4c41fdf9c,001,2021-08-19_16h31.29.864,natb3,2021.2.3,Win32,74.95128167,61169988cf61a1a4c41fdf9c,611e07ecdcc96256ae8d5b80,611e793ccbeab693d86ace7b,
,,,,space,0.4684,,0,190,190,14,1,S, , , , ,space,2500,2.5,61169988cf61a1a4c41fdf9c,001,2021-08-19_16h31.29.864,natb3,2021.2.3,Win32,74.95128167,61169988cf61a1a4c41fdf9c,611e07ecdcc96256ae8d5b80,611e793ccbeab693d86ace7b,
,,,,space,0.9342,,0,191,191,320,1,B, , , , ,space,1500,1.5,61169988cf61a1a4c41fdf9c,001,2021-08-19_16h31.29.864,natb3,2021.2.3,Win32,74.95128167,61169988cf61a1a4c41fdf9c,611e07ecdcc96256ae8d5b80,611e793ccbeab693d86ace7b,
,,,,space,0.6164,,0,192,192,298,1,I, , , , ,space,2000,2,61169988cf61a1a4c41fdf9c,001,2021-08-19_16h31.29.864,natb3,2021.2.3,Win32,74.95128167,61169988cf61a1a4c41fdf9c,611e07ecdcc96256ae8d5b80,611e793ccbeab693d86ace7b,
,,,,space,0.5996,,0,193,193,319,1,V, , , , ,space,2000,2,61169988cf61a1a4c41fdf9c,001,2021-08-19_16h31.29.864,natb3,2021.2.3,Win32,74.95128167,61169988cf61a1a4c41fdf9c,611e07ecdcc96256ae8d5b80,611e793ccbeab693d86ace7b,
,,,,space,0.5503,,0,194,194,53,1,G, , , , ,space,2500,2.5,61169988cf61a1a4c41fdf9c,001,2021-08-19_16h31.29.864,natb3,2021.2.3,Win32,74.95128167,61169988cf61a1a4c41fdf9c,611e07ecdcc96256ae8d5b80,611e793ccbeab693d86ace7b,
,,,,space,0.5507,,0,195,195,160,1,D, , , , ,space,1500,1.5,61169988cf61a1a4c41fdf9c,001,2021-08-19_16h31.29.864,natb3,2021.2.3,Win32,74.95128167,61169988cf61a1a4c41fdf9c,611e07ecdcc96256ae8d5b80,611e793ccbeab693d86ace7b,
,,,,space,0.4013,,0,196,196,112,1,Q, , , , ,space,2500,2.5,61169988cf61a1a4c41fdf9c,001,2021-08-19_16h31.29.864,natb3,2021.2.3,Win32,74.95128167,61169988cf61a1a4c41fdf9c,611e07ecdcc96256ae8d5b80,611e793ccbeab693d86ace7b,
,,,,space,0.483,,0,197,197,270,1,S, , , , ,space,1500,1.5,61169988cf61a1a4c41fdf9c,001,2021-08-19_16h31.29.864,natb3,2021.2.3,Win32,74.95128167,61169988cf61a1a4c41fdf9c,611e07ecdcc96256ae8d5b80,611e793ccbeab693d86ace7b,
,,,,,,,0,198,198,35,1,X, , , , ,,2500,2.5,61169988cf61a1a4c41fdf9c,001,2021-08-19_16h31.29.864,natb3,2021.2.3,Win32,74.95128167,61169988cf61a1a4c41fdf9c,611e07ecdcc96256ae8d5b80,611e793ccbeab693d86ace7b,
,,,,space,0.5174,,0,199,199,42,1,U, , , , ,space,1500,1.5,61169988cf61a1a4c41fdf9c,001,2021-08-19_16h31.29.864,natb3,2021.2.3,Win32,74.95128167,61169988cf61a1a4c41fdf9c,611e07ecdcc96256ae8d5b80,611e793ccbeab693d86ace7b,
,,,,space,0.5419,,0,200,200,28,1,V, , , , ,space,1500,1.5,61169988cf61a1a4c41fdf9c,001,2021-08-19_16h31.29.864,natb3,2021.2.3,Win32,74.95128167,61169988cf61a1a4c41fdf9c,611e07ecdcc96256ae8d5b80,611e793ccbeab693d86ace7b,
,,,,space,0.466,,0,201,201,55,1,H, , , , ,space,2500,2.5,61169988cf61a1a4c41fdf9c,001,2021-08-19_16h31.29.864,natb3,2021.2.3,Win32,74.95128167,61169988cf61a1a4c41fdf9c,611e07ecdcc96256ae8d5b80,611e793ccbeab693d86ace7b,
,,,,space,0.5322,,0,202,202,126,1,A, , , , ,space,2500,2.5,61169988cf61a1a4c41fdf9c,001,2021-08-19_16h31.29.864,natb3,2021.2.3,Win32,74.95128167,61169988cf61a1a4c41fdf9c,611e07ecdcc96256ae8d5b80,611e793ccbeab693d86ace7b,
,,,,,,,0,203,203,179,1,X, ,9, ,2,,1500,1.5,61169988cf61a1a4c41fdf9c,001,2021-08-19_16h31.29.864,natb3,2021.2.3,Win32,74.95128167,61169988cf61a1a4c41fdf9c,611e07ecdcc96256ae8d5b80,611e793ccbeab693d86ace7b,
,,,,space,0.5014,,0,204,204,145,1,X, , , , ,,2000,2,61169988cf61a1a4c41fdf9c,001,2021-08-19_16h31.29.864,natb3,2021.2.3,Win32,74.95128167,61169988cf61a1a4c41fdf9c,611e07ecdcc96256ae8d5b80,611e793ccbeab693d86ace7b,
,,,,space,0.7012,,0,205,205,285,1,B, , , , ,space,1500,1.5,61169988cf61a1a4c41fdf9c,001,2021-08-19_16h31.29.864,natb3,2021.2.3,Win32,74.95128167,61169988cf61a1a4c41fdf9c,611e07ecdcc96256ae8d5b80,611e793ccbeab693d86ace7b,
,,,,space,0.5421,,0,206,206,202,1,L, , , , ,space,2500,2.5,61169988cf61a1a4c41fdf9c,001,2021-08-19_16h31.29.864,natb3,2021.2.3,Win32,74.95128167,61169988cf61a1a4c41fdf9c,611e07ecdcc96256ae8d5b80,611e793ccbeab693d86ace7b,
,,,,space,0.4994,,0,207,207,110,1,I, , , , ,space,1500,1.5,61169988cf61a1a4c41fdf9c,001,2021-08-19_16h31.29.864,natb3,2021.2.3,Win32,74.95128167,61169988cf61a1a4c41fdf9c,611e07ecdcc96256ae8d5b80,611e793ccbeab693d86ace7b,
,,,,space,0.4498,,0,208,208,206,1,V, , , , ,space,2000,2,61169988cf61a1a4c41fdf9c,001,2021-08-19_16h31.29.864,natb3,2021.2.3,Win32,74.95128167,61169988cf61a1a4c41fdf9c,611e07ecdcc96256ae8d5b80,611e793ccbeab693d86ace7b,
,,,,space,0.4674,,0,209,209,16,1,D, , , , ,space,1500,1.5,61169988cf61a1a4c41fdf9c,001,2021-08-19_16h31.29.864,natb3,2021.2.3,Win32,74.95128167,61169988cf61a1a4c41fdf9c,611e07ecdcc96256ae8d5b80,611e793ccbeab693d86ace7b,
,,,,space,0.4173,,0,210,210,88,1,J, , , , ,space,2500,2.5,61169988cf61a1a4c41fdf9c,001,2021-08-19_16h31.29.864,natb3,2021.2.3,Win32,74.95128167,61169988cf61a1a4c41fdf9c,611e07ecdcc96256ae8d5b80,611e793ccbeab693d86ace7b,
,,,,space,0.4014,,0,211,211,241,1,G, , , , ,space,2500,2.5,61169988cf61a1a4c41fdf9c,001,2021-08-19_16h31.29.864,natb3,2021.2.3,Win32,74.95128167,61169988cf61a1a4c41fdf9c,611e07ecdcc96256ae8d5b80,611e793ccbeab693d86ace7b,
,,,,,,,0,212,212,271,1,X, , , , ,,2500,2.5,61169988cf61a1a4c41fdf9c,001,2021-08-19_16h31.29.864,natb3,2021.2.3,Win32,74.95128167,61169988cf61a1a4c41fdf9c,611e07ecdcc96256ae8d5b80,611e793ccbeab693d86ace7b,
,,,,,,,0,213,213,175,1,X,7, ,4,2,,1500,1.5,61169988cf61a1a4c41fdf9c,001,2021-08-19_16h31.29.864,natb3,2021.2.3,Win32,74.95128167,61169988cf61a1a4c41fdf9c,611e07ecdcc96256ae8d5b80,611e793ccbeab693d86ace7b,
,,,,space,0.4852,,0,214,214,267,1,P, , , , ,space,2000,2,61169988cf61a1a4c41fdf9c,001,2021-08-19_16h31.29.864,natb3,2021.2.3,Win32,74.95128167,61169988cf61a1a4c41fdf9c,611e07ecdcc96256ae8d5b80,611e793ccbeab693d86ace7b,
,,,,space,0.433,,0,215,215,210,1,M, , , , ,space,1500,1.5,61169988cf61a1a4c41fdf9c,001,2021-08-19_16h31.29.864,natb3,2021.2.3,Win32,74.95128167,61169988cf61a1a4c41fdf9c,611e07ecdcc96256ae8d5b80,611e793ccbeab693d86ace7b,
,,,,space,0.4013,,0,216,216,26,1,C, , , , ,space,2000,2,61169988cf61a1a4c41fdf9c,001,2021-08-19_16h31.29.864,natb3,2021.2.3,Win32,74.95128167,61169988cf61a1a4c41fdf9c,611e07ecdcc96256ae8d5b80,611e793ccbeab693d86ace7b,
,,,,space,0.4674,,0,217,217,144,1,Q, , , , ,space,2500,2.5,61169988cf61a1a4c41fdf9c,001,2021-08-19_16h31.29.864,natb3,2021.2.3,Win32,74.95128167,61169988cf61a1a4c41fdf9c,611e07ecdcc96256ae8d5b80,611e793ccbeab693d86ace7b,
,,,,space,0.4005,,0,218,218,123,1,O, , , , ,space,1500,1.5,61169988cf61a1a4c41fdf9c,001,2021-08-19_16h31.29.864,natb3,2021.2.3,Win32,74.95128167,61169988cf61a1a4c41fdf9c,611e07ecdcc96256ae8d5b80,611e793ccbeab693d86ace7b,
,,,,space,0.5364,,0,219,219,215,1,E, , , , ,space,2500,2.5,61169988cf61a1a4c41fdf9c,001,2021-08-19_16h31.29.864,natb3,2021.2.3,Win32,74.95128167,61169988cf61a1a4c41fdf9c,611e07ecdcc96256ae8d5b80,611e793ccbeab693d86ace7b,
,,,,space,0.5513,,0,220,220,232,1,O, , , , ,space,2500,2.5,61169988cf61a1a4c41fdf9c,001,2021-08-19_16h31.29.864,natb3,2021.2.3,Win32,74.95128167,61169988cf61a1a4c41fdf9c,611e07ecdcc96256ae8d5b80,611e793ccbeab693d86ace7b,
,,,,,,,0,221,221,125,1,X, , , , ,,2000,2,61169988cf61a1a4c41fdf9c,001,2021-08-19_16h31.29.864,natb3,2021.2.3,Win32,74.95128167,61169988cf61a1a4c41fdf9c,611e07ecdcc96256ae8d5b80,611e793ccbeab693d86ace7b,
,,,,space,0.5167,,0,222,222,119,1,Y, , , , ,space,2500,2.5,61169988cf61a1a4c41fdf9c,001,2021-08-19_16h31.29.864,natb3,2021.2.3,Win32,74.95128167,61169988cf61a1a4c41fdf9c,611e07ecdcc96256ae8d5b80,611e793ccbeab693d86ace7b,
,,,,space,0.4185,,0,223,223,100,1,M, , , , ,space,2000,2,61169988cf61a1a4c41fdf9c,001,2021-08-19_16h31.29.864,natb3,2021.2.3,Win32,74.95128167,61169988cf61a1a4c41fdf9c,611e07ecdcc96256ae8d5b80,611e793ccbeab693d86ace7b,
,,,,space,0.5874,,0,224,224,120,1,U, , , , ,space,1500,1.5,61169988cf61a1a4c41fdf9c,001,2021-08-19_16h31.29.864,natb3,2021.2.3,Win32,74.95128167,61169988cf61a1a4c41fdf9c,611e07ecdcc96256ae8d5b80,611e793ccbeab693d86ace7b,
,,,,space,0.5169,,0,225,225,238,1,D, , , , ,space,1500,1.5,61169988cf61a1a4c41fdf9c,001,2021-08-19_16h31.29.864,natb3,2021.2.3,Win32,74.95128167,61169988cf61a1a4c41fdf9c,611e07ecdcc96256ae8d5b80,611e793ccbeab693d86ace7b,
,,,,space,0.4999,,0,226,226,9,1,I, , , , ,space,1500,1.5,61169988cf61a1a4c41fdf9c,001,2021-08-19_16h31.29.864,natb3,2021.2.3,Win32,74.95128167,61169988cf61a1a4c41fdf9c,611e07ecdcc96256ae8d5b80,611e793ccbeab693d86ace7b,
,,,,space,0.634,,0,227,227,234,1,P, , , , ,space,2000,2,61169988cf61a1a4c41fdf9c,001,2021-08-19_16h31.29.864,natb3,2021.2.3,Win32,74.95128167,61169988cf61a1a4c41fdf9c,611e07ecdcc96256ae8d5b80,611e793ccbeab693d86ace7b,
,,,,space,0.3841,,0,228,228,135,1,K, , , , ,space,1500,1.5,61169988cf61a1a4c41fdf9c,001,2021-08-19_16h31.29.864,natb3,2021.2.3,Win32,74.95128167,61169988cf61a1a4c41fdf9c,611e07ecdcc96256ae8d5b80,611e793ccbeab693d86ace7b,
,,,,space,0.401,,0,229,229,127,1,S, , , , ,space,2500,2.5,61169988cf61a1a4c41fdf9c,001,2021-08-19_16h31.29.864,natb3,2021.2.3,Win32,74.95128167,61169988cf61a1a4c41fdf9c,611e07ecdcc96256ae8d5b80,611e793ccbeab693d86ace7b,
,,,,space,0.3675,,0,230,230,326,1,W, , , , ,space,2000,2,61169988cf61a1a4c41fdf9c,001,2021-08-19_16h31.29.864,natb3,2021.2.3,Win32,74.95128167,61169988cf61a1a4c41fdf9c,611e07ecdcc96256ae8d5b80,611e793ccbeab693d86ace7b,
,,,,,,,0,231,231,263,1,X,4, ,6, ,,1500,1.5,61169988cf61a1a4c41fdf9c,001,2021-08-19_16h31.29.864,natb3,2021.2.3,Win32,74.95128167,61169988cf61a1a4c41fdf9c,611e07ecdcc96256ae8d5b80,611e793ccbeab693d86ace7b,
,,,,space,0.4349,,0,232,232,242,1,H, , , , ,space,2500,2.5,61169988cf61a1a4c41fdf9c,001,2021-08-19_16h31.29.864,natb3,2021.2.3,Win32,74.95128167,61169988cf61a1a4c41fdf9c,611e07ecdcc96256ae8d5b80,611e793ccbeab693d86ace7b,
,,,,,,,0,233,233,141,1,X,1, ,4,6,,1500,1.5,61169988cf61a1a4c41fdf9c,001,2021-08-19_16h31.29.864,natb3,2021.2.3,Win32,74.95128167,61169988cf61a1a4c41fdf9c,611e07ecdcc96256ae8d5b80,611e793ccbeab693d86ace7b,
,,,,space,0.451,,0,234,234,330,1,T, , , , ,space,2500,2.5,61169988cf61a1a4c41fdf9c,001,2021-08-19_16h31.29.864,natb3,2021.2.3,Win32,74.95128167,61169988cf61a1a4c41fdf9c,611e07ecdcc96256ae8d5b80,611e793ccbeab693d86ace7b,
,,,,,,,0,235,235,51,1,X,7,5,8, ,,1500,1.5,61169988cf61a1a4c41fdf9c,001,2021-08-19_16h31.29.864,natb3,2021.2.3,Win32,74.95128167,61169988cf61a1a4c41fdf9c,611e07ecdcc96256ae8d5b80,611e793ccbeab693d86ace7b,
,,,,space,0.6007,,0,236,236,159,1,S, , , , ,space,2500,2.5,61169988cf61a1a4c41fdf9c,001,2021-08-19_16h31.29.864,natb3,2021.2.3,Win32,74.95128167,61169988cf61a1a4c41fdf9c,611e07ecdcc96256ae8d5b80,611e793ccbeab693d86ace7b,
,,,,space,0.3851,,0,237,237,117,1,T, , , , ,space,2500,2.5,61169988cf61a1a4c41fdf9c,001,2021-08-19_16h31.29.864,natb3,2021.2.3,Win32,74.95128167,61169988cf61a1a4c41fdf9c,611e07ecdcc96256ae8d5b80,611e793ccbeab693d86ace7b,
,,,,space,0.3664,,0,238,238,240,1,F, , , , ,space,2500,2.5,61169988cf61a1a4c41fdf9c,001,2021-08-19_16h31.29.864,natb3,2021.2.3,Win32,74.95128167,61169988cf61a1a4c41fdf9c,611e07ecdcc96256ae8d5b80,611e793ccbeab693d86ace7b,
,,,,space,0.3669,,0,239,239,56,1,J, , , , ,space,1500,1.5,61169988cf61a1a4c41fdf9c,001,2021-08-19_16h31.29.864,natb3,2021.2.3,Win32,74.95128167,61169988cf61a1a4c41fdf9c,611e07ecdcc96256ae8d5b80,611e793ccbeab693d86ace7b,
,,,,,,,0,240,240,4,1,X, , , , ,,2000,2,61169988cf61a1a4c41fdf9c,001,2021-08-19_16h31.29.864,natb3,2021.2.3,Win32,74.95128167,61169988cf61a1a4c41fdf9c,611e07ecdcc96256ae8d5b80,611e793ccbeab693d86ace7b,
,,,,space,0.3837,,0,241,241,59,1,Z, , , , ,space,2000,2,61169988cf61a1a4c41fdf9c,001,2021-08-19_16h31.29.864,natb3,2021.2.3,Win32,74.95128167,61169988cf61a1a4c41fdf9c,611e07ecdcc96256ae8d5b80,611e793ccbeab693d86ace7b,
,,,,space,0.4158,,0,242,242,306,1,D, , , , ,space,2000,2,61169988cf61a1a4c41fdf9c,001,2021-08-19_16h31.29.864,natb3,2021.2.3,Win32,74.95128167,61169988cf61a1a4c41fdf9c,611e07ecdcc96256ae8d5b80,611e793ccbeab693d86ace7b,
,,,,space,0.5062,,0,243,243,111,1,O, , , , ,space,2000,2,61169988cf61a1a4c41fdf9c,001,2021-08-19_16h31.29.864,natb3,2021.2.3,Win32,74.95128167,61169988cf61a1a4c41fdf9c,611e07ecdcc96256ae8d5b80,611e793ccbeab693d86ace7b,
,,,,space,0.3673,,0,244,244,139,1,V, , , , ,space,2000,2,61169988cf61a1a4c41fdf9c,001,2021-08-19_16h31.29.864,natb3,2021.2.3,Win32,74.95128167,61169988cf61a1a4c41fdf9c,611e07ecdcc96256ae8d5b80,611e793ccbeab693d86ace7b,
,,,,space,0.3086,,0,245,245,297,1,U, , , , ,space,2000,2,61169988cf61a1a4c41fdf9c,001,2021-08-19_16h31.29.864,natb3,2021.2.3,Win32,74.95128167,61169988cf61a1a4c41fdf9c,611e07ecdcc96256ae8d5b80,611e793ccbeab693d86ace7b,
,,,,,,,0,246,246,236,1,X,3, ,4,7,,2500,2.5,61169988cf61a1a4c41fdf9c,001,2021-08-19_16h31.29.864,natb3,2021.2.3,Win32,74.95128167,61169988cf61a1a4c41fdf9c,611e07ecdcc96256ae8d5b80,611e793ccbeab693d86ace7b,
,,,,space,0.5009,,0,247,247,109,1,U, , , , ,space,1500,1.5,61169988cf61a1a4c41fdf9c,001,2021-08-19_16h31.29.864,natb3,2021.2.3,Win32,74.95128167,61169988cf61a1a4c41fdf9c,611e07ecdcc96256ae8d5b80,611e793ccbeab693d86ace7b,
,,,,space,0.9506,,0,248,248,208,1,B, , , , ,space,1500,1.5,61169988cf61a1a4c41fdf9c,001,2021-08-19_16h31.29.864,natb3,2021.2.3,Win32,74.95128167,61169988cf61a1a4c41fdf9c,611e07ecdcc96256ae8d5b80,611e793ccbeab693d86ace7b,
,,,,,,,0,249,249,78,1,X, , , , ,,2000,2,61169988cf61a1a4c41fdf9c,001,2021-08-19_16h31.29.864,natb3,2021.2.3,Win32,74.95128167,61169988cf61a1a4c41fdf9c,611e07ecdcc96256ae8d5b80,611e793ccbeab693d86ace7b,
,,,,,,,0,250,250,8,1,U, , , , ,space,1500,1.5,61169988cf61a1a4c41fdf9c,001,2021-08-19_16h31.29.864,natb3,2021.2.3,Win32,74.95128167,61169988cf61a1a4c41fdf9c,611e07ecdcc96256ae8d5b80,611e793ccbeab693d86ace7b,
,,,,space,0.401,,0,251,251,5,1,T, , , , ,space,2000,2,61169988cf61a1a4c41fdf9c,001,2021-08-19_16h31.29.864,natb3,2021.2.3,Win32,74.95128167,61169988cf61a1a4c41fdf9c,611e07ecdcc96256ae8d5b80,611e793ccbeab693d86ace7b,
,,,,space,0.4184,,0,252,252,47,1,P, , , , ,space,2000,2,61169988cf61a1a4c41fdf9c,001,2021-08-19_16h31.29.864,natb3,2021.2.3,Win32,74.95128167,61169988cf61a1a4c41fdf9c,611e07ecdcc96256ae8d5b80,611e793ccbeab693d86ace7b,
,,,,,,,0,253,253,153,1,X,4,7, ,6,,2000,2,61169988cf61a1a4c41fdf9c,001,2021-08-19_16h31.29.864,natb3,2021.2.3,Win32,74.95128167,61169988cf61a1a4c41fdf9c,611e07ecdcc96256ae8d5b80,611e793ccbeab693d86ace7b,
,,,,,,,0,254,254,243,1,X, , , , ,,2500,2.5,61169988cf61a1a4c41fdf9c,001,2021-08-19_16h31.29.864,natb3,2021.2.3,Win32,74.95128167,61169988cf61a1a4c41fdf9c,611e07ecdcc96256ae8d5b80,611e793ccbeab693d86ace7b,
,,,,space,0.3169,,0,255,255,222,1,O, , , , ,space,2000,2,61169988cf61a1a4c41fdf9c,001,2021-08-19_16h31.29.864,natb3,2021.2.3,Win32,74.95128167,61169988cf61a1a4c41fdf9c,611e07ecdcc96256ae8d5b80,611e793ccbeab693d86ace7b,
,,,,space,0.4013,,0,256,256,211,1,X, , , , ,,2500,2.5,61169988cf61a1a4c41fdf9c,001,2021-08-19_16h31.29.864,natb3,2021.2.3,Win32,74.95128167,61169988cf61a1a4c41fdf9c,611e07ecdcc96256ae8d5b80,611e793ccbeab693d86ace7b,
,,,,space,0.2838,,0,257,257,185,1,Y, , , , ,space,2500,2.5,61169988cf61a1a4c41fdf9c,001,2021-08-19_16h31.29.864,natb3,2021.2.3,Win32,74.95128167,61169988cf61a1a4c41fdf9c,611e07ecdcc96256ae8d5b80,611e793ccbeab693d86ace7b,
,,,,space,0.6846,,0,258,258,216,1,R, , , , ,space,1500,1.5,61169988cf61a1a4c41fdf9c,001,2021-08-19_16h31.29.864,natb3,2021.2.3,Win32,74.95128167,61169988cf61a1a4c41fdf9c,611e07ecdcc96256ae8d5b80,611e793ccbeab693d86ace7b,
,,,,space,0.5172,,0,259,259,136,1,Z, , , , ,space,2500,2.5,61169988cf61a1a4c41fdf9c,001,2021-08-19_16h31.29.864,natb3,2021.2.3,Win32,74.95128167,61169988cf61a1a4c41fdf9c,611e07ecdcc96256ae8d5b80,611e793ccbeab693d86ace7b,
,,,,space,0.5335,,0,260,260,196,1,F, , , , ,space,1500,1.5,61169988cf61a1a4c41fdf9c,001,2021-08-19_16h31.29.864,natb3,2021.2.3,Win32,74.95128167,61169988cf61a1a4c41fdf9c,611e07ecdcc96256ae8d5b80,611e793ccbeab693d86ace7b,
,,,,,,,0,261,261,133,1,X, ,4, ,6,,2500,2.5,61169988cf61a1a4c41fdf9c,001,2021-08-19_16h31.29.864,natb3,2021.2.3,Win32,74.95128167,61169988cf61a1a4c41fdf9c,611e07ecdcc96256ae8d5b80,611e793ccbeab693d86ace7b,
,,,,space,0.3183,,0,262,262,85,1,F, , , , ,space,2500,2.5,61169988cf61a1a4c41fdf9c,001,2021-08-19_16h31.29.864,natb3,2021.2.3,Win32,74.95128167,61169988cf61a1a4c41fdf9c,611e07ecdcc96256ae8d5b80,611e793ccbeab693d86ace7b,
,,,,space,0.4011,,0,263,263,40,1,T, , , , ,space,1500,1.5,61169988cf61a1a4c41fdf9c,001,2021-08-19_16h31.29.864,natb3,2021.2.3,Win32,74.95128167,61169988cf61a1a4c41fdf9c,611e07ecdcc96256ae8d5b80,611e793ccbeab693d86ace7b,
,,,,,,,0,264,264,195,1,X, , , , ,,1500,1.5,61169988cf61a1a4c41fdf9c,001,2021-08-19_16h31.29.864,natb3,2021.2.3,Win32,74.95128167,61169988cf61a1a4c41fdf9c,611e07ecdcc96256ae8d5b80,611e793ccbeab693d86ace7b,
,,,,space,0.4336,,0,265,265,278,1,J, , , , ,space,2000,2,61169988cf61a1a4c41fdf9c,001,2021-08-19_16h31.29.864,natb3,2021.2.3,Win32,74.95128167,61169988cf61a1a4c41fdf9c,611e07ecdcc96256ae8d5b80,611e793ccbeab693d86ace7b,
,,,,space,0.4668,,0,266,266,169,1,L, , , , ,space,2500,2.5,61169988cf61a1a4c41fdf9c,001,2021-08-19_16h31.29.864,natb3,2021.2.3,Win32,74.95128167,61169988cf61a1a4c41fdf9c,611e07ecdcc96256ae8d5b80,611e793ccbeab693d86ace7b,
,,,,space,0.5513,,0,267,267,253,1,N, , , , ,space,2500,2.5,61169988cf61a1a4c41fdf9c,001,2021-08-19_16h31.29.864,natb3,2021.2.3,Win32,74.95128167,61169988cf61a1a4c41fdf9c,611e07ecdcc96256ae8d5b80,611e793ccbeab693d86ace7b,
,,,,space,0.4512,,0,268,268,225,1,E, , , , ,space,2000,2,61169988cf61a1a4c41fdf9c,001,2021-08-19_16h31.29.864,natb3,2021.2.3,Win32,74.95128167,61169988cf61a1a4c41fdf9c,611e07ecdcc96256ae8d5b80,611e793ccbeab693d86ace7b,
,,,,space,0.3185,,0,269,269,68,1,W, , , , ,space,2500,2.5,61169988cf61a1a4c41fdf9c,001,2021-08-19_16h31.29.864,natb3,2021.2.3,Win32,74.95128167,61169988cf61a1a4c41fdf9c,611e07ecdcc96256ae8d5b80,611e793ccbeab693d86ace7b,
,,,,space,0.4012,,0,270,270,265,1,I, , , , ,space,2000,2,61169988cf61a1a4c41fdf9c,001,2021-08-19_16h31.29.864,natb3,2021.2.3,Win32,74.95128167,61169988cf61a1a4c41fdf9c,611e07ecdcc96256ae8d5b80,611e793ccbeab693d86ace7b,
,,,,space,0.3174,,0,271,271,140,1,B, , , , ,space,2500,2.5,61169988cf61a1a4c41fdf9c,001,2021-08-19_16h31.29.864,natb3,2021.2.3,Win32,74.95128167,61169988cf61a1a4c41fdf9c,611e07ecdcc96256ae8d5b80,611e793ccbeab693d86ace7b,
,,,,space,0.3512,,0,272,272,205,1,C, , , , ,space,2000,2,61169988cf61a1a4c41fdf9c,001,2021-08-19_16h31.29.864,natb3,2021.2.3,Win32,74.95128167,61169988cf61a1a4c41fdf9c,611e07ecdcc96256ae8d5b80,611e793ccbeab693d86ace7b,
,,,,space,0.3175,,0,273,273,239,1,X, , , , ,,2000,2,61169988cf61a1a4c41fdf9c,001,2021-08-19_16h31.29.864,natb3,2021.2.3,Win32,74.95128167,61169988cf61a1a4c41fdf9c,611e07ecdcc96256ae8d5b80,611e793ccbeab693d86ace7b,
,,,,space,0.3335,,0,274,274,103,1,W, , , , ,space,2000,2,61169988cf61a1a4c41fdf9c,001,2021-08-19_16h31.29.864,natb3,2021.2.3,Win32,74.95128167,61169988cf61a1a4c41fdf9c,611e07ecdcc96256ae8d5b80,611e793ccbeab693d86ace7b,
,,,,space,0.3671,,0,275,275,192,1,A, , , , ,space,2000,2,61169988cf61a1a4c41fdf9c,001,2021-08-19_16h31.29.864,natb3,2021.2.3,Win32,74.95128167,61169988cf61a1a4c41fdf9c,611e07ecdcc96256ae8d5b80,611e793ccbeab693d86ace7b,
,,,,space,0.4839,,0,276,276,293,1,R, , , , ,space,2500,2.5,61169988cf61a1a4c41fdf9c,001,2021-08-19_16h31.29.864,natb3,2021.2.3,Win32,74.95128167,61169988cf61a1a4c41fdf9c,611e07ecdcc96256ae8d5b80,611e793ccbeab693d86ace7b,
,,,,space,0.3665,,0,277,277,177,1,M, , , , ,space,2500,2.5,61169988cf61a1a4c41fdf9c,001,2021-08-19_16h31.29.864,natb3,2021.2.3,Win32,74.95128167,61169988cf61a1a4c41fdf9c,611e07ecdcc96256ae8d5b80,611e793ccbeab693d86ace7b,
,,,,space,0.4502,,0,278,278,2,1,E, , , , ,space,2500,2.5,61169988cf61a1a4c41fdf9c,001,2021-08-19_16h31.29.864,natb3,2021.2.3,Win32,74.95128167,61169988cf61a1a4c41fdf9c,611e07ecdcc96256ae8d5b80,611e793ccbeab693d86ace7b,
,,,,space,0.4704,,0,279,279,95,1,V, , , , ,space,1500,1.5,61169988cf61a1a4c41fdf9c,001,2021-08-19_16h31.29.864,natb3,2021.2.3,Win32,74.95128167,61169988cf61a1a4c41fdf9c,611e07ecdcc96256ae8d5b80,611e793ccbeab693d86ace7b,
,,,,space,0.4833,,0,280,280,48,1,A, , , , ,space,2500,2.5,61169988cf61a1a4c41fdf9c,001,2021-08-19_16h31.29.864,natb3,2021.2.3,Win32,74.95128167,61169988cf61a1a4c41fdf9c,611e07ecdcc96256ae8d5b80,611e793ccbeab693d86ace7b,
,,,,space,0.3002,,0,281,281,98,1,X, , , , ,,2500,2.5,61169988cf61a1a4c41fdf9c,001,2021-08-19_16h31.29.864,natb3,2021.2.3,Win32,74.95128167,61169988cf61a1a4c41fdf9c,611e07ecdcc96256ae8d5b80,611e793ccbeab693d86ace7b,
,,,,space,0.5345,,0,282,282,108,1,Y, , , , ,space,2500,2.5,61169988cf61a1a4c41fdf9c,001,2021-08-19_16h31.29.864,natb3,2021.2.3,Win32,74.95128167,61169988cf61a1a4c41fdf9c,611e07ecdcc96256ae8d5b80,611e793ccbeab693d86ace7b,
,,,,,,,0,283,283,82,1,X,4,6,1,7,,2000,2,61169988cf61a1a4c41fdf9c,001,2021-08-19_16h31.29.864,natb3,2021.2.3,Win32,74.95128167,61169988cf61a1a4c41fdf9c,611e07ecdcc96256ae8d5b80,611e793ccbeab693d86ace7b,
,,,,space,0.4157,,0,284,284,154,1,I, , , , ,space,2500,2.5,61169988cf61a1a4c41fdf9c,001,2021-08-19_16h31.29.864,natb3,2021.2.3,Win32,74.95128167,61169988cf61a1a4c41fdf9c,611e07ecdcc96256ae8d5b80,611e793ccbeab693d86ace7b,
,,,,space,0.4178,,0,285,285,237,1,S, , , , ,space,1500,1.5,61169988cf61a1a4c41fdf9c,001,2021-08-19_16h31.29.864,natb3,2021.2.3,Win32,74.95128167,61169988cf61a1a4c41fdf9c,611e07ecdcc96256ae8d5b80,611e793ccbeab693d86ace7b,
,,,,space,0.3011,,0,286,286,209,1,N, , , , ,space,2000,2,61169988cf61a1a4c41fdf9c,001,2021-08-19_16h31.29.864,natb3,2021.2.3,Win32,74.95128167,61169988cf61a1a4c41fdf9c,611e07ecdcc96256ae8d5b80,611e793ccbeab693d86ace7b,
,,,,space,0.3665,,0,287,287,264,1,U, , , , ,space,2000,2,61169988cf61a1a4c41fdf9c,001,2021-08-19_16h31.29.864,natb3,2021.2.3,Win32,74.95128167,61169988cf61a1a4c41fdf9c,611e07ecdcc96256ae8d5b80,611e793ccbeab693d86ace7b,
,,,,space,0.3679,,0,288,288,199,1,J, , , , ,space,2500,2.5,61169988cf61a1a4c41fdf9c,001,2021-08-19_16h31.29.864,natb3,2021.2.3,Win32,74.95128167,61169988cf61a1a4c41fdf9c,611e07ecdcc96256ae8d5b80,611e793ccbeab693d86ace7b,
,,,,space,0.4501,,0,289,289,286,1,N, , , , ,space,1500,1.5,61169988cf61a1a4c41fdf9c,001,2021-08-19_16h31.29.864,natb3,2021.2.3,Win32,74.95128167,61169988cf61a1a4c41fdf9c,611e07ecdcc96256ae8d5b80,611e793ccbeab693d86ace7b,
,,,,,,,0,290,290,84,1,X, , , , ,,2000,2,61169988cf61a1a4c41fdf9c,001,2021-08-19_16h31.29.864,natb3,2021.2.3,Win32,74.95128167,61169988cf61a1a4c41fdf9c,611e07ecdcc96256ae8d5b80,611e793ccbeab693d86ace7b,
,,,,space,0.3343,,0,291,291,67,1,Q, , , , ,space,2000,2,61169988cf61a1a4c41fdf9c,001,2021-08-19_16h31.29.864,natb3,2021.2.3,Win32,74.95128167,61169988cf61a1a4c41fdf9c,611e07ecdcc96256ae8d5b80,611e793ccbeab693d86ace7b,
,,,,space,0.4508,,0,292,292,131,1,G, , , , ,space,1500,1.5,61169988cf61a1a4c41fdf9c,001,2021-08-19_16h31.29.864,natb3,2021.2.3,Win32,74.95128167,61169988cf61a1a4c41fdf9c,611e07ecdcc96256ae8d5b80,611e793ccbeab693d86ace7b,
,,,,,,,0,293,293,89,1,X,3, , , ,,2000,2,61169988cf61a1a4c41fdf9c,001,2021-08-19_16h31.29.864,natb3,2021.2.3,Win32,74.95128167,61169988cf61a1a4c41fdf9c,611e07ecdcc96256ae8d5b80,611e793ccbeab693d86ace7b,
,,,,,,,0,294,294,273,1,X, , , , ,,2000,2,61169988cf61a1a4c41fdf9c,001,2021-08-19_16h31.29.864,natb3,2021.2.3,Win32,74.95128167,61169988cf61a1a4c41fdf9c,611e07ecdcc96256ae8d5b80,611e793ccbeab693d86ace7b,
,,,,space,0.4329,,0,295,295,3,1,R, , , , ,space,2000,2,61169988cf61a1a4c41fdf9c,001,2021-08-19_16h31.29.864,natb3,2021.2.3,Win32,74.95128167,61169988cf61a1a4c41fdf9c,611e07ecdcc96256ae8d5b80,611e793ccbeab693d86ace7b,
,,,,space,0.4664,,0,296,296,176,1,N, , , , ,space,1500,1.5,61169988cf61a1a4c41fdf9c,001,2021-08-19_16h31.29.864,natb3,2021.2.3,Win32,74.95128167,61169988cf61a1a4c41fdf9c,611e07ecdcc96256ae8d5b80,611e793ccbeab693d86ace7b,
,,,,space,0.4178,,0,297,297,86,1,G, , , , ,space,2000,2,61169988cf61a1a4c41fdf9c,001,2021-08-19_16h31.29.864,natb3,2021.2.3,Win32,74.95128167,61169988cf61a1a4c41fdf9c,611e07ecdcc96256ae8d5b80,611e793ccbeab693d86ace7b,
,,,,space,0.5173,,0,298,298,72,1,T, , , , ,space,1500,1.5,61169988cf61a1a4c41fdf9c,001,2021-08-19_16h31.29.864,natb3,2021.2.3,Win32,74.95128167,61169988cf61a1a4c41fdf9c,611e07ecdcc96256ae8d5b80,611e793ccbeab693d86ace7b,
,,,,space,0.417,,0,299,299,10,1,O, , , , ,space,2000,2,61169988cf61a1a4c41fdf9c,001,2021-08-19_16h31.29.864,natb3,2021.2.3,Win32,74.95128167,61169988cf61a1a4c41fdf9c,611e07ecdcc96256ae8d5b80,611e793ccbeab693d86ace7b,
,,,,space,0.4334,,0,300,300,50,1,D, , , , ,space,1500,1.5,61169988cf61a1a4c41fdf9c,001,2021-08-19_16h31.29.864,natb3,2021.2.3,Win32,74.95128167,61169988cf61a1a4c41fdf9c,611e07ecdcc96256ae8d5b80,611e793ccbeab693d86ace7b,
,,,,space,0.5841,,0,301,301,312,1,K, , , , ,space,2000,2,61169988cf61a1a4c41fdf9c,001,2021-08-19_16h31.29.864,natb3,2021.2.3,Win32,74.95128167,61169988cf61a1a4c41fdf9c,611e07ecdcc96256ae8d5b80,611e793ccbeab693d86ace7b,
,,,,space,0.6344,,0,302,302,57,1,K, , , , ,space,2500,2.5,61169988cf61a1a4c41fdf9c,001,2021-08-19_16h31.29.864,natb3,2021.2.3,Win32,74.95128167,61169988cf61a1a4c41fdf9c,611e07ecdcc96256ae8d5b80,611e793ccbeab693d86ace7b,
,,,,,,,0,303,303,200,1,X,7, ,5,3,,1500,1.5,61169988cf61a1a4c41fdf9c,001,2021-08-19_16h31.29.864,natb3,2021.2.3,Win32,74.95128167,61169988cf61a1a4c41fdf9c,611e07ecdcc96256ae8d5b80,611e793ccbeab693d86ace7b,
,,,,space,0.567,,0,304,304,36,1,W, , , , ,space,2000,2,61169988cf61a1a4c41fdf9c,001,2021-08-19_16h31.29.864,natb3,2021.2.3,Win32,74.95128167,61169988cf61a1a4c41fdf9c,611e07ecdcc96256ae8d5b80,611e793ccbeab693d86ace7b,
,,,,space,0.3828,,0,305,305,307,1,F, , , , ,space,2500,2.5,61169988cf61a1a4c41fdf9c,001,2021-08-19_16h31.29.864,natb3,2021.2.3,Win32,74.95128167,61169988cf61a1a4c41fdf9c,611e07ecdcc96256ae8d5b80,611e793ccbeab693d86ace7b,
,,,,,,,0,306,306,313,1,X, , , , ,,2500,2.5,61169988cf61a1a4c41fdf9c,001,2021-08-19_16h31.29.864,natb3,2021.2.3,Win32,74.95128167,61169988cf61a1a4c41fdf9c,611e07ecdcc96256ae8d5b80,611e793ccbeab693d86ace7b,
,,,,space,0.468,,0,307,307,272,1,D, , , , ,space,2000,2,61169988cf61a1a4c41fdf9c,001,2021-08-19_16h31.29.864,natb3,2021.2.3,Win32,74.95128167,61169988cf61a1a4c41fdf9c,611e07ecdcc96256ae8d5b80,611e793ccbeab693d86ace7b,
,,,,space,0.4171,,0,308,308,45,1,O, , , , ,space,2000,2,61169988cf61a1a4c41fdf9c,001,2021-08-19_16h31.29.864,natb3,2021.2.3,Win32,74.95128167,61169988cf61a1a4c41fdf9c,611e07ecdcc96256ae8d5b80,611e793ccbeab693d86ace7b,
,,,,space,0.3843,,0,309,309,44,1,I, , , , ,space,2500,2.5,61169988cf61a1a4c41fdf9c,001,2021-08-19_16h31.29.864,natb3,2021.2.3,Win32,74.95128167,61169988cf61a1a4c41fdf9c,611e07ecdcc96256ae8d5b80,611e793ccbeab693d86ace7b,
,,,,,,,0,310,310,171,1,X, , , , ,,1500,1.5,61169988cf61a1a4c41fdf9c,001,2021-08-19_16h31.29.864,natb3,2021.2.3,Win32,74.95128167,61169988cf61a1a4c41fdf9c,611e07ecdcc96256ae8d5b80,611e793ccbeab693d86ace7b,
,,,,space,0.3826,,0,311,311,183,1,R, , , , ,space,1500,1.5,61169988cf61a1a4c41fdf9c,001,2021-08-19_16h31.29.864,natb3,2021.2.3,Win32,74.95128167,61169988cf61a1a4c41fdf9c,611e07ecdcc96256ae8d5b80,611e793ccbeab693d86ace7b,
,,,,space,0.451,,0,312,312,13,1,A, , , , ,space,2000,2,61169988cf61a1a4c41fdf9c,001,2021-08-19_16h31.29.864,natb3,2021.2.3,Win32,74.95128167,61169988cf61a1a4c41fdf9c,611e07ecdcc96256ae8d5b80,611e793ccbeab693d86ace7b,
,,,,,,,0,313,313,187,1,X, ,3,7,4,,1500,1.5,61169988cf61a1a4c41fdf9c,001,2021-08-19_16h31.29.864,natb3,2021.2.3,Win32,74.95128167,61169988cf61a1a4c41fdf9c,611e07ecdcc96256ae8d5b80,611e793ccbeab693d86ace7b,
,,,,space,0.4335,,0,314,314,38,1,R, , , , ,space,2500,2.5,61169988cf61a1a4c41fdf9c,001,2021-08-19_16h31.29.864,natb3,2021.2.3,Win32,74.95128167,61169988cf61a1a4c41fdf9c,611e07ecdcc96256ae8d5b80,611e793ccbeab693d86ace7b,
,,,,,,,0,315,315,268,1,X,6, ,3, ,,2500,2.5,61169988cf61a1a4c41fdf9c,001,2021-08-19_16h31.29.864,natb3,2021.2.3,Win32,74.95128167,61169988cf61a1a4c41fdf9c,611e07ecdcc96256ae8d5b80,611e793ccbeab693d86ace7b,
,,,,,,,0,316,316,213,1,X, , , , ,,2500,2.5,61169988cf61a1a4c41fdf9c,001,2021-08-19_16h31.29.864,natb3,2021.2.3,Win32,74.95128167,61169988cf61a1a4c41fdf9c,611e07ecdcc96256ae8d5b80,611e793ccbeab693d86ace7b,
,,,,,,,0,317,317,46,1,X, , , , ,,2000,2,61169988cf61a1a4c41fdf9c,001,2021-08-19_16h31.29.864,natb3,2021.2.3,Win32,74.95128167,61169988cf61a1a4c41fdf9c,611e07ecdcc96256ae8d5b80,611e793ccbeab693d86ace7b,
,,,,space,0.4673,,0,318,318,73,1,Y, , , , ,space,2000,2,61169988cf61a1a4c41fdf9c,001,2021-08-19_16h31.29.864,natb3,2021.2.3,Win32,74.95128167,61169988cf61a1a4c41fdf9c,611e07ecdcc96256ae8d5b80,611e793ccbeab693d86ace7b,
,,,,,,,0,319,319,322,1,X, , ,1,6,,2000,2,61169988cf61a1a4c41fdf9c,001,2021-08-19_16h31.29.864,natb3,2021.2.3,Win32,74.95128167,61169988cf61a1a4c41fdf9c,611e07ecdcc96256ae8d5b80,611e793ccbeab693d86ace7b,
,,,,,,,0,320,320,207,1,X,9, ,2, ,,2500,2.5,61169988cf61a1a4c41fdf9c,001,2021-08-19_16h31.29.864,natb3,2021.2.3,Win32,74.95128167,61169988cf61a1a4c41fdf9c,611e07ecdcc96256ae8d5b80,611e793ccbeab693d86ace7b,
,,,,space,0.3837,,0,321,321,251,1,B, , , , ,space,1500,1.5,61169988cf61a1a4c41fdf9c,001,2021-08-19_16h31.29.864,natb3,2021.2.3,Win32,74.95128167,61169988cf61a1a4c41fdf9c,611e07ecdcc96256ae8d5b80,611e793ccbeab693d86ace7b,
,,,,space,0.4024,,0,322,322,22,1,K, , , , ,space,2000,2,61169988cf61a1a4c41fdf9c,001,2021-08-19_16h31.29.864,natb3,2021.2.3,Win32,74.95128167,61169988cf61a1a4c41fdf9c,611e07ecdcc96256ae8d5b80,611e793ccbeab693d86ace7b,
,,,,space,0.3675,,0,323,323,180,1,W, , , , ,space,2000,2,61169988cf61a1a4c41fdf9c,001,2021-08-19_16h31.29.864,natb3,2021.2.3,Win32,74.95128167,61169988cf61a1a4c41fdf9c,611e07ecdcc96256ae8d5b80,611e793ccbeab693d86ace7b,
,,,,space,0.3834,,0,324,324,301,1,P, , , , ,space,1500,1.5,61169988cf61a1a4c41fdf9c,001,2021-08-19_16h31.29.864,natb3,2021.2.3,Win32,74.95128167,61169988cf61a1a4c41fdf9c,611e07ecdcc96256ae8d5b80,611e793ccbeab693d86ace7b,
,,,,space,0.4001,,0,325,325,256,1,Q, , , , ,space,2000,2,61169988cf61a1a4c41fdf9c,001,2021-08-19_16h31.29.864,natb3,2021.2.3,Win32,74.95128167,61169988cf61a1a4c41fdf9c,611e07ecdcc96256ae8d5b80,611e793ccbeab693d86ace7b,
,,,,space,0.3838,,0,326,326,142,1,N, , , , ,space,2500,2.5,61169988cf61a1a4c41fdf9c,001,2021-08-19_16h31.29.864,natb3,2021.2.3,Win32,74.95128167,61169988cf61a1a4c41fdf9c,611e07ecdcc96256ae8d5b80,611e793ccbeab693d86ace7b,
,,,,space,0.3838,,0,327,327,79,1,P, , , , ,space,2000,2,61169988cf61a1a4c41fdf9c,001,2021-08-19_16h31.29.864,natb3,2021.2.3,Win32,74.95128167,61169988cf61a1a4c41fdf9c,611e07ecdcc96256ae8d5b80,611e793ccbeab693d86ace7b,
,,,,space,0.3173,,0,328,328,262,1,Y, , , , ,space,2500,2.5,61169988cf61a1a4c41fdf9c,001,2021-08-19_16h31.29.864,natb3,2021.2.3,Win32,74.95128167,61169988cf61a1a4c41fdf9c,611e07ecdcc96256ae8d5b80,611e793ccbeab693d86ace7b,
,,,,space,0.35,,0,329,329,80,1,A, , , , ,space,2000,2,61169988cf61a1a4c41fdf9c,001,2021-08-19_16h31.29.864,natb3,2021.2.3,Win32,74.95128167,61169988cf61a1a4c41fdf9c,611e07ecdcc96256ae8d5b80,611e793ccbeab693d86ace7b,
,,,,space,0.4504,,0,330,330,309,1,H, , , , ,space,2500,2.5,61169988cf61a1a4c41fdf9c,001,2021-08-19_16h31.29.864,natb3,2021.2.3,Win32,74.95128167,61169988cf61a1a4c41fdf9c,611e07ecdcc96256ae8d5b80,611e793ccbeab693d86ace7b,
,,,,,,,0,331,331,162,1,X,1,6, ,2,,1500,1.5,61169988cf61a1a4c41fdf9c,001,2021-08-19_16h31.29.864,natb3,2021.2.3,Win32,74.95128167,61169988cf61a1a4c41fdf9c,611e07ecdcc96256ae8d5b80,611e793ccbeab693d86ace7b,
,,,,space,0.4034,,0,332,332,194,1,D, , , , ,space,2000,2,61169988cf61a1a4c41fdf9c,001,2021-08-19_16h31.29.864,natb3,2021.2.3,Win32,74.95128167,61169988cf61a1a4c41fdf9c,611e07ecdcc96256ae8d5b80,611e793ccbeab693d86ace7b,
,,,,space,0.3677,,0,333,333,157,1,A, , , , ,space,2500,2.5,61169988cf61a1a4c41fdf9c,001,2021-08-19_16h31.29.864,natb3,2021.2.3,Win32,74.95128167,61169988cf61a1a4c41fdf9c,611e07ecdcc96256ae8d5b80,611e793ccbeab693d86ace7b,
,,,,space,0.3505,,0,334,334,289,1,Q, , , , ,space,2000,2,61169988cf61a1a4c41fdf9c,001,2021-08-19_16h31.29.864,natb3,2021.2.3,Win32,74.95128167,61169988cf61a1a4c41fdf9c,611e07ecdcc96256ae8d5b80,611e793ccbeab693d86ace7b,
,,,,space,0.3339,,0,335,335,94,1,C, , , , ,space,2000,2,61169988cf61a1a4c41fdf9c,001,2021-08-19_16h31.29.864,natb3,2021.2.3,Win32,74.95128167,61169988cf61a1a4c41fdf9c,611e07ecdcc96256ae8d5b80,611e793ccbeab693d86ace7b,
