key_resp_2.keys,key_resp_2.rt,key_resp_3.keys,key_resp_3.rt,key_resp.keys,key_resp_4.keys,trials.thisRepN,trials.thisTrialN,trials.thisN,trials.thisIndex,trials.ran,stimulus,distractor1,distractor2,distractor3,distractor4,CorrAns,isi_duration,isi_dur_in_seconds,participant,session,date,expName,psychopyVersion,OS,frameRate,PROLIFIC_PID,STUDY_ID,SESSION_ID,key_resp.rt,key_resp_4.rt
return,3.3096,space,28.0579,,,0,0,0,211,1,X, , , , ,,2500,2.5,611675906999c2e9533a272a,001,2021-08-19_16h37.08.557,natb3,2021.2.3,Win32,60.40106306,611675906999c2e9533a272a,611e07ecdcc96256ae8d5b80,611e79e73df67275c8dfeb7b,,
,,,,,,0,1,1,141,1,X,1, ,4,6,,1500,1.5,611675906999c2e9533a272a,001,2021-08-19_16h37.08.557,natb3,2021.2.3,Win32,60.40106306,611675906999c2e9533a272a,611e07ecdcc96256ae8d5b80,611e79e73df67275c8dfeb7b,,
,,,,space,,0,2,2,225,1,E, , , , ,space,2000,2,611675906999c2e9533a272a,001,2021-08-19_16h37.08.557,natb3,2021.2.3,Win32,60.40106306,611675906999c2e9533a272a,611e07ecdcc96256ae8d5b80,611e79e73df67275c8dfeb7b,0.6533,
,,,,space,,0,3,3,30,1,N, , , , ,space,2500,2.5,611675906999c2e9533a272a,001,2021-08-19_16h37.08.557,natb3,2021.2.3,Win32,60.40106306,611675906999c2e9533a272a,611e07ecdcc96256ae8d5b80,611e79e73df67275c8dfeb7b,0.5974,
,,,,space,,0,4,4,120,1,U, , , , ,space,1500,1.5,611675906999c2e9533a272a,001,2021-08-19_16h37.08.557,natb3,2021.2.3,Win32,60.40106306,611675906999c2e9533a272a,611e07ecdcc96256ae8d5b80,611e79e73df67275c8dfeb7b,0.6007,
,,,,space,,0,5,5,81,1,S, , , , ,space,2000,2,611675906999c2e9533a272a,001,2021-08-19_16h37.08.557,natb3,2021.2.3,Win32,60.40106306,611675906999c2e9533a272a,611e07ecdcc96256ae8d5b80,611e79e73df67275c8dfeb7b,0.4138,
,,,,space,,0,6,6,73,1,Y, , , , ,space,2000,2,611675906999c2e9533a272a,001,2021-08-19_16h37.08.557,natb3,2021.2.3,Win32,60.40106306,611675906999c2e9533a272a,611e07ecdcc96256ae8d5b80,611e79e73df67275c8dfeb7b,0.4201,
,,,,space,,0,7,7,14,1,S, , , , ,space,2500,2.5,611675906999c2e9533a272a,001,2021-08-19_16h37.08.557,natb3,2021.2.3,Win32,60.40106306,611675906999c2e9533a272a,611e07ecdcc96256ae8d5b80,611e79e73df67275c8dfeb7b,0.5227,
,,,,space,,0,8,8,272,1,D, , , , ,space,2000,2,611675906999c2e9533a272a,001,2021-08-19_16h37.08.557,natb3,2021.2.3,Win32,60.40106306,611675906999c2e9533a272a,611e07ecdcc96256ae8d5b80,611e79e73df67275c8dfeb7b,0.5198,
,,,,,,0,9,9,66,1,X, ,4,7, ,,2000,2,611675906999c2e9533a272a,001,2021-08-19_16h37.08.557,natb3,2021.2.3,Win32,60.40106306,611675906999c2e9533a272a,611e07ecdcc96256ae8d5b80,611e79e73df67275c8dfeb7b,,
,,,,space,,0,10,10,288,1,M, , , , ,space,1500,1.5,611675906999c2e9533a272a,001,2021-08-19_16h37.08.557,natb3,2021.2.3,Win32,60.40106306,611675906999c2e9533a272a,611e07ecdcc96256ae8d5b80,611e79e73df67275c8dfeb7b,0.517,
,,,,space,,0,11,11,16,1,D, , , , ,space,1500,1.5,611675906999c2e9533a272a,001,2021-08-19_16h37.08.557,natb3,2021.2.3,Win32,60.40106306,611675906999c2e9533a272a,611e07ecdcc96256ae8d5b80,611e79e73df67275c8dfeb7b,0.4345,
,,,,space,,0,12,12,36,1,W, , , , ,space,2000,2,611675906999c2e9533a272a,001,2021-08-19_16h37.08.557,natb3,2021.2.3,Win32,60.40106306,611675906999c2e9533a272a,611e07ecdcc96256ae8d5b80,611e79e73df67275c8dfeb7b,0.5334,
,,,,space,,0,13,13,230,1,U, , , , ,space,1500,1.5,611675906999c2e9533a272a,001,2021-08-19_16h37.08.557,natb3,2021.2.3,Win32,60.40106306,611675906999c2e9533a272a,611e07ecdcc96256ae8d5b80,611e79e73df67275c8dfeb7b,0.6801,
,,,,space,,0,14,14,257,1,W, , , , ,space,2000,2,611675906999c2e9533a272a,001,2021-08-19_16h37.08.557,natb3,2021.2.3,Win32,60.40106306,611675906999c2e9533a272a,611e07ecdcc96256ae8d5b80,611e79e73df67275c8dfeb7b,0.7111,
,,,,space,,0,15,15,167,1,K, , , , ,space,1500,1.5,611675906999c2e9533a272a,001,2021-08-19_16h37.08.557,natb3,2021.2.3,Win32,60.40106306,611675906999c2e9533a272a,611e07ecdcc96256ae8d5b80,611e79e73df67275c8dfeb7b,0.6641,
,,,,space,,0,16,16,267,1,P, , , , ,space,2000,2,611675906999c2e9533a272a,001,2021-08-19_16h37.08.557,natb3,2021.2.3,Win32,60.40106306,611675906999c2e9533a272a,611e07ecdcc96256ae8d5b80,611e79e73df67275c8dfeb7b,0.4203,
,,,,,,0,17,17,251,1,B, , , , ,space,1500,1.5,611675906999c2e9533a272a,001,2021-08-19_16h37.08.557,natb3,2021.2.3,Win32,60.40106306,611675906999c2e9533a272a,611e07ecdcc96256ae8d5b80,611e79e73df67275c8dfeb7b,,
,,,,space,,0,18,18,275,1,G, , , , ,space,1500,1.5,611675906999c2e9533a272a,001,2021-08-19_16h37.08.557,natb3,2021.2.3,Win32,60.40106306,611675906999c2e9533a272a,611e07ecdcc96256ae8d5b80,611e79e73df67275c8dfeb7b,0.5454,
,,,,space,,0,19,19,29,1,B, , , , ,space,1500,1.5,611675906999c2e9533a272a,001,2021-08-19_16h37.08.557,natb3,2021.2.3,Win32,60.40106306,611675906999c2e9533a272a,611e07ecdcc96256ae8d5b80,611e79e73df67275c8dfeb7b,0.5138,
,,,,,,0,20,20,182,1,X, , , , ,,1500,1.5,611675906999c2e9533a272a,001,2021-08-19_16h37.08.557,natb3,2021.2.3,Win32,60.40106306,611675906999c2e9533a272a,611e07ecdcc96256ae8d5b80,611e79e73df67275c8dfeb7b,,
,,,,space,,0,21,21,8,1,U, , , , ,space,1500,1.5,611675906999c2e9533a272a,001,2021-08-19_16h37.08.557,natb3,2021.2.3,Win32,60.40106306,611675906999c2e9533a272a,611e07ecdcc96256ae8d5b80,611e79e73df67275c8dfeb7b,0.4257,
,,,,space,,0,22,22,0,1,Q, , , , ,space,1500,1.5,611675906999c2e9533a272a,001,2021-08-19_16h37.08.557,natb3,2021.2.3,Win32,60.40106306,611675906999c2e9533a272a,611e07ecdcc96256ae8d5b80,611e79e73df67275c8dfeb7b,0.44,
,,,,space,,0,23,23,224,1,W, , , , ,space,1500,1.5,611675906999c2e9533a272a,001,2021-08-19_16h37.08.557,natb3,2021.2.3,Win32,60.40106306,611675906999c2e9533a272a,611e07ecdcc96256ae8d5b80,611e79e73df67275c8dfeb7b,0.4678,
,,,,space,,0,24,24,17,1,F, , , , ,space,2500,2.5,611675906999c2e9533a272a,001,2021-08-19_16h37.08.557,natb3,2021.2.3,Win32,60.40106306,611675906999c2e9533a272a,611e07ecdcc96256ae8d5b80,611e79e73df67275c8dfeb7b,0.4331,
,,,,space,,0,25,25,65,1,M, , , , ,space,1500,1.5,611675906999c2e9533a272a,001,2021-08-19_16h37.08.557,natb3,2021.2.3,Win32,60.40106306,611675906999c2e9533a272a,611e07ecdcc96256ae8d5b80,611e79e73df67275c8dfeb7b,0.4558,
,,,,,,0,26,26,162,1,X,1,6, ,2,,1500,1.5,611675906999c2e9533a272a,001,2021-08-19_16h37.08.557,natb3,2021.2.3,Win32,60.40106306,611675906999c2e9533a272a,611e07ecdcc96256ae8d5b80,611e79e73df67275c8dfeb7b,,
,,,,space,,0,27,27,185,1,Y, , , , ,space,2500,2.5,611675906999c2e9533a272a,001,2021-08-19_16h37.08.557,natb3,2021.2.3,Win32,60.40106306,611675906999c2e9533a272a,611e07ecdcc96256ae8d5b80,611e79e73df67275c8dfeb7b,0.5005,
,,,,space,,0,28,28,10,1,O, , , , ,space,2000,2,611675906999c2e9533a272a,001,2021-08-19_16h37.08.557,natb3,2021.2.3,Win32,60.40106306,611675906999c2e9533a272a,611e07ecdcc96256ae8d5b80,611e79e73df67275c8dfeb7b,0.3375,
,,,,,,0,29,29,255,1,X, , , , ,,1500,1.5,611675906999c2e9533a272a,001,2021-08-19_16h37.08.557,natb3,2021.2.3,Win32,60.40106306,611675906999c2e9533a272a,611e07ecdcc96256ae8d5b80,611e79e73df67275c8dfeb7b,,
,,,,space,,0,30,30,274,1,F, , , , ,space,2000,2,611675906999c2e9533a272a,001,2021-08-19_16h37.08.557,natb3,2021.2.3,Win32,60.40106306,611675906999c2e9533a272a,611e07ecdcc96256ae8d5b80,611e79e73df67275c8dfeb7b,0.4165,
,,,,space,,0,31,31,323,1,M, , , , ,space,2500,2.5,611675906999c2e9533a272a,001,2021-08-19_16h37.08.557,natb3,2021.2.3,Win32,60.40106306,611675906999c2e9533a272a,611e07ecdcc96256ae8d5b80,611e79e73df67275c8dfeb7b,0.4677,
,,,,space,,0,32,32,38,1,R, , , , ,space,2500,2.5,611675906999c2e9533a272a,001,2021-08-19_16h37.08.557,natb3,2021.2.3,Win32,60.40106306,611675906999c2e9533a272a,611e07ecdcc96256ae8d5b80,611e79e73df67275c8dfeb7b,0.4504,
,,,,space,,0,33,33,247,1,Z, , , , ,space,1500,1.5,611675906999c2e9533a272a,001,2021-08-19_16h37.08.557,natb3,2021.2.3,Win32,60.40106306,611675906999c2e9533a272a,611e07ecdcc96256ae8d5b80,611e79e73df67275c8dfeb7b,0.4504,
,,,,space,,0,34,34,9,1,I, , , , ,space,1500,1.5,611675906999c2e9533a272a,001,2021-08-19_16h37.08.557,natb3,2021.2.3,Win32,60.40106306,611675906999c2e9533a272a,611e07ecdcc96256ae8d5b80,611e79e73df67275c8dfeb7b,0.5814,
,,,,space,,0,35,35,104,1,E, , , , ,space,2000,2,611675906999c2e9533a272a,001,2021-08-19_16h37.08.557,natb3,2021.2.3,Win32,60.40106306,611675906999c2e9533a272a,611e07ecdcc96256ae8d5b80,611e79e73df67275c8dfeb7b,0.4501,
,,,,space,,0,36,36,112,1,Q, , , , ,space,2500,2.5,611675906999c2e9533a272a,001,2021-08-19_16h37.08.557,natb3,2021.2.3,Win32,60.40106306,611675906999c2e9533a272a,611e07ecdcc96256ae8d5b80,611e79e73df67275c8dfeb7b,0.4403,
,,,,space,,0,37,37,97,1,B, , , , ,space,2500,2.5,611675906999c2e9533a272a,001,2021-08-19_16h37.08.557,natb3,2021.2.3,Win32,60.40106306,611675906999c2e9533a272a,611e07ecdcc96256ae8d5b80,611e79e73df67275c8dfeb7b,0.4334,
,,,,space,,0,38,38,110,1,I, , , , ,space,1500,1.5,611675906999c2e9533a272a,001,2021-08-19_16h37.08.557,natb3,2021.2.3,Win32,60.40106306,611675906999c2e9533a272a,611e07ecdcc96256ae8d5b80,611e79e73df67275c8dfeb7b,0.5701,
,,,,space,,0,39,39,57,1,K, , , , ,space,2500,2.5,611675906999c2e9533a272a,001,2021-08-19_16h37.08.557,natb3,2021.2.3,Win32,60.40106306,611675906999c2e9533a272a,611e07ecdcc96256ae8d5b80,611e79e73df67275c8dfeb7b,0.5343,
,,,,space,,0,40,40,114,1,E, , , , ,space,2000,2,611675906999c2e9533a272a,001,2021-08-19_16h37.08.557,natb3,2021.2.3,Win32,60.40106306,611675906999c2e9533a272a,611e07ecdcc96256ae8d5b80,611e79e73df67275c8dfeb7b,0.4567,
,,,,space,,0,41,41,121,1,I, , , , ,space,2000,2,611675906999c2e9533a272a,001,2021-08-19_16h37.08.557,natb3,2021.2.3,Win32,60.40106306,611675906999c2e9533a272a,611e07ecdcc96256ae8d5b80,611e79e73df67275c8dfeb7b,0.4558,
,,,,space,,0,42,42,92,1,Z, , , , ,space,1500,1.5,611675906999c2e9533a272a,001,2021-08-19_16h37.08.557,natb3,2021.2.3,Win32,60.40106306,611675906999c2e9533a272a,611e07ecdcc96256ae8d5b80,611e79e73df67275c8dfeb7b,0.5336,
,,,,,,0,43,43,166,1,X, , , , ,,2000,2,611675906999c2e9533a272a,001,2021-08-19_16h37.08.557,natb3,2021.2.3,Win32,60.40106306,611675906999c2e9533a272a,611e07ecdcc96256ae8d5b80,611e79e73df67275c8dfeb7b,,
,,,,,,0,44,44,268,1,X,6, ,3, ,,2500,2.5,611675906999c2e9533a272a,001,2021-08-19_16h37.08.557,natb3,2021.2.3,Win32,60.40106306,611675906999c2e9533a272a,611e07ecdcc96256ae8d5b80,611e79e73df67275c8dfeb7b,,
,,,,space,,0,45,45,210,1,M, , , , ,space,1500,1.5,611675906999c2e9533a272a,001,2021-08-19_16h37.08.557,natb3,2021.2.3,Win32,60.40106306,611675906999c2e9533a272a,611e07ecdcc96256ae8d5b80,611e79e73df67275c8dfeb7b,0.7003,
,,,,,,0,46,46,229,1,X,8, ,2,6,,2500,2.5,611675906999c2e9533a272a,001,2021-08-19_16h37.08.557,natb3,2021.2.3,Win32,60.40106306,611675906999c2e9533a272a,611e07ecdcc96256ae8d5b80,611e79e73df67275c8dfeb7b,,
,,,,,,0,47,47,118,1,X, , , , ,,2000,2,611675906999c2e9533a272a,001,2021-08-19_16h37.08.557,natb3,2021.2.3,Win32,60.40106306,611675906999c2e9533a272a,611e07ecdcc96256ae8d5b80,611e79e73df67275c8dfeb7b,,
,,,,,,0,48,48,89,1,X,3, , , ,,2000,2,611675906999c2e9533a272a,001,2021-08-19_16h37.08.557,natb3,2021.2.3,Win32,60.40106306,611675906999c2e9533a272a,611e07ecdcc96256ae8d5b80,611e79e73df67275c8dfeb7b,,
,,,,space,,0,49,49,28,1,V, , , , ,space,1500,1.5,611675906999c2e9533a272a,001,2021-08-19_16h37.08.557,natb3,2021.2.3,Win32,60.40106306,611675906999c2e9533a272a,611e07ecdcc96256ae8d5b80,611e79e73df67275c8dfeb7b,0.6504,
,,,,space,,0,50,50,333,1,I, , , , ,space,1500,1.5,611675906999c2e9533a272a,001,2021-08-19_16h37.08.557,natb3,2021.2.3,Win32,60.40106306,611675906999c2e9533a272a,611e07ecdcc96256ae8d5b80,611e79e73df67275c8dfeb7b,0.5005,
,,,,space,,0,51,51,215,1,E, , , , ,space,2500,2.5,611675906999c2e9533a272a,001,2021-08-19_16h37.08.557,natb3,2021.2.3,Win32,60.40106306,611675906999c2e9533a272a,611e07ecdcc96256ae8d5b80,611e79e73df67275c8dfeb7b,0.4548,
,,,,space,,0,52,52,217,1,T, , , , ,space,2500,2.5,611675906999c2e9533a272a,001,2021-08-19_16h37.08.557,natb3,2021.2.3,Win32,60.40106306,611675906999c2e9533a272a,611e07ecdcc96256ae8d5b80,611e79e73df67275c8dfeb7b,0.4673,
,,,,space,,0,53,53,290,1,W, , , , ,space,1500,1.5,611675906999c2e9533a272a,001,2021-08-19_16h37.08.557,natb3,2021.2.3,Win32,60.40106306,611675906999c2e9533a272a,611e07ecdcc96256ae8d5b80,611e79e73df67275c8dfeb7b,0.5502,
,,,,space,,0,54,54,86,1,G, , , , ,space,2000,2,611675906999c2e9533a272a,001,2021-08-19_16h37.08.557,natb3,2021.2.3,Win32,60.40106306,611675906999c2e9533a272a,611e07ecdcc96256ae8d5b80,611e79e73df67275c8dfeb7b,0.484,
,,,,space,,0,55,55,205,1,C, , , , ,space,2000,2,611675906999c2e9533a272a,001,2021-08-19_16h37.08.557,natb3,2021.2.3,Win32,60.40106306,611675906999c2e9533a272a,611e07ecdcc96256ae8d5b80,611e79e73df67275c8dfeb7b,0.4832,
,,,,space,,0,56,56,80,1,A, , , , ,space,2000,2,611675906999c2e9533a272a,001,2021-08-19_16h37.08.557,natb3,2021.2.3,Win32,60.40106306,611675906999c2e9533a272a,611e07ecdcc96256ae8d5b80,611e79e73df67275c8dfeb7b,0.4513,
,,,,space,,0,57,57,143,1,M, , , , ,space,2500,2.5,611675906999c2e9533a272a,001,2021-08-19_16h37.08.557,natb3,2021.2.3,Win32,60.40106306,611675906999c2e9533a272a,611e07ecdcc96256ae8d5b80,611e79e73df67275c8dfeb7b,0.4569,
,,,,,,0,58,58,271,1,X, , , , ,,2500,2.5,611675906999c2e9533a272a,001,2021-08-19_16h37.08.557,natb3,2021.2.3,Win32,60.40106306,611675906999c2e9533a272a,611e07ecdcc96256ae8d5b80,611e79e73df67275c8dfeb7b,,
,,,,,,0,59,59,102,1,X, ,6, , ,,1500,1.5,611675906999c2e9533a272a,001,2021-08-19_16h37.08.557,natb3,2021.2.3,Win32,60.40106306,611675906999c2e9533a272a,611e07ecdcc96256ae8d5b80,611e79e73df67275c8dfeb7b,,
,,,,space,,0,60,60,301,1,P, , , , ,space,1500,1.5,611675906999c2e9533a272a,001,2021-08-19_16h37.08.557,natb3,2021.2.3,Win32,60.40106306,611675906999c2e9533a272a,611e07ecdcc96256ae8d5b80,611e79e73df67275c8dfeb7b,0.5511,
,,,,space,,0,61,61,235,1,A, , , , ,space,1500,1.5,611675906999c2e9533a272a,001,2021-08-19_16h37.08.557,natb3,2021.2.3,Win32,60.40106306,611675906999c2e9533a272a,611e07ecdcc96256ae8d5b80,611e79e73df67275c8dfeb7b,0.54,
,,,,space,,0,62,62,296,1,Y, , , , ,space,2500,2.5,611675906999c2e9533a272a,001,2021-08-19_16h37.08.557,natb3,2021.2.3,Win32,60.40106306,611675906999c2e9533a272a,611e07ecdcc96256ae8d5b80,611e79e73df67275c8dfeb7b,0.4182,
,,,,space,,0,63,63,45,1,O, , , , ,space,2000,2,611675906999c2e9533a272a,001,2021-08-19_16h37.08.557,natb3,2021.2.3,Win32,60.40106306,611675906999c2e9533a272a,611e07ecdcc96256ae8d5b80,611e79e73df67275c8dfeb7b,0.4432,
,,,,space,,0,64,64,157,1,A, , , , ,space,2500,2.5,611675906999c2e9533a272a,001,2021-08-19_16h37.08.557,natb3,2021.2.3,Win32,60.40106306,611675906999c2e9533a272a,611e07ecdcc96256ae8d5b80,611e79e73df67275c8dfeb7b,0.4109,
,,,,space,,0,65,65,61,1,C, , , , ,space,2000,2,611675906999c2e9533a272a,001,2021-08-19_16h37.08.557,natb3,2021.2.3,Win32,60.40106306,611675906999c2e9533a272a,611e07ecdcc96256ae8d5b80,611e79e73df67275c8dfeb7b,0.4837,
,,,,space,,0,66,66,47,1,P, , , , ,space,2000,2,611675906999c2e9533a272a,001,2021-08-19_16h37.08.557,natb3,2021.2.3,Win32,60.40106306,611675906999c2e9533a272a,611e07ecdcc96256ae8d5b80,611e79e73df67275c8dfeb7b,0.577,
,,,,space,,0,67,67,136,1,Z, , , , ,space,2500,2.5,611675906999c2e9533a272a,001,2021-08-19_16h37.08.557,natb3,2021.2.3,Win32,60.40106306,611675906999c2e9533a272a,611e07ecdcc96256ae8d5b80,611e79e73df67275c8dfeb7b,0.4427,
,,,,space,,0,68,68,165,1,J, , , , ,space,2500,2.5,611675906999c2e9533a272a,001,2021-08-19_16h37.08.557,natb3,2021.2.3,Win32,60.40106306,611675906999c2e9533a272a,611e07ecdcc96256ae8d5b80,611e79e73df67275c8dfeb7b,0.4408,
,,,,space,,0,69,69,298,1,I, , , , ,space,2000,2,611675906999c2e9533a272a,001,2021-08-19_16h37.08.557,natb3,2021.2.3,Win32,60.40106306,611675906999c2e9533a272a,611e07ecdcc96256ae8d5b80,611e79e73df67275c8dfeb7b,0.5074,
,,,,space,,0,70,70,300,1,O, , , , ,space,2500,2.5,611675906999c2e9533a272a,001,2021-08-19_16h37.08.557,natb3,2021.2.3,Win32,60.40106306,611675906999c2e9533a272a,611e07ecdcc96256ae8d5b80,611e79e73df67275c8dfeb7b,0.4814,
,,,,,,0,71,71,15,1,X, , , , ,,1500,1.5,611675906999c2e9533a272a,001,2021-08-19_16h37.08.557,natb3,2021.2.3,Win32,60.40106306,611675906999c2e9533a272a,611e07ecdcc96256ae8d5b80,611e79e73df67275c8dfeb7b,,
,,,,space,,0,72,72,26,1,C, , , , ,space,2000,2,611675906999c2e9533a272a,001,2021-08-19_16h37.08.557,natb3,2021.2.3,Win32,60.40106306,611675906999c2e9533a272a,611e07ecdcc96256ae8d5b80,611e79e73df67275c8dfeb7b,0.5994,
,,,,,,0,73,73,133,1,X, ,4, ,6,,2500,2.5,611675906999c2e9533a272a,001,2021-08-19_16h37.08.557,natb3,2021.2.3,Win32,60.40106306,611675906999c2e9533a272a,611e07ecdcc96256ae8d5b80,611e79e73df67275c8dfeb7b,,
,,,,,,0,74,74,145,1,X, , , , ,,2000,2,611675906999c2e9533a272a,001,2021-08-19_16h37.08.557,natb3,2021.2.3,Win32,60.40106306,611675906999c2e9533a272a,611e07ecdcc96256ae8d5b80,611e79e73df67275c8dfeb7b,,
,,,,,,0,75,75,93,1,X,5, ,7, ,,2500,2.5,611675906999c2e9533a272a,001,2021-08-19_16h37.08.557,natb3,2021.2.3,Win32,60.40106306,611675906999c2e9533a272a,611e07ecdcc96256ae8d5b80,611e79e73df67275c8dfeb7b,,
,,,,space,,0,76,76,139,1,V, , , , ,space,2000,2,611675906999c2e9533a272a,001,2021-08-19_16h37.08.557,natb3,2021.2.3,Win32,60.40106306,611675906999c2e9533a272a,611e07ecdcc96256ae8d5b80,611e79e73df67275c8dfeb7b,0.6292,
,,,,,,0,77,77,213,1,X, , , , ,,2500,2.5,611675906999c2e9533a272a,001,2021-08-19_16h37.08.557,natb3,2021.2.3,Win32,60.40106306,611675906999c2e9533a272a,611e07ecdcc96256ae8d5b80,611e79e73df67275c8dfeb7b,,
,,,,,,0,78,78,7,1,X, , , , ,,1500,1.5,611675906999c2e9533a272a,001,2021-08-19_16h37.08.557,natb3,2021.2.3,Win32,60.40106306,611675906999c2e9533a272a,611e07ecdcc96256ae8d5b80,611e79e73df67275c8dfeb7b,,
,,,,,,0,79,79,234,1,P, , , , ,space,2000,2,611675906999c2e9533a272a,001,2021-08-19_16h37.08.557,natb3,2021.2.3,Win32,60.40106306,611675906999c2e9533a272a,611e07ecdcc96256ae8d5b80,611e79e73df67275c8dfeb7b,,
,,,,,,0,80,80,135,1,K, , , , ,space,1500,1.5,611675906999c2e9533a272a,001,2021-08-19_16h37.08.557,natb3,2021.2.3,Win32,60.40106306,611675906999c2e9533a272a,611e07ecdcc96256ae8d5b80,611e79e73df67275c8dfeb7b,,
,,,,,,0,81,81,179,1,X, ,9, ,2,,1500,1.5,611675906999c2e9533a272a,001,2021-08-19_16h37.08.557,natb3,2021.2.3,Win32,60.40106306,611675906999c2e9533a272a,611e07ecdcc96256ae8d5b80,611e79e73df67275c8dfeb7b,,
,,,,,,0,82,82,148,1,X, , , , ,,2000,2,611675906999c2e9533a272a,001,2021-08-19_16h37.08.557,natb3,2021.2.3,Win32,60.40106306,611675906999c2e9533a272a,611e07ecdcc96256ae8d5b80,611e79e73df67275c8dfeb7b,,
,,,,,,0,83,83,236,1,X,3, ,4,7,,2500,2.5,611675906999c2e9533a272a,001,2021-08-19_16h37.08.557,natb3,2021.2.3,Win32,60.40106306,611675906999c2e9533a272a,611e07ecdcc96256ae8d5b80,611e79e73df67275c8dfeb7b,,
,,,,space,,0,84,84,119,1,Y, , , , ,space,2500,2.5,611675906999c2e9533a272a,001,2021-08-19_16h37.08.557,natb3,2021.2.3,Win32,60.40106306,611675906999c2e9533a272a,611e07ecdcc96256ae8d5b80,611e79e73df67275c8dfeb7b,0.5405,
,,,,space,,0,85,85,25,1,Z, , , , ,space,2500,2.5,611675906999c2e9533a272a,001,2021-08-19_16h37.08.557,natb3,2021.2.3,Win32,60.40106306,611675906999c2e9533a272a,611e07ecdcc96256ae8d5b80,611e79e73df67275c8dfeb7b,0.4506,
,,,,space,,0,86,86,219,1,Y, , , , ,space,2000,2,611675906999c2e9533a272a,001,2021-08-19_16h37.08.557,natb3,2021.2.3,Win32,60.40106306,611675906999c2e9533a272a,611e07ecdcc96256ae8d5b80,611e79e73df67275c8dfeb7b,0.5463,
,,,,,,0,87,87,318,1,X, , , , ,,1500,1.5,611675906999c2e9533a272a,001,2021-08-19_16h37.08.557,natb3,2021.2.3,Win32,60.40106306,611675906999c2e9533a272a,611e07ecdcc96256ae8d5b80,611e79e73df67275c8dfeb7b,,
,,,,space,,0,88,88,13,1,A, , , , ,space,2000,2,611675906999c2e9533a272a,001,2021-08-19_16h37.08.557,natb3,2021.2.3,Win32,60.40106306,611675906999c2e9533a272a,611e07ecdcc96256ae8d5b80,611e79e73df67275c8dfeb7b,0.4356,
,,,,space,,0,89,89,77,1,O, , , , ,space,2000,2,611675906999c2e9533a272a,001,2021-08-19_16h37.08.557,natb3,2021.2.3,Win32,60.40106306,611675906999c2e9533a272a,611e07ecdcc96256ae8d5b80,611e79e73df67275c8dfeb7b,0.496,
,,,,,,0,90,90,4,1,X, , , , ,,2000,2,611675906999c2e9533a272a,001,2021-08-19_16h37.08.557,natb3,2021.2.3,Win32,60.40106306,611675906999c2e9533a272a,611e07ecdcc96256ae8d5b80,611e79e73df67275c8dfeb7b,,
,,,,space,,0,91,91,238,1,D, , , , ,space,1500,1.5,611675906999c2e9533a272a,001,2021-08-19_16h37.08.557,natb3,2021.2.3,Win32,60.40106306,611675906999c2e9533a272a,611e07ecdcc96256ae8d5b80,611e79e73df67275c8dfeb7b,0.4307,
,,,,space,,0,92,92,150,1,T, , , , ,space,2500,2.5,611675906999c2e9533a272a,001,2021-08-19_16h37.08.557,natb3,2021.2.3,Win32,60.40106306,611675906999c2e9533a272a,611e07ecdcc96256ae8d5b80,611e79e73df67275c8dfeb7b,0.6597,
,,,,space,,0,93,93,177,1,M, , , , ,space,2500,2.5,611675906999c2e9533a272a,001,2021-08-19_16h37.08.557,natb3,2021.2.3,Win32,60.40106306,611675906999c2e9533a272a,611e07ecdcc96256ae8d5b80,611e79e73df67275c8dfeb7b,0.4783,
,,,,space,,0,94,94,216,1,R, , , , ,space,1500,1.5,611675906999c2e9533a272a,001,2021-08-19_16h37.08.557,natb3,2021.2.3,Win32,60.40106306,611675906999c2e9533a272a,611e07ecdcc96256ae8d5b80,611e79e73df67275c8dfeb7b,0.365,
,,,,,,0,95,95,125,1,X, , , , ,,2000,2,611675906999c2e9533a272a,001,2021-08-19_16h37.08.557,natb3,2021.2.3,Win32,60.40106306,611675906999c2e9533a272a,611e07ecdcc96256ae8d5b80,611e79e73df67275c8dfeb7b,,
,,,,space,,0,96,96,87,1,H, , , , ,space,1500,1.5,611675906999c2e9533a272a,001,2021-08-19_16h37.08.557,natb3,2021.2.3,Win32,60.40106306,611675906999c2e9533a272a,611e07ecdcc96256ae8d5b80,611e79e73df67275c8dfeb7b,0.5077,
,,,,,,0,97,97,282,1,X, , , , ,,2500,2.5,611675906999c2e9533a272a,001,2021-08-19_16h37.08.557,natb3,2021.2.3,Win32,60.40106306,611675906999c2e9533a272a,611e07ecdcc96256ae8d5b80,611e79e73df67275c8dfeb7b,,
,,,,,,0,98,98,129,1,X,2,3,5, ,,1500,1.5,611675906999c2e9533a272a,001,2021-08-19_16h37.08.557,natb3,2021.2.3,Win32,60.40106306,611675906999c2e9533a272a,611e07ecdcc96256ae8d5b80,611e79e73df67275c8dfeb7b,,
,,,,,,0,99,99,313,1,X, , , , ,,2500,2.5,611675906999c2e9533a272a,001,2021-08-19_16h37.08.557,natb3,2021.2.3,Win32,60.40106306,611675906999c2e9533a272a,611e07ecdcc96256ae8d5b80,611e79e73df67275c8dfeb7b,,
,,,,space,,0,100,100,50,1,D, , , , ,space,1500,1.5,611675906999c2e9533a272a,001,2021-08-19_16h37.08.557,natb3,2021.2.3,Win32,60.40106306,611675906999c2e9533a272a,611e07ecdcc96256ae8d5b80,611e79e73df67275c8dfeb7b,0.5268,
,,,,space,,0,101,101,160,1,D, , , , ,space,1500,1.5,611675906999c2e9533a272a,001,2021-08-19_16h37.08.557,natb3,2021.2.3,Win32,60.40106306,611675906999c2e9533a272a,611e07ecdcc96256ae8d5b80,611e79e73df67275c8dfeb7b,0.5305,
,,,,space,,0,102,102,152,1,U, , , , ,space,2000,2,611675906999c2e9533a272a,001,2021-08-19_16h37.08.557,natb3,2021.2.3,Win32,60.40106306,611675906999c2e9533a272a,611e07ecdcc96256ae8d5b80,611e79e73df67275c8dfeb7b,0.5676,
,,,,space,,0,103,103,132,1,H, , , , ,space,2500,2.5,611675906999c2e9533a272a,001,2021-08-19_16h37.08.557,natb3,2021.2.3,Win32,60.40106306,611675906999c2e9533a272a,611e07ecdcc96256ae8d5b80,611e79e73df67275c8dfeb7b,0.4525,
,,,,,,0,104,104,302,1,X, , , , ,,2000,2,611675906999c2e9533a272a,001,2021-08-19_16h37.08.557,natb3,2021.2.3,Win32,60.40106306,611675906999c2e9533a272a,611e07ecdcc96256ae8d5b80,611e79e73df67275c8dfeb7b,,
,,,,space,,0,105,105,183,1,R, , , , ,space,1500,1.5,611675906999c2e9533a272a,001,2021-08-19_16h37.08.557,natb3,2021.2.3,Win32,60.40106306,611675906999c2e9533a272a,611e07ecdcc96256ae8d5b80,611e79e73df67275c8dfeb7b,0.4516,
,,,,,,0,106,106,239,1,X, , , , ,,2000,2,611675906999c2e9533a272a,001,2021-08-19_16h37.08.557,natb3,2021.2.3,Win32,60.40106306,611675906999c2e9533a272a,611e07ecdcc96256ae8d5b80,611e79e73df67275c8dfeb7b,,
,,,,,,0,107,107,187,1,X, ,3,7,4,,1500,1.5,611675906999c2e9533a272a,001,2021-08-19_16h37.08.557,natb3,2021.2.3,Win32,60.40106306,611675906999c2e9533a272a,611e07ecdcc96256ae8d5b80,611e79e73df67275c8dfeb7b,,
,,,,space,,0,108,108,155,1,O, , , , ,space,1500,1.5,611675906999c2e9533a272a,001,2021-08-19_16h37.08.557,natb3,2021.2.3,Win32,60.40106306,611675906999c2e9533a272a,611e07ecdcc96256ae8d5b80,611e79e73df67275c8dfeb7b,0.4607,
,,,,,,0,109,109,107,1,X,9,3, ,2,,2000,2,611675906999c2e9533a272a,001,2021-08-19_16h37.08.557,natb3,2021.2.3,Win32,60.40106306,611675906999c2e9533a272a,611e07ecdcc96256ae8d5b80,611e79e73df67275c8dfeb7b,,
,,,,space,,0,110,110,42,1,U, , , , ,space,1500,1.5,611675906999c2e9533a272a,001,2021-08-19_16h37.08.557,natb3,2021.2.3,Win32,60.40106306,611675906999c2e9533a272a,611e07ecdcc96256ae8d5b80,611e79e73df67275c8dfeb7b,0.4114,
,,,,space,,0,111,111,109,1,U, , , , ,space,1500,1.5,611675906999c2e9533a272a,001,2021-08-19_16h37.08.557,natb3,2021.2.3,Win32,60.40106306,611675906999c2e9533a272a,611e07ecdcc96256ae8d5b80,611e79e73df67275c8dfeb7b,0.6829,
,,,,space,,0,112,112,334,1,O, , , , ,space,1500,1.5,611675906999c2e9533a272a,001,2021-08-19_16h37.08.557,natb3,2021.2.3,Win32,60.40106306,611675906999c2e9533a272a,611e07ecdcc96256ae8d5b80,611e79e73df67275c8dfeb7b,0.5137,
,,,,,,0,113,113,195,1,X, , , , ,,1500,1.5,611675906999c2e9533a272a,001,2021-08-19_16h37.08.557,natb3,2021.2.3,Win32,60.40106306,611675906999c2e9533a272a,611e07ecdcc96256ae8d5b80,611e79e73df67275c8dfeb7b,,
,,,,,,0,114,114,116,1,X, , , , ,,2000,2,611675906999c2e9533a272a,001,2021-08-19_16h37.08.557,natb3,2021.2.3,Win32,60.40106306,611675906999c2e9533a272a,611e07ecdcc96256ae8d5b80,611e79e73df67275c8dfeb7b,,
,,,,space,,0,115,115,209,1,N, , , , ,space,2000,2,611675906999c2e9533a272a,001,2021-08-19_16h37.08.557,natb3,2021.2.3,Win32,60.40106306,611675906999c2e9533a272a,611e07ecdcc96256ae8d5b80,611e79e73df67275c8dfeb7b,0.4513,
,,,,space,,0,116,116,266,1,O, , , , ,space,1500,1.5,611675906999c2e9533a272a,001,2021-08-19_16h37.08.557,natb3,2021.2.3,Win32,60.40106306,611675906999c2e9533a272a,611e07ecdcc96256ae8d5b80,611e79e73df67275c8dfeb7b,0.4577,
,,,,space,,0,117,117,326,1,W, , , , ,space,2000,2,611675906999c2e9533a272a,001,2021-08-19_16h37.08.557,natb3,2021.2.3,Win32,60.40106306,611675906999c2e9533a272a,611e07ecdcc96256ae8d5b80,611e79e73df67275c8dfeb7b,0.484,
,,,,space,,0,118,118,237,1,S, , , , ,space,1500,1.5,611675906999c2e9533a272a,001,2021-08-19_16h37.08.557,natb3,2021.2.3,Win32,60.40106306,611675906999c2e9533a272a,611e07ecdcc96256ae8d5b80,611e79e73df67275c8dfeb7b,0.3886,
,,,,space,,0,119,119,249,1,C, , , , ,space,2000,2,611675906999c2e9533a272a,001,2021-08-19_16h37.08.557,natb3,2021.2.3,Win32,60.40106306,611675906999c2e9533a272a,611e07ecdcc96256ae8d5b80,611e79e73df67275c8dfeb7b,0.3549,
,,,,space,,0,120,120,19,1,G, , , , ,space,1500,1.5,611675906999c2e9533a272a,001,2021-08-19_16h37.08.557,natb3,2021.2.3,Win32,60.40106306,611675906999c2e9533a272a,611e07ecdcc96256ae8d5b80,611e79e73df67275c8dfeb7b,0.5845,
,,,,space,,0,121,121,90,1,K, , , , ,space,2000,2,611675906999c2e9533a272a,001,2021-08-19_16h37.08.557,natb3,2021.2.3,Win32,60.40106306,611675906999c2e9533a272a,611e07ecdcc96256ae8d5b80,611e79e73df67275c8dfeb7b,0.5016,
,,,,space,,0,122,122,223,1,Q, , , , ,space,2000,2,611675906999c2e9533a272a,001,2021-08-19_16h37.08.557,natb3,2021.2.3,Win32,60.40106306,611675906999c2e9533a272a,611e07ecdcc96256ae8d5b80,611e79e73df67275c8dfeb7b,0.6677,
,,,,,,0,123,123,158,1,X, , , , ,,1500,1.5,611675906999c2e9533a272a,001,2021-08-19_16h37.08.557,natb3,2021.2.3,Win32,60.40106306,611675906999c2e9533a272a,611e07ecdcc96256ae8d5b80,611e79e73df67275c8dfeb7b,,
,,,,space,,0,124,124,20,1,H, , , , ,space,1500,1.5,611675906999c2e9533a272a,001,2021-08-19_16h37.08.557,natb3,2021.2.3,Win32,60.40106306,611675906999c2e9533a272a,611e07ecdcc96256ae8d5b80,611e79e73df67275c8dfeb7b,0.5441,
,,,,space,,0,125,125,67,1,Q, , , , ,space,2000,2,611675906999c2e9533a272a,001,2021-08-19_16h37.08.557,natb3,2021.2.3,Win32,60.40106306,611675906999c2e9533a272a,611e07ecdcc96256ae8d5b80,611e79e73df67275c8dfeb7b,0.463,
,,,,space,,0,126,126,260,1,R, , , , ,space,2000,2,611675906999c2e9533a272a,001,2021-08-19_16h37.08.557,natb3,2021.2.3,Win32,60.40106306,611675906999c2e9533a272a,611e07ecdcc96256ae8d5b80,611e79e73df67275c8dfeb7b,0.5112,
,,,,,,0,127,127,233,1,X, ,2, ,5,,1500,1.5,611675906999c2e9533a272a,001,2021-08-19_16h37.08.557,natb3,2021.2.3,Win32,60.40106306,611675906999c2e9533a272a,611e07ecdcc96256ae8d5b80,611e79e73df67275c8dfeb7b,,
,,,,space,,0,128,128,294,1,T, , , , ,space,2000,2,611675906999c2e9533a272a,001,2021-08-19_16h37.08.557,natb3,2021.2.3,Win32,60.40106306,611675906999c2e9533a272a,611e07ecdcc96256ae8d5b80,611e79e73df67275c8dfeb7b,0.5707,
,,,,space,,0,129,129,2,1,E, , , , ,space,2500,2.5,611675906999c2e9533a272a,001,2021-08-19_16h37.08.557,natb3,2021.2.3,Win32,60.40106306,611675906999c2e9533a272a,611e07ecdcc96256ae8d5b80,611e79e73df67275c8dfeb7b,0.6845,
,,,,space,,0,130,130,258,1,E, , , , ,space,1500,1.5,611675906999c2e9533a272a,001,2021-08-19_16h37.08.557,natb3,2021.2.3,Win32,60.40106306,611675906999c2e9533a272a,611e07ecdcc96256ae8d5b80,611e79e73df67275c8dfeb7b,0.5052,
,,,,space,,0,131,131,222,1,O, , , , ,space,2000,2,611675906999c2e9533a272a,001,2021-08-19_16h37.08.557,natb3,2021.2.3,Win32,60.40106306,611675906999c2e9533a272a,611e07ecdcc96256ae8d5b80,611e79e73df67275c8dfeb7b,0.4114,
,,,,space,,0,132,132,208,1,B, , , , ,space,1500,1.5,611675906999c2e9533a272a,001,2021-08-19_16h37.08.557,natb3,2021.2.3,Win32,60.40106306,611675906999c2e9533a272a,611e07ecdcc96256ae8d5b80,611e79e73df67275c8dfeb7b,0.356,
,,,,,,0,133,133,78,1,X, , , , ,,2000,2,611675906999c2e9533a272a,001,2021-08-19_16h37.08.557,natb3,2021.2.3,Win32,60.40106306,611675906999c2e9533a272a,611e07ecdcc96256ae8d5b80,611e79e73df67275c8dfeb7b,,
,,,,space,,0,134,134,186,1,U, , , , ,space,2500,2.5,611675906999c2e9533a272a,001,2021-08-19_16h37.08.557,natb3,2021.2.3,Win32,60.40106306,611675906999c2e9533a272a,611e07ecdcc96256ae8d5b80,611e79e73df67275c8dfeb7b,0.533,
,,,,space,,0,135,135,220,1,U, , , , ,space,2500,2.5,611675906999c2e9533a272a,001,2021-08-19_16h37.08.557,natb3,2021.2.3,Win32,60.40106306,611675906999c2e9533a272a,611e07ecdcc96256ae8d5b80,611e79e73df67275c8dfeb7b,0.5521,
,,,,space,,0,136,136,40,1,T, , , , ,space,1500,1.5,611675906999c2e9533a272a,001,2021-08-19_16h37.08.557,natb3,2021.2.3,Win32,60.40106306,611675906999c2e9533a272a,611e07ecdcc96256ae8d5b80,611e79e73df67275c8dfeb7b,0.4743,
,,,,space,,0,137,137,226,1,R, , , , ,space,2000,2,611675906999c2e9533a272a,001,2021-08-19_16h37.08.557,natb3,2021.2.3,Win32,60.40106306,611675906999c2e9533a272a,611e07ecdcc96256ae8d5b80,611e79e73df67275c8dfeb7b,0.734,
,,,,space,,0,138,138,202,1,L, , , , ,space,2500,2.5,611675906999c2e9533a272a,001,2021-08-19_16h37.08.557,natb3,2021.2.3,Win32,60.40106306,611675906999c2e9533a272a,611e07ecdcc96256ae8d5b80,611e79e73df67275c8dfeb7b,0.5928,
,,,,space,,0,139,139,314,1,L, , , , ,space,1500,1.5,611675906999c2e9533a272a,001,2021-08-19_16h37.08.557,natb3,2021.2.3,Win32,60.40106306,611675906999c2e9533a272a,611e07ecdcc96256ae8d5b80,611e79e73df67275c8dfeb7b,0.5748,
,,,,space,,0,140,140,193,1,S, , , , ,space,2500,2.5,611675906999c2e9533a272a,001,2021-08-19_16h37.08.557,natb3,2021.2.3,Win32,60.40106306,611675906999c2e9533a272a,611e07ecdcc96256ae8d5b80,611e79e73df67275c8dfeb7b,0.6424,
,,,,,,0,141,141,335,1,P,,,,,space,1500,1.5,611675906999c2e9533a272a,001,2021-08-19_16h37.08.557,natb3,2021.2.3,Win32,60.40106306,611675906999c2e9533a272a,611e07ecdcc96256ae8d5b80,611e79e73df67275c8dfeb7b,,
,,,,space,,0,142,142,324,1,Q, , , , ,space,2000,2,611675906999c2e9533a272a,001,2021-08-19_16h37.08.557,natb3,2021.2.3,Win32,60.40106306,611675906999c2e9533a272a,611e07ecdcc96256ae8d5b80,611e79e73df67275c8dfeb7b,0.5025,
,,,,space,,0,143,143,169,1,L, , , , ,space,2500,2.5,611675906999c2e9533a272a,001,2021-08-19_16h37.08.557,natb3,2021.2.3,Win32,60.40106306,611675906999c2e9533a272a,611e07ecdcc96256ae8d5b80,611e79e73df67275c8dfeb7b,0.4733,
,,,,space,,0,144,144,196,1,F, , , , ,space,1500,1.5,611675906999c2e9533a272a,001,2021-08-19_16h37.08.557,natb3,2021.2.3,Win32,60.40106306,611675906999c2e9533a272a,611e07ecdcc96256ae8d5b80,611e79e73df67275c8dfeb7b,0.4155,
,,,,space,,0,145,145,100,1,M, , , , ,space,2000,2,611675906999c2e9533a272a,001,2021-08-19_16h37.08.557,natb3,2021.2.3,Win32,60.40106306,611675906999c2e9533a272a,611e07ecdcc96256ae8d5b80,611e79e73df67275c8dfeb7b,0.4152,
,,,,space,,0,146,146,232,1,O, , , , ,space,2500,2.5,611675906999c2e9533a272a,001,2021-08-19_16h37.08.557,natb3,2021.2.3,Win32,60.40106306,611675906999c2e9533a272a,611e07ecdcc96256ae8d5b80,611e79e73df67275c8dfeb7b,0.4459,
,,,,space,,0,147,147,228,1,Y, , , , ,space,2000,2,611675906999c2e9533a272a,001,2021-08-19_16h37.08.557,natb3,2021.2.3,Win32,60.40106306,611675906999c2e9533a272a,611e07ecdcc96256ae8d5b80,611e79e73df67275c8dfeb7b,0.5157,
,,,,space,,0,148,148,105,1,R, , , , ,space,2500,2.5,611675906999c2e9533a272a,001,2021-08-19_16h37.08.557,natb3,2021.2.3,Win32,60.40106306,611675906999c2e9533a272a,611e07ecdcc96256ae8d5b80,611e79e73df67275c8dfeb7b,0.3927,
,,,,space,,0,149,149,154,1,I, , , , ,space,2500,2.5,611675906999c2e9533a272a,001,2021-08-19_16h37.08.557,natb3,2021.2.3,Win32,60.40106306,611675906999c2e9533a272a,611e07ecdcc96256ae8d5b80,611e79e73df67275c8dfeb7b,0.4246,
,,,,space,,0,150,150,321,1,N, , , , ,space,2000,2,611675906999c2e9533a272a,001,2021-08-19_16h37.08.557,natb3,2021.2.3,Win32,60.40106306,611675906999c2e9533a272a,611e07ecdcc96256ae8d5b80,611e79e73df67275c8dfeb7b,0.4978,
,,,,,,0,151,151,96,1,X, , , , ,,1500,1.5,611675906999c2e9533a272a,001,2021-08-19_16h37.08.557,natb3,2021.2.3,Win32,60.40106306,611675906999c2e9533a272a,611e07ecdcc96256ae8d5b80,611e79e73df67275c8dfeb7b,,
,,,,space,,0,152,152,312,1,K, , , , ,space,2000,2,611675906999c2e9533a272a,001,2021-08-19_16h37.08.557,natb3,2021.2.3,Win32,60.40106306,611675906999c2e9533a272a,611e07ecdcc96256ae8d5b80,611e79e73df67275c8dfeb7b,0.4468,
,,,,space,,0,153,153,126,1,A, , , , ,space,2500,2.5,611675906999c2e9533a272a,001,2021-08-19_16h37.08.557,natb3,2021.2.3,Win32,60.40106306,611675906999c2e9533a272a,611e07ecdcc96256ae8d5b80,611e79e73df67275c8dfeb7b,0.4385,
,,,,space,,0,154,154,227,1,T, , , , ,space,1500,1.5,611675906999c2e9533a272a,001,2021-08-19_16h37.08.557,natb3,2021.2.3,Win32,60.40106306,611675906999c2e9533a272a,611e07ecdcc96256ae8d5b80,611e79e73df67275c8dfeb7b,0.5747,
,,,,space,,0,155,155,244,1,J, , , , ,space,1500,1.5,611675906999c2e9533a272a,001,2021-08-19_16h37.08.557,natb3,2021.2.3,Win32,60.40106306,611675906999c2e9533a272a,611e07ecdcc96256ae8d5b80,611e79e73df67275c8dfeb7b,0.6096,
,,,,,,0,156,156,51,1,X,7,5,8, ,,1500,1.5,611675906999c2e9533a272a,001,2021-08-19_16h37.08.557,natb3,2021.2.3,Win32,60.40106306,611675906999c2e9533a272a,611e07ecdcc96256ae8d5b80,611e79e73df67275c8dfeb7b,,
,,,,space,,0,157,157,151,1,Y, , , , ,space,2500,2.5,611675906999c2e9533a272a,001,2021-08-19_16h37.08.557,natb3,2021.2.3,Win32,60.40106306,611675906999c2e9533a272a,611e07ecdcc96256ae8d5b80,611e79e73df67275c8dfeb7b,0.5436,
,,,,space,,0,158,158,281,1,Z, , , , ,space,1500,1.5,611675906999c2e9533a272a,001,2021-08-19_16h37.08.557,natb3,2021.2.3,Win32,60.40106306,611675906999c2e9533a272a,611e07ecdcc96256ae8d5b80,611e79e73df67275c8dfeb7b,0.5641,
,,,,space,,0,159,159,68,1,W, , , , ,space,2500,2.5,611675906999c2e9533a272a,001,2021-08-19_16h37.08.557,natb3,2021.2.3,Win32,60.40106306,611675906999c2e9533a272a,611e07ecdcc96256ae8d5b80,611e79e73df67275c8dfeb7b,0.413,
,,,,space,,0,160,160,241,1,G, , , , ,space,2500,2.5,611675906999c2e9533a272a,001,2021-08-19_16h37.08.557,natb3,2021.2.3,Win32,60.40106306,611675906999c2e9533a272a,611e07ecdcc96256ae8d5b80,611e79e73df67275c8dfeb7b,0.4628,
,,,,space,,0,161,161,204,1,Z, , , , ,space,2000,2,611675906999c2e9533a272a,001,2021-08-19_16h37.08.557,natb3,2021.2.3,Win32,60.40106306,611675906999c2e9533a272a,611e07ecdcc96256ae8d5b80,611e79e73df67275c8dfeb7b,0.4656,
,,,,space,,0,162,162,310,1,J, , , , ,space,2500,2.5,611675906999c2e9533a272a,001,2021-08-19_16h37.08.557,natb3,2021.2.3,Win32,60.40106306,611675906999c2e9533a272a,611e07ecdcc96256ae8d5b80,611e79e73df67275c8dfeb7b,0.4934,
,,,,space,,0,163,163,59,1,Z, , , , ,space,2000,2,611675906999c2e9533a272a,001,2021-08-19_16h37.08.557,natb3,2021.2.3,Win32,60.40106306,611675906999c2e9533a272a,611e07ecdcc96256ae8d5b80,611e79e73df67275c8dfeb7b,0.4039,
,,,,space,,0,164,164,48,1,A, , , , ,space,2500,2.5,611675906999c2e9533a272a,001,2021-08-19_16h37.08.557,natb3,2021.2.3,Win32,60.40106306,611675906999c2e9533a272a,611e07ecdcc96256ae8d5b80,611e79e73df67275c8dfeb7b,0.5151,
,,,,space,,0,165,165,197,1,G, , , , ,space,2500,2.5,611675906999c2e9533a272a,001,2021-08-19_16h37.08.557,natb3,2021.2.3,Win32,60.40106306,611675906999c2e9533a272a,611e07ecdcc96256ae8d5b80,611e79e73df67275c8dfeb7b,0.5204,
,,,,space,,0,166,166,55,1,H, , , , ,space,2500,2.5,611675906999c2e9533a272a,001,2021-08-19_16h37.08.557,natb3,2021.2.3,Win32,60.40106306,611675906999c2e9533a272a,611e07ecdcc96256ae8d5b80,611e79e73df67275c8dfeb7b,0.3765,
,,,,space,space,0,167,167,198,1,H, , , , ,space,2500,2.5,611675906999c2e9533a272a,001,2021-08-19_16h37.08.557,natb3,2021.2.3,Win32,60.40106306,611675906999c2e9533a272a,611e07ecdcc96256ae8d5b80,611e79e73df67275c8dfeb7b,0.5194,370.2344
,,,,space,,0,168,168,332,1,U, , , , ,space,2000,2,611675906999c2e9533a272a,001,2021-08-19_16h37.08.557,natb3,2021.2.3,Win32,60.40106306,611675906999c2e9533a272a,611e07ecdcc96256ae8d5b80,611e79e73df67275c8dfeb7b,0.5314,
,,,,,,0,169,169,12,1,X, , , , ,,1500,1.5,611675906999c2e9533a272a,001,2021-08-19_16h37.08.557,natb3,2021.2.3,Win32,60.40106306,611675906999c2e9533a272a,611e07ecdcc96256ae8d5b80,611e79e73df67275c8dfeb7b,,
,,,,,,0,170,170,248,1,X, ,1,5, ,,1500,1.5,611675906999c2e9533a272a,001,2021-08-19_16h37.08.557,natb3,2021.2.3,Win32,60.40106306,611675906999c2e9533a272a,611e07ecdcc96256ae8d5b80,611e79e73df67275c8dfeb7b,,
,,,,space,,0,171,171,181,1,E, , , , ,space,1500,1.5,611675906999c2e9533a272a,001,2021-08-19_16h37.08.557,natb3,2021.2.3,Win32,60.40106306,611675906999c2e9533a272a,611e07ecdcc96256ae8d5b80,611e79e73df67275c8dfeb7b,0.5515,
,,,,,,0,172,172,322,1,X, , ,1,6,,2000,2,611675906999c2e9533a272a,001,2021-08-19_16h37.08.557,natb3,2021.2.3,Win32,60.40106306,611675906999c2e9533a272a,611e07ecdcc96256ae8d5b80,611e79e73df67275c8dfeb7b,,
,,,,space,,0,173,173,41,1,Y, , , , ,space,2500,2.5,611675906999c2e9533a272a,001,2021-08-19_16h37.08.557,natb3,2021.2.3,Win32,60.40106306,611675906999c2e9533a272a,611e07ecdcc96256ae8d5b80,611e79e73df67275c8dfeb7b,0.4985,
,,,,space,,0,174,174,44,1,I, , , , ,space,2500,2.5,611675906999c2e9533a272a,001,2021-08-19_16h37.08.557,natb3,2021.2.3,Win32,60.40106306,611675906999c2e9533a272a,611e07ecdcc96256ae8d5b80,611e79e73df67275c8dfeb7b,0.415,
,,,,space,,0,175,175,128,1,D, , , , ,space,2500,2.5,611675906999c2e9533a272a,001,2021-08-19_16h37.08.557,natb3,2021.2.3,Win32,60.40106306,611675906999c2e9533a272a,611e07ecdcc96256ae8d5b80,611e79e73df67275c8dfeb7b,0.4486,
,,,,space,,0,176,176,24,1,L, , , , ,space,2500,2.5,611675906999c2e9533a272a,001,2021-08-19_16h37.08.557,natb3,2021.2.3,Win32,60.40106306,611675906999c2e9533a272a,611e07ecdcc96256ae8d5b80,611e79e73df67275c8dfeb7b,0.4609,
,,,,space,,0,177,177,123,1,O, , , , ,space,1500,1.5,611675906999c2e9533a272a,001,2021-08-19_16h37.08.557,natb3,2021.2.3,Win32,60.40106306,611675906999c2e9533a272a,611e07ecdcc96256ae8d5b80,611e79e73df67275c8dfeb7b,0.3824,
,,,,space,,0,178,178,184,1,T, , , , ,space,2000,2,611675906999c2e9533a272a,001,2021-08-19_16h37.08.557,natb3,2021.2.3,Win32,60.40106306,611675906999c2e9533a272a,611e07ecdcc96256ae8d5b80,611e79e73df67275c8dfeb7b,0.5481,
,,,,space,,0,179,179,327,1,E, , , , ,space,1500,1.5,611675906999c2e9533a272a,001,2021-08-19_16h37.08.557,natb3,2021.2.3,Win32,60.40106306,611675906999c2e9533a272a,611e07ecdcc96256ae8d5b80,611e79e73df67275c8dfeb7b,0.544,
,,,,space,,0,180,180,32,1,M, , , , ,space,1500,1.5,611675906999c2e9533a272a,001,2021-08-19_16h37.08.557,natb3,2021.2.3,Win32,60.40106306,611675906999c2e9533a272a,611e07ecdcc96256ae8d5b80,611e79e73df67275c8dfeb7b,0.4321,
,,,,space,,0,181,181,284,1,V, , , , ,space,2500,2.5,611675906999c2e9533a272a,001,2021-08-19_16h37.08.557,natb3,2021.2.3,Win32,60.40106306,611675906999c2e9533a272a,611e07ecdcc96256ae8d5b80,611e79e73df67275c8dfeb7b,0.3988,
,,,,space,,0,182,182,192,1,A, , , , ,space,2000,2,611675906999c2e9533a272a,001,2021-08-19_16h37.08.557,natb3,2021.2.3,Win32,60.40106306,611675906999c2e9533a272a,611e07ecdcc96256ae8d5b80,611e79e73df67275c8dfeb7b,0.4848,
,,,,space,,0,183,183,85,1,F, , , , ,space,2500,2.5,611675906999c2e9533a272a,001,2021-08-19_16h37.08.557,natb3,2021.2.3,Win32,60.40106306,611675906999c2e9533a272a,611e07ecdcc96256ae8d5b80,611e79e73df67275c8dfeb7b,0.4014,
,,,,space,,0,184,184,331,1,Y, , , , ,space,2500,2.5,611675906999c2e9533a272a,001,2021-08-19_16h37.08.557,natb3,2021.2.3,Win32,60.40106306,611675906999c2e9533a272a,611e07ecdcc96256ae8d5b80,611e79e73df67275c8dfeb7b,0.3965,
,,,,space,,0,185,185,83,1,D, , , , ,space,2000,2,611675906999c2e9533a272a,001,2021-08-19_16h37.08.557,natb3,2021.2.3,Win32,60.40106306,611675906999c2e9533a272a,611e07ecdcc96256ae8d5b80,611e79e73df67275c8dfeb7b,0.4511,
,,,,space,,0,186,186,6,1,Y, , , , ,space,2500,2.5,611675906999c2e9533a272a,001,2021-08-19_16h37.08.557,natb3,2021.2.3,Win32,60.40106306,611675906999c2e9533a272a,611e07ecdcc96256ae8d5b80,611e79e73df67275c8dfeb7b,0.4044,
,,,,space,,0,187,187,33,1,X, , , , ,,1500,1.5,611675906999c2e9533a272a,001,2021-08-19_16h37.08.557,natb3,2021.2.3,Win32,60.40106306,611675906999c2e9533a272a,611e07ecdcc96256ae8d5b80,611e79e73df67275c8dfeb7b,0.4533,
,,,,space,,0,188,188,62,1,V, , , , ,space,1500,1.5,611675906999c2e9533a272a,001,2021-08-19_16h37.08.557,natb3,2021.2.3,Win32,60.40106306,611675906999c2e9533a272a,611e07ecdcc96256ae8d5b80,611e79e73df67275c8dfeb7b,0.4179,
,,,,space,,0,189,189,161,1,F, , , , ,space,1500,1.5,611675906999c2e9533a272a,001,2021-08-19_16h37.08.557,natb3,2021.2.3,Win32,60.40106306,611675906999c2e9533a272a,611e07ecdcc96256ae8d5b80,611e79e73df67275c8dfeb7b,0.5205,
,,,,,,0,190,190,218,1,X,1,3, ,8,,1500,1.5,611675906999c2e9533a272a,001,2021-08-19_16h37.08.557,natb3,2021.2.3,Win32,60.40106306,611675906999c2e9533a272a,611e07ecdcc96256ae8d5b80,611e79e73df67275c8dfeb7b,,
,,,,space,,0,191,191,52,1,F, , , , ,space,1500,1.5,611675906999c2e9533a272a,001,2021-08-19_16h37.08.557,natb3,2021.2.3,Win32,60.40106306,611675906999c2e9533a272a,611e07ecdcc96256ae8d5b80,611e79e73df67275c8dfeb7b,0.4131,
,,,,,,0,192,192,175,1,X,7, ,4,2,,1500,1.5,611675906999c2e9533a272a,001,2021-08-19_16h37.08.557,natb3,2021.2.3,Win32,60.40106306,611675906999c2e9533a272a,611e07ecdcc96256ae8d5b80,611e79e73df67275c8dfeb7b,,
,,,,space,,0,193,193,265,1,I, , , , ,space,2000,2,611675906999c2e9533a272a,001,2021-08-19_16h37.08.557,natb3,2021.2.3,Win32,60.40106306,611675906999c2e9533a272a,611e07ecdcc96256ae8d5b80,611e79e73df67275c8dfeb7b,0.611,
,,,,space,,0,194,194,72,1,T, , , , ,space,1500,1.5,611675906999c2e9533a272a,001,2021-08-19_16h37.08.557,natb3,2021.2.3,Win32,60.40106306,611675906999c2e9533a272a,611e07ecdcc96256ae8d5b80,611e79e73df67275c8dfeb7b,0.6792,
,,,,space,,0,195,195,22,1,K, , , , ,space,2000,2,611675906999c2e9533a272a,001,2021-08-19_16h37.08.557,natb3,2021.2.3,Win32,60.40106306,611675906999c2e9533a272a,611e07ecdcc96256ae8d5b80,611e79e73df67275c8dfeb7b,0.4762,
,,,,space,,0,196,196,117,1,T, , , , ,space,2500,2.5,611675906999c2e9533a272a,001,2021-08-19_16h37.08.557,natb3,2021.2.3,Win32,60.40106306,611675906999c2e9533a272a,611e07ecdcc96256ae8d5b80,611e79e73df67275c8dfeb7b,0.4469,
,,,,space,,0,197,197,319,1,V, , , , ,space,2000,2,611675906999c2e9533a272a,001,2021-08-19_16h37.08.557,natb3,2021.2.3,Win32,60.40106306,611675906999c2e9533a272a,611e07ecdcc96256ae8d5b80,611e79e73df67275c8dfeb7b,0.6609,
,,,,space,,0,198,198,134,1,J, , , , ,space,2000,2,611675906999c2e9533a272a,001,2021-08-19_16h37.08.557,natb3,2021.2.3,Win32,60.40106306,611675906999c2e9533a272a,611e07ecdcc96256ae8d5b80,611e79e73df67275c8dfeb7b,0.6306,
,,,,space,,0,199,199,245,1,K, , , , ,space,2000,2,611675906999c2e9533a272a,001,2021-08-19_16h37.08.557,natb3,2021.2.3,Win32,60.40106306,611675906999c2e9533a272a,611e07ecdcc96256ae8d5b80,611e79e73df67275c8dfeb7b,0.5405,
,,,,,,0,200,200,252,1,X,3, ,6,9,,2000,2,611675906999c2e9533a272a,001,2021-08-19_16h37.08.557,natb3,2021.2.3,Win32,60.40106306,611675906999c2e9533a272a,611e07ecdcc96256ae8d5b80,611e79e73df67275c8dfeb7b,,
,,,,space,,0,201,201,256,1,Q, , , , ,space,2000,2,611675906999c2e9533a272a,001,2021-08-19_16h37.08.557,natb3,2021.2.3,Win32,60.40106306,611675906999c2e9533a272a,611e07ecdcc96256ae8d5b80,611e79e73df67275c8dfeb7b,0.4028,
,,,,space,,0,202,202,130,1,F, , , , ,space,2000,2,611675906999c2e9533a272a,001,2021-08-19_16h37.08.557,natb3,2021.2.3,Win32,60.40106306,611675906999c2e9533a272a,611e07ecdcc96256ae8d5b80,611e79e73df67275c8dfeb7b,0.433,
,,,,,,0,203,203,60,1,X,7,3,5, ,,1500,1.5,611675906999c2e9533a272a,001,2021-08-19_16h37.08.557,natb3,2021.2.3,Win32,60.40106306,611675906999c2e9533a272a,611e07ecdcc96256ae8d5b80,611e79e73df67275c8dfeb7b,,
,,,,space,,0,204,204,279,1,K, , , , ,space,2500,2.5,611675906999c2e9533a272a,001,2021-08-19_16h37.08.557,natb3,2021.2.3,Win32,60.40106306,611675906999c2e9533a272a,611e07ecdcc96256ae8d5b80,611e79e73df67275c8dfeb7b,0.4929,
,,,,space,,0,205,205,113,1,W, , , , ,space,2500,2.5,611675906999c2e9533a272a,001,2021-08-19_16h37.08.557,natb3,2021.2.3,Win32,60.40106306,611675906999c2e9533a272a,611e07ecdcc96256ae8d5b80,611e79e73df67275c8dfeb7b,0.3806,
,,,,space,,0,206,206,142,1,N, , , , ,space,2500,2.5,611675906999c2e9533a272a,001,2021-08-19_16h37.08.557,natb3,2021.2.3,Win32,60.40106306,611675906999c2e9533a272a,611e07ecdcc96256ae8d5b80,611e79e73df67275c8dfeb7b,0.4279,
,,,,space,,0,207,207,5,1,T, , , , ,space,2000,2,611675906999c2e9533a272a,001,2021-08-19_16h37.08.557,natb3,2021.2.3,Win32,60.40106306,611675906999c2e9533a272a,611e07ecdcc96256ae8d5b80,611e79e73df67275c8dfeb7b,0.4065,
,,,,space,,0,208,208,201,1,K, , , , ,space,1500,1.5,611675906999c2e9533a272a,001,2021-08-19_16h37.08.557,natb3,2021.2.3,Win32,60.40106306,611675906999c2e9533a272a,611e07ecdcc96256ae8d5b80,611e79e73df67275c8dfeb7b,0.4183,
,,,,,,0,209,209,69,1,X, , , , ,,1500,1.5,611675906999c2e9533a272a,001,2021-08-19_16h37.08.557,natb3,2021.2.3,Win32,60.40106306,611675906999c2e9533a272a,611e07ecdcc96256ae8d5b80,611e79e73df67275c8dfeb7b,,
,,,,space,,0,210,210,1,1,W, , , , ,space,2000,2,611675906999c2e9533a272a,001,2021-08-19_16h37.08.557,natb3,2021.2.3,Win32,60.40106306,611675906999c2e9533a272a,611e07ecdcc96256ae8d5b80,611e79e73df67275c8dfeb7b,0.4134,
,,,,,,0,211,211,27,1,X,5, ,1,3,,1500,1.5,611675906999c2e9533a272a,001,2021-08-19_16h37.08.557,natb3,2021.2.3,Win32,60.40106306,611675906999c2e9533a272a,611e07ecdcc96256ae8d5b80,611e79e73df67275c8dfeb7b,,
,,,,,,0,212,212,315,1,X, , , , ,,2500,2.5,611675906999c2e9533a272a,001,2021-08-19_16h37.08.557,natb3,2021.2.3,Win32,60.40106306,611675906999c2e9533a272a,611e07ecdcc96256ae8d5b80,611e79e73df67275c8dfeb7b,,
,,,,space,,0,213,213,254,1,M, , , , ,space,1500,1.5,611675906999c2e9533a272a,001,2021-08-19_16h37.08.557,natb3,2021.2.3,Win32,60.40106306,611675906999c2e9533a272a,611e07ecdcc96256ae8d5b80,611e79e73df67275c8dfeb7b,0.4474,
,,,,space,,0,214,214,94,1,C, , , , ,space,2000,2,611675906999c2e9533a272a,001,2021-08-19_16h37.08.557,natb3,2021.2.3,Win32,60.40106306,611675906999c2e9533a272a,611e07ecdcc96256ae8d5b80,611e79e73df67275c8dfeb7b,0.4267,
,,,,,,0,215,215,299,1,X, , , , ,,2500,2.5,611675906999c2e9533a272a,001,2021-08-19_16h37.08.557,natb3,2021.2.3,Win32,60.40106306,611675906999c2e9533a272a,611e07ecdcc96256ae8d5b80,611e79e73df67275c8dfeb7b,,
,,,,space,,0,216,216,88,1,J, , , , ,space,2500,2.5,611675906999c2e9533a272a,001,2021-08-19_16h37.08.557,natb3,2021.2.3,Win32,60.40106306,611675906999c2e9533a272a,611e07ecdcc96256ae8d5b80,611e79e73df67275c8dfeb7b,0.4455,
,,,,space,,0,217,217,308,1,G, , , , ,space,1500,1.5,611675906999c2e9533a272a,001,2021-08-19_16h37.08.557,natb3,2021.2.3,Win32,60.40106306,611675906999c2e9533a272a,611e07ecdcc96256ae8d5b80,611e79e73df67275c8dfeb7b,0.5468,
,,,,,,0,218,218,287,1,X, ,2, ,9,,2000,2,611675906999c2e9533a272a,001,2021-08-19_16h37.08.557,natb3,2021.2.3,Win32,60.40106306,611675906999c2e9533a272a,611e07ecdcc96256ae8d5b80,611e79e73df67275c8dfeb7b,,
,,,,,,0,219,219,329,1,X,3,4, ,2,,2500,2.5,611675906999c2e9533a272a,001,2021-08-19_16h37.08.557,natb3,2021.2.3,Win32,60.40106306,611675906999c2e9533a272a,611e07ecdcc96256ae8d5b80,611e79e73df67275c8dfeb7b,,
,,,,space,,0,220,220,99,1,N, , , , ,space,2500,2.5,611675906999c2e9533a272a,001,2021-08-19_16h37.08.557,natb3,2021.2.3,Win32,60.40106306,611675906999c2e9533a272a,611e07ecdcc96256ae8d5b80,611e79e73df67275c8dfeb7b,0.4046,
,,,,space,,0,221,221,46,1,X, , , , ,,2000,2,611675906999c2e9533a272a,001,2021-08-19_16h37.08.557,natb3,2021.2.3,Win32,60.40106306,611675906999c2e9533a272a,611e07ecdcc96256ae8d5b80,611e79e73df67275c8dfeb7b,0.9181,
,,,,space,,0,222,222,212,1,Q, , , , ,space,2500,2.5,611675906999c2e9533a272a,001,2021-08-19_16h37.08.557,natb3,2021.2.3,Win32,60.40106306,611675906999c2e9533a272a,611e07ecdcc96256ae8d5b80,611e79e73df67275c8dfeb7b,0.5322,
,,,,space,,0,223,223,261,1,T, , , , ,space,2000,2,611675906999c2e9533a272a,001,2021-08-19_16h37.08.557,natb3,2021.2.3,Win32,60.40106306,611675906999c2e9533a272a,611e07ecdcc96256ae8d5b80,611e79e73df67275c8dfeb7b,0.5632,
,,,,space,,0,224,224,280,1,L, , , , ,space,1500,1.5,611675906999c2e9533a272a,001,2021-08-19_16h37.08.557,natb3,2021.2.3,Win32,60.40106306,611675906999c2e9533a272a,611e07ecdcc96256ae8d5b80,611e79e73df67275c8dfeb7b,0.5474,
,,,,space,,0,225,225,316,1,Z, , , , ,space,1500,1.5,611675906999c2e9533a272a,001,2021-08-19_16h37.08.557,natb3,2021.2.3,Win32,60.40106306,611675906999c2e9533a272a,611e07ecdcc96256ae8d5b80,611e79e73df67275c8dfeb7b,0.5952,
,,,,space,,0,226,226,34,1,Q, , , , ,space,2500,2.5,611675906999c2e9533a272a,001,2021-08-19_16h37.08.557,natb3,2021.2.3,Win32,60.40106306,611675906999c2e9533a272a,611e07ecdcc96256ae8d5b80,611e79e73df67275c8dfeb7b,0.3949,
,,,,space,,0,227,227,289,1,Q, , , , ,space,2000,2,611675906999c2e9533a272a,001,2021-08-19_16h37.08.557,natb3,2021.2.3,Win32,60.40106306,611675906999c2e9533a272a,611e07ecdcc96256ae8d5b80,611e79e73df67275c8dfeb7b,0.4372,
,,,,space,,0,228,228,127,1,S, , , , ,space,2500,2.5,611675906999c2e9533a272a,001,2021-08-19_16h37.08.557,natb3,2021.2.3,Win32,60.40106306,611675906999c2e9533a272a,611e07ecdcc96256ae8d5b80,611e79e73df67275c8dfeb7b,0.4625,
,,,,space,,0,229,229,76,1,I, , , , ,space,2000,2,611675906999c2e9533a272a,001,2021-08-19_16h37.08.557,natb3,2021.2.3,Win32,60.40106306,611675906999c2e9533a272a,611e07ecdcc96256ae8d5b80,611e79e73df67275c8dfeb7b,0.4418,
,,,,space,,0,230,230,269,1,A, , , , ,space,2500,2.5,611675906999c2e9533a272a,001,2021-08-19_16h37.08.557,natb3,2021.2.3,Win32,60.40106306,611675906999c2e9533a272a,611e07ecdcc96256ae8d5b80,611e79e73df67275c8dfeb7b,0.4263,
,,,,,,0,231,231,54,1,X, , , , ,,2000,2,611675906999c2e9533a272a,001,2021-08-19_16h37.08.557,natb3,2021.2.3,Win32,60.40106306,611675906999c2e9533a272a,611e07ecdcc96256ae8d5b80,611e79e73df67275c8dfeb7b,,
,,,,space,,0,232,232,58,1,L, , , , ,space,2000,2,611675906999c2e9533a272a,001,2021-08-19_16h37.08.557,natb3,2021.2.3,Win32,60.40106306,611675906999c2e9533a272a,611e07ecdcc96256ae8d5b80,611e79e73df67275c8dfeb7b,0.4619,
,,,,space,,0,233,233,264,1,U, , , , ,space,2000,2,611675906999c2e9533a272a,001,2021-08-19_16h37.08.557,natb3,2021.2.3,Win32,60.40106306,611675906999c2e9533a272a,611e07ecdcc96256ae8d5b80,611e79e73df67275c8dfeb7b,0.5945,
,,,,,,0,234,234,200,1,X,7, ,5,3,,1500,1.5,611675906999c2e9533a272a,001,2021-08-19_16h37.08.557,natb3,2021.2.3,Win32,60.40106306,611675906999c2e9533a272a,611e07ecdcc96256ae8d5b80,611e79e73df67275c8dfeb7b,,
,,,,,,0,235,235,259,1,X,8, , ,3,,2500,2.5,611675906999c2e9533a272a,001,2021-08-19_16h37.08.557,natb3,2021.2.3,Win32,60.40106306,611675906999c2e9533a272a,611e07ecdcc96256ae8d5b80,611e79e73df67275c8dfeb7b,,
,,,,space,,0,236,236,304,1,S, , , , ,space,2000,2,611675906999c2e9533a272a,001,2021-08-19_16h37.08.557,natb3,2021.2.3,Win32,60.40106306,611675906999c2e9533a272a,611e07ecdcc96256ae8d5b80,611e79e73df67275c8dfeb7b,0.5796,
,,,,space,,0,237,237,64,1,N, , , , ,space,2000,2,611675906999c2e9533a272a,001,2021-08-19_16h37.08.557,natb3,2021.2.3,Win32,60.40106306,611675906999c2e9533a272a,611e07ecdcc96256ae8d5b80,611e79e73df67275c8dfeb7b,0.4586,
,,,,,,0,238,238,273,1,X, , , , ,,2000,2,611675906999c2e9533a272a,001,2021-08-19_16h37.08.557,natb3,2021.2.3,Win32,60.40106306,611675906999c2e9533a272a,611e07ecdcc96256ae8d5b80,611e79e73df67275c8dfeb7b,,
,,,,,,0,239,239,207,1,X,9, ,2, ,,2500,2.5,611675906999c2e9533a272a,001,2021-08-19_16h37.08.557,natb3,2021.2.3,Win32,60.40106306,611675906999c2e9533a272a,611e07ecdcc96256ae8d5b80,611e79e73df67275c8dfeb7b,,
,,,,,,0,240,240,23,1,X,1, ,5, ,,2000,2,611675906999c2e9533a272a,001,2021-08-19_16h37.08.557,natb3,2021.2.3,Win32,60.40106306,611675906999c2e9533a272a,611e07ecdcc96256ae8d5b80,611e79e73df67275c8dfeb7b,,
,,,,space,,0,241,241,176,1,N, , , , ,space,1500,1.5,611675906999c2e9533a272a,001,2021-08-19_16h37.08.557,natb3,2021.2.3,Win32,60.40106306,611675906999c2e9533a272a,611e07ecdcc96256ae8d5b80,611e79e73df67275c8dfeb7b,0.9467,
,,,,,,0,242,242,21,1,J, , , , ,space,1500,1.5,611675906999c2e9533a272a,001,2021-08-19_16h37.08.557,natb3,2021.2.3,Win32,60.40106306,611675906999c2e9533a272a,611e07ecdcc96256ae8d5b80,611e79e73df67275c8dfeb7b,,
,,,,space,,0,243,243,101,1,Q, , , , ,space,2500,2.5,611675906999c2e9533a272a,001,2021-08-19_16h37.08.557,natb3,2021.2.3,Win32,60.40106306,611675906999c2e9533a272a,611e07ecdcc96256ae8d5b80,611e79e73df67275c8dfeb7b,0.4999,
,,,,space,,0,244,244,206,1,V, , , , ,space,2000,2,611675906999c2e9533a272a,001,2021-08-19_16h37.08.557,natb3,2021.2.3,Win32,60.40106306,611675906999c2e9533a272a,611e07ecdcc96256ae8d5b80,611e79e73df67275c8dfeb7b,0.6626,
,,,,space,,0,245,245,263,1,X,4, ,6, ,,1500,1.5,611675906999c2e9533a272a,001,2021-08-19_16h37.08.557,natb3,2021.2.3,Win32,60.40106306,611675906999c2e9533a272a,611e07ecdcc96256ae8d5b80,611e79e73df67275c8dfeb7b,0.4063,
,,,,space,,0,246,246,164,1,H, , , , ,space,2500,2.5,611675906999c2e9533a272a,001,2021-08-19_16h37.08.557,natb3,2021.2.3,Win32,60.40106306,611675906999c2e9533a272a,611e07ecdcc96256ae8d5b80,611e79e73df67275c8dfeb7b,0.744,
,,,,space,,0,247,247,240,1,F, , , , ,space,2500,2.5,611675906999c2e9533a272a,001,2021-08-19_16h37.08.557,natb3,2021.2.3,Win32,60.40106306,611675906999c2e9533a272a,611e07ecdcc96256ae8d5b80,611e79e73df67275c8dfeb7b,0.4716,
,,,,space,,0,248,248,250,1,V, , , , ,space,2000,2,611675906999c2e9533a272a,001,2021-08-19_16h37.08.557,natb3,2021.2.3,Win32,60.40106306,611675906999c2e9533a272a,611e07ecdcc96256ae8d5b80,611e79e73df67275c8dfeb7b,0.5356,
,,,,,,0,249,249,277,1,X,8,5, ,2,,2000,2,611675906999c2e9533a272a,001,2021-08-19_16h37.08.557,natb3,2021.2.3,Win32,60.40106306,611675906999c2e9533a272a,611e07ecdcc96256ae8d5b80,611e79e73df67275c8dfeb7b,,
,,,,space,,0,250,250,307,1,F, , , , ,space,2500,2.5,611675906999c2e9533a272a,001,2021-08-19_16h37.08.557,natb3,2021.2.3,Win32,60.40106306,611675906999c2e9533a272a,611e07ecdcc96256ae8d5b80,611e79e73df67275c8dfeb7b,0.5859,
,,,,space,,0,251,251,320,1,B, , , , ,space,1500,1.5,611675906999c2e9533a272a,001,2021-08-19_16h37.08.557,natb3,2021.2.3,Win32,60.40106306,611675906999c2e9533a272a,611e07ecdcc96256ae8d5b80,611e79e73df67275c8dfeb7b,0.4646,
,,,,space,,0,252,252,147,1,E, , , , ,space,2000,2,611675906999c2e9533a272a,001,2021-08-19_16h37.08.557,natb3,2021.2.3,Win32,60.40106306,611675906999c2e9533a272a,611e07ecdcc96256ae8d5b80,611e79e73df67275c8dfeb7b,0.6748,
,,,,space,,0,253,253,262,1,Y, , , , ,space,2500,2.5,611675906999c2e9533a272a,001,2021-08-19_16h37.08.557,natb3,2021.2.3,Win32,60.40106306,611675906999c2e9533a272a,611e07ecdcc96256ae8d5b80,611e79e73df67275c8dfeb7b,0.458,
,,,,space,,0,254,254,49,1,S, , , , ,space,1500,1.5,611675906999c2e9533a272a,001,2021-08-19_16h37.08.557,natb3,2021.2.3,Win32,60.40106306,611675906999c2e9533a272a,611e07ecdcc96256ae8d5b80,611e79e73df67275c8dfeb7b,0.4152,
,,,,space,,0,255,255,91,1,L, , , , ,space,2000,2,611675906999c2e9533a272a,001,2021-08-19_16h37.08.557,natb3,2021.2.3,Win32,60.40106306,611675906999c2e9533a272a,611e07ecdcc96256ae8d5b80,611e79e73df67275c8dfeb7b,0.414,
,,,,space,,0,256,256,75,1,U, , , , ,space,1500,1.5,611675906999c2e9533a272a,001,2021-08-19_16h37.08.557,natb3,2021.2.3,Win32,60.40106306,611675906999c2e9533a272a,611e07ecdcc96256ae8d5b80,611e79e73df67275c8dfeb7b,0.8306,
,,,,space,,0,257,257,172,1,C, , , , ,space,1500,1.5,611675906999c2e9533a272a,001,2021-08-19_16h37.08.557,natb3,2021.2.3,Win32,60.40106306,611675906999c2e9533a272a,611e07ecdcc96256ae8d5b80,611e79e73df67275c8dfeb7b,0.68,
,,,,,,0,258,258,39,1,X,6,2, , ,,1500,1.5,611675906999c2e9533a272a,001,2021-08-19_16h37.08.557,natb3,2021.2.3,Win32,60.40106306,611675906999c2e9533a272a,611e07ecdcc96256ae8d5b80,611e79e73df67275c8dfeb7b,,
,,,,space,,0,259,259,303,1,A, , , , ,space,2000,2,611675906999c2e9533a272a,001,2021-08-19_16h37.08.557,natb3,2021.2.3,Win32,60.40106306,611675906999c2e9533a272a,611e07ecdcc96256ae8d5b80,611e79e73df67275c8dfeb7b,0.3697,
,,,,space,,0,260,260,297,1,U, , , , ,space,2000,2,611675906999c2e9533a272a,001,2021-08-19_16h37.08.557,natb3,2021.2.3,Win32,60.40106306,611675906999c2e9533a272a,611e07ecdcc96256ae8d5b80,611e79e73df67275c8dfeb7b,0.3374,
,,,,space,,0,261,261,79,1,P, , , , ,space,2000,2,611675906999c2e9533a272a,001,2021-08-19_16h37.08.557,natb3,2021.2.3,Win32,60.40106306,611675906999c2e9533a272a,611e07ecdcc96256ae8d5b80,611e79e73df67275c8dfeb7b,0.4015,
,,,,space,,0,262,262,231,1,I, , , , ,space,2500,2.5,611675906999c2e9533a272a,001,2021-08-19_16h37.08.557,natb3,2021.2.3,Win32,60.40106306,611675906999c2e9533a272a,611e07ecdcc96256ae8d5b80,611e79e73df67275c8dfeb7b,0.4194,
,,,,space,,0,263,263,278,1,J, , , , ,space,2000,2,611675906999c2e9533a272a,001,2021-08-19_16h37.08.557,natb3,2021.2.3,Win32,60.40106306,611675906999c2e9533a272a,611e07ecdcc96256ae8d5b80,611e79e73df67275c8dfeb7b,0.4057,
,,,,space,,0,264,264,3,1,R, , , , ,space,2000,2,611675906999c2e9533a272a,001,2021-08-19_16h37.08.557,natb3,2021.2.3,Win32,60.40106306,611675906999c2e9533a272a,611e07ecdcc96256ae8d5b80,611e79e73df67275c8dfeb7b,0.6287,
,,,,space,,0,265,265,305,1,X, , , , ,,1500,1.5,611675906999c2e9533a272a,001,2021-08-19_16h37.08.557,natb3,2021.2.3,Win32,60.40106306,611675906999c2e9533a272a,611e07ecdcc96256ae8d5b80,611e79e73df67275c8dfeb7b,0.3368,
,,,,,,0,266,266,35,1,X, , , , ,,2500,2.5,611675906999c2e9533a272a,001,2021-08-19_16h37.08.557,natb3,2021.2.3,Win32,60.40106306,611675906999c2e9533a272a,611e07ecdcc96256ae8d5b80,611e79e73df67275c8dfeb7b,,
,,,,space,,0,267,267,137,1,C, , , , ,space,2500,2.5,611675906999c2e9533a272a,001,2021-08-19_16h37.08.557,natb3,2021.2.3,Win32,60.40106306,611675906999c2e9533a272a,611e07ecdcc96256ae8d5b80,611e79e73df67275c8dfeb7b,0.4476,
,,,,space,,0,268,268,37,1,E, , , , ,space,2500,2.5,611675906999c2e9533a272a,001,2021-08-19_16h37.08.557,natb3,2021.2.3,Win32,60.40106306,611675906999c2e9533a272a,611e07ecdcc96256ae8d5b80,611e79e73df67275c8dfeb7b,0.7765,
,,,,space,,0,269,269,53,1,G, , , , ,space,2500,2.5,611675906999c2e9533a272a,001,2021-08-19_16h37.08.557,natb3,2021.2.3,Win32,60.40106306,611675906999c2e9533a272a,611e07ecdcc96256ae8d5b80,611e79e73df67275c8dfeb7b,0.4778,
,,,,space,,0,270,270,189,1,O, , , , ,space,1500,1.5,611675906999c2e9533a272a,001,2021-08-19_16h37.08.557,natb3,2021.2.3,Win32,60.40106306,611675906999c2e9533a272a,611e07ecdcc96256ae8d5b80,611e79e73df67275c8dfeb7b,0.5972,
,,,,,,0,271,271,203,1,X, , , , ,,2500,2.5,611675906999c2e9533a272a,001,2021-08-19_16h37.08.557,natb3,2021.2.3,Win32,60.40106306,611675906999c2e9533a272a,611e07ecdcc96256ae8d5b80,611e79e73df67275c8dfeb7b,,
,,,,space,,0,272,272,292,1,E, , , , ,space,2000,2,611675906999c2e9533a272a,001,2021-08-19_16h37.08.557,natb3,2021.2.3,Win32,60.40106306,611675906999c2e9533a272a,611e07ecdcc96256ae8d5b80,611e79e73df67275c8dfeb7b,0.3918,
,,,,space,,0,273,273,140,1,B, , , , ,space,2500,2.5,611675906999c2e9533a272a,001,2021-08-19_16h37.08.557,natb3,2021.2.3,Win32,60.40106306,611675906999c2e9533a272a,611e07ecdcc96256ae8d5b80,611e79e73df67275c8dfeb7b,0.3887,
,,,,,,0,274,274,84,1,X, , , , ,,2000,2,611675906999c2e9533a272a,001,2021-08-19_16h37.08.557,natb3,2021.2.3,Win32,60.40106306,611675906999c2e9533a272a,611e07ecdcc96256ae8d5b80,611e79e73df67275c8dfeb7b,,
,,,,space,,0,275,275,174,1,B, , , , ,space,2500,2.5,611675906999c2e9533a272a,001,2021-08-19_16h37.08.557,natb3,2021.2.3,Win32,60.40106306,611675906999c2e9533a272a,611e07ecdcc96256ae8d5b80,611e79e73df67275c8dfeb7b,0.4137,
,,,,space,,0,276,276,246,1,L, , , , ,space,2500,2.5,611675906999c2e9533a272a,001,2021-08-19_16h37.08.557,natb3,2021.2.3,Win32,60.40106306,611675906999c2e9533a272a,611e07ecdcc96256ae8d5b80,611e79e73df67275c8dfeb7b,0.5123,
,,,,space,,0,277,277,283,1,C, , , , ,space,1500,1.5,611675906999c2e9533a272a,001,2021-08-19_16h37.08.557,natb3,2021.2.3,Win32,60.40106306,611675906999c2e9533a272a,611e07ecdcc96256ae8d5b80,611e79e73df67275c8dfeb7b,0.529,
,,,,space,,0,278,278,194,1,D, , , , ,space,2000,2,611675906999c2e9533a272a,001,2021-08-19_16h37.08.557,natb3,2021.2.3,Win32,60.40106306,611675906999c2e9533a272a,611e07ecdcc96256ae8d5b80,611e79e73df67275c8dfeb7b,0.5475,
,,,,space,,0,279,279,149,1,R, , , , ,space,2000,2,611675906999c2e9533a272a,001,2021-08-19_16h37.08.557,natb3,2021.2.3,Win32,60.40106306,611675906999c2e9533a272a,611e07ecdcc96256ae8d5b80,611e79e73df67275c8dfeb7b,0.4127,
,,,,space,,0,280,280,242,1,H, , , , ,space,2500,2.5,611675906999c2e9533a272a,001,2021-08-19_16h37.08.557,natb3,2021.2.3,Win32,60.40106306,611675906999c2e9533a272a,611e07ecdcc96256ae8d5b80,611e79e73df67275c8dfeb7b,0.4614,
,,,,space,,0,281,281,221,1,I, , , , ,space,2500,2.5,611675906999c2e9533a272a,001,2021-08-19_16h37.08.557,natb3,2021.2.3,Win32,60.40106306,611675906999c2e9533a272a,611e07ecdcc96256ae8d5b80,611e79e73df67275c8dfeb7b,0.5786,
,,,,space,,0,282,282,190,1,P, , , , ,space,2000,2,611675906999c2e9533a272a,001,2021-08-19_16h37.08.557,natb3,2021.2.3,Win32,60.40106306,611675906999c2e9533a272a,611e07ecdcc96256ae8d5b80,611e79e73df67275c8dfeb7b,0.6138,
,,,,,,0,283,283,82,1,X,4,6,1,7,,2000,2,611675906999c2e9533a272a,001,2021-08-19_16h37.08.557,natb3,2021.2.3,Win32,60.40106306,611675906999c2e9533a272a,611e07ecdcc96256ae8d5b80,611e79e73df67275c8dfeb7b,,
,,,,space,,0,284,284,115,1,R, , , , ,space,1500,1.5,611675906999c2e9533a272a,001,2021-08-19_16h37.08.557,natb3,2021.2.3,Win32,60.40106306,611675906999c2e9533a272a,611e07ecdcc96256ae8d5b80,611e79e73df67275c8dfeb7b,0.5003,
,,,,space,,0,285,285,306,1,D, , , , ,space,2000,2,611675906999c2e9533a272a,001,2021-08-19_16h37.08.557,natb3,2021.2.3,Win32,60.40106306,611675906999c2e9533a272a,611e07ecdcc96256ae8d5b80,611e79e73df67275c8dfeb7b,0.5855,
,,,,space,,0,286,286,285,1,B, , , , ,space,1500,1.5,611675906999c2e9533a272a,001,2021-08-19_16h37.08.557,natb3,2021.2.3,Win32,60.40106306,611675906999c2e9533a272a,611e07ecdcc96256ae8d5b80,611e79e73df67275c8dfeb7b,0.4686,
,,,,space,,0,287,287,253,1,N, , , , ,space,2500,2.5,611675906999c2e9533a272a,001,2021-08-19_16h37.08.557,natb3,2021.2.3,Win32,60.40106306,611675906999c2e9533a272a,611e07ecdcc96256ae8d5b80,611e79e73df67275c8dfeb7b,0.4729,
,,,,space,,0,288,288,170,1,Z, , , , ,space,2000,2,611675906999c2e9533a272a,001,2021-08-19_16h37.08.557,natb3,2021.2.3,Win32,60.40106306,611675906999c2e9533a272a,611e07ecdcc96256ae8d5b80,611e79e73df67275c8dfeb7b,0.4502,
,,,,space,,0,289,289,276,1,H, , , , ,space,2000,2,611675906999c2e9533a272a,001,2021-08-19_16h37.08.557,natb3,2021.2.3,Win32,60.40106306,611675906999c2e9533a272a,611e07ecdcc96256ae8d5b80,611e79e73df67275c8dfeb7b,0.5636,
,,,,space,,0,290,290,131,1,G, , , , ,space,1500,1.5,611675906999c2e9533a272a,001,2021-08-19_16h37.08.557,natb3,2021.2.3,Win32,60.40106306,611675906999c2e9533a272a,611e07ecdcc96256ae8d5b80,611e79e73df67275c8dfeb7b,0.6089,
,,,,space,,0,291,291,43,1,X, ,6, ,2,,2500,2.5,611675906999c2e9533a272a,001,2021-08-19_16h37.08.557,natb3,2021.2.3,Win32,60.40106306,611675906999c2e9533a272a,611e07ecdcc96256ae8d5b80,611e79e73df67275c8dfeb7b,0.3881,
,,,,space,,0,292,292,214,1,W, , , , ,space,2000,2,611675906999c2e9533a272a,001,2021-08-19_16h37.08.557,natb3,2021.2.3,Win32,60.40106306,611675906999c2e9533a272a,611e07ecdcc96256ae8d5b80,611e79e73df67275c8dfeb7b,0.36,
,,,,space,,0,293,293,124,1,P, , , , ,space,2000,2,611675906999c2e9533a272a,001,2021-08-19_16h37.08.557,natb3,2021.2.3,Win32,60.40106306,611675906999c2e9533a272a,611e07ecdcc96256ae8d5b80,611e79e73df67275c8dfeb7b,0.3803,
,,,,,,0,294,294,153,1,X,4,7, ,6,,2000,2,611675906999c2e9533a272a,001,2021-08-19_16h37.08.557,natb3,2021.2.3,Win32,60.40106306,611675906999c2e9533a272a,611e07ecdcc96256ae8d5b80,611e79e73df67275c8dfeb7b,,
,,,,space,,0,295,295,330,1,T, , , , ,space,2500,2.5,611675906999c2e9533a272a,001,2021-08-19_16h37.08.557,natb3,2021.2.3,Win32,60.40106306,611675906999c2e9533a272a,611e07ecdcc96256ae8d5b80,611e79e73df67275c8dfeb7b,0.4046,
,,,,space,,0,296,296,111,1,O, , , , ,space,2000,2,611675906999c2e9533a272a,001,2021-08-19_16h37.08.557,natb3,2021.2.3,Win32,60.40106306,611675906999c2e9533a272a,611e07ecdcc96256ae8d5b80,611e79e73df67275c8dfeb7b,0.5803,
,,,,,,0,297,297,18,1,X, ,2,5,8,,2500,2.5,611675906999c2e9533a272a,001,2021-08-19_16h37.08.557,natb3,2021.2.3,Win32,60.40106306,611675906999c2e9533a272a,611e07ecdcc96256ae8d5b80,611e79e73df67275c8dfeb7b,,
,,,,space,,0,298,298,309,1,H, , , , ,space,2500,2.5,611675906999c2e9533a272a,001,2021-08-19_16h37.08.557,natb3,2021.2.3,Win32,60.40106306,611675906999c2e9533a272a,611e07ecdcc96256ae8d5b80,611e79e73df67275c8dfeb7b,0.4153,
,,,,space,,0,299,299,188,1,I, , , , ,space,2500,2.5,611675906999c2e9533a272a,001,2021-08-19_16h37.08.557,natb3,2021.2.3,Win32,60.40106306,611675906999c2e9533a272a,611e07ecdcc96256ae8d5b80,611e79e73df67275c8dfeb7b,0.513,
,,,,space,,0,300,300,199,1,J, , , , ,space,2500,2.5,611675906999c2e9533a272a,001,2021-08-19_16h37.08.557,natb3,2021.2.3,Win32,60.40106306,611675906999c2e9533a272a,611e07ecdcc96256ae8d5b80,611e79e73df67275c8dfeb7b,0.459,
,,,,space,,0,301,301,159,1,S, , , , ,space,2500,2.5,611675906999c2e9533a272a,001,2021-08-19_16h37.08.557,natb3,2021.2.3,Win32,60.40106306,611675906999c2e9533a272a,611e07ecdcc96256ae8d5b80,611e79e73df67275c8dfeb7b,0.5144,
,,,,,,0,302,302,74,1,X, ,4,3,2,,1500,1.5,611675906999c2e9533a272a,001,2021-08-19_16h37.08.557,natb3,2021.2.3,Win32,60.40106306,611675906999c2e9533a272a,611e07ecdcc96256ae8d5b80,611e79e73df67275c8dfeb7b,,
,,,,,,0,303,303,295,1,X,8,7,5, ,,2500,2.5,611675906999c2e9533a272a,001,2021-08-19_16h37.08.557,natb3,2021.2.3,Win32,60.40106306,611675906999c2e9533a272a,611e07ecdcc96256ae8d5b80,611e79e73df67275c8dfeb7b,,
,,,,space,,0,304,304,63,1,B, , , , ,space,2000,2,611675906999c2e9533a272a,001,2021-08-19_16h37.08.557,natb3,2021.2.3,Win32,60.40106306,611675906999c2e9533a272a,611e07ecdcc96256ae8d5b80,611e79e73df67275c8dfeb7b,0.5039,
,,,,space,,0,305,305,168,1,X, , , , ,,2500,2.5,611675906999c2e9533a272a,001,2021-08-19_16h37.08.557,natb3,2021.2.3,Win32,60.40106306,611675906999c2e9533a272a,611e07ecdcc96256ae8d5b80,611e79e73df67275c8dfeb7b,0.5163,
,,,,,,0,306,306,191,1,X,1, ,3,4,,2500,2.5,611675906999c2e9533a272a,001,2021-08-19_16h37.08.557,natb3,2021.2.3,Win32,60.40106306,611675906999c2e9533a272a,611e07ecdcc96256ae8d5b80,611e79e73df67275c8dfeb7b,,
,,,,space,,0,307,307,71,1,R, , , , ,space,2500,2.5,611675906999c2e9533a272a,001,2021-08-19_16h37.08.557,natb3,2021.2.3,Win32,60.40106306,611675906999c2e9533a272a,611e07ecdcc96256ae8d5b80,611e79e73df67275c8dfeb7b,0.4434,
,,,,,,0,308,308,171,1,X, , , , ,,1500,1.5,611675906999c2e9533a272a,001,2021-08-19_16h37.08.557,natb3,2021.2.3,Win32,60.40106306,611675906999c2e9533a272a,611e07ecdcc96256ae8d5b80,611e79e73df67275c8dfeb7b,,
,,,,,,0,309,309,31,1,X, , , , ,,1500,1.5,611675906999c2e9533a272a,001,2021-08-19_16h37.08.557,natb3,2021.2.3,Win32,60.40106306,611675906999c2e9533a272a,611e07ecdcc96256ae8d5b80,611e79e73df67275c8dfeb7b,,
,,,,,,0,310,310,243,1,X, , , , ,,2500,2.5,611675906999c2e9533a272a,001,2021-08-19_16h37.08.557,natb3,2021.2.3,Win32,60.40106306,611675906999c2e9533a272a,611e07ecdcc96256ae8d5b80,611e79e73df67275c8dfeb7b,,
,,,,space,,0,311,311,156,1,P, , , , ,space,1500,1.5,611675906999c2e9533a272a,001,2021-08-19_16h37.08.557,natb3,2021.2.3,Win32,60.40106306,611675906999c2e9533a272a,611e07ecdcc96256ae8d5b80,611e79e73df67275c8dfeb7b,0.5614,
,,,,,,0,312,312,138,1,X,8,5, ,3,,2000,2,611675906999c2e9533a272a,001,2021-08-19_16h37.08.557,natb3,2021.2.3,Win32,60.40106306,611675906999c2e9533a272a,611e07ecdcc96256ae8d5b80,611e79e73df67275c8dfeb7b,,
,,,,space,,0,313,313,178,1,Q, , , , ,space,1500,1.5,611675906999c2e9533a272a,001,2021-08-19_16h37.08.557,natb3,2021.2.3,Win32,60.40106306,611675906999c2e9533a272a,611e07ecdcc96256ae8d5b80,611e79e73df67275c8dfeb7b,0.517,
,,,,,,0,314,314,317,1,C, , , , ,space,2000,2,611675906999c2e9533a272a,001,2021-08-19_16h37.08.557,natb3,2021.2.3,Win32,60.40106306,611675906999c2e9533a272a,611e07ecdcc96256ae8d5b80,611e79e73df67275c8dfeb7b,,
,,,,space,,0,315,315,103,1,W, , , , ,space,2000,2,611675906999c2e9533a272a,001,2021-08-19_16h37.08.557,natb3,2021.2.3,Win32,60.40106306,611675906999c2e9533a272a,611e07ecdcc96256ae8d5b80,611e79e73df67275c8dfeb7b,0.5104,
,,,,space,,0,316,316,106,1,T, , , , ,space,1500,1.5,611675906999c2e9533a272a,001,2021-08-19_16h37.08.557,natb3,2021.2.3,Win32,60.40106306,611675906999c2e9533a272a,611e07ecdcc96256ae8d5b80,611e79e73df67275c8dfeb7b,0.6797,
,,,,space,,0,317,317,180,1,W, , , , ,space,2000,2,611675906999c2e9533a272a,001,2021-08-19_16h37.08.557,natb3,2021.2.3,Win32,60.40106306,611675906999c2e9533a272a,611e07ecdcc96256ae8d5b80,611e79e73df67275c8dfeb7b,0.4806,
,,,,space,,0,318,318,108,1,Y, , , , ,space,2500,2.5,611675906999c2e9533a272a,001,2021-08-19_16h37.08.557,natb3,2021.2.3,Win32,60.40106306,611675906999c2e9533a272a,611e07ecdcc96256ae8d5b80,611e79e73df67275c8dfeb7b,0.4926,
,,,,space,,0,319,319,270,1,S, , , , ,space,1500,1.5,611675906999c2e9533a272a,001,2021-08-19_16h37.08.557,natb3,2021.2.3,Win32,60.40106306,611675906999c2e9533a272a,611e07ecdcc96256ae8d5b80,611e79e73df67275c8dfeb7b,0.4965,
,,,,space,,0,320,320,56,1,J, , , , ,space,1500,1.5,611675906999c2e9533a272a,001,2021-08-19_16h37.08.557,natb3,2021.2.3,Win32,60.40106306,611675906999c2e9533a272a,611e07ecdcc96256ae8d5b80,611e79e73df67275c8dfeb7b,0.5142,
,,,,,,0,321,321,122,1,X,1, , ,8,,1500,1.5,611675906999c2e9533a272a,001,2021-08-19_16h37.08.557,natb3,2021.2.3,Win32,60.40106306,611675906999c2e9533a272a,611e07ecdcc96256ae8d5b80,611e79e73df67275c8dfeb7b,,
,,,,space,,0,322,322,95,1,V, , , , ,space,1500,1.5,611675906999c2e9533a272a,001,2021-08-19_16h37.08.557,natb3,2021.2.3,Win32,60.40106306,611675906999c2e9533a272a,611e07ecdcc96256ae8d5b80,611e79e73df67275c8dfeb7b,0.495,
,,,,space,,0,323,323,144,1,Q, , , , ,space,2500,2.5,611675906999c2e9533a272a,001,2021-08-19_16h37.08.557,natb3,2021.2.3,Win32,60.40106306,611675906999c2e9533a272a,611e07ecdcc96256ae8d5b80,611e79e73df67275c8dfeb7b,0.6343,
,,,,space,,0,324,324,163,1,G, , , , ,space,2500,2.5,611675906999c2e9533a272a,001,2021-08-19_16h37.08.557,natb3,2021.2.3,Win32,60.40106306,611675906999c2e9533a272a,611e07ecdcc96256ae8d5b80,611e79e73df67275c8dfeb7b,0.6531,
,,,,space,,0,325,325,70,1,E, , , , ,space,2500,2.5,611675906999c2e9533a272a,001,2021-08-19_16h37.08.557,natb3,2021.2.3,Win32,60.40106306,611675906999c2e9533a272a,611e07ecdcc96256ae8d5b80,611e79e73df67275c8dfeb7b,0.5435,
,,,,space,,0,326,326,11,1,P, , , , ,space,2500,2.5,611675906999c2e9533a272a,001,2021-08-19_16h37.08.557,natb3,2021.2.3,Win32,60.40106306,611675906999c2e9533a272a,611e07ecdcc96256ae8d5b80,611e79e73df67275c8dfeb7b,0.6305,
,,,,space,,0,327,327,173,1,V, , , , ,space,1500,1.5,611675906999c2e9533a272a,001,2021-08-19_16h37.08.557,natb3,2021.2.3,Win32,60.40106306,611675906999c2e9533a272a,611e07ecdcc96256ae8d5b80,611e79e73df67275c8dfeb7b,0.4739,
,,,,space,,0,328,328,146,1,W, , , , ,space,1500,1.5,611675906999c2e9533a272a,001,2021-08-19_16h37.08.557,natb3,2021.2.3,Win32,60.40106306,611675906999c2e9533a272a,611e07ecdcc96256ae8d5b80,611e79e73df67275c8dfeb7b,0.5401,
,,,,space,,0,329,329,325,1,X, , , , ,,2500,2.5,611675906999c2e9533a272a,001,2021-08-19_16h37.08.557,natb3,2021.2.3,Win32,60.40106306,611675906999c2e9533a272a,611e07ecdcc96256ae8d5b80,611e79e73df67275c8dfeb7b,0.4647,
,,,,space,,0,330,330,286,1,N, , , , ,space,1500,1.5,611675906999c2e9533a272a,001,2021-08-19_16h37.08.557,natb3,2021.2.3,Win32,60.40106306,611675906999c2e9533a272a,611e07ecdcc96256ae8d5b80,611e79e73df67275c8dfeb7b,0.612,
,,,,space,,0,331,331,328,1,R, , , , ,space,1500,1.5,611675906999c2e9533a272a,001,2021-08-19_16h37.08.557,natb3,2021.2.3,Win32,60.40106306,611675906999c2e9533a272a,611e07ecdcc96256ae8d5b80,611e79e73df67275c8dfeb7b,0.4346,
,,,,,,0,332,332,291,1,X, , , , ,,2000,2,611675906999c2e9533a272a,001,2021-08-19_16h37.08.557,natb3,2021.2.3,Win32,60.40106306,611675906999c2e9533a272a,611e07ecdcc96256ae8d5b80,611e79e73df67275c8dfeb7b,,
,,,,space,,0,333,333,293,1,R, , , , ,space,2500,2.5,611675906999c2e9533a272a,001,2021-08-19_16h37.08.557,natb3,2021.2.3,Win32,60.40106306,611675906999c2e9533a272a,611e07ecdcc96256ae8d5b80,611e79e73df67275c8dfeb7b,0.4621,
,,,,,,0,334,334,98,1,X, , , , ,,2500,2.5,611675906999c2e9533a272a,001,2021-08-19_16h37.08.557,natb3,2021.2.3,Win32,60.40106306,611675906999c2e9533a272a,611e07ecdcc96256ae8d5b80,611e79e73df67275c8dfeb7b,,
,,,,,,0,335,335,311,1,X,1,2,7,3,,2500,2.5,611675906999c2e9533a272a,001,2021-08-19_16h37.08.557,natb3,2021.2.3,Win32,60.40106306,611675906999c2e9533a272a,611e07ecdcc96256ae8d5b80,611e79e73df67275c8dfeb7b,,
