key_resp_2.keys,key_resp_2.rt,key_resp_3.keys,key_resp_3.rt,key_resp.keys,key_resp_4.keys,trials.thisRepN,trials.thisTrialN,trials.thisN,trials.thisIndex,trials.ran,stimulus,distractor1,distractor2,distractor3,distractor4,CorrAns,isi_duration,isi_dur_in_seconds,participant,session,date,expName,psychopyVersion,OS,frameRate,PROLIFIC_PID,STUDY_ID,SESSION_ID,key_resp.rt,key_resp_4.rt
return,19.7643,space,18.1608,,,0,0,0,202,1,L, , , , ,space,2500,2.5,6117897957f3ece9a877c630,001,2021-08-19_15h46.56.950,natb3,2021.2.3,Win32,60.0132029,6117897957f3ece9a877c630,611e07ecdcc96256ae8d5b80,611e6ebb5620c66df37fa380,,
,,,,space,,0,1,1,79,1,P, , , , ,space,2000,2,6117897957f3ece9a877c630,001,2021-08-19_15h46.56.950,natb3,2021.2.3,Win32,60.0132029,6117897957f3ece9a877c630,611e07ecdcc96256ae8d5b80,611e6ebb5620c66df37fa380,0.4378,
,,,,space,,0,2,2,110,1,I, , , , ,space,1500,1.5,6117897957f3ece9a877c630,001,2021-08-19_15h46.56.950,natb3,2021.2.3,Win32,60.0132029,6117897957f3ece9a877c630,611e07ecdcc96256ae8d5b80,611e6ebb5620c66df37fa380,0.4031,
,,,,space,,0,3,3,38,1,R, , , , ,space,2500,2.5,6117897957f3ece9a877c630,001,2021-08-19_15h46.56.950,natb3,2021.2.3,Win32,60.0132029,6117897957f3ece9a877c630,611e07ecdcc96256ae8d5b80,611e6ebb5620c66df37fa380,0.3311,
,,,,,,0,4,4,23,1,X,1, ,5, ,,2000,2,6117897957f3ece9a877c630,001,2021-08-19_15h46.56.950,natb3,2021.2.3,Win32,60.0132029,6117897957f3ece9a877c630,611e07ecdcc96256ae8d5b80,611e6ebb5620c66df37fa380,,
,,,,space,,0,5,5,121,1,I, , , , ,space,2000,2,6117897957f3ece9a877c630,001,2021-08-19_15h46.56.950,natb3,2021.2.3,Win32,60.0132029,6117897957f3ece9a877c630,611e07ecdcc96256ae8d5b80,611e6ebb5620c66df37fa380,0.4369,
,,,,space,,0,6,6,194,1,D, , , , ,space,2000,2,6117897957f3ece9a877c630,001,2021-08-19_15h46.56.950,natb3,2021.2.3,Win32,60.0132029,6117897957f3ece9a877c630,611e07ecdcc96256ae8d5b80,611e6ebb5620c66df37fa380,0.405,
,,,,space,,0,7,7,289,1,Q, , , , ,space,2000,2,6117897957f3ece9a877c630,001,2021-08-19_15h46.56.950,natb3,2021.2.3,Win32,60.0132029,6117897957f3ece9a877c630,611e07ecdcc96256ae8d5b80,611e6ebb5620c66df37fa380,0.3897,
,,,,space,,0,8,8,239,1,X, , , , ,,2000,2,6117897957f3ece9a877c630,001,2021-08-19_15h46.56.950,natb3,2021.2.3,Win32,60.0132029,6117897957f3ece9a877c630,611e07ecdcc96256ae8d5b80,611e6ebb5620c66df37fa380,0.3499,
,,,,space,,0,9,9,317,1,C, , , , ,space,2000,2,6117897957f3ece9a877c630,001,2021-08-19_15h46.56.950,natb3,2021.2.3,Win32,60.0132029,6117897957f3ece9a877c630,611e07ecdcc96256ae8d5b80,611e6ebb5620c66df37fa380,0.4072,
,,,,space,,0,10,10,96,1,X, , , , ,,1500,1.5,6117897957f3ece9a877c630,001,2021-08-19_15h46.56.950,natb3,2021.2.3,Win32,60.0132029,6117897957f3ece9a877c630,611e07ecdcc96256ae8d5b80,611e6ebb5620c66df37fa380,0.3776,
,,,,space,,0,11,11,65,1,M, , , , ,space,1500,1.5,6117897957f3ece9a877c630,001,2021-08-19_15h46.56.950,natb3,2021.2.3,Win32,60.0132029,6117897957f3ece9a877c630,611e07ecdcc96256ae8d5b80,611e6ebb5620c66df37fa380,0.3828,
,,,,,,0,12,12,145,1,X, , , , ,,2000,2,6117897957f3ece9a877c630,001,2021-08-19_15h46.56.950,natb3,2021.2.3,Win32,60.0132029,6117897957f3ece9a877c630,611e07ecdcc96256ae8d5b80,611e6ebb5620c66df37fa380,,
,,,,space,,0,13,13,63,1,B, , , , ,space,2000,2,6117897957f3ece9a877c630,001,2021-08-19_15h46.56.950,natb3,2021.2.3,Win32,60.0132029,6117897957f3ece9a877c630,611e07ecdcc96256ae8d5b80,611e6ebb5620c66df37fa380,0.4704,
,,,,space,,0,14,14,258,1,E, , , , ,space,1500,1.5,6117897957f3ece9a877c630,001,2021-08-19_15h46.56.950,natb3,2021.2.3,Win32,60.0132029,6117897957f3ece9a877c630,611e07ecdcc96256ae8d5b80,611e6ebb5620c66df37fa380,0.4687,
,,,,,,0,15,15,60,1,X,7,3,5, ,,1500,1.5,6117897957f3ece9a877c630,001,2021-08-19_15h46.56.950,natb3,2021.2.3,Win32,60.0132029,6117897957f3ece9a877c630,611e07ecdcc96256ae8d5b80,611e6ebb5620c66df37fa380,,
,,,,,,0,16,16,84,1,X, , , , ,,2000,2,6117897957f3ece9a877c630,001,2021-08-19_15h46.56.950,natb3,2021.2.3,Win32,60.0132029,6117897957f3ece9a877c630,611e07ecdcc96256ae8d5b80,611e6ebb5620c66df37fa380,,
,,,,space,,0,17,17,52,1,F, , , , ,space,1500,1.5,6117897957f3ece9a877c630,001,2021-08-19_15h46.56.950,natb3,2021.2.3,Win32,60.0132029,6117897957f3ece9a877c630,611e07ecdcc96256ae8d5b80,611e6ebb5620c66df37fa380,0.4117,
,,,,space,,0,18,18,285,1,B, , , , ,space,1500,1.5,6117897957f3ece9a877c630,001,2021-08-19_15h46.56.950,natb3,2021.2.3,Win32,60.0132029,6117897957f3ece9a877c630,611e07ecdcc96256ae8d5b80,611e6ebb5620c66df37fa380,0.5202,
,,,,,,0,19,19,276,1,H, , , , ,space,2000,2,6117897957f3ece9a877c630,001,2021-08-19_15h46.56.950,natb3,2021.2.3,Win32,60.0132029,6117897957f3ece9a877c630,611e07ecdcc96256ae8d5b80,611e6ebb5620c66df37fa380,,
,,,,space,,0,20,20,45,1,O, , , , ,space,2000,2,6117897957f3ece9a877c630,001,2021-08-19_15h46.56.950,natb3,2021.2.3,Win32,60.0132029,6117897957f3ece9a877c630,611e07ecdcc96256ae8d5b80,611e6ebb5620c66df37fa380,0.4889,
,,,,,,0,21,21,175,1,X,7, ,4,2,,1500,1.5,6117897957f3ece9a877c630,001,2021-08-19_15h46.56.950,natb3,2021.2.3,Win32,60.0132029,6117897957f3ece9a877c630,611e07ecdcc96256ae8d5b80,611e6ebb5620c66df37fa380,,
,,,,space,,0,22,22,174,1,B, , , , ,space,2500,2.5,6117897957f3ece9a877c630,001,2021-08-19_15h46.56.950,natb3,2021.2.3,Win32,60.0132029,6117897957f3ece9a877c630,611e07ecdcc96256ae8d5b80,611e6ebb5620c66df37fa380,0.3725,
,,,,space,,0,23,23,319,1,V, , , , ,space,2000,2,6117897957f3ece9a877c630,001,2021-08-19_15h46.56.950,natb3,2021.2.3,Win32,60.0132029,6117897957f3ece9a877c630,611e07ecdcc96256ae8d5b80,611e6ebb5620c66df37fa380,0.414,
,,,,,,0,24,24,248,1,X, ,1,5, ,,1500,1.5,6117897957f3ece9a877c630,001,2021-08-19_15h46.56.950,natb3,2021.2.3,Win32,60.0132029,6117897957f3ece9a877c630,611e07ecdcc96256ae8d5b80,611e6ebb5620c66df37fa380,,
,,,,space,,0,25,25,71,1,R, , , , ,space,2500,2.5,6117897957f3ece9a877c630,001,2021-08-19_15h46.56.950,natb3,2021.2.3,Win32,60.0132029,6117897957f3ece9a877c630,611e07ecdcc96256ae8d5b80,611e6ebb5620c66df37fa380,0.4687,
,,,,,,0,26,26,271,1,X, , , , ,,2500,2.5,6117897957f3ece9a877c630,001,2021-08-19_15h46.56.950,natb3,2021.2.3,Win32,60.0132029,6117897957f3ece9a877c630,611e07ecdcc96256ae8d5b80,611e6ebb5620c66df37fa380,,
,,,,space,,0,27,27,14,1,S, , , , ,space,2500,2.5,6117897957f3ece9a877c630,001,2021-08-19_15h46.56.950,natb3,2021.2.3,Win32,60.0132029,6117897957f3ece9a877c630,611e07ecdcc96256ae8d5b80,611e6ebb5620c66df37fa380,0.3387,
,,,,,,0,28,28,211,1,X, , , , ,,2500,2.5,6117897957f3ece9a877c630,001,2021-08-19_15h46.56.950,natb3,2021.2.3,Win32,60.0132029,6117897957f3ece9a877c630,611e07ecdcc96256ae8d5b80,611e6ebb5620c66df37fa380,,
,,,,space,,0,29,29,67,1,Q, , , , ,space,2000,2,6117897957f3ece9a877c630,001,2021-08-19_15h46.56.950,natb3,2021.2.3,Win32,60.0132029,6117897957f3ece9a877c630,611e07ecdcc96256ae8d5b80,611e6ebb5620c66df37fa380,0.3918,
,,,,space,,0,30,30,216,1,R, , , , ,space,1500,1.5,6117897957f3ece9a877c630,001,2021-08-19_15h46.56.950,natb3,2021.2.3,Win32,60.0132029,6117897957f3ece9a877c630,611e07ecdcc96256ae8d5b80,611e6ebb5620c66df37fa380,0.3243,
,,,,space,,0,31,31,270,1,S, , , , ,space,1500,1.5,6117897957f3ece9a877c630,001,2021-08-19_15h46.56.950,natb3,2021.2.3,Win32,60.0132029,6117897957f3ece9a877c630,611e07ecdcc96256ae8d5b80,611e6ebb5620c66df37fa380,0.3391,
,,,,space,,0,32,32,118,1,X, , , , ,,2000,2,6117897957f3ece9a877c630,001,2021-08-19_15h46.56.950,natb3,2021.2.3,Win32,60.0132029,6117897957f3ece9a877c630,611e07ecdcc96256ae8d5b80,611e6ebb5620c66df37fa380,0.3181,
,,,,space,,0,33,33,28,1,V, , , , ,space,1500,1.5,6117897957f3ece9a877c630,001,2021-08-19_15h46.56.950,natb3,2021.2.3,Win32,60.0132029,6117897957f3ece9a877c630,611e07ecdcc96256ae8d5b80,611e6ebb5620c66df37fa380,0.3981,
,,,,space,,0,34,34,106,1,T, , , , ,space,1500,1.5,6117897957f3ece9a877c630,001,2021-08-19_15h46.56.950,natb3,2021.2.3,Win32,60.0132029,6117897957f3ece9a877c630,611e07ecdcc96256ae8d5b80,611e6ebb5620c66df37fa380,0.4074,
,,,,space,,0,35,35,124,1,P, , , , ,space,2000,2,6117897957f3ece9a877c630,001,2021-08-19_15h46.56.950,natb3,2021.2.3,Win32,60.0132029,6117897957f3ece9a877c630,611e07ecdcc96256ae8d5b80,611e6ebb5620c66df37fa380,0.3997,
,,,,space,,0,36,36,2,1,E, , , , ,space,2500,2.5,6117897957f3ece9a877c630,001,2021-08-19_15h46.56.950,natb3,2021.2.3,Win32,60.0132029,6117897957f3ece9a877c630,611e07ecdcc96256ae8d5b80,611e6ebb5620c66df37fa380,0.4023,
,,,,space,,0,37,37,25,1,Z, , , , ,space,2500,2.5,6117897957f3ece9a877c630,001,2021-08-19_15h46.56.950,natb3,2021.2.3,Win32,60.0132029,6117897957f3ece9a877c630,611e07ecdcc96256ae8d5b80,611e6ebb5620c66df37fa380,0.4048,
,,,,space,,0,38,38,284,1,V, , , , ,space,2500,2.5,6117897957f3ece9a877c630,001,2021-08-19_15h46.56.950,natb3,2021.2.3,Win32,60.0132029,6117897957f3ece9a877c630,611e07ecdcc96256ae8d5b80,611e6ebb5620c66df37fa380,0.4723,
,,,,space,,0,39,39,126,1,A, , , , ,space,2500,2.5,6117897957f3ece9a877c630,001,2021-08-19_15h46.56.950,natb3,2021.2.3,Win32,60.0132029,6117897957f3ece9a877c630,611e07ecdcc96256ae8d5b80,611e6ebb5620c66df37fa380,0.4176,
,,,,,,0,40,40,168,1,X, , , , ,,2500,2.5,6117897957f3ece9a877c630,001,2021-08-19_15h46.56.950,natb3,2021.2.3,Win32,60.0132029,6117897957f3ece9a877c630,611e07ecdcc96256ae8d5b80,611e6ebb5620c66df37fa380,,
,,,,space,,0,41,41,189,1,O, , , , ,space,1500,1.5,6117897957f3ece9a877c630,001,2021-08-19_15h46.56.950,natb3,2021.2.3,Win32,60.0132029,6117897957f3ece9a877c630,611e07ecdcc96256ae8d5b80,611e6ebb5620c66df37fa380,0.3614,
,,,,space,,0,42,42,167,1,K, , , , ,space,1500,1.5,6117897957f3ece9a877c630,001,2021-08-19_15h46.56.950,natb3,2021.2.3,Win32,60.0132029,6117897957f3ece9a877c630,611e07ecdcc96256ae8d5b80,611e6ebb5620c66df37fa380,0.3576,
,,,,space,,0,43,43,221,1,I, , , , ,space,2500,2.5,6117897957f3ece9a877c630,001,2021-08-19_15h46.56.950,natb3,2021.2.3,Win32,60.0132029,6117897957f3ece9a877c630,611e07ecdcc96256ae8d5b80,611e6ebb5620c66df37fa380,0.3945,
,,,,space,,0,44,44,331,1,Y, , , , ,space,2500,2.5,6117897957f3ece9a877c630,001,2021-08-19_15h46.56.950,natb3,2021.2.3,Win32,60.0132029,6117897957f3ece9a877c630,611e07ecdcc96256ae8d5b80,611e6ebb5620c66df37fa380,0.3742,
,,,,space,,0,45,45,294,1,T, , , , ,space,2000,2,6117897957f3ece9a877c630,001,2021-08-19_15h46.56.950,natb3,2021.2.3,Win32,60.0132029,6117897957f3ece9a877c630,611e07ecdcc96256ae8d5b80,611e6ebb5620c66df37fa380,0.343,
,,,,space,,0,46,46,197,1,G, , , , ,space,2500,2.5,6117897957f3ece9a877c630,001,2021-08-19_15h46.56.950,natb3,2021.2.3,Win32,60.0132029,6117897957f3ece9a877c630,611e07ecdcc96256ae8d5b80,611e6ebb5620c66df37fa380,0.348,
,,,,space,,0,47,47,251,1,B, , , , ,space,1500,1.5,6117897957f3ece9a877c630,001,2021-08-19_15h46.56.950,natb3,2021.2.3,Win32,60.0132029,6117897957f3ece9a877c630,611e07ecdcc96256ae8d5b80,611e6ebb5620c66df37fa380,0.3401,
,,,,space,,0,48,48,81,1,S, , , , ,space,2000,2,6117897957f3ece9a877c630,001,2021-08-19_15h46.56.950,natb3,2021.2.3,Win32,60.0132029,6117897957f3ece9a877c630,611e07ecdcc96256ae8d5b80,611e6ebb5620c66df37fa380,0.3246,
,,,,space,,0,49,49,186,1,U, , , , ,space,2500,2.5,6117897957f3ece9a877c630,001,2021-08-19_15h46.56.950,natb3,2021.2.3,Win32,60.0132029,6117897957f3ece9a877c630,611e07ecdcc96256ae8d5b80,611e6ebb5620c66df37fa380,0.2987,
,,,,space,,0,50,50,0,1,Q, , , , ,space,1500,1.5,6117897957f3ece9a877c630,001,2021-08-19_15h46.56.950,natb3,2021.2.3,Win32,60.0132029,6117897957f3ece9a877c630,611e07ecdcc96256ae8d5b80,611e6ebb5620c66df37fa380,0.4023,
,,,,space,,0,51,51,267,1,P, , , , ,space,2000,2,6117897957f3ece9a877c630,001,2021-08-19_15h46.56.950,natb3,2021.2.3,Win32,60.0132029,6117897957f3ece9a877c630,611e07ecdcc96256ae8d5b80,611e6ebb5620c66df37fa380,0.3236,
,,,,space,,0,52,52,171,1,X, , , , ,,1500,1.5,6117897957f3ece9a877c630,001,2021-08-19_15h46.56.950,natb3,2021.2.3,Win32,60.0132029,6117897957f3ece9a877c630,611e07ecdcc96256ae8d5b80,611e6ebb5620c66df37fa380,0.4333,
,,,,space,,0,53,53,95,1,V, , , , ,space,1500,1.5,6117897957f3ece9a877c630,001,2021-08-19_15h46.56.950,natb3,2021.2.3,Win32,60.0132029,6117897957f3ece9a877c630,611e07ecdcc96256ae8d5b80,611e6ebb5620c66df37fa380,0.3708,
,,,,space,,0,54,54,306,1,D, , , , ,space,2000,2,6117897957f3ece9a877c630,001,2021-08-19_15h46.56.950,natb3,2021.2.3,Win32,60.0132029,6117897957f3ece9a877c630,611e07ecdcc96256ae8d5b80,611e6ebb5620c66df37fa380,0.3824,
,,,,space,,0,55,55,257,1,W, , , , ,space,2000,2,6117897957f3ece9a877c630,001,2021-08-19_15h46.56.950,natb3,2021.2.3,Win32,60.0132029,6117897957f3ece9a877c630,611e07ecdcc96256ae8d5b80,611e6ebb5620c66df37fa380,0.5553,
,,,,space,,0,56,56,112,1,Q, , , , ,space,2500,2.5,6117897957f3ece9a877c630,001,2021-08-19_15h46.56.950,natb3,2021.2.3,Win32,60.0132029,6117897957f3ece9a877c630,611e07ecdcc96256ae8d5b80,611e6ebb5620c66df37fa380,0.3689,
,,,,space,,0,57,57,292,1,E, , , , ,space,2000,2,6117897957f3ece9a877c630,001,2021-08-19_15h46.56.950,natb3,2021.2.3,Win32,60.0132029,6117897957f3ece9a877c630,611e07ecdcc96256ae8d5b80,611e6ebb5620c66df37fa380,0.3613,
,,,,space,,0,58,58,135,1,K, , , , ,space,1500,1.5,6117897957f3ece9a877c630,001,2021-08-19_15h46.56.950,natb3,2021.2.3,Win32,60.0132029,6117897957f3ece9a877c630,611e07ecdcc96256ae8d5b80,611e6ebb5620c66df37fa380,0.3669,
,,,,space,,0,59,59,47,1,P, , , , ,space,2000,2,6117897957f3ece9a877c630,001,2021-08-19_15h46.56.950,natb3,2021.2.3,Win32,60.0132029,6117897957f3ece9a877c630,611e07ecdcc96256ae8d5b80,611e6ebb5620c66df37fa380,0.3346,
,,,,space,,0,60,60,333,1,I, , , , ,space,1500,1.5,6117897957f3ece9a877c630,001,2021-08-19_15h46.56.950,natb3,2021.2.3,Win32,60.0132029,6117897957f3ece9a877c630,611e07ecdcc96256ae8d5b80,611e6ebb5620c66df37fa380,0.3978,
,,,,space,,0,61,61,246,1,L, , , , ,space,2500,2.5,6117897957f3ece9a877c630,001,2021-08-19_15h46.56.950,natb3,2021.2.3,Win32,60.0132029,6117897957f3ece9a877c630,611e07ecdcc96256ae8d5b80,611e6ebb5620c66df37fa380,0.3383,
,,,,,,0,62,62,39,1,X,6,2, , ,,1500,1.5,6117897957f3ece9a877c630,001,2021-08-19_15h46.56.950,natb3,2021.2.3,Win32,60.0132029,6117897957f3ece9a877c630,611e07ecdcc96256ae8d5b80,611e6ebb5620c66df37fa380,,
,,,,,,0,63,63,31,1,X, , , , ,,1500,1.5,6117897957f3ece9a877c630,001,2021-08-19_15h46.56.950,natb3,2021.2.3,Win32,60.0132029,6117897957f3ece9a877c630,611e07ecdcc96256ae8d5b80,611e6ebb5620c66df37fa380,,
,,,,,,0,64,64,138,1,X,8,5, ,3,,2000,2,6117897957f3ece9a877c630,001,2021-08-19_15h46.56.950,natb3,2021.2.3,Win32,60.0132029,6117897957f3ece9a877c630,611e07ecdcc96256ae8d5b80,611e6ebb5620c66df37fa380,,
,,,,,,0,65,65,313,1,X, , , , ,,2500,2.5,6117897957f3ece9a877c630,001,2021-08-19_15h46.56.950,natb3,2021.2.3,Win32,60.0132029,6117897957f3ece9a877c630,611e07ecdcc96256ae8d5b80,611e6ebb5620c66df37fa380,,
,,,,space,,0,66,66,237,1,S, , , , ,space,1500,1.5,6117897957f3ece9a877c630,001,2021-08-19_15h46.56.950,natb3,2021.2.3,Win32,60.0132029,6117897957f3ece9a877c630,611e07ecdcc96256ae8d5b80,611e6ebb5620c66df37fa380,0.5554,
,,,,,,0,67,67,329,1,X,3,4, ,2,,2500,2.5,6117897957f3ece9a877c630,001,2021-08-19_15h46.56.950,natb3,2021.2.3,Win32,60.0132029,6117897957f3ece9a877c630,611e07ecdcc96256ae8d5b80,611e6ebb5620c66df37fa380,,
,,,,space,,0,68,68,210,1,M, , , , ,space,1500,1.5,6117897957f3ece9a877c630,001,2021-08-19_15h46.56.950,natb3,2021.2.3,Win32,60.0132029,6117897957f3ece9a877c630,611e07ecdcc96256ae8d5b80,611e6ebb5620c66df37fa380,0.4824,
,,,,space,,0,69,69,173,1,V, , , , ,space,1500,1.5,6117897957f3ece9a877c630,001,2021-08-19_15h46.56.950,natb3,2021.2.3,Win32,60.0132029,6117897957f3ece9a877c630,611e07ecdcc96256ae8d5b80,611e6ebb5620c66df37fa380,0.4833,
,,,,space,,0,70,70,91,1,L, , , , ,space,2000,2,6117897957f3ece9a877c630,001,2021-08-19_15h46.56.950,natb3,2021.2.3,Win32,60.0132029,6117897957f3ece9a877c630,611e07ecdcc96256ae8d5b80,611e6ebb5620c66df37fa380,0.409,
,,,,,,0,71,71,182,1,X, , , , ,,1500,1.5,6117897957f3ece9a877c630,001,2021-08-19_15h46.56.950,natb3,2021.2.3,Win32,60.0132029,6117897957f3ece9a877c630,611e07ecdcc96256ae8d5b80,611e6ebb5620c66df37fa380,,
,,,,,,0,72,72,43,1,X, ,6, ,2,,2500,2.5,6117897957f3ece9a877c630,001,2021-08-19_15h46.56.950,natb3,2021.2.3,Win32,60.0132029,6117897957f3ece9a877c630,611e07ecdcc96256ae8d5b80,611e6ebb5620c66df37fa380,,
,,,,space,,0,73,73,154,1,I, , , , ,space,2500,2.5,6117897957f3ece9a877c630,001,2021-08-19_15h46.56.950,natb3,2021.2.3,Win32,60.0132029,6117897957f3ece9a877c630,611e07ecdcc96256ae8d5b80,611e6ebb5620c66df37fa380,0.5218,
,,,,space,,0,74,74,111,1,O, , , , ,space,2000,2,6117897957f3ece9a877c630,001,2021-08-19_15h46.56.950,natb3,2021.2.3,Win32,60.0132029,6117897957f3ece9a877c630,611e07ecdcc96256ae8d5b80,611e6ebb5620c66df37fa380,0.5187,
,,,,space,,0,75,75,196,1,F, , , , ,space,1500,1.5,6117897957f3ece9a877c630,001,2021-08-19_15h46.56.950,natb3,2021.2.3,Win32,60.0132029,6117897957f3ece9a877c630,611e07ecdcc96256ae8d5b80,611e6ebb5620c66df37fa380,0.6438,
,,,,space,,0,76,76,181,1,E, , , , ,space,1500,1.5,6117897957f3ece9a877c630,001,2021-08-19_15h46.56.950,natb3,2021.2.3,Win32,60.0132029,6117897957f3ece9a877c630,611e07ecdcc96256ae8d5b80,611e6ebb5620c66df37fa380,0.4811,
,,,,space,,0,77,77,231,1,I, , , , ,space,2500,2.5,6117897957f3ece9a877c630,001,2021-08-19_15h46.56.950,natb3,2021.2.3,Win32,60.0132029,6117897957f3ece9a877c630,611e07ecdcc96256ae8d5b80,611e6ebb5620c66df37fa380,0.4677,
,,,,space,,0,78,78,92,1,Z, , , , ,space,1500,1.5,6117897957f3ece9a877c630,001,2021-08-19_15h46.56.950,natb3,2021.2.3,Win32,60.0132029,6117897957f3ece9a877c630,611e07ecdcc96256ae8d5b80,611e6ebb5620c66df37fa380,0.6344,
,,,,space,,0,79,79,304,1,S, , , , ,space,2000,2,6117897957f3ece9a877c630,001,2021-08-19_15h46.56.950,natb3,2021.2.3,Win32,60.0132029,6117897957f3ece9a877c630,611e07ecdcc96256ae8d5b80,611e6ebb5620c66df37fa380,0.4304,
,,,,space,,0,80,80,64,1,N, , , , ,space,2000,2,6117897957f3ece9a877c630,001,2021-08-19_15h46.56.950,natb3,2021.2.3,Win32,60.0132029,6117897957f3ece9a877c630,611e07ecdcc96256ae8d5b80,611e6ebb5620c66df37fa380,0.3803,
,,,,space,,0,81,81,30,1,N, , , , ,space,2500,2.5,6117897957f3ece9a877c630,001,2021-08-19_15h46.56.950,natb3,2021.2.3,Win32,60.0132029,6117897957f3ece9a877c630,611e07ecdcc96256ae8d5b80,611e6ebb5620c66df37fa380,0.4172,
,,,,space,,0,82,82,5,1,T, , , , ,space,2000,2,6117897957f3ece9a877c630,001,2021-08-19_15h46.56.950,natb3,2021.2.3,Win32,60.0132029,6117897957f3ece9a877c630,611e07ecdcc96256ae8d5b80,611e6ebb5620c66df37fa380,0.3677,
,,,,space,,0,83,83,165,1,J, , , , ,space,2500,2.5,6117897957f3ece9a877c630,001,2021-08-19_15h46.56.950,natb3,2021.2.3,Win32,60.0132029,6117897957f3ece9a877c630,611e07ecdcc96256ae8d5b80,611e6ebb5620c66df37fa380,0.3711,
,,,,space,,0,84,84,180,1,W, , , , ,space,2000,2,6117897957f3ece9a877c630,001,2021-08-19_15h46.56.950,natb3,2021.2.3,Win32,60.0132029,6117897957f3ece9a877c630,611e07ecdcc96256ae8d5b80,611e6ebb5620c66df37fa380,0.4276,
,,,,space,,0,85,85,62,1,V, , , , ,space,1500,1.5,6117897957f3ece9a877c630,001,2021-08-19_15h46.56.950,natb3,2021.2.3,Win32,60.0132029,6117897957f3ece9a877c630,611e07ecdcc96256ae8d5b80,611e6ebb5620c66df37fa380,0.3897,
,,,,space,,0,86,86,254,1,M, , , , ,space,1500,1.5,6117897957f3ece9a877c630,001,2021-08-19_15h46.56.950,natb3,2021.2.3,Win32,60.0132029,6117897957f3ece9a877c630,611e07ecdcc96256ae8d5b80,611e6ebb5620c66df37fa380,0.4803,
,,,,space,,0,87,87,87,1,H, , , , ,space,1500,1.5,6117897957f3ece9a877c630,001,2021-08-19_15h46.56.950,natb3,2021.2.3,Win32,60.0132029,6117897957f3ece9a877c630,611e07ecdcc96256ae8d5b80,611e6ebb5620c66df37fa380,0.7454,
,,,,space,,0,88,88,170,1,Z, , , , ,space,2000,2,6117897957f3ece9a877c630,001,2021-08-19_15h46.56.950,natb3,2021.2.3,Win32,60.0132029,6117897957f3ece9a877c630,611e07ecdcc96256ae8d5b80,611e6ebb5620c66df37fa380,0.5169,
,,,,space,,0,89,89,269,1,A, , , , ,space,2500,2.5,6117897957f3ece9a877c630,001,2021-08-19_15h46.56.950,natb3,2021.2.3,Win32,60.0132029,6117897957f3ece9a877c630,611e07ecdcc96256ae8d5b80,611e6ebb5620c66df37fa380,0.3767,
,,,,space,,0,90,90,155,1,O, , , , ,space,1500,1.5,6117897957f3ece9a877c630,001,2021-08-19_15h46.56.950,natb3,2021.2.3,Win32,60.0132029,6117897957f3ece9a877c630,611e07ecdcc96256ae8d5b80,611e6ebb5620c66df37fa380,0.5341,
,,,,space,,0,91,91,217,1,T, , , , ,space,2500,2.5,6117897957f3ece9a877c630,001,2021-08-19_15h46.56.950,natb3,2021.2.3,Win32,60.0132029,6117897957f3ece9a877c630,611e07ecdcc96256ae8d5b80,611e6ebb5620c66df37fa380,0.3461,
,,,,space,,0,92,92,160,1,D, , , , ,space,1500,1.5,6117897957f3ece9a877c630,001,2021-08-19_15h46.56.950,natb3,2021.2.3,Win32,60.0132029,6117897957f3ece9a877c630,611e07ecdcc96256ae8d5b80,611e6ebb5620c66df37fa380,0.3514,
,,,,space,,0,93,93,334,1,O, , , , ,space,1500,1.5,6117897957f3ece9a877c630,001,2021-08-19_15h46.56.950,natb3,2021.2.3,Win32,60.0132029,6117897957f3ece9a877c630,611e07ecdcc96256ae8d5b80,611e6ebb5620c66df37fa380,0.5011,
,,,,space,,0,94,94,234,1,P, , , , ,space,2000,2,6117897957f3ece9a877c630,001,2021-08-19_15h46.56.950,natb3,2021.2.3,Win32,60.0132029,6117897957f3ece9a877c630,611e07ecdcc96256ae8d5b80,611e6ebb5620c66df37fa380,0.3424,
,,,,space,,0,95,95,161,1,F, , , , ,space,1500,1.5,6117897957f3ece9a877c630,001,2021-08-19_15h46.56.950,natb3,2021.2.3,Win32,60.0132029,6117897957f3ece9a877c630,611e07ecdcc96256ae8d5b80,611e6ebb5620c66df37fa380,0.46,
,,,,space,,0,96,96,279,1,K, , , , ,space,2500,2.5,6117897957f3ece9a877c630,001,2021-08-19_15h46.56.950,natb3,2021.2.3,Win32,60.0132029,6117897957f3ece9a877c630,611e07ecdcc96256ae8d5b80,611e6ebb5620c66df37fa380,0.413,
,,,,space,,0,97,97,76,1,I, , , , ,space,2000,2,6117897957f3ece9a877c630,001,2021-08-19_15h46.56.950,natb3,2021.2.3,Win32,60.0132029,6117897957f3ece9a877c630,611e07ecdcc96256ae8d5b80,611e6ebb5620c66df37fa380,0.4437,
,,,,space,,0,98,98,134,1,J, , , , ,space,2000,2,6117897957f3ece9a877c630,001,2021-08-19_15h46.56.950,natb3,2021.2.3,Win32,60.0132029,6117897957f3ece9a877c630,611e07ecdcc96256ae8d5b80,611e6ebb5620c66df37fa380,0.4506,
,,,,space,,0,99,99,281,1,Z, , , , ,space,1500,1.5,6117897957f3ece9a877c630,001,2021-08-19_15h46.56.950,natb3,2021.2.3,Win32,60.0132029,6117897957f3ece9a877c630,611e07ecdcc96256ae8d5b80,611e6ebb5620c66df37fa380,0.4736,
,,,,space,,0,100,100,21,1,J, , , , ,space,1500,1.5,6117897957f3ece9a877c630,001,2021-08-19_15h46.56.950,natb3,2021.2.3,Win32,60.0132029,6117897957f3ece9a877c630,611e07ecdcc96256ae8d5b80,611e6ebb5620c66df37fa380,0.3851,
,,,,space,,0,101,101,283,1,C, , , , ,space,1500,1.5,6117897957f3ece9a877c630,001,2021-08-19_15h46.56.950,natb3,2021.2.3,Win32,60.0132029,6117897957f3ece9a877c630,611e07ecdcc96256ae8d5b80,611e6ebb5620c66df37fa380,0.4692,
,,,,space,,0,102,102,41,1,Y, , , , ,space,2500,2.5,6117897957f3ece9a877c630,001,2021-08-19_15h46.56.950,natb3,2021.2.3,Win32,60.0132029,6117897957f3ece9a877c630,611e07ecdcc96256ae8d5b80,611e6ebb5620c66df37fa380,0.3259,
,,,,space,,0,103,103,7,1,X, , , , ,,1500,1.5,6117897957f3ece9a877c630,001,2021-08-19_15h46.56.950,natb3,2021.2.3,Win32,60.0132029,6117897957f3ece9a877c630,611e07ecdcc96256ae8d5b80,611e6ebb5620c66df37fa380,0.3786,
,,,,space,,0,104,104,260,1,R, , , , ,space,2000,2,6117897957f3ece9a877c630,001,2021-08-19_15h46.56.950,natb3,2021.2.3,Win32,60.0132029,6117897957f3ece9a877c630,611e07ecdcc96256ae8d5b80,611e6ebb5620c66df37fa380,0.4186,
,,,,space,,0,105,105,312,1,K, , , , ,space,2000,2,6117897957f3ece9a877c630,001,2021-08-19_15h46.56.950,natb3,2021.2.3,Win32,60.0132029,6117897957f3ece9a877c630,611e07ecdcc96256ae8d5b80,611e6ebb5620c66df37fa380,0.4088,
,,,,space,,0,106,106,72,1,T, , , , ,space,1500,1.5,6117897957f3ece9a877c630,001,2021-08-19_15h46.56.950,natb3,2021.2.3,Win32,60.0132029,6117897957f3ece9a877c630,611e07ecdcc96256ae8d5b80,611e6ebb5620c66df37fa380,0.3877,
,,,,space,,0,107,107,177,1,M, , , , ,space,2500,2.5,6117897957f3ece9a877c630,001,2021-08-19_15h46.56.950,natb3,2021.2.3,Win32,60.0132029,6117897957f3ece9a877c630,611e07ecdcc96256ae8d5b80,611e6ebb5620c66df37fa380,0.5757,
,,,,space,,0,108,108,184,1,T, , , , ,space,2000,2,6117897957f3ece9a877c630,001,2021-08-19_15h46.56.950,natb3,2021.2.3,Win32,60.0132029,6117897957f3ece9a877c630,611e07ecdcc96256ae8d5b80,611e6ebb5620c66df37fa380,0.431,
,,,,space,,0,109,109,335,1,P,,,,,space,1500,1.5,6117897957f3ece9a877c630,001,2021-08-19_15h46.56.950,natb3,2021.2.3,Win32,60.0132029,6117897957f3ece9a877c630,611e07ecdcc96256ae8d5b80,611e6ebb5620c66df37fa380,0.6806,
,,,,space,,0,110,110,50,1,D, , , , ,space,1500,1.5,6117897957f3ece9a877c630,001,2021-08-19_15h46.56.950,natb3,2021.2.3,Win32,60.0132029,6117897957f3ece9a877c630,611e07ecdcc96256ae8d5b80,611e6ebb5620c66df37fa380,0.4243,
,,,,,,0,111,111,69,1,X, , , , ,,1500,1.5,6117897957f3ece9a877c630,001,2021-08-19_15h46.56.950,natb3,2021.2.3,Win32,60.0132029,6117897957f3ece9a877c630,611e07ecdcc96256ae8d5b80,611e6ebb5620c66df37fa380,,
,,,,space,,0,112,112,108,1,Y, , , , ,space,2500,2.5,6117897957f3ece9a877c630,001,2021-08-19_15h46.56.950,natb3,2021.2.3,Win32,60.0132029,6117897957f3ece9a877c630,611e07ecdcc96256ae8d5b80,611e6ebb5620c66df37fa380,0.6473,
,,,,space,,0,113,113,57,1,K, , , , ,space,2500,2.5,6117897957f3ece9a877c630,001,2021-08-19_15h46.56.950,natb3,2021.2.3,Win32,60.0132029,6117897957f3ece9a877c630,611e07ecdcc96256ae8d5b80,611e6ebb5620c66df37fa380,0.4334,
,,,,space,,0,114,114,220,1,U, , , , ,space,2500,2.5,6117897957f3ece9a877c630,001,2021-08-19_15h46.56.950,natb3,2021.2.3,Win32,60.0132029,6117897957f3ece9a877c630,611e07ecdcc96256ae8d5b80,611e6ebb5620c66df37fa380,0.5617,
,,,,,,0,115,115,203,1,X, , , , ,,2500,2.5,6117897957f3ece9a877c630,001,2021-08-19_15h46.56.950,natb3,2021.2.3,Win32,60.0132029,6117897957f3ece9a877c630,611e07ecdcc96256ae8d5b80,611e6ebb5620c66df37fa380,,
,,,,space,,0,116,116,308,1,G, , , , ,space,1500,1.5,6117897957f3ece9a877c630,001,2021-08-19_15h46.56.950,natb3,2021.2.3,Win32,60.0132029,6117897957f3ece9a877c630,611e07ecdcc96256ae8d5b80,611e6ebb5620c66df37fa380,0.3937,
,,,,space,,0,117,117,301,1,P, , , , ,space,1500,1.5,6117897957f3ece9a877c630,001,2021-08-19_15h46.56.950,natb3,2021.2.3,Win32,60.0132029,6117897957f3ece9a877c630,611e07ecdcc96256ae8d5b80,611e6ebb5620c66df37fa380,0.4615,
,,,,space,,0,118,118,278,1,J, , , , ,space,2000,2,6117897957f3ece9a877c630,001,2021-08-19_15h46.56.950,natb3,2021.2.3,Win32,60.0132029,6117897957f3ece9a877c630,611e07ecdcc96256ae8d5b80,611e6ebb5620c66df37fa380,0.4261,
,,,,,,0,119,119,33,1,X, , , , ,,1500,1.5,6117897957f3ece9a877c630,001,2021-08-19_15h46.56.950,natb3,2021.2.3,Win32,60.0132029,6117897957f3ece9a877c630,611e07ecdcc96256ae8d5b80,611e6ebb5620c66df37fa380,,
,,,,space,,0,120,120,24,1,L, , , , ,space,2500,2.5,6117897957f3ece9a877c630,001,2021-08-19_15h46.56.950,natb3,2021.2.3,Win32,60.0132029,6117897957f3ece9a877c630,611e07ecdcc96256ae8d5b80,611e6ebb5620c66df37fa380,0.4509,
,,,,space,,0,121,121,192,1,A, , , , ,space,2000,2,6117897957f3ece9a877c630,001,2021-08-19_15h46.56.950,natb3,2021.2.3,Win32,60.0132029,6117897957f3ece9a877c630,611e07ecdcc96256ae8d5b80,611e6ebb5620c66df37fa380,0.5412,
,,,,space,,0,122,122,103,1,W, , , , ,space,2000,2,6117897957f3ece9a877c630,001,2021-08-19_15h46.56.950,natb3,2021.2.3,Win32,60.0132029,6117897957f3ece9a877c630,611e07ecdcc96256ae8d5b80,611e6ebb5620c66df37fa380,0.5506,
,,,,space,,0,123,123,224,1,W, , , , ,space,1500,1.5,6117897957f3ece9a877c630,001,2021-08-19_15h46.56.950,natb3,2021.2.3,Win32,60.0132029,6117897957f3ece9a877c630,611e07ecdcc96256ae8d5b80,611e6ebb5620c66df37fa380,0.6122,
,,,,space,,0,124,124,183,1,R, , , , ,space,1500,1.5,6117897957f3ece9a877c630,001,2021-08-19_15h46.56.950,natb3,2021.2.3,Win32,60.0132029,6117897957f3ece9a877c630,611e07ecdcc96256ae8d5b80,611e6ebb5620c66df37fa380,0.4541,
,,,,space,,0,125,125,212,1,Q, , , , ,space,2500,2.5,6117897957f3ece9a877c630,001,2021-08-19_15h46.56.950,natb3,2021.2.3,Win32,60.0132029,6117897957f3ece9a877c630,611e07ecdcc96256ae8d5b80,611e6ebb5620c66df37fa380,0.5908,
,,,,space,,0,126,126,59,1,Z, , , , ,space,2000,2,6117897957f3ece9a877c630,001,2021-08-19_15h46.56.950,natb3,2021.2.3,Win32,60.0132029,6117897957f3ece9a877c630,611e07ecdcc96256ae8d5b80,611e6ebb5620c66df37fa380,0.4468,
,,,,,,0,127,127,207,1,X,9, ,2, ,,2500,2.5,6117897957f3ece9a877c630,001,2021-08-19_15h46.56.950,natb3,2021.2.3,Win32,60.0132029,6117897957f3ece9a877c630,611e07ecdcc96256ae8d5b80,611e6ebb5620c66df37fa380,,
,,,,space,,0,128,128,262,1,Y, , , , ,space,2500,2.5,6117897957f3ece9a877c630,001,2021-08-19_15h46.56.950,natb3,2021.2.3,Win32,60.0132029,6117897957f3ece9a877c630,611e07ecdcc96256ae8d5b80,611e6ebb5620c66df37fa380,0.4275,
,,,,space,,0,129,129,242,1,H, , , , ,space,2500,2.5,6117897957f3ece9a877c630,001,2021-08-19_15h46.56.950,natb3,2021.2.3,Win32,60.0132029,6117897957f3ece9a877c630,611e07ecdcc96256ae8d5b80,611e6ebb5620c66df37fa380,0.5506,
,,,,space,,0,130,130,214,1,W, , , , ,space,2000,2,6117897957f3ece9a877c630,001,2021-08-19_15h46.56.950,natb3,2021.2.3,Win32,60.0132029,6117897957f3ece9a877c630,611e07ecdcc96256ae8d5b80,611e6ebb5620c66df37fa380,0.5259,
,,,,space,,0,131,131,222,1,O, , , , ,space,2000,2,6117897957f3ece9a877c630,001,2021-08-19_15h46.56.950,natb3,2021.2.3,Win32,60.0132029,6117897957f3ece9a877c630,611e07ecdcc96256ae8d5b80,611e6ebb5620c66df37fa380,0.481,
,,,,space,,0,132,132,188,1,I, , , , ,space,2500,2.5,6117897957f3ece9a877c630,001,2021-08-19_15h46.56.950,natb3,2021.2.3,Win32,60.0132029,6117897957f3ece9a877c630,611e07ecdcc96256ae8d5b80,611e6ebb5620c66df37fa380,0.4555,
,,,,space,,0,133,133,288,1,M, , , , ,space,1500,1.5,6117897957f3ece9a877c630,001,2021-08-19_15h46.56.950,natb3,2021.2.3,Win32,60.0132029,6117897957f3ece9a877c630,611e07ecdcc96256ae8d5b80,611e6ebb5620c66df37fa380,0.5527,
,,,,,,0,134,134,299,1,X, , , , ,,2500,2.5,6117897957f3ece9a877c630,001,2021-08-19_15h46.56.950,natb3,2021.2.3,Win32,60.0132029,6117897957f3ece9a877c630,611e07ecdcc96256ae8d5b80,611e6ebb5620c66df37fa380,,
,,,,space,,0,135,135,172,1,C, , , , ,space,1500,1.5,6117897957f3ece9a877c630,001,2021-08-19_15h46.56.950,natb3,2021.2.3,Win32,60.0132029,6117897957f3ece9a877c630,611e07ecdcc96256ae8d5b80,611e6ebb5620c66df37fa380,0.3781,
,,,,space,,0,136,136,327,1,E, , , , ,space,1500,1.5,6117897957f3ece9a877c630,001,2021-08-19_15h46.56.950,natb3,2021.2.3,Win32,60.0132029,6117897957f3ece9a877c630,611e07ecdcc96256ae8d5b80,611e6ebb5620c66df37fa380,0.3505,
,,,,,,0,137,137,295,1,X,8,7,5, ,,2500,2.5,6117897957f3ece9a877c630,001,2021-08-19_15h46.56.950,natb3,2021.2.3,Win32,60.0132029,6117897957f3ece9a877c630,611e07ecdcc96256ae8d5b80,611e6ebb5620c66df37fa380,,
,,,,,,0,138,138,74,1,X, ,4,3,2,,1500,1.5,6117897957f3ece9a877c630,001,2021-08-19_15h46.56.950,natb3,2021.2.3,Win32,60.0132029,6117897957f3ece9a877c630,611e07ecdcc96256ae8d5b80,611e6ebb5620c66df37fa380,,
,,,,space,,0,139,139,208,1,B, , , , ,space,1500,1.5,6117897957f3ece9a877c630,001,2021-08-19_15h46.56.950,natb3,2021.2.3,Win32,60.0132029,6117897957f3ece9a877c630,611e07ecdcc96256ae8d5b80,611e6ebb5620c66df37fa380,0.3942,
,,,,space,,0,140,140,9,1,I, , , , ,space,1500,1.5,6117897957f3ece9a877c630,001,2021-08-19_15h46.56.950,natb3,2021.2.3,Win32,60.0132029,6117897957f3ece9a877c630,611e07ecdcc96256ae8d5b80,611e6ebb5620c66df37fa380,0.4533,
,,,,space,,0,141,141,249,1,C, , , , ,space,2000,2,6117897957f3ece9a877c630,001,2021-08-19_15h46.56.950,natb3,2021.2.3,Win32,60.0132029,6117897957f3ece9a877c630,611e07ecdcc96256ae8d5b80,611e6ebb5620c66df37fa380,0.3623,
,,,,space,,0,142,142,159,1,S, , , , ,space,2500,2.5,6117897957f3ece9a877c630,001,2021-08-19_15h46.56.950,natb3,2021.2.3,Win32,60.0132029,6117897957f3ece9a877c630,611e07ecdcc96256ae8d5b80,611e6ebb5620c66df37fa380,0.39,
,,,,space,,0,143,143,272,1,D, , , , ,space,2000,2,6117897957f3ece9a877c630,001,2021-08-19_15h46.56.950,natb3,2021.2.3,Win32,60.0132029,6117897957f3ece9a877c630,611e07ecdcc96256ae8d5b80,611e6ebb5620c66df37fa380,0.4781,
,,,,,,0,144,144,18,1,X, ,2,5,8,,2500,2.5,6117897957f3ece9a877c630,001,2021-08-19_15h46.56.950,natb3,2021.2.3,Win32,60.0132029,6117897957f3ece9a877c630,611e07ecdcc96256ae8d5b80,611e6ebb5620c66df37fa380,,
,,,,space,,0,145,145,117,1,T, , , , ,space,2500,2.5,6117897957f3ece9a877c630,001,2021-08-19_15h46.56.950,natb3,2021.2.3,Win32,60.0132029,6117897957f3ece9a877c630,611e07ecdcc96256ae8d5b80,611e6ebb5620c66df37fa380,0.4679,
,,,,space,,0,146,146,131,1,G, , , , ,space,1500,1.5,6117897957f3ece9a877c630,001,2021-08-19_15h46.56.950,natb3,2021.2.3,Win32,60.0132029,6117897957f3ece9a877c630,611e07ecdcc96256ae8d5b80,611e6ebb5620c66df37fa380,0.538,
,,,,space,,0,147,147,11,1,P, , , , ,space,2500,2.5,6117897957f3ece9a877c630,001,2021-08-19_15h46.56.950,natb3,2021.2.3,Win32,60.0132029,6117897957f3ece9a877c630,611e07ecdcc96256ae8d5b80,611e6ebb5620c66df37fa380,0.4712,
,,,,space,,0,148,148,22,1,K, , , , ,space,2000,2,6117897957f3ece9a877c630,001,2021-08-19_15h46.56.950,natb3,2021.2.3,Win32,60.0132029,6117897957f3ece9a877c630,611e07ecdcc96256ae8d5b80,611e6ebb5620c66df37fa380,0.4349,
,,,,space,,0,149,149,150,1,T, , , , ,space,2500,2.5,6117897957f3ece9a877c630,001,2021-08-19_15h46.56.950,natb3,2021.2.3,Win32,60.0132029,6117897957f3ece9a877c630,611e07ecdcc96256ae8d5b80,611e6ebb5620c66df37fa380,0.4049,
,,,,,,0,150,150,325,1,X, , , , ,,2500,2.5,6117897957f3ece9a877c630,001,2021-08-19_15h46.56.950,natb3,2021.2.3,Win32,60.0132029,6117897957f3ece9a877c630,611e07ecdcc96256ae8d5b80,611e6ebb5620c66df37fa380,,
,,,,,,0,151,151,252,1,X,3, ,6,9,,2000,2,6117897957f3ece9a877c630,001,2021-08-19_15h46.56.950,natb3,2021.2.3,Win32,60.0132029,6117897957f3ece9a877c630,611e07ecdcc96256ae8d5b80,611e6ebb5620c66df37fa380,,
,,,,,,0,152,152,243,1,X, , , , ,,2500,2.5,6117897957f3ece9a877c630,001,2021-08-19_15h46.56.950,natb3,2021.2.3,Win32,60.0132029,6117897957f3ece9a877c630,611e07ecdcc96256ae8d5b80,611e6ebb5620c66df37fa380,,
,,,,,,0,153,153,287,1,X, ,2, ,9,,2000,2,6117897957f3ece9a877c630,001,2021-08-19_15h46.56.950,natb3,2021.2.3,Win32,60.0132029,6117897957f3ece9a877c630,611e07ecdcc96256ae8d5b80,611e6ebb5620c66df37fa380,,
,,,,space,,0,154,154,13,1,A, , , , ,space,2000,2,6117897957f3ece9a877c630,001,2021-08-19_15h46.56.950,natb3,2021.2.3,Win32,60.0132029,6117897957f3ece9a877c630,611e07ecdcc96256ae8d5b80,611e6ebb5620c66df37fa380,0.4916,
,,,,space,,0,155,155,142,1,N, , , , ,space,2500,2.5,6117897957f3ece9a877c630,001,2021-08-19_15h46.56.950,natb3,2021.2.3,Win32,60.0132029,6117897957f3ece9a877c630,611e07ecdcc96256ae8d5b80,611e6ebb5620c66df37fa380,0.4748,
,,,,,,0,156,156,238,1,D, , , , ,space,1500,1.5,6117897957f3ece9a877c630,001,2021-08-19_15h46.56.950,natb3,2021.2.3,Win32,60.0132029,6117897957f3ece9a877c630,611e07ecdcc96256ae8d5b80,611e6ebb5620c66df37fa380,,
,,,,space,,0,157,157,88,1,J, , , , ,space,2500,2.5,6117897957f3ece9a877c630,001,2021-08-19_15h46.56.950,natb3,2021.2.3,Win32,60.0132029,6117897957f3ece9a877c630,611e07ecdcc96256ae8d5b80,611e6ebb5620c66df37fa380,0.4389,
,,,,space,,0,158,158,307,1,F, , , , ,space,2500,2.5,6117897957f3ece9a877c630,001,2021-08-19_15h46.56.950,natb3,2021.2.3,Win32,60.0132029,6117897957f3ece9a877c630,611e07ecdcc96256ae8d5b80,611e6ebb5620c66df37fa380,0.5204,
,,,,space,,0,159,159,232,1,O, , , , ,space,2500,2.5,6117897957f3ece9a877c630,001,2021-08-19_15h46.56.950,natb3,2021.2.3,Win32,60.0132029,6117897957f3ece9a877c630,611e07ecdcc96256ae8d5b80,611e6ebb5620c66df37fa380,0.4621,
,,,,space,,0,160,160,26,1,C, , , , ,space,2000,2,6117897957f3ece9a877c630,001,2021-08-19_15h46.56.950,natb3,2021.2.3,Win32,60.0132029,6117897957f3ece9a877c630,611e07ecdcc96256ae8d5b80,611e6ebb5620c66df37fa380,0.4671,
,,,,space,,0,161,161,253,1,N, , , , ,space,2500,2.5,6117897957f3ece9a877c630,001,2021-08-19_15h46.56.950,natb3,2021.2.3,Win32,60.0132029,6117897957f3ece9a877c630,611e07ecdcc96256ae8d5b80,611e6ebb5620c66df37fa380,0.4346,
,,,,,,0,162,162,166,1,X, , , , ,,2000,2,6117897957f3ece9a877c630,001,2021-08-19_15h46.56.950,natb3,2021.2.3,Win32,60.0132029,6117897957f3ece9a877c630,611e07ecdcc96256ae8d5b80,611e6ebb5620c66df37fa380,,
,,,,space,,0,163,163,261,1,T, , , , ,space,2000,2,6117897957f3ece9a877c630,001,2021-08-19_15h46.56.950,natb3,2021.2.3,Win32,60.0132029,6117897957f3ece9a877c630,611e07ecdcc96256ae8d5b80,611e6ebb5620c66df37fa380,0.4565,
,,,,space,,0,164,164,255,1,X, , , , ,,1500,1.5,6117897957f3ece9a877c630,001,2021-08-19_15h46.56.950,natb3,2021.2.3,Win32,60.0132029,6117897957f3ece9a877c630,611e07ecdcc96256ae8d5b80,611e6ebb5620c66df37fa380,0.4405,
,,,,,,0,165,165,195,1,X, , , , ,,1500,1.5,6117897957f3ece9a877c630,001,2021-08-19_15h46.56.950,natb3,2021.2.3,Win32,60.0132029,6117897957f3ece9a877c630,611e07ecdcc96256ae8d5b80,611e6ebb5620c66df37fa380,,
,,,,space,,0,166,166,228,1,Y, , , , ,space,2000,2,6117897957f3ece9a877c630,001,2021-08-19_15h46.56.950,natb3,2021.2.3,Win32,60.0132029,6117897957f3ece9a877c630,611e07ecdcc96256ae8d5b80,611e6ebb5620c66df37fa380,0.4675,
,,,,space,space,0,167,167,265,1,I, , , , ,space,2000,2,6117897957f3ece9a877c630,001,2021-08-19_15h46.56.950,natb3,2021.2.3,Win32,60.0132029,6117897957f3ece9a877c630,611e07ecdcc96256ae8d5b80,611e6ebb5620c66df37fa380,0.5428,7.1196
,,,,space,,0,168,168,152,1,U, , , , ,space,2000,2,6117897957f3ece9a877c630,001,2021-08-19_15h46.56.950,natb3,2021.2.3,Win32,60.0132029,6117897957f3ece9a877c630,611e07ecdcc96256ae8d5b80,611e6ebb5620c66df37fa380,0.4667,
,,,,space,,0,169,169,204,1,Z, , , , ,space,2000,2,6117897957f3ece9a877c630,001,2021-08-19_15h46.56.950,natb3,2021.2.3,Win32,60.0132029,6117897957f3ece9a877c630,611e07ecdcc96256ae8d5b80,611e6ebb5620c66df37fa380,0.4783,
,,,,,,0,170,170,162,1,X,1,6, ,2,,1500,1.5,6117897957f3ece9a877c630,001,2021-08-19_15h46.56.950,natb3,2021.2.3,Win32,60.0132029,6117897957f3ece9a877c630,611e07ecdcc96256ae8d5b80,611e6ebb5620c66df37fa380,,
,,,,,,0,171,171,27,1,X,5, ,1,3,,1500,1.5,6117897957f3ece9a877c630,001,2021-08-19_15h46.56.950,natb3,2021.2.3,Win32,60.0132029,6117897957f3ece9a877c630,611e07ecdcc96256ae8d5b80,611e6ebb5620c66df37fa380,,
,,,,space,,0,172,172,215,1,E, , , , ,space,2500,2.5,6117897957f3ece9a877c630,001,2021-08-19_15h46.56.950,natb3,2021.2.3,Win32,60.0132029,6117897957f3ece9a877c630,611e07ecdcc96256ae8d5b80,611e6ebb5620c66df37fa380,0.4789,
,,,,,,0,173,173,116,1,X, , , , ,,2000,2,6117897957f3ece9a877c630,001,2021-08-19_15h46.56.950,natb3,2021.2.3,Win32,60.0132029,6117897957f3ece9a877c630,611e07ecdcc96256ae8d5b80,611e6ebb5620c66df37fa380,,
,,,,space,,0,174,174,114,1,E, , , , ,space,2000,2,6117897957f3ece9a877c630,001,2021-08-19_15h46.56.950,natb3,2021.2.3,Win32,60.0132029,6117897957f3ece9a877c630,611e07ecdcc96256ae8d5b80,611e6ebb5620c66df37fa380,0.4905,
,,,,,,0,175,175,125,1,X, , , , ,,2000,2,6117897957f3ece9a877c630,001,2021-08-19_15h46.56.950,natb3,2021.2.3,Win32,60.0132029,6117897957f3ece9a877c630,611e07ecdcc96256ae8d5b80,611e6ebb5620c66df37fa380,,
,,,,space,,0,176,176,227,1,T, , , , ,space,1500,1.5,6117897957f3ece9a877c630,001,2021-08-19_15h46.56.950,natb3,2021.2.3,Win32,60.0132029,6117897957f3ece9a877c630,611e07ecdcc96256ae8d5b80,611e6ebb5620c66df37fa380,0.4344,
,,,,,,0,177,177,93,1,X,5, ,7, ,,2500,2.5,6117897957f3ece9a877c630,001,2021-08-19_15h46.56.950,natb3,2021.2.3,Win32,60.0132029,6117897957f3ece9a877c630,611e07ecdcc96256ae8d5b80,611e6ebb5620c66df37fa380,,
,,,,space,,0,178,178,176,1,N, , , , ,space,1500,1.5,6117897957f3ece9a877c630,001,2021-08-19_15h46.56.950,natb3,2021.2.3,Win32,60.0132029,6117897957f3ece9a877c630,611e07ecdcc96256ae8d5b80,611e6ebb5620c66df37fa380,0.543,
,,,,space,,0,179,179,119,1,Y, , , , ,space,2500,2.5,6117897957f3ece9a877c630,001,2021-08-19_15h46.56.950,natb3,2021.2.3,Win32,60.0132029,6117897957f3ece9a877c630,611e07ecdcc96256ae8d5b80,611e6ebb5620c66df37fa380,0.4444,
,,,,space,,0,180,180,6,1,Y, , , , ,space,2500,2.5,6117897957f3ece9a877c630,001,2021-08-19_15h46.56.950,natb3,2021.2.3,Win32,60.0132029,6117897957f3ece9a877c630,611e07ecdcc96256ae8d5b80,611e6ebb5620c66df37fa380,0.6297,
,,,,,,0,181,181,282,1,X, , , , ,,2500,2.5,6117897957f3ece9a877c630,001,2021-08-19_15h46.56.950,natb3,2021.2.3,Win32,60.0132029,6117897957f3ece9a877c630,611e07ecdcc96256ae8d5b80,611e6ebb5620c66df37fa380,,
,,,,,,0,182,182,133,1,X, ,4, ,6,,2500,2.5,6117897957f3ece9a877c630,001,2021-08-19_15h46.56.950,natb3,2021.2.3,Win32,60.0132029,6117897957f3ece9a877c630,611e07ecdcc96256ae8d5b80,611e6ebb5620c66df37fa380,,
,,,,space,,0,183,183,290,1,W, , , , ,space,1500,1.5,6117897957f3ece9a877c630,001,2021-08-19_15h46.56.950,natb3,2021.2.3,Win32,60.0132029,6117897957f3ece9a877c630,611e07ecdcc96256ae8d5b80,611e6ebb5620c66df37fa380,0.4239,
,,,,,,0,184,184,51,1,X,7,5,8, ,,1500,1.5,6117897957f3ece9a877c630,001,2021-08-19_15h46.56.950,natb3,2021.2.3,Win32,60.0132029,6117897957f3ece9a877c630,611e07ecdcc96256ae8d5b80,611e6ebb5620c66df37fa380,,
,,,,space,,0,185,185,10,1,O, , , , ,space,2000,2,6117897957f3ece9a877c630,001,2021-08-19_15h46.56.950,natb3,2021.2.3,Win32,60.0132029,6117897957f3ece9a877c630,611e07ecdcc96256ae8d5b80,611e6ebb5620c66df37fa380,0.3868,
,,,,space,,0,186,186,230,1,U, , , , ,space,1500,1.5,6117897957f3ece9a877c630,001,2021-08-19_15h46.56.950,natb3,2021.2.3,Win32,60.0132029,6117897957f3ece9a877c630,611e07ecdcc96256ae8d5b80,611e6ebb5620c66df37fa380,0.4137,
,,,,space,,0,187,187,323,1,M, , , , ,space,2500,2.5,6117897957f3ece9a877c630,001,2021-08-19_15h46.56.950,natb3,2021.2.3,Win32,60.0132029,6117897957f3ece9a877c630,611e07ecdcc96256ae8d5b80,611e6ebb5620c66df37fa380,0.392,
,,,,space,,0,188,188,219,1,Y, , , , ,space,2000,2,6117897957f3ece9a877c630,001,2021-08-19_15h46.56.950,natb3,2021.2.3,Win32,60.0132029,6117897957f3ece9a877c630,611e07ecdcc96256ae8d5b80,611e6ebb5620c66df37fa380,0.4338,
,,,,space,,0,189,189,102,1,X, ,6, , ,,1500,1.5,6117897957f3ece9a877c630,001,2021-08-19_15h46.56.950,natb3,2021.2.3,Win32,60.0132029,6117897957f3ece9a877c630,611e07ecdcc96256ae8d5b80,611e6ebb5620c66df37fa380,0.5768,
,,,,,,0,190,190,229,1,X,8, ,2,6,,2500,2.5,6117897957f3ece9a877c630,001,2021-08-19_15h46.56.950,natb3,2021.2.3,Win32,60.0132029,6117897957f3ece9a877c630,611e07ecdcc96256ae8d5b80,611e6ebb5620c66df37fa380,,
,,,,space,,0,191,191,330,1,T, , , , ,space,2500,2.5,6117897957f3ece9a877c630,001,2021-08-19_15h46.56.950,natb3,2021.2.3,Win32,60.0132029,6117897957f3ece9a877c630,611e07ecdcc96256ae8d5b80,611e6ebb5620c66df37fa380,0.5371,
,,,,,,0,192,192,4,1,X, , , , ,,2000,2,6117897957f3ece9a877c630,001,2021-08-19_15h46.56.950,natb3,2021.2.3,Win32,60.0132029,6117897957f3ece9a877c630,611e07ecdcc96256ae8d5b80,611e6ebb5620c66df37fa380,,
,,,,space,,0,193,193,316,1,Z, , , , ,space,1500,1.5,6117897957f3ece9a877c630,001,2021-08-19_15h46.56.950,natb3,2021.2.3,Win32,60.0132029,6117897957f3ece9a877c630,611e07ecdcc96256ae8d5b80,611e6ebb5620c66df37fa380,0.5672,
,,,,space,,0,194,194,109,1,U, , , , ,space,1500,1.5,6117897957f3ece9a877c630,001,2021-08-19_15h46.56.950,natb3,2021.2.3,Win32,60.0132029,6117897957f3ece9a877c630,611e07ecdcc96256ae8d5b80,611e6ebb5620c66df37fa380,0.5621,
,,,,space,,0,195,195,320,1,B, , , , ,space,1500,1.5,6117897957f3ece9a877c630,001,2021-08-19_15h46.56.950,natb3,2021.2.3,Win32,60.0132029,6117897957f3ece9a877c630,611e07ecdcc96256ae8d5b80,611e6ebb5620c66df37fa380,0.4788,
,,,,space,,0,196,196,275,1,G, , , , ,space,1500,1.5,6117897957f3ece9a877c630,001,2021-08-19_15h46.56.950,natb3,2021.2.3,Win32,60.0132029,6117897957f3ece9a877c630,611e07ecdcc96256ae8d5b80,611e6ebb5620c66df37fa380,0.6391,
,,,,space,,0,197,197,85,1,F, , , , ,space,2500,2.5,6117897957f3ece9a877c630,001,2021-08-19_15h46.56.950,natb3,2021.2.3,Win32,60.0132029,6117897957f3ece9a877c630,611e07ecdcc96256ae8d5b80,611e6ebb5620c66df37fa380,0.4643,
,,,,space,,0,198,198,105,1,R, , , , ,space,2500,2.5,6117897957f3ece9a877c630,001,2021-08-19_15h46.56.950,natb3,2021.2.3,Win32,60.0132029,6117897957f3ece9a877c630,611e07ecdcc96256ae8d5b80,611e6ebb5620c66df37fa380,0.4413,
,,,,space,,0,199,199,298,1,I, , , , ,space,2000,2,6117897957f3ece9a877c630,001,2021-08-19_15h46.56.950,natb3,2021.2.3,Win32,60.0132029,6117897957f3ece9a877c630,611e07ecdcc96256ae8d5b80,611e6ebb5620c66df37fa380,0.4853,
,,,,space,,0,200,200,49,1,S, , , , ,space,1500,1.5,6117897957f3ece9a877c630,001,2021-08-19_15h46.56.950,natb3,2021.2.3,Win32,60.0132029,6117897957f3ece9a877c630,611e07ecdcc96256ae8d5b80,611e6ebb5620c66df37fa380,0.4377,
,,,,space,,0,201,201,264,1,U, , , , ,space,2000,2,6117897957f3ece9a877c630,001,2021-08-19_15h46.56.950,natb3,2021.2.3,Win32,60.0132029,6117897957f3ece9a877c630,611e07ecdcc96256ae8d5b80,611e6ebb5620c66df37fa380,0.4268,
,,,,,,0,202,202,46,1,X, , , , ,,2000,2,6117897957f3ece9a877c630,001,2021-08-19_15h46.56.950,natb3,2021.2.3,Win32,60.0132029,6117897957f3ece9a877c630,611e07ecdcc96256ae8d5b80,611e6ebb5620c66df37fa380,,
,,,,space,,0,203,203,77,1,O, , , , ,space,2000,2,6117897957f3ece9a877c630,001,2021-08-19_15h46.56.950,natb3,2021.2.3,Win32,60.0132029,6117897957f3ece9a877c630,611e07ecdcc96256ae8d5b80,611e6ebb5620c66df37fa380,0.4842,
,,,,space,,0,204,204,144,1,Q, , , , ,space,2500,2.5,6117897957f3ece9a877c630,001,2021-08-19_15h46.56.950,natb3,2021.2.3,Win32,60.0132029,6117897957f3ece9a877c630,611e07ecdcc96256ae8d5b80,611e6ebb5620c66df37fa380,0.4841,
,,,,space,,0,205,205,163,1,G, , , , ,space,2500,2.5,6117897957f3ece9a877c630,001,2021-08-19_15h46.56.950,natb3,2021.2.3,Win32,60.0132029,6117897957f3ece9a877c630,611e07ecdcc96256ae8d5b80,611e6ebb5620c66df37fa380,0.4178,
,,,,,,0,206,206,141,1,X,1, ,4,6,,1500,1.5,6117897957f3ece9a877c630,001,2021-08-19_15h46.56.950,natb3,2021.2.3,Win32,60.0132029,6117897957f3ece9a877c630,611e07ecdcc96256ae8d5b80,611e6ebb5620c66df37fa380,,
,,,,space,,0,207,207,169,1,L, , , , ,space,2500,2.5,6117897957f3ece9a877c630,001,2021-08-19_15h46.56.950,natb3,2021.2.3,Win32,60.0132029,6117897957f3ece9a877c630,611e07ecdcc96256ae8d5b80,611e6ebb5620c66df37fa380,0.4635,
,,,,space,,0,208,208,185,1,Y, , , , ,space,2500,2.5,6117897957f3ece9a877c630,001,2021-08-19_15h46.56.950,natb3,2021.2.3,Win32,60.0132029,6117897957f3ece9a877c630,611e07ecdcc96256ae8d5b80,611e6ebb5620c66df37fa380,0.5277,
,,,,space,,0,209,209,326,1,W, , , , ,space,2000,2,6117897957f3ece9a877c630,001,2021-08-19_15h46.56.950,natb3,2021.2.3,Win32,60.0132029,6117897957f3ece9a877c630,611e07ecdcc96256ae8d5b80,611e6ebb5620c66df37fa380,0.6423,
,,,,space,,0,210,210,104,1,E, , , , ,space,2000,2,6117897957f3ece9a877c630,001,2021-08-19_15h46.56.950,natb3,2021.2.3,Win32,60.0132029,6117897957f3ece9a877c630,611e07ecdcc96256ae8d5b80,611e6ebb5620c66df37fa380,0.5112,
,,,,,,0,211,211,236,1,X,3, ,4,7,,2500,2.5,6117897957f3ece9a877c630,001,2021-08-19_15h46.56.950,natb3,2021.2.3,Win32,60.0132029,6117897957f3ece9a877c630,611e07ecdcc96256ae8d5b80,611e6ebb5620c66df37fa380,,
,,,,,,0,212,212,78,1,X, , , , ,,2000,2,6117897957f3ece9a877c630,001,2021-08-19_15h46.56.950,natb3,2021.2.3,Win32,60.0132029,6117897957f3ece9a877c630,611e07ecdcc96256ae8d5b80,611e6ebb5620c66df37fa380,,
,,,,space,,0,213,213,206,1,V, , , , ,space,2000,2,6117897957f3ece9a877c630,001,2021-08-19_15h46.56.950,natb3,2021.2.3,Win32,60.0132029,6117897957f3ece9a877c630,611e07ecdcc96256ae8d5b80,611e6ebb5620c66df37fa380,0.3672,
,,,,space,,0,214,214,328,1,R, , , , ,space,1500,1.5,6117897957f3ece9a877c630,001,2021-08-19_15h46.56.950,natb3,2021.2.3,Win32,60.0132029,6117897957f3ece9a877c630,611e07ecdcc96256ae8d5b80,611e6ebb5620c66df37fa380,0.4346,
,,,,,,0,215,215,315,1,X, , , , ,,2500,2.5,6117897957f3ece9a877c630,001,2021-08-19_15h46.56.950,natb3,2021.2.3,Win32,60.0132029,6117897957f3ece9a877c630,611e07ecdcc96256ae8d5b80,611e6ebb5620c66df37fa380,,
,,,,space,,0,216,216,240,1,F, , , , ,space,2500,2.5,6117897957f3ece9a877c630,001,2021-08-19_15h46.56.950,natb3,2021.2.3,Win32,60.0132029,6117897957f3ece9a877c630,611e07ecdcc96256ae8d5b80,611e6ebb5620c66df37fa380,0.4231,
,,,,space,,0,217,217,123,1,O, , , , ,space,1500,1.5,6117897957f3ece9a877c630,001,2021-08-19_15h46.56.950,natb3,2021.2.3,Win32,60.0132029,6117897957f3ece9a877c630,611e07ecdcc96256ae8d5b80,611e6ebb5620c66df37fa380,0.5144,
,,,,,,0,218,218,305,1,X, , , , ,,1500,1.5,6117897957f3ece9a877c630,001,2021-08-19_15h46.56.950,natb3,2021.2.3,Win32,60.0132029,6117897957f3ece9a877c630,611e07ecdcc96256ae8d5b80,611e6ebb5620c66df37fa380,,
,,,,space,,0,219,219,94,1,C, , , , ,space,2000,2,6117897957f3ece9a877c630,001,2021-08-19_15h46.56.950,natb3,2021.2.3,Win32,60.0132029,6117897957f3ece9a877c630,611e07ecdcc96256ae8d5b80,611e6ebb5620c66df37fa380,0.3517,
,,,,space,,0,220,220,332,1,U, , , , ,space,2000,2,6117897957f3ece9a877c630,001,2021-08-19_15h46.56.950,natb3,2021.2.3,Win32,60.0132029,6117897957f3ece9a877c630,611e07ecdcc96256ae8d5b80,611e6ebb5620c66df37fa380,0.4009,
,,,,space,,0,221,221,309,1,H, , , , ,space,2500,2.5,6117897957f3ece9a877c630,001,2021-08-19_15h46.56.950,natb3,2021.2.3,Win32,60.0132029,6117897957f3ece9a877c630,611e07ecdcc96256ae8d5b80,611e6ebb5620c66df37fa380,0.3563,
,,,,space,,0,222,222,302,1,X, , , , ,,2000,2,6117897957f3ece9a877c630,001,2021-08-19_15h46.56.950,natb3,2021.2.3,Win32,60.0132029,6117897957f3ece9a877c630,611e07ecdcc96256ae8d5b80,611e6ebb5620c66df37fa380,0.367,
,,,,,,0,223,223,259,1,X,8, , ,3,,2500,2.5,6117897957f3ece9a877c630,001,2021-08-19_15h46.56.950,natb3,2021.2.3,Win32,60.0132029,6117897957f3ece9a877c630,611e07ecdcc96256ae8d5b80,611e6ebb5620c66df37fa380,,
,,,,,,0,224,224,98,1,X, , , , ,,2500,2.5,6117897957f3ece9a877c630,001,2021-08-19_15h46.56.950,natb3,2021.2.3,Win32,60.0132029,6117897957f3ece9a877c630,611e07ecdcc96256ae8d5b80,611e6ebb5620c66df37fa380,,
,,,,space,,0,225,225,209,1,N, , , , ,space,2000,2,6117897957f3ece9a877c630,001,2021-08-19_15h46.56.950,natb3,2021.2.3,Win32,60.0132029,6117897957f3ece9a877c630,611e07ecdcc96256ae8d5b80,611e6ebb5620c66df37fa380,0.4366,
,,,,space,,0,226,226,178,1,Q, , , , ,space,1500,1.5,6117897957f3ece9a877c630,001,2021-08-19_15h46.56.950,natb3,2021.2.3,Win32,60.0132029,6117897957f3ece9a877c630,611e07ecdcc96256ae8d5b80,611e6ebb5620c66df37fa380,0.4939,
,,,,space,,0,227,227,32,1,M, , , , ,space,1500,1.5,6117897957f3ece9a877c630,001,2021-08-19_15h46.56.950,natb3,2021.2.3,Win32,60.0132029,6117897957f3ece9a877c630,611e07ecdcc96256ae8d5b80,611e6ebb5620c66df37fa380,0.446,
,,,,space,,0,228,228,86,1,G, , , , ,space,2000,2,6117897957f3ece9a877c630,001,2021-08-19_15h46.56.950,natb3,2021.2.3,Win32,60.0132029,6117897957f3ece9a877c630,611e07ecdcc96256ae8d5b80,611e6ebb5620c66df37fa380,0.3786,
,,,,space,,0,229,229,3,1,R, , , , ,space,2000,2,6117897957f3ece9a877c630,001,2021-08-19_15h46.56.950,natb3,2021.2.3,Win32,60.0132029,6117897957f3ece9a877c630,611e07ecdcc96256ae8d5b80,611e6ebb5620c66df37fa380,0.3467,
,,,,space,,0,230,230,225,1,E, , , , ,space,2000,2,6117897957f3ece9a877c630,001,2021-08-19_15h46.56.950,natb3,2021.2.3,Win32,60.0132029,6117897957f3ece9a877c630,611e07ecdcc96256ae8d5b80,611e6ebb5620c66df37fa380,0.3504,
,,,,space,,0,231,231,314,1,L, , , , ,space,1500,1.5,6117897957f3ece9a877c630,001,2021-08-19_15h46.56.950,natb3,2021.2.3,Win32,60.0132029,6117897957f3ece9a877c630,611e07ecdcc96256ae8d5b80,611e6ebb5620c66df37fa380,0.4258,
,,,,space,,0,232,232,48,1,A, , , , ,space,2500,2.5,6117897957f3ece9a877c630,001,2021-08-19_15h46.56.950,natb3,2021.2.3,Win32,60.0132029,6117897957f3ece9a877c630,611e07ecdcc96256ae8d5b80,611e6ebb5620c66df37fa380,0.4021,
,,,,space,,0,233,233,245,1,K, , , , ,space,2000,2,6117897957f3ece9a877c630,001,2021-08-19_15h46.56.950,natb3,2021.2.3,Win32,60.0132029,6117897957f3ece9a877c630,611e07ecdcc96256ae8d5b80,611e6ebb5620c66df37fa380,0.731,
,,,,space,,0,234,234,29,1,B, , , , ,space,1500,1.5,6117897957f3ece9a877c630,001,2021-08-19_15h46.56.950,natb3,2021.2.3,Win32,60.0132029,6117897957f3ece9a877c630,611e07ecdcc96256ae8d5b80,611e6ebb5620c66df37fa380,0.5521,
,,,,space,,0,235,235,58,1,L, , , , ,space,2000,2,6117897957f3ece9a877c630,001,2021-08-19_15h46.56.950,natb3,2021.2.3,Win32,60.0132029,6117897957f3ece9a877c630,611e07ecdcc96256ae8d5b80,611e6ebb5620c66df37fa380,0.3929,
,,,,space,,0,236,236,297,1,U, , , , ,space,2000,2,6117897957f3ece9a877c630,001,2021-08-19_15h46.56.950,natb3,2021.2.3,Win32,60.0132029,6117897957f3ece9a877c630,611e07ecdcc96256ae8d5b80,611e6ebb5620c66df37fa380,0.4961,
,,,,space,,0,237,237,36,1,W, , , , ,space,2000,2,6117897957f3ece9a877c630,001,2021-08-19_15h46.56.950,natb3,2021.2.3,Win32,60.0132029,6117897957f3ece9a877c630,611e07ecdcc96256ae8d5b80,611e6ebb5620c66df37fa380,0.4115,
,,,,space,,0,238,238,127,1,S, , , , ,space,2500,2.5,6117897957f3ece9a877c630,001,2021-08-19_15h46.56.950,natb3,2021.2.3,Win32,60.0132029,6117897957f3ece9a877c630,611e07ecdcc96256ae8d5b80,611e6ebb5620c66df37fa380,0.438,
,,,,space,,0,239,239,303,1,A, , , , ,space,2000,2,6117897957f3ece9a877c630,001,2021-08-19_15h46.56.950,natb3,2021.2.3,Win32,60.0132029,6117897957f3ece9a877c630,611e07ecdcc96256ae8d5b80,611e6ebb5620c66df37fa380,0.4754,
,,,,space,,0,240,240,256,1,Q, , , , ,space,2000,2,6117897957f3ece9a877c630,001,2021-08-19_15h46.56.950,natb3,2021.2.3,Win32,60.0132029,6117897957f3ece9a877c630,611e07ecdcc96256ae8d5b80,611e6ebb5620c66df37fa380,0.5838,
,,,,space,,0,241,241,193,1,S, , , , ,space,2500,2.5,6117897957f3ece9a877c630,001,2021-08-19_15h46.56.950,natb3,2021.2.3,Win32,60.0132029,6117897957f3ece9a877c630,611e07ecdcc96256ae8d5b80,611e6ebb5620c66df37fa380,0.3786,
,,,,,,0,242,242,15,1,X, , , , ,,1500,1.5,6117897957f3ece9a877c630,001,2021-08-19_15h46.56.950,natb3,2021.2.3,Win32,60.0132029,6117897957f3ece9a877c630,611e07ecdcc96256ae8d5b80,611e6ebb5620c66df37fa380,,
,,,,space,,0,243,243,274,1,F, , , , ,space,2000,2,6117897957f3ece9a877c630,001,2021-08-19_15h46.56.950,natb3,2021.2.3,Win32,60.0132029,6117897957f3ece9a877c630,611e07ecdcc96256ae8d5b80,611e6ebb5620c66df37fa380,0.4064,
,,,,,,0,244,244,107,1,X,9,3, ,2,,2000,2,6117897957f3ece9a877c630,001,2021-08-19_15h46.56.950,natb3,2021.2.3,Win32,60.0132029,6117897957f3ece9a877c630,611e07ecdcc96256ae8d5b80,611e6ebb5620c66df37fa380,,
,,,,space,,0,245,245,300,1,O, , , , ,space,2500,2.5,6117897957f3ece9a877c630,001,2021-08-19_15h46.56.950,natb3,2021.2.3,Win32,60.0132029,6117897957f3ece9a877c630,611e07ecdcc96256ae8d5b80,611e6ebb5620c66df37fa380,0.5362,
,,,,,,0,246,246,191,1,X,1, ,3,4,,2500,2.5,6117897957f3ece9a877c630,001,2021-08-19_15h46.56.950,natb3,2021.2.3,Win32,60.0132029,6117897957f3ece9a877c630,611e07ecdcc96256ae8d5b80,611e6ebb5620c66df37fa380,,
,,,,space,,0,247,247,137,1,C, , , , ,space,2500,2.5,6117897957f3ece9a877c630,001,2021-08-19_15h46.56.950,natb3,2021.2.3,Win32,60.0132029,6117897957f3ece9a877c630,611e07ecdcc96256ae8d5b80,611e6ebb5620c66df37fa380,0.4183,
,,,,,,0,248,248,115,1,R, , , , ,space,1500,1.5,6117897957f3ece9a877c630,001,2021-08-19_15h46.56.950,natb3,2021.2.3,Win32,60.0132029,6117897957f3ece9a877c630,611e07ecdcc96256ae8d5b80,611e6ebb5620c66df37fa380,,
,,,,,,0,249,249,213,1,X, , , , ,,2500,2.5,6117897957f3ece9a877c630,001,2021-08-19_15h46.56.950,natb3,2021.2.3,Win32,60.0132029,6117897957f3ece9a877c630,611e07ecdcc96256ae8d5b80,611e6ebb5620c66df37fa380,,
,,,,,,0,250,250,263,1,X,4, ,6, ,,1500,1.5,6117897957f3ece9a877c630,001,2021-08-19_15h46.56.950,natb3,2021.2.3,Win32,60.0132029,6117897957f3ece9a877c630,611e07ecdcc96256ae8d5b80,611e6ebb5620c66df37fa380,,
,,,,space,,0,251,251,247,1,Z, , , , ,space,1500,1.5,6117897957f3ece9a877c630,001,2021-08-19_15h46.56.950,natb3,2021.2.3,Win32,60.0132029,6117897957f3ece9a877c630,611e07ecdcc96256ae8d5b80,611e6ebb5620c66df37fa380,0.4006,
,,,,space,,0,252,252,198,1,H, , , , ,space,2500,2.5,6117897957f3ece9a877c630,001,2021-08-19_15h46.56.950,natb3,2021.2.3,Win32,60.0132029,6117897957f3ece9a877c630,611e07ecdcc96256ae8d5b80,611e6ebb5620c66df37fa380,0.4839,
,,,,,,0,253,253,122,1,X,1, , ,8,,1500,1.5,6117897957f3ece9a877c630,001,2021-08-19_15h46.56.950,natb3,2021.2.3,Win32,60.0132029,6117897957f3ece9a877c630,611e07ecdcc96256ae8d5b80,611e6ebb5620c66df37fa380,,
,,,,space,,0,254,254,120,1,U, , , , ,space,1500,1.5,6117897957f3ece9a877c630,001,2021-08-19_15h46.56.950,natb3,2021.2.3,Win32,60.0132029,6117897957f3ece9a877c630,611e07ecdcc96256ae8d5b80,611e6ebb5620c66df37fa380,0.4226,
,,,,space,,0,255,255,42,1,U, , , , ,space,1500,1.5,6117897957f3ece9a877c630,001,2021-08-19_15h46.56.950,natb3,2021.2.3,Win32,60.0132029,6117897957f3ece9a877c630,611e07ecdcc96256ae8d5b80,611e6ebb5620c66df37fa380,0.4888,
,,,,,,0,256,256,179,1,X, ,9, ,2,,1500,1.5,6117897957f3ece9a877c630,001,2021-08-19_15h46.56.950,natb3,2021.2.3,Win32,60.0132029,6117897957f3ece9a877c630,611e07ecdcc96256ae8d5b80,611e6ebb5620c66df37fa380,,
,,,,space,,0,257,257,128,1,D, , , , ,space,2500,2.5,6117897957f3ece9a877c630,001,2021-08-19_15h46.56.950,natb3,2021.2.3,Win32,60.0132029,6117897957f3ece9a877c630,611e07ecdcc96256ae8d5b80,611e6ebb5620c66df37fa380,0.4204,
,,,,space,,0,258,258,151,1,Y, , , , ,space,2500,2.5,6117897957f3ece9a877c630,001,2021-08-19_15h46.56.950,natb3,2021.2.3,Win32,60.0132029,6117897957f3ece9a877c630,611e07ecdcc96256ae8d5b80,611e6ebb5620c66df37fa380,0.5018,
,,,,space,,0,259,259,55,1,H, , , , ,space,2500,2.5,6117897957f3ece9a877c630,001,2021-08-19_15h46.56.950,natb3,2021.2.3,Win32,60.0132029,6117897957f3ece9a877c630,611e07ecdcc96256ae8d5b80,611e6ebb5620c66df37fa380,0.3883,
,,,,space,,0,260,260,157,1,A, , , , ,space,2500,2.5,6117897957f3ece9a877c630,001,2021-08-19_15h46.56.950,natb3,2021.2.3,Win32,60.0132029,6117897957f3ece9a877c630,611e07ecdcc96256ae8d5b80,611e6ebb5620c66df37fa380,0.3757,
,,,,,,0,261,261,89,1,X,3, , , ,,2000,2,6117897957f3ece9a877c630,001,2021-08-19_15h46.56.950,natb3,2021.2.3,Win32,60.0132029,6117897957f3ece9a877c630,611e07ecdcc96256ae8d5b80,611e6ebb5620c66df37fa380,,
,,,,space,,0,262,262,205,1,C, , , , ,space,2000,2,6117897957f3ece9a877c630,001,2021-08-19_15h46.56.950,natb3,2021.2.3,Win32,60.0132029,6117897957f3ece9a877c630,611e07ecdcc96256ae8d5b80,611e6ebb5620c66df37fa380,0.3449,
,,,,space,,0,263,263,286,1,N, , , , ,space,1500,1.5,6117897957f3ece9a877c630,001,2021-08-19_15h46.56.950,natb3,2021.2.3,Win32,60.0132029,6117897957f3ece9a877c630,611e07ecdcc96256ae8d5b80,611e6ebb5620c66df37fa380,0.3997,
,,,,space,,0,264,264,235,1,A, , , , ,space,1500,1.5,6117897957f3ece9a877c630,001,2021-08-19_15h46.56.950,natb3,2021.2.3,Win32,60.0132029,6117897957f3ece9a877c630,611e07ecdcc96256ae8d5b80,611e6ebb5620c66df37fa380,0.4674,
,,,,space,,0,265,265,90,1,K, , , , ,space,2000,2,6117897957f3ece9a877c630,001,2021-08-19_15h46.56.950,natb3,2021.2.3,Win32,60.0132029,6117897957f3ece9a877c630,611e07ecdcc96256ae8d5b80,611e6ebb5620c66df37fa380,0.3509,
,,,,,,0,266,266,277,1,X,8,5, ,2,,2000,2,6117897957f3ece9a877c630,001,2021-08-19_15h46.56.950,natb3,2021.2.3,Win32,60.0132029,6117897957f3ece9a877c630,611e07ecdcc96256ae8d5b80,611e6ebb5620c66df37fa380,,
,,,,space,,0,267,267,8,1,U, , , , ,space,1500,1.5,6117897957f3ece9a877c630,001,2021-08-19_15h46.56.950,natb3,2021.2.3,Win32,60.0132029,6117897957f3ece9a877c630,611e07ecdcc96256ae8d5b80,611e6ebb5620c66df37fa380,0.3622,
,,,,,,0,268,268,82,1,X,4,6,1,7,,2000,2,6117897957f3ece9a877c630,001,2021-08-19_15h46.56.950,natb3,2021.2.3,Win32,60.0132029,6117897957f3ece9a877c630,611e07ecdcc96256ae8d5b80,611e6ebb5620c66df37fa380,,
,,,,space,,0,269,269,20,1,H, , , , ,space,1500,1.5,6117897957f3ece9a877c630,001,2021-08-19_15h46.56.950,natb3,2021.2.3,Win32,60.0132029,6117897957f3ece9a877c630,611e07ecdcc96256ae8d5b80,611e6ebb5620c66df37fa380,0.4505,
,,,,space,,0,270,270,100,1,M, , , , ,space,2000,2,6117897957f3ece9a877c630,001,2021-08-19_15h46.56.950,natb3,2021.2.3,Win32,60.0132029,6117897957f3ece9a877c630,611e07ecdcc96256ae8d5b80,611e6ebb5620c66df37fa380,0.54,
,,,,space,,0,271,271,113,1,W, , , , ,space,2500,2.5,6117897957f3ece9a877c630,001,2021-08-19_15h46.56.950,natb3,2021.2.3,Win32,60.0132029,6117897957f3ece9a877c630,611e07ecdcc96256ae8d5b80,611e6ebb5620c66df37fa380,0.451,
,,,,,,0,272,272,187,1,X, ,3,7,4,,1500,1.5,6117897957f3ece9a877c630,001,2021-08-19_15h46.56.950,natb3,2021.2.3,Win32,60.0132029,6117897957f3ece9a877c630,611e07ecdcc96256ae8d5b80,611e6ebb5620c66df37fa380,,
,,,,space,,0,273,273,37,1,E, , , , ,space,2500,2.5,6117897957f3ece9a877c630,001,2021-08-19_15h46.56.950,natb3,2021.2.3,Win32,60.0132029,6117897957f3ece9a877c630,611e07ecdcc96256ae8d5b80,611e6ebb5620c66df37fa380,0.4944,
,,,,space,,0,274,274,223,1,Q, , , , ,space,2000,2,6117897957f3ece9a877c630,001,2021-08-19_15h46.56.950,natb3,2021.2.3,Win32,60.0132029,6117897957f3ece9a877c630,611e07ecdcc96256ae8d5b80,611e6ebb5620c66df37fa380,0.4176,
,,,,space,,0,275,275,68,1,W, , , , ,space,2500,2.5,6117897957f3ece9a877c630,001,2021-08-19_15h46.56.950,natb3,2021.2.3,Win32,60.0132029,6117897957f3ece9a877c630,611e07ecdcc96256ae8d5b80,611e6ebb5620c66df37fa380,0.3956,
,,,,space,,0,276,276,40,1,T, , , , ,space,1500,1.5,6117897957f3ece9a877c630,001,2021-08-19_15h46.56.950,natb3,2021.2.3,Win32,60.0132029,6117897957f3ece9a877c630,611e07ecdcc96256ae8d5b80,611e6ebb5620c66df37fa380,0.3677,
,,,,space,,0,277,277,148,1,X, , , , ,,2000,2,6117897957f3ece9a877c630,001,2021-08-19_15h46.56.950,natb3,2021.2.3,Win32,60.0132029,6117897957f3ece9a877c630,611e07ecdcc96256ae8d5b80,611e6ebb5620c66df37fa380,0.3673,
,,,,,,0,278,278,291,1,X, , , , ,,2000,2,6117897957f3ece9a877c630,001,2021-08-19_15h46.56.950,natb3,2021.2.3,Win32,60.0132029,6117897957f3ece9a877c630,611e07ecdcc96256ae8d5b80,611e6ebb5620c66df37fa380,,
,,,,,,0,279,279,200,1,X,7, ,5,3,,1500,1.5,6117897957f3ece9a877c630,001,2021-08-19_15h46.56.950,natb3,2021.2.3,Win32,60.0132029,6117897957f3ece9a877c630,611e07ecdcc96256ae8d5b80,611e6ebb5620c66df37fa380,,
,,,,,,0,280,280,12,1,X, , , , ,,1500,1.5,6117897957f3ece9a877c630,001,2021-08-19_15h46.56.950,natb3,2021.2.3,Win32,60.0132029,6117897957f3ece9a877c630,611e07ecdcc96256ae8d5b80,611e6ebb5620c66df37fa380,,
,,,,space,,0,281,281,16,1,D, , , , ,space,1500,1.5,6117897957f3ece9a877c630,001,2021-08-19_15h46.56.950,natb3,2021.2.3,Win32,60.0132029,6117897957f3ece9a877c630,611e07ecdcc96256ae8d5b80,611e6ebb5620c66df37fa380,0.5551,
,,,,,,0,282,282,158,1,X, , , , ,,1500,1.5,6117897957f3ece9a877c630,001,2021-08-19_15h46.56.950,natb3,2021.2.3,Win32,60.0132029,6117897957f3ece9a877c630,611e07ecdcc96256ae8d5b80,611e6ebb5620c66df37fa380,,
,,,,space,,0,283,283,101,1,Q, , , , ,space,2500,2.5,6117897957f3ece9a877c630,001,2021-08-19_15h46.56.950,natb3,2021.2.3,Win32,60.0132029,6117897957f3ece9a877c630,611e07ecdcc96256ae8d5b80,611e6ebb5620c66df37fa380,0.5513,
,,,,space,,0,284,284,293,1,R, , , , ,space,2500,2.5,6117897957f3ece9a877c630,001,2021-08-19_15h46.56.950,natb3,2021.2.3,Win32,60.0132029,6117897957f3ece9a877c630,611e07ecdcc96256ae8d5b80,611e6ebb5620c66df37fa380,0.5368,
,,,,space,,0,285,285,280,1,L, , , , ,space,1500,1.5,6117897957f3ece9a877c630,001,2021-08-19_15h46.56.950,natb3,2021.2.3,Win32,60.0132029,6117897957f3ece9a877c630,611e07ecdcc96256ae8d5b80,611e6ebb5620c66df37fa380,0.4781,
,,,,space,,0,286,286,75,1,U, , , , ,space,1500,1.5,6117897957f3ece9a877c630,001,2021-08-19_15h46.56.950,natb3,2021.2.3,Win32,60.0132029,6117897957f3ece9a877c630,611e07ecdcc96256ae8d5b80,611e6ebb5620c66df37fa380,0.6145,
,,,,,,0,287,287,153,1,X,4,7, ,6,,2000,2,6117897957f3ece9a877c630,001,2021-08-19_15h46.56.950,natb3,2021.2.3,Win32,60.0132029,6117897957f3ece9a877c630,611e07ecdcc96256ae8d5b80,611e6ebb5620c66df37fa380,,
,,,,space,,0,288,288,132,1,H, , , , ,space,2500,2.5,6117897957f3ece9a877c630,001,2021-08-19_15h46.56.950,natb3,2021.2.3,Win32,60.0132029,6117897957f3ece9a877c630,611e07ecdcc96256ae8d5b80,611e6ebb5620c66df37fa380,0.4891,
,,,,space,,0,289,289,146,1,W, , , , ,space,1500,1.5,6117897957f3ece9a877c630,001,2021-08-19_15h46.56.950,natb3,2021.2.3,Win32,60.0132029,6117897957f3ece9a877c630,611e07ecdcc96256ae8d5b80,611e6ebb5620c66df37fa380,0.6253,
,,,,space,,0,290,290,149,1,R, , , , ,space,2000,2,6117897957f3ece9a877c630,001,2021-08-19_15h46.56.950,natb3,2021.2.3,Win32,60.0132029,6117897957f3ece9a877c630,611e07ecdcc96256ae8d5b80,611e6ebb5620c66df37fa380,0.4379,
,,,,space,,0,291,291,296,1,Y, , , , ,space,2500,2.5,6117897957f3ece9a877c630,001,2021-08-19_15h46.56.950,natb3,2021.2.3,Win32,60.0132029,6117897957f3ece9a877c630,611e07ecdcc96256ae8d5b80,611e6ebb5620c66df37fa380,0.3598,
,,,,,,0,292,292,311,1,X,1,2,7,3,,2500,2.5,6117897957f3ece9a877c630,001,2021-08-19_15h46.56.950,natb3,2021.2.3,Win32,60.0132029,6117897957f3ece9a877c630,611e07ecdcc96256ae8d5b80,611e6ebb5620c66df37fa380,,
,,,,space,,0,293,293,147,1,E, , , , ,space,2000,2,6117897957f3ece9a877c630,001,2021-08-19_15h46.56.950,natb3,2021.2.3,Win32,60.0132029,6117897957f3ece9a877c630,611e07ecdcc96256ae8d5b80,611e6ebb5620c66df37fa380,0.3835,
,,,,space,,0,294,294,56,1,J, , , , ,space,1500,1.5,6117897957f3ece9a877c630,001,2021-08-19_15h46.56.950,natb3,2021.2.3,Win32,60.0132029,6117897957f3ece9a877c630,611e07ecdcc96256ae8d5b80,611e6ebb5620c66df37fa380,0.5006,
,,,,space,,0,295,295,83,1,D, , , , ,space,2000,2,6117897957f3ece9a877c630,001,2021-08-19_15h46.56.950,natb3,2021.2.3,Win32,60.0132029,6117897957f3ece9a877c630,611e07ecdcc96256ae8d5b80,611e6ebb5620c66df37fa380,0.7717,
,,,,space,,0,296,296,61,1,C, , , , ,space,2000,2,6117897957f3ece9a877c630,001,2021-08-19_15h46.56.950,natb3,2021.2.3,Win32,60.0132029,6117897957f3ece9a877c630,611e07ecdcc96256ae8d5b80,611e6ebb5620c66df37fa380,0.4511,
,,,,space,,0,297,297,19,1,G, , , , ,space,1500,1.5,6117897957f3ece9a877c630,001,2021-08-19_15h46.56.950,natb3,2021.2.3,Win32,60.0132029,6117897957f3ece9a877c630,611e07ecdcc96256ae8d5b80,611e6ebb5620c66df37fa380,0.3803,
,,,,,,0,298,298,66,1,X, ,4,7, ,,2000,2,6117897957f3ece9a877c630,001,2021-08-19_15h46.56.950,natb3,2021.2.3,Win32,60.0132029,6117897957f3ece9a877c630,611e07ecdcc96256ae8d5b80,611e6ebb5620c66df37fa380,,
,,,,space,,0,299,299,244,1,J, , , , ,space,1500,1.5,6117897957f3ece9a877c630,001,2021-08-19_15h46.56.950,natb3,2021.2.3,Win32,60.0132029,6117897957f3ece9a877c630,611e07ecdcc96256ae8d5b80,611e6ebb5620c66df37fa380,0.4086,
,,,,space,,0,300,300,17,1,F, , , , ,space,2500,2.5,6117897957f3ece9a877c630,001,2021-08-19_15h46.56.950,natb3,2021.2.3,Win32,60.0132029,6117897957f3ece9a877c630,611e07ecdcc96256ae8d5b80,611e6ebb5620c66df37fa380,0.4511,
,,,,space,,0,301,301,140,1,B, , , , ,space,2500,2.5,6117897957f3ece9a877c630,001,2021-08-19_15h46.56.950,natb3,2021.2.3,Win32,60.0132029,6117897957f3ece9a877c630,611e07ecdcc96256ae8d5b80,611e6ebb5620c66df37fa380,0.3953,
,,,,space,,0,302,302,80,1,A, , , , ,space,2000,2,6117897957f3ece9a877c630,001,2021-08-19_15h46.56.950,natb3,2021.2.3,Win32,60.0132029,6117897957f3ece9a877c630,611e07ecdcc96256ae8d5b80,611e6ebb5620c66df37fa380,0.3868,
,,,,space,,0,303,303,143,1,M, , , , ,space,2500,2.5,6117897957f3ece9a877c630,001,2021-08-19_15h46.56.950,natb3,2021.2.3,Win32,60.0132029,6117897957f3ece9a877c630,611e07ecdcc96256ae8d5b80,611e6ebb5620c66df37fa380,0.5189,
,,,,space,,0,304,304,310,1,J, , , , ,space,2500,2.5,6117897957f3ece9a877c630,001,2021-08-19_15h46.56.950,natb3,2021.2.3,Win32,60.0132029,6117897957f3ece9a877c630,611e07ecdcc96256ae8d5b80,611e6ebb5620c66df37fa380,0.6926,
,,,,,,0,305,305,218,1,X,1,3, ,8,,1500,1.5,6117897957f3ece9a877c630,001,2021-08-19_15h46.56.950,natb3,2021.2.3,Win32,60.0132029,6117897957f3ece9a877c630,611e07ecdcc96256ae8d5b80,611e6ebb5620c66df37fa380,,
,,,,space,,0,306,306,99,1,N, , , , ,space,2500,2.5,6117897957f3ece9a877c630,001,2021-08-19_15h46.56.950,natb3,2021.2.3,Win32,60.0132029,6117897957f3ece9a877c630,611e07ecdcc96256ae8d5b80,611e6ebb5620c66df37fa380,0.4634,
,,,,,,0,307,307,129,1,X,2,3,5, ,,1500,1.5,6117897957f3ece9a877c630,001,2021-08-19_15h46.56.950,natb3,2021.2.3,Win32,60.0132029,6117897957f3ece9a877c630,611e07ecdcc96256ae8d5b80,611e6ebb5620c66df37fa380,,
,,,,space,,0,308,308,201,1,K, , , , ,space,1500,1.5,6117897957f3ece9a877c630,001,2021-08-19_15h46.56.950,natb3,2021.2.3,Win32,60.0132029,6117897957f3ece9a877c630,611e07ecdcc96256ae8d5b80,611e6ebb5620c66df37fa380,0.3967,
,,,,,,0,309,309,318,1,X, , , , ,,1500,1.5,6117897957f3ece9a877c630,001,2021-08-19_15h46.56.950,natb3,2021.2.3,Win32,60.0132029,6117897957f3ece9a877c630,611e07ecdcc96256ae8d5b80,611e6ebb5620c66df37fa380,,
,,,,,,0,310,310,273,1,X, , , , ,,2000,2,6117897957f3ece9a877c630,001,2021-08-19_15h46.56.950,natb3,2021.2.3,Win32,60.0132029,6117897957f3ece9a877c630,611e07ecdcc96256ae8d5b80,611e6ebb5620c66df37fa380,,
,,,,space,,0,311,311,324,1,Q, , , , ,space,2000,2,6117897957f3ece9a877c630,001,2021-08-19_15h46.56.950,natb3,2021.2.3,Win32,60.0132029,6117897957f3ece9a877c630,611e07ecdcc96256ae8d5b80,611e6ebb5620c66df37fa380,0.4955,
,,,,space,,0,312,312,190,1,P, , , , ,space,2000,2,6117897957f3ece9a877c630,001,2021-08-19_15h46.56.950,natb3,2021.2.3,Win32,60.0132029,6117897957f3ece9a877c630,611e07ecdcc96256ae8d5b80,611e6ebb5620c66df37fa380,0.4122,
,,,,space,,0,313,313,1,1,W, , , , ,space,2000,2,6117897957f3ece9a877c630,001,2021-08-19_15h46.56.950,natb3,2021.2.3,Win32,60.0132029,6117897957f3ece9a877c630,611e07ecdcc96256ae8d5b80,611e6ebb5620c66df37fa380,0.4733,
,,,,,,0,314,314,322,1,X, , ,1,6,,2000,2,6117897957f3ece9a877c630,001,2021-08-19_15h46.56.950,natb3,2021.2.3,Win32,60.0132029,6117897957f3ece9a877c630,611e07ecdcc96256ae8d5b80,611e6ebb5620c66df37fa380,,
,,,,space,,0,315,315,266,1,O, , , , ,space,1500,1.5,6117897957f3ece9a877c630,001,2021-08-19_15h46.56.950,natb3,2021.2.3,Win32,60.0132029,6117897957f3ece9a877c630,611e07ecdcc96256ae8d5b80,611e6ebb5620c66df37fa380,0.7616,
,,,,space,,0,316,316,199,1,J, , , , ,space,2500,2.5,6117897957f3ece9a877c630,001,2021-08-19_15h46.56.950,natb3,2021.2.3,Win32,60.0132029,6117897957f3ece9a877c630,611e07ecdcc96256ae8d5b80,611e6ebb5620c66df37fa380,0.4228,
,,,,,,0,317,317,268,1,X,6, ,3, ,,2500,2.5,6117897957f3ece9a877c630,001,2021-08-19_15h46.56.950,natb3,2021.2.3,Win32,60.0132029,6117897957f3ece9a877c630,611e07ecdcc96256ae8d5b80,611e6ebb5620c66df37fa380,,
,,,,space,,0,318,318,241,1,G, , , , ,space,2500,2.5,6117897957f3ece9a877c630,001,2021-08-19_15h46.56.950,natb3,2021.2.3,Win32,60.0132029,6117897957f3ece9a877c630,611e07ecdcc96256ae8d5b80,611e6ebb5620c66df37fa380,0.5174,
,,,,space,,0,319,319,226,1,R, , , , ,space,2000,2,6117897957f3ece9a877c630,001,2021-08-19_15h46.56.950,natb3,2021.2.3,Win32,60.0132029,6117897957f3ece9a877c630,611e07ecdcc96256ae8d5b80,611e6ebb5620c66df37fa380,0.384,
,,,,,,0,320,320,233,1,X, ,2, ,5,,1500,1.5,6117897957f3ece9a877c630,001,2021-08-19_15h46.56.950,natb3,2021.2.3,Win32,60.0132029,6117897957f3ece9a877c630,611e07ecdcc96256ae8d5b80,611e6ebb5620c66df37fa380,,
,,,,,,0,321,321,54,1,X, , , , ,,2000,2,6117897957f3ece9a877c630,001,2021-08-19_15h46.56.950,natb3,2021.2.3,Win32,60.0132029,6117897957f3ece9a877c630,611e07ecdcc96256ae8d5b80,611e6ebb5620c66df37fa380,,
,,,,space,,0,322,322,321,1,N, , , , ,space,2000,2,6117897957f3ece9a877c630,001,2021-08-19_15h46.56.950,natb3,2021.2.3,Win32,60.0132029,6117897957f3ece9a877c630,611e07ecdcc96256ae8d5b80,611e6ebb5620c66df37fa380,0.4258,
,,,,space,,0,323,323,70,1,E, , , , ,space,2500,2.5,6117897957f3ece9a877c630,001,2021-08-19_15h46.56.950,natb3,2021.2.3,Win32,60.0132029,6117897957f3ece9a877c630,611e07ecdcc96256ae8d5b80,611e6ebb5620c66df37fa380,0.5402,
,,,,space,,0,324,324,139,1,V, , , , ,space,2000,2,6117897957f3ece9a877c630,001,2021-08-19_15h46.56.950,natb3,2021.2.3,Win32,60.0132029,6117897957f3ece9a877c630,611e07ecdcc96256ae8d5b80,611e6ebb5620c66df37fa380,0.4139,
,,,,space,,0,325,325,53,1,G, , , , ,space,2500,2.5,6117897957f3ece9a877c630,001,2021-08-19_15h46.56.950,natb3,2021.2.3,Win32,60.0132029,6117897957f3ece9a877c630,611e07ecdcc96256ae8d5b80,611e6ebb5620c66df37fa380,0.3679,
,,,,space,,0,326,326,250,1,V, , , , ,space,2000,2,6117897957f3ece9a877c630,001,2021-08-19_15h46.56.950,natb3,2021.2.3,Win32,60.0132029,6117897957f3ece9a877c630,611e07ecdcc96256ae8d5b80,611e6ebb5620c66df37fa380,0.3606,
,,,,space,,0,327,327,34,1,Q, , , , ,space,2500,2.5,6117897957f3ece9a877c630,001,2021-08-19_15h46.56.950,natb3,2021.2.3,Win32,60.0132029,6117897957f3ece9a877c630,611e07ecdcc96256ae8d5b80,611e6ebb5620c66df37fa380,0.3814,
,,,,space,,0,328,328,156,1,P, , , , ,space,1500,1.5,6117897957f3ece9a877c630,001,2021-08-19_15h46.56.950,natb3,2021.2.3,Win32,60.0132029,6117897957f3ece9a877c630,611e07ecdcc96256ae8d5b80,611e6ebb5620c66df37fa380,0.4407,
,,,,space,,0,329,329,136,1,Z, , , , ,space,2500,2.5,6117897957f3ece9a877c630,001,2021-08-19_15h46.56.950,natb3,2021.2.3,Win32,60.0132029,6117897957f3ece9a877c630,611e07ecdcc96256ae8d5b80,611e6ebb5620c66df37fa380,0.4103,
,,,,space,,0,330,330,44,1,I, , , , ,space,2500,2.5,6117897957f3ece9a877c630,001,2021-08-19_15h46.56.950,natb3,2021.2.3,Win32,60.0132029,6117897957f3ece9a877c630,611e07ecdcc96256ae8d5b80,611e6ebb5620c66df37fa380,0.3575,
,,,,space,,0,331,331,97,1,B, , , , ,space,2500,2.5,6117897957f3ece9a877c630,001,2021-08-19_15h46.56.950,natb3,2021.2.3,Win32,60.0132029,6117897957f3ece9a877c630,611e07ecdcc96256ae8d5b80,611e6ebb5620c66df37fa380,0.3778,
,,,,space,,0,332,332,73,1,Y, , , , ,space,2000,2,6117897957f3ece9a877c630,001,2021-08-19_15h46.56.950,natb3,2021.2.3,Win32,60.0132029,6117897957f3ece9a877c630,611e07ecdcc96256ae8d5b80,611e6ebb5620c66df37fa380,0.3778,
,,,,,,0,333,333,35,1,X, , , , ,,2500,2.5,6117897957f3ece9a877c630,001,2021-08-19_15h46.56.950,natb3,2021.2.3,Win32,60.0132029,6117897957f3ece9a877c630,611e07ecdcc96256ae8d5b80,611e6ebb5620c66df37fa380,,
,,,,space,,0,334,334,164,1,H, , , , ,space,2500,2.5,6117897957f3ece9a877c630,001,2021-08-19_15h46.56.950,natb3,2021.2.3,Win32,60.0132029,6117897957f3ece9a877c630,611e07ecdcc96256ae8d5b80,611e6ebb5620c66df37fa380,0.4507,
,,,,,,0,335,335,130,1,F, , , , ,space,2000,2,6117897957f3ece9a877c630,001,2021-08-19_15h46.56.950,natb3,2021.2.3,Win32,60.0132029,6117897957f3ece9a877c630,611e07ecdcc96256ae8d5b80,611e6ebb5620c66df37fa380,,
