key_resp_2.keys,key_resp_2.rt,key_resp_3.keys,key_resp_3.rt,key_resp.keys,key_resp.rt,key_resp_4.keys,trials.thisRepN,trials.thisTrialN,trials.thisN,trials.thisIndex,trials.ran,stimulus,distractor1,distractor2,distractor3,distractor4,CorrAns,isi_duration,isi_dur_in_seconds,participant,session,date,expName,psychopyVersion,OS,frameRate,PROLIFIC_PID,STUDY_ID,SESSION_ID,key_resp_4.rt
return,12.4134,space,16.9414,space,0.9138,,0,0,0,308,1,G, , , , ,space,1500,1.5,61178a927e39ad56c002118b,001,2021-08-19_15h29.18.775,natb3,2021.2.3,Win32,59.96282305,61178a927e39ad56c002118b,611e07ecdcc96256ae8d5b80,611e6aa902f00d05399d5a04,
,,,,space,0.4248,,0,1,1,197,1,G, , , , ,space,2500,2.5,61178a927e39ad56c002118b,001,2021-08-19_15h29.18.775,natb3,2021.2.3,Win32,59.96282305,61178a927e39ad56c002118b,611e07ecdcc96256ae8d5b80,611e6aa902f00d05399d5a04,
,,,,space,0.4015,,0,2,2,226,1,R, , , , ,space,2000,2,61178a927e39ad56c002118b,001,2021-08-19_15h29.18.775,natb3,2021.2.3,Win32,59.96282305,61178a927e39ad56c002118b,611e07ecdcc96256ae8d5b80,611e6aa902f00d05399d5a04,
,,,,space,0.3744,,0,3,3,272,1,D, , , , ,space,2000,2,61178a927e39ad56c002118b,001,2021-08-19_15h29.18.775,natb3,2021.2.3,Win32,59.96282305,61178a927e39ad56c002118b,611e07ecdcc96256ae8d5b80,611e6aa902f00d05399d5a04,
,,,,space,0.3474,,0,4,4,173,1,V, , , , ,space,1500,1.5,61178a927e39ad56c002118b,001,2021-08-19_15h29.18.775,natb3,2021.2.3,Win32,59.96282305,61178a927e39ad56c002118b,611e07ecdcc96256ae8d5b80,611e6aa902f00d05399d5a04,
,,,,space,0.3559,,0,5,5,186,1,U, , , , ,space,2500,2.5,61178a927e39ad56c002118b,001,2021-08-19_15h29.18.775,natb3,2021.2.3,Win32,59.96282305,61178a927e39ad56c002118b,611e07ecdcc96256ae8d5b80,611e6aa902f00d05399d5a04,
,,,,,,,0,6,6,213,1,X, , , , ,,2500,2.5,61178a927e39ad56c002118b,001,2021-08-19_15h29.18.775,natb3,2021.2.3,Win32,59.96282305,61178a927e39ad56c002118b,611e07ecdcc96256ae8d5b80,611e6aa902f00d05399d5a04,
,,,,space,0.3796,,0,7,7,95,1,V, , , , ,space,1500,1.5,61178a927e39ad56c002118b,001,2021-08-19_15h29.18.775,natb3,2021.2.3,Win32,59.96282305,61178a927e39ad56c002118b,611e07ecdcc96256ae8d5b80,611e6aa902f00d05399d5a04,
,,,,space,0.3944,,0,8,8,146,1,W, , , , ,space,1500,1.5,61178a927e39ad56c002118b,001,2021-08-19_15h29.18.775,natb3,2021.2.3,Win32,59.96282305,61178a927e39ad56c002118b,611e07ecdcc96256ae8d5b80,611e6aa902f00d05399d5a04,
,,,,space,0.3676,,0,9,9,230,1,U, , , , ,space,1500,1.5,61178a927e39ad56c002118b,001,2021-08-19_15h29.18.775,natb3,2021.2.3,Win32,59.96282305,61178a927e39ad56c002118b,611e07ecdcc96256ae8d5b80,611e6aa902f00d05399d5a04,
,,,,,,,0,10,10,4,1,X, , , , ,,2000,2,61178a927e39ad56c002118b,001,2021-08-19_15h29.18.775,natb3,2021.2.3,Win32,59.96282305,61178a927e39ad56c002118b,611e07ecdcc96256ae8d5b80,611e6aa902f00d05399d5a04,
,,,,space,0.4667,,0,11,11,57,1,K, , , , ,space,2500,2.5,61178a927e39ad56c002118b,001,2021-08-19_15h29.18.775,natb3,2021.2.3,Win32,59.96282305,61178a927e39ad56c002118b,611e07ecdcc96256ae8d5b80,611e6aa902f00d05399d5a04,
,,,,,,,0,12,12,277,1,X,8,5, ,2,,2000,2,61178a927e39ad56c002118b,001,2021-08-19_15h29.18.775,natb3,2021.2.3,Win32,59.96282305,61178a927e39ad56c002118b,611e07ecdcc96256ae8d5b80,611e6aa902f00d05399d5a04,
,,,,space,0.5966,,0,13,13,22,1,K, , , , ,space,2000,2,61178a927e39ad56c002118b,001,2021-08-19_15h29.18.775,natb3,2021.2.3,Win32,59.96282305,61178a927e39ad56c002118b,611e07ecdcc96256ae8d5b80,611e6aa902f00d05399d5a04,
,,,,space,0.3982,,0,14,14,196,1,F, , , , ,space,1500,1.5,61178a927e39ad56c002118b,001,2021-08-19_15h29.18.775,natb3,2021.2.3,Win32,59.96282305,61178a927e39ad56c002118b,611e07ecdcc96256ae8d5b80,611e6aa902f00d05399d5a04,
,,,,space,0.3742,,0,15,15,320,1,B, , , , ,space,1500,1.5,61178a927e39ad56c002118b,001,2021-08-19_15h29.18.775,natb3,2021.2.3,Win32,59.96282305,61178a927e39ad56c002118b,611e07ecdcc96256ae8d5b80,611e6aa902f00d05399d5a04,
,,,,space,0.4319,,0,16,16,330,1,T, , , , ,space,2500,2.5,61178a927e39ad56c002118b,001,2021-08-19_15h29.18.775,natb3,2021.2.3,Win32,59.96282305,61178a927e39ad56c002118b,611e07ecdcc96256ae8d5b80,611e6aa902f00d05399d5a04,
,,,,,,,0,17,17,116,1,X, , , , ,,2000,2,61178a927e39ad56c002118b,001,2021-08-19_15h29.18.775,natb3,2021.2.3,Win32,59.96282305,61178a927e39ad56c002118b,611e07ecdcc96256ae8d5b80,611e6aa902f00d05399d5a04,
,,,,,,,0,18,18,255,1,X, , , , ,,1500,1.5,61178a927e39ad56c002118b,001,2021-08-19_15h29.18.775,natb3,2021.2.3,Win32,59.96282305,61178a927e39ad56c002118b,611e07ecdcc96256ae8d5b80,611e6aa902f00d05399d5a04,
,,,,space,0.4436,,0,19,19,202,1,L, , , , ,space,2500,2.5,61178a927e39ad56c002118b,001,2021-08-19_15h29.18.775,natb3,2021.2.3,Win32,59.96282305,61178a927e39ad56c002118b,611e07ecdcc96256ae8d5b80,611e6aa902f00d05399d5a04,
,,,,space,0.3502,,0,20,20,121,1,I, , , , ,space,2000,2,61178a927e39ad56c002118b,001,2021-08-19_15h29.18.775,natb3,2021.2.3,Win32,59.96282305,61178a927e39ad56c002118b,611e07ecdcc96256ae8d5b80,611e6aa902f00d05399d5a04,
,,,,,,,0,21,21,229,1,X,8, ,2,6,,2500,2.5,61178a927e39ad56c002118b,001,2021-08-19_15h29.18.775,natb3,2021.2.3,Win32,59.96282305,61178a927e39ad56c002118b,611e07ecdcc96256ae8d5b80,611e6aa902f00d05399d5a04,
,,,,,,,0,22,22,187,1,X, ,3,7,4,,1500,1.5,61178a927e39ad56c002118b,001,2021-08-19_15h29.18.775,natb3,2021.2.3,Win32,59.96282305,61178a927e39ad56c002118b,611e07ecdcc96256ae8d5b80,611e6aa902f00d05399d5a04,
,,,,,,,0,23,23,138,1,X,8,5, ,3,,2000,2,61178a927e39ad56c002118b,001,2021-08-19_15h29.18.775,natb3,2021.2.3,Win32,59.96282305,61178a927e39ad56c002118b,611e07ecdcc96256ae8d5b80,611e6aa902f00d05399d5a04,
,,,,space,0.5825,,0,24,24,210,1,M, , , , ,space,1500,1.5,61178a927e39ad56c002118b,001,2021-08-19_15h29.18.775,natb3,2021.2.3,Win32,59.96282305,61178a927e39ad56c002118b,611e07ecdcc96256ae8d5b80,611e6aa902f00d05399d5a04,
,,,,space,0.4624,,0,25,25,119,1,Y, , , , ,space,2500,2.5,61178a927e39ad56c002118b,001,2021-08-19_15h29.18.775,natb3,2021.2.3,Win32,59.96282305,61178a927e39ad56c002118b,611e07ecdcc96256ae8d5b80,611e6aa902f00d05399d5a04,
,,,,space,0.4117,,0,26,26,241,1,G, , , , ,space,2500,2.5,61178a927e39ad56c002118b,001,2021-08-19_15h29.18.775,natb3,2021.2.3,Win32,59.96282305,61178a927e39ad56c002118b,611e07ecdcc96256ae8d5b80,611e6aa902f00d05399d5a04,
,,,,space,0.4147,,0,27,27,180,1,W, , , , ,space,2000,2,61178a927e39ad56c002118b,001,2021-08-19_15h29.18.775,natb3,2021.2.3,Win32,59.96282305,61178a927e39ad56c002118b,611e07ecdcc96256ae8d5b80,611e6aa902f00d05399d5a04,
,,,,,,,0,28,28,166,1,X, , , , ,,2000,2,61178a927e39ad56c002118b,001,2021-08-19_15h29.18.775,natb3,2021.2.3,Win32,59.96282305,61178a927e39ad56c002118b,611e07ecdcc96256ae8d5b80,611e6aa902f00d05399d5a04,
,,,,space,0.3636,,0,29,29,9,1,I, , , , ,space,1500,1.5,61178a927e39ad56c002118b,001,2021-08-19_15h29.18.775,natb3,2021.2.3,Win32,59.96282305,61178a927e39ad56c002118b,611e07ecdcc96256ae8d5b80,611e6aa902f00d05399d5a04,
,,,,space,0.3344,,0,30,30,194,1,D, , , , ,space,2000,2,61178a927e39ad56c002118b,001,2021-08-19_15h29.18.775,natb3,2021.2.3,Win32,59.96282305,61178a927e39ad56c002118b,611e07ecdcc96256ae8d5b80,611e6aa902f00d05399d5a04,
,,,,space,0.4173,,0,31,31,317,1,C, , , , ,space,2000,2,61178a927e39ad56c002118b,001,2021-08-19_15h29.18.775,natb3,2021.2.3,Win32,59.96282305,61178a927e39ad56c002118b,611e07ecdcc96256ae8d5b80,611e6aa902f00d05399d5a04,
,,,,,,,0,32,32,291,1,X, , , , ,,2000,2,61178a927e39ad56c002118b,001,2021-08-19_15h29.18.775,natb3,2021.2.3,Win32,59.96282305,61178a927e39ad56c002118b,611e07ecdcc96256ae8d5b80,611e6aa902f00d05399d5a04,
,,,,space,0.4786,,0,33,33,319,1,V, , , , ,space,2000,2,61178a927e39ad56c002118b,001,2021-08-19_15h29.18.775,natb3,2021.2.3,Win32,59.96282305,61178a927e39ad56c002118b,611e07ecdcc96256ae8d5b80,611e6aa902f00d05399d5a04,
,,,,space,0.3864,,0,34,34,177,1,M, , , , ,space,2500,2.5,61178a927e39ad56c002118b,001,2021-08-19_15h29.18.775,natb3,2021.2.3,Win32,59.96282305,61178a927e39ad56c002118b,611e07ecdcc96256ae8d5b80,611e6aa902f00d05399d5a04,
,,,,space,0.4523,,0,35,35,108,1,Y, , , , ,space,2500,2.5,61178a927e39ad56c002118b,001,2021-08-19_15h29.18.775,natb3,2021.2.3,Win32,59.96282305,61178a927e39ad56c002118b,611e07ecdcc96256ae8d5b80,611e6aa902f00d05399d5a04,
,,,,,,,0,36,36,263,1,X,4, ,6, ,,1500,1.5,61178a927e39ad56c002118b,001,2021-08-19_15h29.18.775,natb3,2021.2.3,Win32,59.96282305,61178a927e39ad56c002118b,611e07ecdcc96256ae8d5b80,611e6aa902f00d05399d5a04,
,,,,space,0.4644,,0,37,37,245,1,K, , , , ,space,2000,2,61178a927e39ad56c002118b,001,2021-08-19_15h29.18.775,natb3,2021.2.3,Win32,59.96282305,61178a927e39ad56c002118b,611e07ecdcc96256ae8d5b80,611e6aa902f00d05399d5a04,
,,,,space,0.4217,,0,38,38,326,1,W, , , , ,space,2000,2,61178a927e39ad56c002118b,001,2021-08-19_15h29.18.775,natb3,2021.2.3,Win32,59.96282305,61178a927e39ad56c002118b,611e07ecdcc96256ae8d5b80,611e6aa902f00d05399d5a04,
,,,,space,0.38,,0,39,39,314,1,L, , , , ,space,1500,1.5,61178a927e39ad56c002118b,001,2021-08-19_15h29.18.775,natb3,2021.2.3,Win32,59.96282305,61178a927e39ad56c002118b,611e07ecdcc96256ae8d5b80,611e6aa902f00d05399d5a04,
,,,,space,0.3901,,0,40,40,100,1,M, , , , ,space,2000,2,61178a927e39ad56c002118b,001,2021-08-19_15h29.18.775,natb3,2021.2.3,Win32,59.96282305,61178a927e39ad56c002118b,611e07ecdcc96256ae8d5b80,611e6aa902f00d05399d5a04,
,,,,,,,0,41,41,66,1,X, ,4,7, ,,2000,2,61178a927e39ad56c002118b,001,2021-08-19_15h29.18.775,natb3,2021.2.3,Win32,59.96282305,61178a927e39ad56c002118b,611e07ecdcc96256ae8d5b80,611e6aa902f00d05399d5a04,
,,,,space,0.3523,,0,42,42,136,1,Z, , , , ,space,2500,2.5,61178a927e39ad56c002118b,001,2021-08-19_15h29.18.775,natb3,2021.2.3,Win32,59.96282305,61178a927e39ad56c002118b,611e07ecdcc96256ae8d5b80,611e6aa902f00d05399d5a04,
,,,,space,0.4205,,0,43,43,62,1,V, , , , ,space,1500,1.5,61178a927e39ad56c002118b,001,2021-08-19_15h29.18.775,natb3,2021.2.3,Win32,59.96282305,61178a927e39ad56c002118b,611e07ecdcc96256ae8d5b80,611e6aa902f00d05399d5a04,
,,,,space,0.3662,,0,44,44,14,1,S, , , , ,space,2500,2.5,61178a927e39ad56c002118b,001,2021-08-19_15h29.18.775,natb3,2021.2.3,Win32,59.96282305,61178a927e39ad56c002118b,611e07ecdcc96256ae8d5b80,611e6aa902f00d05399d5a04,
,,,,space,0.3971,,0,45,45,117,1,T, , , , ,space,2500,2.5,61178a927e39ad56c002118b,001,2021-08-19_15h29.18.775,natb3,2021.2.3,Win32,59.96282305,61178a927e39ad56c002118b,611e07ecdcc96256ae8d5b80,611e6aa902f00d05399d5a04,
,,,,space,0.3867,,0,46,46,104,1,E, , , , ,space,2000,2,61178a927e39ad56c002118b,001,2021-08-19_15h29.18.775,natb3,2021.2.3,Win32,59.96282305,61178a927e39ad56c002118b,611e07ecdcc96256ae8d5b80,611e6aa902f00d05399d5a04,
,,,,space,0.3584,,0,47,47,154,1,I, , , , ,space,2500,2.5,61178a927e39ad56c002118b,001,2021-08-19_15h29.18.775,natb3,2021.2.3,Win32,59.96282305,61178a927e39ad56c002118b,611e07ecdcc96256ae8d5b80,611e6aa902f00d05399d5a04,
,,,,,,,0,48,48,162,1,X,1,6, ,2,,1500,1.5,61178a927e39ad56c002118b,001,2021-08-19_15h29.18.775,natb3,2021.2.3,Win32,59.96282305,61178a927e39ad56c002118b,611e07ecdcc96256ae8d5b80,611e6aa902f00d05399d5a04,
,,,,space,0.4668,,0,49,49,59,1,Z, , , , ,space,2000,2,61178a927e39ad56c002118b,001,2021-08-19_15h29.18.775,natb3,2021.2.3,Win32,59.96282305,61178a927e39ad56c002118b,611e07ecdcc96256ae8d5b80,611e6aa902f00d05399d5a04,
,,,,space,0.3955,,0,50,50,301,1,P, , , , ,space,1500,1.5,61178a927e39ad56c002118b,001,2021-08-19_15h29.18.775,natb3,2021.2.3,Win32,59.96282305,61178a927e39ad56c002118b,611e07ecdcc96256ae8d5b80,611e6aa902f00d05399d5a04,
,,,,space,0.4059,,0,51,51,70,1,E, , , , ,space,2500,2.5,61178a927e39ad56c002118b,001,2021-08-19_15h29.18.775,natb3,2021.2.3,Win32,59.96282305,61178a927e39ad56c002118b,611e07ecdcc96256ae8d5b80,611e6aa902f00d05399d5a04,
,,,,space,0.4008,,0,52,52,164,1,H, , , , ,space,2500,2.5,61178a927e39ad56c002118b,001,2021-08-19_15h29.18.775,natb3,2021.2.3,Win32,59.96282305,61178a927e39ad56c002118b,611e07ecdcc96256ae8d5b80,611e6aa902f00d05399d5a04,
,,,,space,0.4296,,0,53,53,120,1,U, , , , ,space,1500,1.5,61178a927e39ad56c002118b,001,2021-08-19_15h29.18.775,natb3,2021.2.3,Win32,59.96282305,61178a927e39ad56c002118b,611e07ecdcc96256ae8d5b80,611e6aa902f00d05399d5a04,
,,,,space,0.5113,,0,54,54,45,1,O, , , , ,space,2000,2,61178a927e39ad56c002118b,001,2021-08-19_15h29.18.775,natb3,2021.2.3,Win32,59.96282305,61178a927e39ad56c002118b,611e07ecdcc96256ae8d5b80,611e6aa902f00d05399d5a04,
,,,,space,0.3718,,0,55,55,160,1,D, , , , ,space,1500,1.5,61178a927e39ad56c002118b,001,2021-08-19_15h29.18.775,natb3,2021.2.3,Win32,59.96282305,61178a927e39ad56c002118b,611e07ecdcc96256ae8d5b80,611e6aa902f00d05399d5a04,
,,,,,,,0,56,56,89,1,X,3, , , ,,2000,2,61178a927e39ad56c002118b,001,2021-08-19_15h29.18.775,natb3,2021.2.3,Win32,59.96282305,61178a927e39ad56c002118b,611e07ecdcc96256ae8d5b80,611e6aa902f00d05399d5a04,
,,,,space,0.4003,,0,57,57,232,1,O, , , , ,space,2500,2.5,61178a927e39ad56c002118b,001,2021-08-19_15h29.18.775,natb3,2021.2.3,Win32,59.96282305,61178a927e39ad56c002118b,611e07ecdcc96256ae8d5b80,611e6aa902f00d05399d5a04,
,,,,space,0.3954,,0,58,58,183,1,R, , , , ,space,1500,1.5,61178a927e39ad56c002118b,001,2021-08-19_15h29.18.775,natb3,2021.2.3,Win32,59.96282305,61178a927e39ad56c002118b,611e07ecdcc96256ae8d5b80,611e6aa902f00d05399d5a04,
,,,,space,0.3292,,0,59,59,298,1,I, , , , ,space,2000,2,61178a927e39ad56c002118b,001,2021-08-19_15h29.18.775,natb3,2021.2.3,Win32,59.96282305,61178a927e39ad56c002118b,611e07ecdcc96256ae8d5b80,611e6aa902f00d05399d5a04,
,,,,space,0.4345,,0,60,60,73,1,Y, , , , ,space,2000,2,61178a927e39ad56c002118b,001,2021-08-19_15h29.18.775,natb3,2021.2.3,Win32,59.96282305,61178a927e39ad56c002118b,611e07ecdcc96256ae8d5b80,611e6aa902f00d05399d5a04,
,,,,,,,0,61,61,200,1,X,7, ,5,3,,1500,1.5,61178a927e39ad56c002118b,001,2021-08-19_15h29.18.775,natb3,2021.2.3,Win32,59.96282305,61178a927e39ad56c002118b,611e07ecdcc96256ae8d5b80,611e6aa902f00d05399d5a04,
,,,,space,0.4227,,0,62,62,21,1,J, , , , ,space,1500,1.5,61178a927e39ad56c002118b,001,2021-08-19_15h29.18.775,natb3,2021.2.3,Win32,59.96282305,61178a927e39ad56c002118b,611e07ecdcc96256ae8d5b80,611e6aa902f00d05399d5a04,
,,,,space,0.496,,0,63,63,151,1,Y, , , , ,space,2500,2.5,61178a927e39ad56c002118b,001,2021-08-19_15h29.18.775,natb3,2021.2.3,Win32,59.96282305,61178a927e39ad56c002118b,611e07ecdcc96256ae8d5b80,611e6aa902f00d05399d5a04,
,,,,,,,0,64,64,273,1,X, , , , ,,2000,2,61178a927e39ad56c002118b,001,2021-08-19_15h29.18.775,natb3,2021.2.3,Win32,59.96282305,61178a927e39ad56c002118b,611e07ecdcc96256ae8d5b80,611e6aa902f00d05399d5a04,
,,,,space,0.3907,,0,65,65,256,1,Q, , , , ,space,2000,2,61178a927e39ad56c002118b,001,2021-08-19_15h29.18.775,natb3,2021.2.3,Win32,59.96282305,61178a927e39ad56c002118b,611e07ecdcc96256ae8d5b80,611e6aa902f00d05399d5a04,
,,,,space,0.4314,,0,66,66,304,1,S, , , , ,space,2000,2,61178a927e39ad56c002118b,001,2021-08-19_15h29.18.775,natb3,2021.2.3,Win32,59.96282305,61178a927e39ad56c002118b,611e07ecdcc96256ae8d5b80,611e6aa902f00d05399d5a04,
,,,,space,0.5002,,0,67,67,1,1,W, , , , ,space,2000,2,61178a927e39ad56c002118b,001,2021-08-19_15h29.18.775,natb3,2021.2.3,Win32,59.96282305,61178a927e39ad56c002118b,611e07ecdcc96256ae8d5b80,611e6aa902f00d05399d5a04,
,,,,space,0.481,,0,68,68,157,1,A, , , , ,space,2500,2.5,61178a927e39ad56c002118b,001,2021-08-19_15h29.18.775,natb3,2021.2.3,Win32,59.96282305,61178a927e39ad56c002118b,611e07ecdcc96256ae8d5b80,611e6aa902f00d05399d5a04,
,,,,space,0.4543,,0,69,69,290,1,W, , , , ,space,1500,1.5,61178a927e39ad56c002118b,001,2021-08-19_15h29.18.775,natb3,2021.2.3,Win32,59.96282305,61178a927e39ad56c002118b,611e07ecdcc96256ae8d5b80,611e6aa902f00d05399d5a04,
,,,,,,,0,70,70,102,1,X, ,6, , ,,1500,1.5,61178a927e39ad56c002118b,001,2021-08-19_15h29.18.775,natb3,2021.2.3,Win32,59.96282305,61178a927e39ad56c002118b,611e07ecdcc96256ae8d5b80,611e6aa902f00d05399d5a04,
,,,,space,0.3953,,0,71,71,32,1,M, , , , ,space,1500,1.5,61178a927e39ad56c002118b,001,2021-08-19_15h29.18.775,natb3,2021.2.3,Win32,59.96282305,61178a927e39ad56c002118b,611e07ecdcc96256ae8d5b80,611e6aa902f00d05399d5a04,
,,,,space,0.4334,,0,72,72,114,1,E, , , , ,space,2000,2,61178a927e39ad56c002118b,001,2021-08-19_15h29.18.775,natb3,2021.2.3,Win32,59.96282305,61178a927e39ad56c002118b,611e07ecdcc96256ae8d5b80,611e6aa902f00d05399d5a04,
,,,,space,0.3149,,0,73,73,55,1,H, , , , ,space,2500,2.5,61178a927e39ad56c002118b,001,2021-08-19_15h29.18.775,natb3,2021.2.3,Win32,59.96282305,61178a927e39ad56c002118b,611e07ecdcc96256ae8d5b80,611e6aa902f00d05399d5a04,
,,,,,,,0,74,74,311,1,X,1,2,7,3,,2500,2.5,61178a927e39ad56c002118b,001,2021-08-19_15h29.18.775,natb3,2021.2.3,Win32,59.96282305,61178a927e39ad56c002118b,611e07ecdcc96256ae8d5b80,611e6aa902f00d05399d5a04,
,,,,space,0.3981,,0,75,75,143,1,M, , , , ,space,2500,2.5,61178a927e39ad56c002118b,001,2021-08-19_15h29.18.775,natb3,2021.2.3,Win32,59.96282305,61178a927e39ad56c002118b,611e07ecdcc96256ae8d5b80,611e6aa902f00d05399d5a04,
,,,,space,0.3527,,0,76,76,219,1,Y, , , , ,space,2000,2,61178a927e39ad56c002118b,001,2021-08-19_15h29.18.775,natb3,2021.2.3,Win32,59.96282305,61178a927e39ad56c002118b,611e07ecdcc96256ae8d5b80,611e6aa902f00d05399d5a04,
,,,,space,0.6159,,0,77,77,167,1,K, , , , ,space,1500,1.5,61178a927e39ad56c002118b,001,2021-08-19_15h29.18.775,natb3,2021.2.3,Win32,59.96282305,61178a927e39ad56c002118b,611e07ecdcc96256ae8d5b80,611e6aa902f00d05399d5a04,
,,,,,,,0,78,78,51,1,X,7,5,8, ,,1500,1.5,61178a927e39ad56c002118b,001,2021-08-19_15h29.18.775,natb3,2021.2.3,Win32,59.96282305,61178a927e39ad56c002118b,611e07ecdcc96256ae8d5b80,611e6aa902f00d05399d5a04,
,,,,,,,0,79,79,145,1,X, , , , ,,2000,2,61178a927e39ad56c002118b,001,2021-08-19_15h29.18.775,natb3,2021.2.3,Win32,59.96282305,61178a927e39ad56c002118b,611e07ecdcc96256ae8d5b80,611e6aa902f00d05399d5a04,
,,,,space,0.399,,0,80,80,81,1,S, , , , ,space,2000,2,61178a927e39ad56c002118b,001,2021-08-19_15h29.18.775,natb3,2021.2.3,Win32,59.96282305,61178a927e39ad56c002118b,611e07ecdcc96256ae8d5b80,611e6aa902f00d05399d5a04,
,,,,space,0.4944,,0,81,81,176,1,N, , , , ,space,1500,1.5,61178a927e39ad56c002118b,001,2021-08-19_15h29.18.775,natb3,2021.2.3,Win32,59.96282305,61178a927e39ad56c002118b,611e07ecdcc96256ae8d5b80,611e6aa902f00d05399d5a04,
,,,,space,0.4801,,0,82,82,201,1,K, , , , ,space,1500,1.5,61178a927e39ad56c002118b,001,2021-08-19_15h29.18.775,natb3,2021.2.3,Win32,59.96282305,61178a927e39ad56c002118b,611e07ecdcc96256ae8d5b80,611e6aa902f00d05399d5a04,
,,,,space,0.4068,,0,83,83,240,1,F, , , , ,space,2500,2.5,61178a927e39ad56c002118b,001,2021-08-19_15h29.18.775,natb3,2021.2.3,Win32,59.96282305,61178a927e39ad56c002118b,611e07ecdcc96256ae8d5b80,611e6aa902f00d05399d5a04,
,,,,space,0.3635,,0,84,84,75,1,U, , , , ,space,1500,1.5,61178a927e39ad56c002118b,001,2021-08-19_15h29.18.775,natb3,2021.2.3,Win32,59.96282305,61178a927e39ad56c002118b,611e07ecdcc96256ae8d5b80,611e6aa902f00d05399d5a04,
,,,,space,0.4321,,0,85,85,24,1,L, , , , ,space,2500,2.5,61178a927e39ad56c002118b,001,2021-08-19_15h29.18.775,natb3,2021.2.3,Win32,59.96282305,61178a927e39ad56c002118b,611e07ecdcc96256ae8d5b80,611e6aa902f00d05399d5a04,
,,,,,,,0,86,86,69,1,X, , , , ,,1500,1.5,61178a927e39ad56c002118b,001,2021-08-19_15h29.18.775,natb3,2021.2.3,Win32,59.96282305,61178a927e39ad56c002118b,611e07ecdcc96256ae8d5b80,611e6aa902f00d05399d5a04,
,,,,space,0.325,,0,87,87,172,1,C, , , , ,space,1500,1.5,61178a927e39ad56c002118b,001,2021-08-19_15h29.18.775,natb3,2021.2.3,Win32,59.96282305,61178a927e39ad56c002118b,611e07ecdcc96256ae8d5b80,611e6aa902f00d05399d5a04,
,,,,space,0.4012,,0,88,88,300,1,O, , , , ,space,2500,2.5,61178a927e39ad56c002118b,001,2021-08-19_15h29.18.775,natb3,2021.2.3,Win32,59.96282305,61178a927e39ad56c002118b,611e07ecdcc96256ae8d5b80,611e6aa902f00d05399d5a04,
,,,,,,,0,89,89,23,1,X,1, ,5, ,,2000,2,61178a927e39ad56c002118b,001,2021-08-19_15h29.18.775,natb3,2021.2.3,Win32,59.96282305,61178a927e39ad56c002118b,611e07ecdcc96256ae8d5b80,611e6aa902f00d05399d5a04,
,,,,space,0.295,,0,90,90,68,1,W, , , , ,space,2500,2.5,61178a927e39ad56c002118b,001,2021-08-19_15h29.18.775,natb3,2021.2.3,Win32,59.96282305,61178a927e39ad56c002118b,611e07ecdcc96256ae8d5b80,611e6aa902f00d05399d5a04,
,,,,,,,0,91,91,191,1,X,1, ,3,4,,2500,2.5,61178a927e39ad56c002118b,001,2021-08-19_15h29.18.775,natb3,2021.2.3,Win32,59.96282305,61178a927e39ad56c002118b,611e07ecdcc96256ae8d5b80,611e6aa902f00d05399d5a04,
,,,,,,,0,92,92,318,1,X, , , , ,,1500,1.5,61178a927e39ad56c002118b,001,2021-08-19_15h29.18.775,natb3,2021.2.3,Win32,59.96282305,61178a927e39ad56c002118b,611e07ecdcc96256ae8d5b80,611e6aa902f00d05399d5a04,
,,,,space,0.3478,,0,93,93,163,1,G, , , , ,space,2500,2.5,61178a927e39ad56c002118b,001,2021-08-19_15h29.18.775,natb3,2021.2.3,Win32,59.96282305,61178a927e39ad56c002118b,611e07ecdcc96256ae8d5b80,611e6aa902f00d05399d5a04,
,,,,space,0.3403,,0,94,94,91,1,L, , , , ,space,2000,2,61178a927e39ad56c002118b,001,2021-08-19_15h29.18.775,natb3,2021.2.3,Win32,59.96282305,61178a927e39ad56c002118b,611e07ecdcc96256ae8d5b80,611e6aa902f00d05399d5a04,
,,,,space,0.2877,,0,95,95,19,1,G, , , , ,space,1500,1.5,61178a927e39ad56c002118b,001,2021-08-19_15h29.18.775,natb3,2021.2.3,Win32,59.96282305,61178a927e39ad56c002118b,611e07ecdcc96256ae8d5b80,611e6aa902f00d05399d5a04,
,,,,space,0.3156,,0,96,96,130,1,F, , , , ,space,2000,2,61178a927e39ad56c002118b,001,2021-08-19_15h29.18.775,natb3,2021.2.3,Win32,59.96282305,61178a927e39ad56c002118b,611e07ecdcc96256ae8d5b80,611e6aa902f00d05399d5a04,
,,,,space,0.3515,,0,97,97,281,1,Z, , , , ,space,1500,1.5,61178a927e39ad56c002118b,001,2021-08-19_15h29.18.775,natb3,2021.2.3,Win32,59.96282305,61178a927e39ad56c002118b,611e07ecdcc96256ae8d5b80,611e6aa902f00d05399d5a04,
,,,,space,0.3541,,0,98,98,332,1,U, , , , ,space,2000,2,61178a927e39ad56c002118b,001,2021-08-19_15h29.18.775,natb3,2021.2.3,Win32,59.96282305,61178a927e39ad56c002118b,611e07ecdcc96256ae8d5b80,611e6aa902f00d05399d5a04,
,,,,,,,0,99,99,182,1,X, , , , ,,1500,1.5,61178a927e39ad56c002118b,001,2021-08-19_15h29.18.775,natb3,2021.2.3,Win32,59.96282305,61178a927e39ad56c002118b,611e07ecdcc96256ae8d5b80,611e6aa902f00d05399d5a04,
,,,,space,0.3026,,0,100,100,131,1,G, , , , ,space,1500,1.5,61178a927e39ad56c002118b,001,2021-08-19_15h29.18.775,natb3,2021.2.3,Win32,59.96282305,61178a927e39ad56c002118b,611e07ecdcc96256ae8d5b80,611e6aa902f00d05399d5a04,
,,,,space,0.324,,0,101,101,110,1,I, , , , ,space,1500,1.5,61178a927e39ad56c002118b,001,2021-08-19_15h29.18.775,natb3,2021.2.3,Win32,59.96282305,61178a927e39ad56c002118b,611e07ecdcc96256ae8d5b80,611e6aa902f00d05399d5a04,
,,,,space,0.5293,,0,102,102,258,1,E, , , , ,space,1500,1.5,61178a927e39ad56c002118b,001,2021-08-19_15h29.18.775,natb3,2021.2.3,Win32,59.96282305,61178a927e39ad56c002118b,611e07ecdcc96256ae8d5b80,611e6aa902f00d05399d5a04,
,,,,space,0.3172,,0,103,103,251,1,B, , , , ,space,1500,1.5,61178a927e39ad56c002118b,001,2021-08-19_15h29.18.775,natb3,2021.2.3,Win32,59.96282305,61178a927e39ad56c002118b,611e07ecdcc96256ae8d5b80,611e6aa902f00d05399d5a04,
,,,,space,0.3339,,0,104,104,137,1,C, , , , ,space,2500,2.5,61178a927e39ad56c002118b,001,2021-08-19_15h29.18.775,natb3,2021.2.3,Win32,59.96282305,61178a927e39ad56c002118b,611e07ecdcc96256ae8d5b80,611e6aa902f00d05399d5a04,
,,,,space,0.3584,,0,105,105,53,1,G, , , , ,space,2500,2.5,61178a927e39ad56c002118b,001,2021-08-19_15h29.18.775,natb3,2021.2.3,Win32,59.96282305,61178a927e39ad56c002118b,611e07ecdcc96256ae8d5b80,611e6aa902f00d05399d5a04,
,,,,space,0.3863,,0,106,106,140,1,B, , , , ,space,2500,2.5,61178a927e39ad56c002118b,001,2021-08-19_15h29.18.775,natb3,2021.2.3,Win32,59.96282305,61178a927e39ad56c002118b,611e07ecdcc96256ae8d5b80,611e6aa902f00d05399d5a04,
,,,,space,0.4387,,0,107,107,105,1,R, , , , ,space,2500,2.5,61178a927e39ad56c002118b,001,2021-08-19_15h29.18.775,natb3,2021.2.3,Win32,59.96282305,61178a927e39ad56c002118b,611e07ecdcc96256ae8d5b80,611e6aa902f00d05399d5a04,
,,,,space,0.3088,,0,108,108,94,1,C, , , , ,space,2000,2,61178a927e39ad56c002118b,001,2021-08-19_15h29.18.775,natb3,2021.2.3,Win32,59.96282305,61178a927e39ad56c002118b,611e07ecdcc96256ae8d5b80,611e6aa902f00d05399d5a04,
,,,,space,0.2994,,0,109,109,170,1,Z, , , , ,space,2000,2,61178a927e39ad56c002118b,001,2021-08-19_15h29.18.775,natb3,2021.2.3,Win32,59.96282305,61178a927e39ad56c002118b,611e07ecdcc96256ae8d5b80,611e6aa902f00d05399d5a04,
,,,,space,0.3632,,0,110,110,103,1,W, , , , ,space,2000,2,61178a927e39ad56c002118b,001,2021-08-19_15h29.18.775,natb3,2021.2.3,Win32,59.96282305,61178a927e39ad56c002118b,611e07ecdcc96256ae8d5b80,611e6aa902f00d05399d5a04,
,,,,,,,0,111,111,268,1,X,6, ,3, ,,2500,2.5,61178a927e39ad56c002118b,001,2021-08-19_15h29.18.775,natb3,2021.2.3,Win32,59.96282305,61178a927e39ad56c002118b,611e07ecdcc96256ae8d5b80,611e6aa902f00d05399d5a04,
,,,,space,0.4519,,0,112,112,63,1,B, , , , ,space,2000,2,61178a927e39ad56c002118b,001,2021-08-19_15h29.18.775,natb3,2021.2.3,Win32,59.96282305,61178a927e39ad56c002118b,611e07ecdcc96256ae8d5b80,611e6aa902f00d05399d5a04,
,,,,space,0.3661,,0,113,113,115,1,R, , , , ,space,1500,1.5,61178a927e39ad56c002118b,001,2021-08-19_15h29.18.775,natb3,2021.2.3,Win32,59.96282305,61178a927e39ad56c002118b,611e07ecdcc96256ae8d5b80,611e6aa902f00d05399d5a04,
,,,,space,0.3824,,0,114,114,323,1,M, , , , ,space,2500,2.5,61178a927e39ad56c002118b,001,2021-08-19_15h29.18.775,natb3,2021.2.3,Win32,59.96282305,61178a927e39ad56c002118b,611e07ecdcc96256ae8d5b80,611e6aa902f00d05399d5a04,
,,,,space,0.3974,,0,115,115,111,1,O, , , , ,space,2000,2,61178a927e39ad56c002118b,001,2021-08-19_15h29.18.775,natb3,2021.2.3,Win32,59.96282305,61178a927e39ad56c002118b,611e07ecdcc96256ae8d5b80,611e6aa902f00d05399d5a04,
,,,,space,0.3628,,0,116,116,278,1,J, , , , ,space,2000,2,61178a927e39ad56c002118b,001,2021-08-19_15h29.18.775,natb3,2021.2.3,Win32,59.96282305,61178a927e39ad56c002118b,611e07ecdcc96256ae8d5b80,611e6aa902f00d05399d5a04,
,,,,space,0.3143,,0,117,117,132,1,H, , , , ,space,2500,2.5,61178a927e39ad56c002118b,001,2021-08-19_15h29.18.775,natb3,2021.2.3,Win32,59.96282305,61178a927e39ad56c002118b,611e07ecdcc96256ae8d5b80,611e6aa902f00d05399d5a04,
,,,,space,0.3463,,0,118,118,147,1,E, , , , ,space,2000,2,61178a927e39ad56c002118b,001,2021-08-19_15h29.18.775,natb3,2021.2.3,Win32,59.96282305,61178a927e39ad56c002118b,611e07ecdcc96256ae8d5b80,611e6aa902f00d05399d5a04,
,,,,space,0.3148,,0,119,119,15,1,X, , , , ,,1500,1.5,61178a927e39ad56c002118b,001,2021-08-19_15h29.18.775,natb3,2021.2.3,Win32,59.96282305,61178a927e39ad56c002118b,611e07ecdcc96256ae8d5b80,611e6aa902f00d05399d5a04,
,,,,,,,0,120,120,12,1,X, , , , ,,1500,1.5,61178a927e39ad56c002118b,001,2021-08-19_15h29.18.775,natb3,2021.2.3,Win32,59.96282305,61178a927e39ad56c002118b,611e07ecdcc96256ae8d5b80,611e6aa902f00d05399d5a04,
,,,,space,0.4702,,0,121,121,41,1,Y, , , , ,space,2500,2.5,61178a927e39ad56c002118b,001,2021-08-19_15h29.18.775,natb3,2021.2.3,Win32,59.96282305,61178a927e39ad56c002118b,611e07ecdcc96256ae8d5b80,611e6aa902f00d05399d5a04,
,,,,,,,0,122,122,118,1,X, , , , ,,2000,2,61178a927e39ad56c002118b,001,2021-08-19_15h29.18.775,natb3,2021.2.3,Win32,59.96282305,61178a927e39ad56c002118b,611e07ecdcc96256ae8d5b80,611e6aa902f00d05399d5a04,
,,,,,,,0,123,123,302,1,X, , , , ,,2000,2,61178a927e39ad56c002118b,001,2021-08-19_15h29.18.775,natb3,2021.2.3,Win32,59.96282305,61178a927e39ad56c002118b,611e07ecdcc96256ae8d5b80,611e6aa902f00d05399d5a04,
,,,,space,0.413,,0,124,124,65,1,M, , , , ,space,1500,1.5,61178a927e39ad56c002118b,001,2021-08-19_15h29.18.775,natb3,2021.2.3,Win32,59.96282305,61178a927e39ad56c002118b,611e07ecdcc96256ae8d5b80,611e6aa902f00d05399d5a04,
,,,,space,0.4133,,0,125,125,257,1,W, , , , ,space,2000,2,61178a927e39ad56c002118b,001,2021-08-19_15h29.18.775,natb3,2021.2.3,Win32,59.96282305,61178a927e39ad56c002118b,611e07ecdcc96256ae8d5b80,611e6aa902f00d05399d5a04,
,,,,space,0.4319,,0,126,126,244,1,J, , , , ,space,1500,1.5,61178a927e39ad56c002118b,001,2021-08-19_15h29.18.775,natb3,2021.2.3,Win32,59.96282305,61178a927e39ad56c002118b,611e07ecdcc96256ae8d5b80,611e6aa902f00d05399d5a04,
,,,,space,0.391,,0,127,127,254,1,M, , , , ,space,1500,1.5,61178a927e39ad56c002118b,001,2021-08-19_15h29.18.775,natb3,2021.2.3,Win32,59.96282305,61178a927e39ad56c002118b,611e07ecdcc96256ae8d5b80,611e6aa902f00d05399d5a04,
,,,,space,0.4586,,0,128,128,49,1,S, , , , ,space,1500,1.5,61178a927e39ad56c002118b,001,2021-08-19_15h29.18.775,natb3,2021.2.3,Win32,59.96282305,61178a927e39ad56c002118b,611e07ecdcc96256ae8d5b80,611e6aa902f00d05399d5a04,
,,,,space,0.4313,,0,129,129,294,1,T, , , , ,space,2000,2,61178a927e39ad56c002118b,001,2021-08-19_15h29.18.775,natb3,2021.2.3,Win32,59.96282305,61178a927e39ad56c002118b,611e07ecdcc96256ae8d5b80,611e6aa902f00d05399d5a04,
,,,,,,,0,130,130,239,1,X, , , , ,,2000,2,61178a927e39ad56c002118b,001,2021-08-19_15h29.18.775,natb3,2021.2.3,Win32,59.96282305,61178a927e39ad56c002118b,611e07ecdcc96256ae8d5b80,611e6aa902f00d05399d5a04,
,,,,,,,0,131,131,248,1,X, ,1,5, ,,1500,1.5,61178a927e39ad56c002118b,001,2021-08-19_15h29.18.775,natb3,2021.2.3,Win32,59.96282305,61178a927e39ad56c002118b,611e07ecdcc96256ae8d5b80,611e6aa902f00d05399d5a04,
,,,,space,0.3676,,0,132,132,126,1,A, , , , ,space,2500,2.5,61178a927e39ad56c002118b,001,2021-08-19_15h29.18.775,natb3,2021.2.3,Win32,59.96282305,61178a927e39ad56c002118b,611e07ecdcc96256ae8d5b80,611e6aa902f00d05399d5a04,
,,,,space,0.3061,,0,133,133,327,1,E, , , , ,space,1500,1.5,61178a927e39ad56c002118b,001,2021-08-19_15h29.18.775,natb3,2021.2.3,Win32,59.96282305,61178a927e39ad56c002118b,611e07ecdcc96256ae8d5b80,611e6aa902f00d05399d5a04,
,,,,space,0.3226,,0,134,134,3,1,R, , , , ,space,2000,2,61178a927e39ad56c002118b,001,2021-08-19_15h29.18.775,natb3,2021.2.3,Win32,59.96282305,61178a927e39ad56c002118b,611e07ecdcc96256ae8d5b80,611e6aa902f00d05399d5a04,
,,,,,,,0,135,135,325,1,X, , , , ,,2500,2.5,61178a927e39ad56c002118b,001,2021-08-19_15h29.18.775,natb3,2021.2.3,Win32,59.96282305,61178a927e39ad56c002118b,611e07ecdcc96256ae8d5b80,611e6aa902f00d05399d5a04,
,,,,space,0.4204,,0,136,136,237,1,S, , , , ,space,1500,1.5,61178a927e39ad56c002118b,001,2021-08-19_15h29.18.775,natb3,2021.2.3,Win32,59.96282305,61178a927e39ad56c002118b,611e07ecdcc96256ae8d5b80,611e6aa902f00d05399d5a04,
,,,,space,0.422,,0,137,137,205,1,C, , , , ,space,2000,2,61178a927e39ad56c002118b,001,2021-08-19_15h29.18.775,natb3,2021.2.3,Win32,59.96282305,61178a927e39ad56c002118b,611e07ecdcc96256ae8d5b80,611e6aa902f00d05399d5a04,
,,,,,,,0,138,138,122,1,X,1, , ,8,,1500,1.5,61178a927e39ad56c002118b,001,2021-08-19_15h29.18.775,natb3,2021.2.3,Win32,59.96282305,61178a927e39ad56c002118b,611e07ecdcc96256ae8d5b80,611e6aa902f00d05399d5a04,
,,,,space,0.445,,0,139,139,11,1,P, , , , ,space,2500,2.5,61178a927e39ad56c002118b,001,2021-08-19_15h29.18.775,natb3,2021.2.3,Win32,59.96282305,61178a927e39ad56c002118b,611e07ecdcc96256ae8d5b80,611e6aa902f00d05399d5a04,
,,,,space,0.4137,,0,140,140,86,1,G, , , , ,space,2000,2,61178a927e39ad56c002118b,001,2021-08-19_15h29.18.775,natb3,2021.2.3,Win32,59.96282305,61178a927e39ad56c002118b,611e07ecdcc96256ae8d5b80,611e6aa902f00d05399d5a04,
,,,,,,,0,141,141,313,1,X, , , , ,,2500,2.5,61178a927e39ad56c002118b,001,2021-08-19_15h29.18.775,natb3,2021.2.3,Win32,59.96282305,61178a927e39ad56c002118b,611e07ecdcc96256ae8d5b80,611e6aa902f00d05399d5a04,
,,,,,,,0,142,142,133,1,X, ,4, ,6,,2500,2.5,61178a927e39ad56c002118b,001,2021-08-19_15h29.18.775,natb3,2021.2.3,Win32,59.96282305,61178a927e39ad56c002118b,611e07ecdcc96256ae8d5b80,611e6aa902f00d05399d5a04,
,,,,space,0.511,,0,143,143,178,1,Q, , , , ,space,1500,1.5,61178a927e39ad56c002118b,001,2021-08-19_15h29.18.775,natb3,2021.2.3,Win32,59.96282305,61178a927e39ad56c002118b,611e07ecdcc96256ae8d5b80,611e6aa902f00d05399d5a04,
,,,,space,0.5473,,0,144,144,296,1,Y, , , , ,space,2500,2.5,61178a927e39ad56c002118b,001,2021-08-19_15h29.18.775,natb3,2021.2.3,Win32,59.96282305,61178a927e39ad56c002118b,611e07ecdcc96256ae8d5b80,611e6aa902f00d05399d5a04,
,,,,,,,0,145,145,322,1,X, , ,1,6,,2000,2,61178a927e39ad56c002118b,001,2021-08-19_15h29.18.775,natb3,2021.2.3,Win32,59.96282305,61178a927e39ad56c002118b,611e07ecdcc96256ae8d5b80,611e6aa902f00d05399d5a04,
,,,,space,0.4087,,0,146,146,92,1,Z, , , , ,space,1500,1.5,61178a927e39ad56c002118b,001,2021-08-19_15h29.18.775,natb3,2021.2.3,Win32,59.96282305,61178a927e39ad56c002118b,611e07ecdcc96256ae8d5b80,611e6aa902f00d05399d5a04,
,,,,space,0.5008,,0,147,147,289,1,Q, , , , ,space,2000,2,61178a927e39ad56c002118b,001,2021-08-19_15h29.18.775,natb3,2021.2.3,Win32,59.96282305,61178a927e39ad56c002118b,611e07ecdcc96256ae8d5b80,611e6aa902f00d05399d5a04,
,,,,,,,0,148,148,207,1,X,9, ,2, ,,2500,2.5,61178a927e39ad56c002118b,001,2021-08-19_15h29.18.775,natb3,2021.2.3,Win32,59.96282305,61178a927e39ad56c002118b,611e07ecdcc96256ae8d5b80,611e6aa902f00d05399d5a04,
,,,,,,,0,149,149,305,1,X, , , , ,,1500,1.5,61178a927e39ad56c002118b,001,2021-08-19_15h29.18.775,natb3,2021.2.3,Win32,59.96282305,61178a927e39ad56c002118b,611e07ecdcc96256ae8d5b80,611e6aa902f00d05399d5a04,
,,,,space,0.45,,0,150,150,87,1,H, , , , ,space,1500,1.5,61178a927e39ad56c002118b,001,2021-08-19_15h29.18.775,natb3,2021.2.3,Win32,59.96282305,61178a927e39ad56c002118b,611e07ecdcc96256ae8d5b80,611e6aa902f00d05399d5a04,
,,,,space,0.368,,0,151,151,13,1,A, , , , ,space,2000,2,61178a927e39ad56c002118b,001,2021-08-19_15h29.18.775,natb3,2021.2.3,Win32,59.96282305,61178a927e39ad56c002118b,611e07ecdcc96256ae8d5b80,611e6aa902f00d05399d5a04,
,,,,space,0.4014,,0,152,152,225,1,E, , , , ,space,2000,2,61178a927e39ad56c002118b,001,2021-08-19_15h29.18.775,natb3,2021.2.3,Win32,59.96282305,61178a927e39ad56c002118b,611e07ecdcc96256ae8d5b80,611e6aa902f00d05399d5a04,
,,,,space,0.453,,0,153,153,199,1,J, , , , ,space,2500,2.5,61178a927e39ad56c002118b,001,2021-08-19_15h29.18.775,natb3,2021.2.3,Win32,59.96282305,61178a927e39ad56c002118b,611e07ecdcc96256ae8d5b80,611e6aa902f00d05399d5a04,
,,,,space,0.4139,,0,154,154,303,1,A, , , , ,space,2000,2,61178a927e39ad56c002118b,001,2021-08-19_15h29.18.775,natb3,2021.2.3,Win32,59.96282305,61178a927e39ad56c002118b,611e07ecdcc96256ae8d5b80,611e6aa902f00d05399d5a04,
,,,,space,0.4593,,0,155,155,265,1,I, , , , ,space,2000,2,61178a927e39ad56c002118b,001,2021-08-19_15h29.18.775,natb3,2021.2.3,Win32,59.96282305,61178a927e39ad56c002118b,611e07ecdcc96256ae8d5b80,611e6aa902f00d05399d5a04,
,,,,space,0.4368,,0,156,156,161,1,F, , , , ,space,1500,1.5,61178a927e39ad56c002118b,001,2021-08-19_15h29.18.775,natb3,2021.2.3,Win32,59.96282305,61178a927e39ad56c002118b,611e07ecdcc96256ae8d5b80,611e6aa902f00d05399d5a04,
,,,,space,0.4125,,0,157,157,184,1,T, , , , ,space,2000,2,61178a927e39ad56c002118b,001,2021-08-19_15h29.18.775,natb3,2021.2.3,Win32,59.96282305,61178a927e39ad56c002118b,611e07ecdcc96256ae8d5b80,611e6aa902f00d05399d5a04,
,,,,,,,0,158,158,195,1,X, , , , ,,1500,1.5,61178a927e39ad56c002118b,001,2021-08-19_15h29.18.775,natb3,2021.2.3,Win32,59.96282305,61178a927e39ad56c002118b,611e07ecdcc96256ae8d5b80,611e6aa902f00d05399d5a04,
,,,,space,0.4846,,0,159,159,80,1,A, , , , ,space,2000,2,61178a927e39ad56c002118b,001,2021-08-19_15h29.18.775,natb3,2021.2.3,Win32,59.96282305,61178a927e39ad56c002118b,611e07ecdcc96256ae8d5b80,611e6aa902f00d05399d5a04,
,,,,space,0.6716,,0,160,160,192,1,A, , , , ,space,2000,2,61178a927e39ad56c002118b,001,2021-08-19_15h29.18.775,natb3,2021.2.3,Win32,59.96282305,61178a927e39ad56c002118b,611e07ecdcc96256ae8d5b80,611e6aa902f00d05399d5a04,
,,,,space,0.5811,,0,161,161,264,1,U, , , , ,space,2000,2,61178a927e39ad56c002118b,001,2021-08-19_15h29.18.775,natb3,2021.2.3,Win32,59.96282305,61178a927e39ad56c002118b,611e07ecdcc96256ae8d5b80,611e6aa902f00d05399d5a04,
,,,,space,0.517,,0,162,162,26,1,C, , , , ,space,2000,2,61178a927e39ad56c002118b,001,2021-08-19_15h29.18.775,natb3,2021.2.3,Win32,59.96282305,61178a927e39ad56c002118b,611e07ecdcc96256ae8d5b80,611e6aa902f00d05399d5a04,
,,,,space,0.5221,,0,163,163,20,1,H, , , , ,space,1500,1.5,61178a927e39ad56c002118b,001,2021-08-19_15h29.18.775,natb3,2021.2.3,Win32,59.96282305,61178a927e39ad56c002118b,611e07ecdcc96256ae8d5b80,611e6aa902f00d05399d5a04,
,,,,space,0.4496,,0,164,164,135,1,K, , , , ,space,1500,1.5,61178a927e39ad56c002118b,001,2021-08-19_15h29.18.775,natb3,2021.2.3,Win32,59.96282305,61178a927e39ad56c002118b,611e07ecdcc96256ae8d5b80,611e6aa902f00d05399d5a04,
,,,,,,,0,165,165,31,1,X, , , , ,,1500,1.5,61178a927e39ad56c002118b,001,2021-08-19_15h29.18.775,natb3,2021.2.3,Win32,59.96282305,61178a927e39ad56c002118b,611e07ecdcc96256ae8d5b80,611e6aa902f00d05399d5a04,
,,,,,,,0,166,166,158,1,X, , , , ,,1500,1.5,61178a927e39ad56c002118b,001,2021-08-19_15h29.18.775,natb3,2021.2.3,Win32,59.96282305,61178a927e39ad56c002118b,611e07ecdcc96256ae8d5b80,611e6aa902f00d05399d5a04,
,,,,,,space,0,167,167,141,1,X,1, ,4,6,,1500,1.5,61178a927e39ad56c002118b,001,2021-08-19_15h29.18.775,natb3,2021.2.3,Win32,59.96282305,61178a927e39ad56c002118b,611e07ecdcc96256ae8d5b80,611e6aa902f00d05399d5a04,2.1592
,,,,space,0.5633,,0,168,168,307,1,F, , , , ,space,2500,2.5,61178a927e39ad56c002118b,001,2021-08-19_15h29.18.775,natb3,2021.2.3,Win32,59.96282305,61178a927e39ad56c002118b,611e07ecdcc96256ae8d5b80,611e6aa902f00d05399d5a04,
,,,,,,,0,169,169,78,1,X, , , , ,,2000,2,61178a927e39ad56c002118b,001,2021-08-19_15h29.18.775,natb3,2021.2.3,Win32,59.96282305,61178a927e39ad56c002118b,611e07ecdcc96256ae8d5b80,611e6aa902f00d05399d5a04,
,,,,space,0.4236,,0,170,170,270,1,S, , , , ,space,1500,1.5,61178a927e39ad56c002118b,001,2021-08-19_15h29.18.775,natb3,2021.2.3,Win32,59.96282305,61178a927e39ad56c002118b,611e07ecdcc96256ae8d5b80,611e6aa902f00d05399d5a04,
,,,,space,0.3809,,0,171,171,261,1,T, , , , ,space,2000,2,61178a927e39ad56c002118b,001,2021-08-19_15h29.18.775,natb3,2021.2.3,Win32,59.96282305,61178a927e39ad56c002118b,611e07ecdcc96256ae8d5b80,611e6aa902f00d05399d5a04,
,,,,,,,0,172,172,168,1,X, , , , ,,2500,2.5,61178a927e39ad56c002118b,001,2021-08-19_15h29.18.775,natb3,2021.2.3,Win32,59.96282305,61178a927e39ad56c002118b,611e07ecdcc96256ae8d5b80,611e6aa902f00d05399d5a04,
,,,,space,0.4655,,0,173,173,90,1,K, , , , ,space,2000,2,61178a927e39ad56c002118b,001,2021-08-19_15h29.18.775,natb3,2021.2.3,Win32,59.96282305,61178a927e39ad56c002118b,611e07ecdcc96256ae8d5b80,611e6aa902f00d05399d5a04,
,,,,,,,0,174,174,295,1,X,8,7,5, ,,2500,2.5,61178a927e39ad56c002118b,001,2021-08-19_15h29.18.775,natb3,2021.2.3,Win32,59.96282305,61178a927e39ad56c002118b,611e07ecdcc96256ae8d5b80,611e6aa902f00d05399d5a04,
,,,,space,0.4171,,0,175,175,284,1,V, , , , ,space,2500,2.5,61178a927e39ad56c002118b,001,2021-08-19_15h29.18.775,natb3,2021.2.3,Win32,59.96282305,61178a927e39ad56c002118b,611e07ecdcc96256ae8d5b80,611e6aa902f00d05399d5a04,
,,,,space,0.4386,,0,176,176,215,1,E, , , , ,space,2500,2.5,61178a927e39ad56c002118b,001,2021-08-19_15h29.18.775,natb3,2021.2.3,Win32,59.96282305,61178a927e39ad56c002118b,611e07ecdcc96256ae8d5b80,611e6aa902f00d05399d5a04,
,,,,space,0.5817,,0,177,177,193,1,S, , , , ,space,2500,2.5,61178a927e39ad56c002118b,001,2021-08-19_15h29.18.775,natb3,2021.2.3,Win32,59.96282305,61178a927e39ad56c002118b,611e07ecdcc96256ae8d5b80,611e6aa902f00d05399d5a04,
,,,,space,0.3802,,0,178,178,267,1,P, , , , ,space,2000,2,61178a927e39ad56c002118b,001,2021-08-19_15h29.18.775,natb3,2021.2.3,Win32,59.96282305,61178a927e39ad56c002118b,611e07ecdcc96256ae8d5b80,611e6aa902f00d05399d5a04,
,,,,space,0.3125,,0,179,179,124,1,P, , , , ,space,2000,2,61178a927e39ad56c002118b,001,2021-08-19_15h29.18.775,natb3,2021.2.3,Win32,59.96282305,61178a927e39ad56c002118b,611e07ecdcc96256ae8d5b80,611e6aa902f00d05399d5a04,
,,,,space,0.3632,,0,180,180,17,1,F, , , , ,space,2500,2.5,61178a927e39ad56c002118b,001,2021-08-19_15h29.18.775,natb3,2021.2.3,Win32,59.96282305,61178a927e39ad56c002118b,611e07ecdcc96256ae8d5b80,611e6aa902f00d05399d5a04,
,,,,space,0.3887,,0,181,181,262,1,Y, , , , ,space,2500,2.5,61178a927e39ad56c002118b,001,2021-08-19_15h29.18.775,natb3,2021.2.3,Win32,59.96282305,61178a927e39ad56c002118b,611e07ecdcc96256ae8d5b80,611e6aa902f00d05399d5a04,
,,,,space,0.6374,,0,182,182,64,1,N, , , , ,space,2000,2,61178a927e39ad56c002118b,001,2021-08-19_15h29.18.775,natb3,2021.2.3,Win32,59.96282305,61178a927e39ad56c002118b,611e07ecdcc96256ae8d5b80,611e6aa902f00d05399d5a04,
,,,,space,0.5215,,0,183,183,56,1,J, , , , ,space,1500,1.5,61178a927e39ad56c002118b,001,2021-08-19_15h29.18.775,natb3,2021.2.3,Win32,59.96282305,61178a927e39ad56c002118b,611e07ecdcc96256ae8d5b80,611e6aa902f00d05399d5a04,
,,,,space,0.3746,,0,184,184,29,1,B, , , , ,space,1500,1.5,61178a927e39ad56c002118b,001,2021-08-19_15h29.18.775,natb3,2021.2.3,Win32,59.96282305,61178a927e39ad56c002118b,611e07ecdcc96256ae8d5b80,611e6aa902f00d05399d5a04,
,,,,space,0.356,,0,185,185,112,1,Q, , , , ,space,2500,2.5,61178a927e39ad56c002118b,001,2021-08-19_15h29.18.775,natb3,2021.2.3,Win32,59.96282305,61178a927e39ad56c002118b,611e07ecdcc96256ae8d5b80,611e6aa902f00d05399d5a04,
,,,,space,0.3914,,0,186,186,0,1,Q, , , , ,space,1500,1.5,61178a927e39ad56c002118b,001,2021-08-19_15h29.18.775,natb3,2021.2.3,Win32,59.96282305,61178a927e39ad56c002118b,611e07ecdcc96256ae8d5b80,611e6aa902f00d05399d5a04,
,,,,,,,0,187,187,175,1,X,7, ,4,2,,1500,1.5,61178a927e39ad56c002118b,001,2021-08-19_15h29.18.775,natb3,2021.2.3,Win32,59.96282305,61178a927e39ad56c002118b,611e07ecdcc96256ae8d5b80,611e6aa902f00d05399d5a04,
,,,,,,,0,188,188,171,1,X, , , , ,,1500,1.5,61178a927e39ad56c002118b,001,2021-08-19_15h29.18.775,natb3,2021.2.3,Win32,59.96282305,61178a927e39ad56c002118b,611e07ecdcc96256ae8d5b80,611e6aa902f00d05399d5a04,
,,,,space,0.4038,,0,189,189,212,1,Q, , , , ,space,2500,2.5,61178a927e39ad56c002118b,001,2021-08-19_15h29.18.775,natb3,2021.2.3,Win32,59.96282305,61178a927e39ad56c002118b,611e07ecdcc96256ae8d5b80,611e6aa902f00d05399d5a04,
,,,,space,0.5723,,0,190,190,222,1,O, , , , ,space,2000,2,61178a927e39ad56c002118b,001,2021-08-19_15h29.18.775,natb3,2021.2.3,Win32,59.96282305,61178a927e39ad56c002118b,611e07ecdcc96256ae8d5b80,611e6aa902f00d05399d5a04,
,,,,space,0.3791,,0,191,191,280,1,L, , , , ,space,1500,1.5,61178a927e39ad56c002118b,001,2021-08-19_15h29.18.775,natb3,2021.2.3,Win32,59.96282305,61178a927e39ad56c002118b,611e07ecdcc96256ae8d5b80,611e6aa902f00d05399d5a04,
,,,,space,0.3375,,0,192,192,50,1,D, , , , ,space,1500,1.5,61178a927e39ad56c002118b,001,2021-08-19_15h29.18.775,natb3,2021.2.3,Win32,59.96282305,61178a927e39ad56c002118b,611e07ecdcc96256ae8d5b80,611e6aa902f00d05399d5a04,
,,,,space,0.3655,,0,193,193,134,1,J, , , , ,space,2000,2,61178a927e39ad56c002118b,001,2021-08-19_15h29.18.775,natb3,2021.2.3,Win32,59.96282305,61178a927e39ad56c002118b,611e07ecdcc96256ae8d5b80,611e6aa902f00d05399d5a04,
,,,,space,0.3978,,0,194,194,292,1,E, , , , ,space,2000,2,61178a927e39ad56c002118b,001,2021-08-19_15h29.18.775,natb3,2021.2.3,Win32,59.96282305,61178a927e39ad56c002118b,611e07ecdcc96256ae8d5b80,611e6aa902f00d05399d5a04,
,,,,space,0.4927,,0,195,195,283,1,C, , , , ,space,1500,1.5,61178a927e39ad56c002118b,001,2021-08-19_15h29.18.775,natb3,2021.2.3,Win32,59.96282305,61178a927e39ad56c002118b,611e07ecdcc96256ae8d5b80,611e6aa902f00d05399d5a04,
,,,,space,0.3469,,0,196,196,274,1,F, , , , ,space,2000,2,61178a927e39ad56c002118b,001,2021-08-19_15h29.18.775,natb3,2021.2.3,Win32,59.96282305,61178a927e39ad56c002118b,611e07ecdcc96256ae8d5b80,611e6aa902f00d05399d5a04,
,,,,space,0.4043,,0,197,197,221,1,I, , , , ,space,2500,2.5,61178a927e39ad56c002118b,001,2021-08-19_15h29.18.775,natb3,2021.2.3,Win32,59.96282305,61178a927e39ad56c002118b,611e07ecdcc96256ae8d5b80,611e6aa902f00d05399d5a04,
,,,,space,0.3803,,0,198,198,123,1,O, , , , ,space,1500,1.5,61178a927e39ad56c002118b,001,2021-08-19_15h29.18.775,natb3,2021.2.3,Win32,59.96282305,61178a927e39ad56c002118b,611e07ecdcc96256ae8d5b80,611e6aa902f00d05399d5a04,
,,,,space,0.334,,0,199,199,67,1,Q, , , , ,space,2000,2,61178a927e39ad56c002118b,001,2021-08-19_15h29.18.775,natb3,2021.2.3,Win32,59.96282305,61178a927e39ad56c002118b,611e07ecdcc96256ae8d5b80,611e6aa902f00d05399d5a04,
,,,,space,0.3406,,0,200,200,286,1,N, , , , ,space,1500,1.5,61178a927e39ad56c002118b,001,2021-08-19_15h29.18.775,natb3,2021.2.3,Win32,59.96282305,61178a927e39ad56c002118b,611e07ecdcc96256ae8d5b80,611e6aa902f00d05399d5a04,
,,,,space,0.4705,,0,201,201,217,1,T, , , , ,space,2500,2.5,61178a927e39ad56c002118b,001,2021-08-19_15h29.18.775,natb3,2021.2.3,Win32,59.96282305,61178a927e39ad56c002118b,611e07ecdcc96256ae8d5b80,611e6aa902f00d05399d5a04,
,,,,space,0.3767,,0,202,202,2,1,E, , , , ,space,2500,2.5,61178a927e39ad56c002118b,001,2021-08-19_15h29.18.775,natb3,2021.2.3,Win32,59.96282305,61178a927e39ad56c002118b,611e07ecdcc96256ae8d5b80,611e6aa902f00d05399d5a04,
,,,,space,0.5989,,0,203,203,169,1,L, , , , ,space,2500,2.5,61178a927e39ad56c002118b,001,2021-08-19_15h29.18.775,natb3,2021.2.3,Win32,59.96282305,61178a927e39ad56c002118b,611e07ecdcc96256ae8d5b80,611e6aa902f00d05399d5a04,
,,,,space,0.3182,,0,204,204,152,1,U, , , , ,space,2000,2,61178a927e39ad56c002118b,001,2021-08-19_15h29.18.775,natb3,2021.2.3,Win32,59.96282305,61178a927e39ad56c002118b,611e07ecdcc96256ae8d5b80,611e6aa902f00d05399d5a04,
,,,,space,0.4244,,0,205,205,333,1,I, , , , ,space,1500,1.5,61178a927e39ad56c002118b,001,2021-08-19_15h29.18.775,natb3,2021.2.3,Win32,59.96282305,61178a927e39ad56c002118b,611e07ecdcc96256ae8d5b80,611e6aa902f00d05399d5a04,
,,,,,,,0,206,206,153,1,X,4,7, ,6,,2000,2,61178a927e39ad56c002118b,001,2021-08-19_15h29.18.775,natb3,2021.2.3,Win32,59.96282305,61178a927e39ad56c002118b,611e07ecdcc96256ae8d5b80,611e6aa902f00d05399d5a04,
,,,,space,0.3963,,0,207,207,297,1,U, , , , ,space,2000,2,61178a927e39ad56c002118b,001,2021-08-19_15h29.18.775,natb3,2021.2.3,Win32,59.96282305,61178a927e39ad56c002118b,611e07ecdcc96256ae8d5b80,611e6aa902f00d05399d5a04,
,,,,,,,0,208,208,125,1,X, , , , ,,2000,2,61178a927e39ad56c002118b,001,2021-08-19_15h29.18.775,natb3,2021.2.3,Win32,59.96282305,61178a927e39ad56c002118b,611e07ecdcc96256ae8d5b80,611e6aa902f00d05399d5a04,
,,,,space,0.3981,,0,209,209,181,1,E, , , , ,space,1500,1.5,61178a927e39ad56c002118b,001,2021-08-19_15h29.18.775,natb3,2021.2.3,Win32,59.96282305,61178a927e39ad56c002118b,611e07ecdcc96256ae8d5b80,611e6aa902f00d05399d5a04,
,,,,space,0.4361,,0,210,210,101,1,Q, , , , ,space,2500,2.5,61178a927e39ad56c002118b,001,2021-08-19_15h29.18.775,natb3,2021.2.3,Win32,59.96282305,61178a927e39ad56c002118b,611e07ecdcc96256ae8d5b80,611e6aa902f00d05399d5a04,
,,,,space,0.3811,,0,211,211,285,1,B, , , , ,space,1500,1.5,61178a927e39ad56c002118b,001,2021-08-19_15h29.18.775,natb3,2021.2.3,Win32,59.96282305,61178a927e39ad56c002118b,611e07ecdcc96256ae8d5b80,611e6aa902f00d05399d5a04,
,,,,space,0.3627,,0,212,212,249,1,C, , , , ,space,2000,2,61178a927e39ad56c002118b,001,2021-08-19_15h29.18.775,natb3,2021.2.3,Win32,59.96282305,61178a927e39ad56c002118b,611e07ecdcc96256ae8d5b80,611e6aa902f00d05399d5a04,
,,,,space,0.4576,,0,213,213,88,1,J, , , , ,space,2500,2.5,61178a927e39ad56c002118b,001,2021-08-19_15h29.18.775,natb3,2021.2.3,Win32,59.96282305,61178a927e39ad56c002118b,611e07ecdcc96256ae8d5b80,611e6aa902f00d05399d5a04,
,,,,space,0.3327,,0,214,214,235,1,A, , , , ,space,1500,1.5,61178a927e39ad56c002118b,001,2021-08-19_15h29.18.775,natb3,2021.2.3,Win32,59.96282305,61178a927e39ad56c002118b,611e07ecdcc96256ae8d5b80,611e6aa902f00d05399d5a04,
,,,,,,,0,215,215,82,1,X,4,6,1,7,,2000,2,61178a927e39ad56c002118b,001,2021-08-19_15h29.18.775,natb3,2021.2.3,Win32,59.96282305,61178a927e39ad56c002118b,611e07ecdcc96256ae8d5b80,611e6aa902f00d05399d5a04,
,,,,space,0.3877,,0,216,216,77,1,O, , , , ,space,2000,2,61178a927e39ad56c002118b,001,2021-08-19_15h29.18.775,natb3,2021.2.3,Win32,59.96282305,61178a927e39ad56c002118b,611e07ecdcc96256ae8d5b80,611e6aa902f00d05399d5a04,
,,,,space,0.4221,,0,217,217,58,1,L, , , , ,space,2000,2,61178a927e39ad56c002118b,001,2021-08-19_15h29.18.775,natb3,2021.2.3,Win32,59.96282305,61178a927e39ad56c002118b,611e07ecdcc96256ae8d5b80,611e6aa902f00d05399d5a04,
,,,,space,0.4072,,0,218,218,16,1,D, , , , ,space,1500,1.5,61178a927e39ad56c002118b,001,2021-08-19_15h29.18.775,natb3,2021.2.3,Win32,59.96282305,61178a927e39ad56c002118b,611e07ecdcc96256ae8d5b80,611e6aa902f00d05399d5a04,
,,,,space,0.354,,0,219,219,324,1,Q, , , , ,space,2000,2,61178a927e39ad56c002118b,001,2021-08-19_15h29.18.775,natb3,2021.2.3,Win32,59.96282305,61178a927e39ad56c002118b,611e07ecdcc96256ae8d5b80,611e6aa902f00d05399d5a04,
,,,,space,0.3824,,0,220,220,155,1,O, , , , ,space,1500,1.5,61178a927e39ad56c002118b,001,2021-08-19_15h29.18.775,natb3,2021.2.3,Win32,59.96282305,61178a927e39ad56c002118b,611e07ecdcc96256ae8d5b80,611e6aa902f00d05399d5a04,
,,,,,,,0,221,221,93,1,X,5, ,7, ,,2500,2.5,61178a927e39ad56c002118b,001,2021-08-19_15h29.18.775,natb3,2021.2.3,Win32,59.96282305,61178a927e39ad56c002118b,611e07ecdcc96256ae8d5b80,611e6aa902f00d05399d5a04,
,,,,space,0.4849,,0,222,222,149,1,R, , , , ,space,2000,2,61178a927e39ad56c002118b,001,2021-08-19_15h29.18.775,natb3,2021.2.3,Win32,59.96282305,61178a927e39ad56c002118b,611e07ecdcc96256ae8d5b80,611e6aa902f00d05399d5a04,
,,,,,,,0,223,223,299,1,X, , , , ,,2500,2.5,61178a927e39ad56c002118b,001,2021-08-19_15h29.18.775,natb3,2021.2.3,Win32,59.96282305,61178a927e39ad56c002118b,611e07ecdcc96256ae8d5b80,611e6aa902f00d05399d5a04,
,,,,,,,0,224,224,218,1,X,1,3, ,8,,1500,1.5,61178a927e39ad56c002118b,001,2021-08-19_15h29.18.775,natb3,2021.2.3,Win32,59.96282305,61178a927e39ad56c002118b,611e07ecdcc96256ae8d5b80,611e6aa902f00d05399d5a04,
,,,,space,0.5454,,0,225,225,85,1,F, , , , ,space,2500,2.5,61178a927e39ad56c002118b,001,2021-08-19_15h29.18.775,natb3,2021.2.3,Win32,59.96282305,61178a927e39ad56c002118b,611e07ecdcc96256ae8d5b80,611e6aa902f00d05399d5a04,
,,,,space,0.4802,,0,226,226,144,1,Q, , , , ,space,2500,2.5,61178a927e39ad56c002118b,001,2021-08-19_15h29.18.775,natb3,2021.2.3,Win32,59.96282305,61178a927e39ad56c002118b,611e07ecdcc96256ae8d5b80,611e6aa902f00d05399d5a04,
,,,,space,0.3509,,0,227,227,223,1,Q, , , , ,space,2000,2,61178a927e39ad56c002118b,001,2021-08-19_15h29.18.775,natb3,2021.2.3,Win32,59.96282305,61178a927e39ad56c002118b,611e07ecdcc96256ae8d5b80,611e6aa902f00d05399d5a04,
,,,,space,0.4967,,0,228,228,247,1,Z, , , , ,space,1500,1.5,61178a927e39ad56c002118b,001,2021-08-19_15h29.18.775,natb3,2021.2.3,Win32,59.96282305,61178a927e39ad56c002118b,611e07ecdcc96256ae8d5b80,611e6aa902f00d05399d5a04,
,,,,space,0.4973,,0,229,229,37,1,E, , , , ,space,2500,2.5,61178a927e39ad56c002118b,001,2021-08-19_15h29.18.775,natb3,2021.2.3,Win32,59.96282305,61178a927e39ad56c002118b,611e07ecdcc96256ae8d5b80,611e6aa902f00d05399d5a04,
,,,,,,,0,230,230,98,1,X, , , , ,,2500,2.5,61178a927e39ad56c002118b,001,2021-08-19_15h29.18.775,natb3,2021.2.3,Win32,59.96282305,61178a927e39ad56c002118b,611e07ecdcc96256ae8d5b80,611e6aa902f00d05399d5a04,
,,,,space,0.5708,,0,231,231,40,1,T, , , , ,space,1500,1.5,61178a927e39ad56c002118b,001,2021-08-19_15h29.18.775,natb3,2021.2.3,Win32,59.96282305,61178a927e39ad56c002118b,611e07ecdcc96256ae8d5b80,611e6aa902f00d05399d5a04,
,,,,,,,0,232,232,329,1,X,3,4, ,2,,2500,2.5,61178a927e39ad56c002118b,001,2021-08-19_15h29.18.775,natb3,2021.2.3,Win32,59.96282305,61178a927e39ad56c002118b,611e07ecdcc96256ae8d5b80,611e6aa902f00d05399d5a04,
,,,,,,,0,233,233,7,1,X, , , , ,,1500,1.5,61178a927e39ad56c002118b,001,2021-08-19_15h29.18.775,natb3,2021.2.3,Win32,59.96282305,61178a927e39ad56c002118b,611e07ecdcc96256ae8d5b80,611e6aa902f00d05399d5a04,
,,,,,,,0,234,234,236,1,X,3, ,4,7,,2500,2.5,61178a927e39ad56c002118b,001,2021-08-19_15h29.18.775,natb3,2021.2.3,Win32,59.96282305,61178a927e39ad56c002118b,611e07ecdcc96256ae8d5b80,611e6aa902f00d05399d5a04,
,,,,,,,0,235,235,60,1,X,7,3,5, ,,1500,1.5,61178a927e39ad56c002118b,001,2021-08-19_15h29.18.775,natb3,2021.2.3,Win32,59.96282305,61178a927e39ad56c002118b,611e07ecdcc96256ae8d5b80,611e6aa902f00d05399d5a04,
,,,,space,0.5211,,0,236,236,316,1,Z, , , , ,space,1500,1.5,61178a927e39ad56c002118b,001,2021-08-19_15h29.18.775,natb3,2021.2.3,Win32,59.96282305,61178a927e39ad56c002118b,611e07ecdcc96256ae8d5b80,611e6aa902f00d05399d5a04,
,,,,,,,0,237,237,33,1,X, , , , ,,1500,1.5,61178a927e39ad56c002118b,001,2021-08-19_15h29.18.775,natb3,2021.2.3,Win32,59.96282305,61178a927e39ad56c002118b,611e07ecdcc96256ae8d5b80,611e6aa902f00d05399d5a04,
,,,,space,0.4133,,0,238,238,310,1,J, , , , ,space,2500,2.5,61178a927e39ad56c002118b,001,2021-08-19_15h29.18.775,natb3,2021.2.3,Win32,59.96282305,61178a927e39ad56c002118b,611e07ecdcc96256ae8d5b80,611e6aa902f00d05399d5a04,
,,,,,,,0,239,239,233,1,X, ,2, ,5,,1500,1.5,61178a927e39ad56c002118b,001,2021-08-19_15h29.18.775,natb3,2021.2.3,Win32,59.96282305,61178a927e39ad56c002118b,611e07ecdcc96256ae8d5b80,611e6aa902f00d05399d5a04,
,,,,,,,0,240,240,43,1,X, ,6, ,2,,2500,2.5,61178a927e39ad56c002118b,001,2021-08-19_15h29.18.775,natb3,2021.2.3,Win32,59.96282305,61178a927e39ad56c002118b,611e07ecdcc96256ae8d5b80,611e6aa902f00d05399d5a04,
,,,,space,0.5362,,0,241,241,5,1,T, , , , ,space,2000,2,61178a927e39ad56c002118b,001,2021-08-19_15h29.18.775,natb3,2021.2.3,Win32,59.96282305,61178a927e39ad56c002118b,611e07ecdcc96256ae8d5b80,611e6aa902f00d05399d5a04,
,,,,space,0.3727,,0,242,242,198,1,H, , , , ,space,2500,2.5,61178a927e39ad56c002118b,001,2021-08-19_15h29.18.775,natb3,2021.2.3,Win32,59.96282305,61178a927e39ad56c002118b,611e07ecdcc96256ae8d5b80,611e6aa902f00d05399d5a04,
,,,,,,,0,243,243,74,1,X, ,4,3,2,,1500,1.5,61178a927e39ad56c002118b,001,2021-08-19_15h29.18.775,natb3,2021.2.3,Win32,59.96282305,61178a927e39ad56c002118b,611e07ecdcc96256ae8d5b80,611e6aa902f00d05399d5a04,
,,,,space,0.6064,,0,244,244,279,1,K, , , , ,space,2500,2.5,61178a927e39ad56c002118b,001,2021-08-19_15h29.18.775,natb3,2021.2.3,Win32,59.96282305,61178a927e39ad56c002118b,611e07ecdcc96256ae8d5b80,611e6aa902f00d05399d5a04,
,,,,,,,0,245,245,271,1,X, , , , ,,2500,2.5,61178a927e39ad56c002118b,001,2021-08-19_15h29.18.775,natb3,2021.2.3,Win32,59.96282305,61178a927e39ad56c002118b,611e07ecdcc96256ae8d5b80,611e6aa902f00d05399d5a04,
,,,,,,,0,246,246,35,1,X, , , , ,,2500,2.5,61178a927e39ad56c002118b,001,2021-08-19_15h29.18.775,natb3,2021.2.3,Win32,59.96282305,61178a927e39ad56c002118b,611e07ecdcc96256ae8d5b80,611e6aa902f00d05399d5a04,
,,,,space,0.4469,,0,247,247,328,1,R, , , , ,space,1500,1.5,61178a927e39ad56c002118b,001,2021-08-19_15h29.18.775,natb3,2021.2.3,Win32,59.96282305,61178a927e39ad56c002118b,611e07ecdcc96256ae8d5b80,611e6aa902f00d05399d5a04,
,,,,space,0.397,,0,248,248,113,1,W, , , , ,space,2500,2.5,61178a927e39ad56c002118b,001,2021-08-19_15h29.18.775,natb3,2021.2.3,Win32,59.96282305,61178a927e39ad56c002118b,611e07ecdcc96256ae8d5b80,611e6aa902f00d05399d5a04,
,,,,space,0.3708,,0,249,249,97,1,B, , , , ,space,2500,2.5,61178a927e39ad56c002118b,001,2021-08-19_15h29.18.775,natb3,2021.2.3,Win32,59.96282305,61178a927e39ad56c002118b,611e07ecdcc96256ae8d5b80,611e6aa902f00d05399d5a04,
,,,,space,0.6511,,0,250,250,331,1,Y, , , , ,space,2500,2.5,61178a927e39ad56c002118b,001,2021-08-19_15h29.18.775,natb3,2021.2.3,Win32,59.96282305,61178a927e39ad56c002118b,611e07ecdcc96256ae8d5b80,611e6aa902f00d05399d5a04,
,,,,space,0.9133,,0,251,251,234,1,P, , , , ,space,2000,2,61178a927e39ad56c002118b,001,2021-08-19_15h29.18.775,natb3,2021.2.3,Win32,59.96282305,61178a927e39ad56c002118b,611e07ecdcc96256ae8d5b80,611e6aa902f00d05399d5a04,
,,,,space,0.8296,,0,252,252,71,1,R, , , , ,space,2500,2.5,61178a927e39ad56c002118b,001,2021-08-19_15h29.18.775,natb3,2021.2.3,Win32,59.96282305,61178a927e39ad56c002118b,611e07ecdcc96256ae8d5b80,611e6aa902f00d05399d5a04,
,,,,,,,0,253,253,287,1,X, ,2, ,9,,2000,2,61178a927e39ad56c002118b,001,2021-08-19_15h29.18.775,natb3,2021.2.3,Win32,59.96282305,61178a927e39ad56c002118b,611e07ecdcc96256ae8d5b80,611e6aa902f00d05399d5a04,
,,,,space,0.4491,,0,254,254,188,1,I, , , , ,space,2500,2.5,61178a927e39ad56c002118b,001,2021-08-19_15h29.18.775,natb3,2021.2.3,Win32,59.96282305,61178a927e39ad56c002118b,611e07ecdcc96256ae8d5b80,611e6aa902f00d05399d5a04,
,,,,,,,0,255,255,282,1,X, , , , ,,2500,2.5,61178a927e39ad56c002118b,001,2021-08-19_15h29.18.775,natb3,2021.2.3,Win32,59.96282305,61178a927e39ad56c002118b,611e07ecdcc96256ae8d5b80,611e6aa902f00d05399d5a04,
,,,,space,0.5231,,0,256,256,28,1,V, , , , ,space,1500,1.5,61178a927e39ad56c002118b,001,2021-08-19_15h29.18.775,natb3,2021.2.3,Win32,59.96282305,61178a927e39ad56c002118b,611e07ecdcc96256ae8d5b80,611e6aa902f00d05399d5a04,
,,,,,,,0,257,257,315,1,X, , , , ,,2500,2.5,61178a927e39ad56c002118b,001,2021-08-19_15h29.18.775,natb3,2021.2.3,Win32,59.96282305,61178a927e39ad56c002118b,611e07ecdcc96256ae8d5b80,611e6aa902f00d05399d5a04,
,,,,space,0.4065,,0,258,258,61,1,C, , , , ,space,2000,2,61178a927e39ad56c002118b,001,2021-08-19_15h29.18.775,natb3,2021.2.3,Win32,59.96282305,61178a927e39ad56c002118b,611e07ecdcc96256ae8d5b80,611e6aa902f00d05399d5a04,
,,,,space,0.4592,,0,259,259,312,1,K, , , , ,space,2000,2,61178a927e39ad56c002118b,001,2021-08-19_15h29.18.775,natb3,2021.2.3,Win32,59.96282305,61178a927e39ad56c002118b,611e07ecdcc96256ae8d5b80,611e6aa902f00d05399d5a04,
,,,,space,0.6575,,0,260,260,266,1,O, , , , ,space,1500,1.5,61178a927e39ad56c002118b,001,2021-08-19_15h29.18.775,natb3,2021.2.3,Win32,59.96282305,61178a927e39ad56c002118b,611e07ecdcc96256ae8d5b80,611e6aa902f00d05399d5a04,
,,,,,,,0,261,261,335,1,P,,,,,space,1500,1.5,61178a927e39ad56c002118b,001,2021-08-19_15h29.18.775,natb3,2021.2.3,Win32,59.96282305,61178a927e39ad56c002118b,611e07ecdcc96256ae8d5b80,611e6aa902f00d05399d5a04,
,,,,space,0.4988,,0,262,262,246,1,L, , , , ,space,2500,2.5,61178a927e39ad56c002118b,001,2021-08-19_15h29.18.775,natb3,2021.2.3,Win32,59.96282305,61178a927e39ad56c002118b,611e07ecdcc96256ae8d5b80,611e6aa902f00d05399d5a04,
,,,,space,0.448,,0,263,263,10,1,O, , , , ,space,2000,2,61178a927e39ad56c002118b,001,2021-08-19_15h29.18.775,natb3,2021.2.3,Win32,59.96282305,61178a927e39ad56c002118b,611e07ecdcc96256ae8d5b80,611e6aa902f00d05399d5a04,
,,,,space,0.5309,,0,264,264,174,1,B, , , , ,space,2500,2.5,61178a927e39ad56c002118b,001,2021-08-19_15h29.18.775,natb3,2021.2.3,Win32,59.96282305,61178a927e39ad56c002118b,611e07ecdcc96256ae8d5b80,611e6aa902f00d05399d5a04,
,,,,space,0.3644,,0,265,265,109,1,U, , , , ,space,1500,1.5,61178a927e39ad56c002118b,001,2021-08-19_15h29.18.775,natb3,2021.2.3,Win32,59.96282305,61178a927e39ad56c002118b,611e07ecdcc96256ae8d5b80,611e6aa902f00d05399d5a04,
,,,,space,0.3644,,0,266,266,165,1,J, , , , ,space,2500,2.5,61178a927e39ad56c002118b,001,2021-08-19_15h29.18.775,natb3,2021.2.3,Win32,59.96282305,61178a927e39ad56c002118b,611e07ecdcc96256ae8d5b80,611e6aa902f00d05399d5a04,
,,,,space,0.3633,,0,267,267,190,1,P, , , , ,space,2000,2,61178a927e39ad56c002118b,001,2021-08-19_15h29.18.775,natb3,2021.2.3,Win32,59.96282305,61178a927e39ad56c002118b,611e07ecdcc96256ae8d5b80,611e6aa902f00d05399d5a04,
,,,,space,0.4467,,0,268,268,204,1,Z, , , , ,space,2000,2,61178a927e39ad56c002118b,001,2021-08-19_15h29.18.775,natb3,2021.2.3,Win32,59.96282305,61178a927e39ad56c002118b,611e07ecdcc96256ae8d5b80,611e6aa902f00d05399d5a04,
,,,,space,0.3923,,0,269,269,185,1,Y, , , , ,space,2500,2.5,61178a927e39ad56c002118b,001,2021-08-19_15h29.18.775,natb3,2021.2.3,Win32,59.96282305,61178a927e39ad56c002118b,611e07ecdcc96256ae8d5b80,611e6aa902f00d05399d5a04,
,,,,,,,0,270,270,259,1,X,8, , ,3,,2500,2.5,61178a927e39ad56c002118b,001,2021-08-19_15h29.18.775,natb3,2021.2.3,Win32,59.96282305,61178a927e39ad56c002118b,611e07ecdcc96256ae8d5b80,611e6aa902f00d05399d5a04,
,,,,space,0.4822,,0,271,271,293,1,R, , , , ,space,2500,2.5,61178a927e39ad56c002118b,001,2021-08-19_15h29.18.775,natb3,2021.2.3,Win32,59.96282305,61178a927e39ad56c002118b,611e07ecdcc96256ae8d5b80,611e6aa902f00d05399d5a04,
,,,,space,0.7145,,0,272,272,334,1,O, , , , ,space,1500,1.5,61178a927e39ad56c002118b,001,2021-08-19_15h29.18.775,natb3,2021.2.3,Win32,59.96282305,61178a927e39ad56c002118b,611e07ecdcc96256ae8d5b80,611e6aa902f00d05399d5a04,
,,,,,,,0,273,273,129,1,X,2,3,5, ,,1500,1.5,61178a927e39ad56c002118b,001,2021-08-19_15h29.18.775,natb3,2021.2.3,Win32,59.96282305,61178a927e39ad56c002118b,611e07ecdcc96256ae8d5b80,611e6aa902f00d05399d5a04,
,,,,space,0.4067,,0,274,274,321,1,N, , , , ,space,2000,2,61178a927e39ad56c002118b,001,2021-08-19_15h29.18.775,natb3,2021.2.3,Win32,59.96282305,61178a927e39ad56c002118b,611e07ecdcc96256ae8d5b80,611e6aa902f00d05399d5a04,
,,,,space,0.41,,0,275,275,34,1,Q, , , , ,space,2500,2.5,61178a927e39ad56c002118b,001,2021-08-19_15h29.18.775,natb3,2021.2.3,Win32,59.96282305,61178a927e39ad56c002118b,611e07ecdcc96256ae8d5b80,611e6aa902f00d05399d5a04,
,,,,space,0.4018,,0,276,276,209,1,N, , , , ,space,2000,2,61178a927e39ad56c002118b,001,2021-08-19_15h29.18.775,natb3,2021.2.3,Win32,59.96282305,61178a927e39ad56c002118b,611e07ecdcc96256ae8d5b80,611e6aa902f00d05399d5a04,
,,,,,,,0,277,277,46,1,X, , , , ,,2000,2,61178a927e39ad56c002118b,001,2021-08-19_15h29.18.775,natb3,2021.2.3,Win32,59.96282305,61178a927e39ad56c002118b,611e07ecdcc96256ae8d5b80,611e6aa902f00d05399d5a04,
,,,,space,0.3966,,0,278,278,242,1,H, , , , ,space,2500,2.5,61178a927e39ad56c002118b,001,2021-08-19_15h29.18.775,natb3,2021.2.3,Win32,59.96282305,61178a927e39ad56c002118b,611e07ecdcc96256ae8d5b80,611e6aa902f00d05399d5a04,
,,,,space,0.368,,0,279,279,206,1,V, , , , ,space,2000,2,61178a927e39ad56c002118b,001,2021-08-19_15h29.18.775,natb3,2021.2.3,Win32,59.96282305,61178a927e39ad56c002118b,611e07ecdcc96256ae8d5b80,611e6aa902f00d05399d5a04,
,,,,,,,0,280,280,203,1,X, , , , ,,2500,2.5,61178a927e39ad56c002118b,001,2021-08-19_15h29.18.775,natb3,2021.2.3,Win32,59.96282305,61178a927e39ad56c002118b,611e07ecdcc96256ae8d5b80,611e6aa902f00d05399d5a04,
,,,,space,0.3523,,0,281,281,76,1,I, , , , ,space,2000,2,61178a927e39ad56c002118b,001,2021-08-19_15h29.18.775,natb3,2021.2.3,Win32,59.96282305,61178a927e39ad56c002118b,611e07ecdcc96256ae8d5b80,611e6aa902f00d05399d5a04,
,,,,space,0.3158,,0,282,282,48,1,A, , , , ,space,2500,2.5,61178a927e39ad56c002118b,001,2021-08-19_15h29.18.775,natb3,2021.2.3,Win32,59.96282305,61178a927e39ad56c002118b,611e07ecdcc96256ae8d5b80,611e6aa902f00d05399d5a04,
,,,,space,0.4725,,0,283,283,220,1,U, , , , ,space,2500,2.5,61178a927e39ad56c002118b,001,2021-08-19_15h29.18.775,natb3,2021.2.3,Win32,59.96282305,61178a927e39ad56c002118b,611e07ecdcc96256ae8d5b80,611e6aa902f00d05399d5a04,
,,,,space,0.2977,,0,284,284,306,1,D, , , , ,space,2000,2,61178a927e39ad56c002118b,001,2021-08-19_15h29.18.775,natb3,2021.2.3,Win32,59.96282305,61178a927e39ad56c002118b,611e07ecdcc96256ae8d5b80,611e6aa902f00d05399d5a04,
,,,,space,0.401,,0,285,285,8,1,U, , , , ,space,1500,1.5,61178a927e39ad56c002118b,001,2021-08-19_15h29.18.775,natb3,2021.2.3,Win32,59.96282305,61178a927e39ad56c002118b,611e07ecdcc96256ae8d5b80,611e6aa902f00d05399d5a04,
,,,,space,0.3397,,0,286,286,52,1,F, , , , ,space,1500,1.5,61178a927e39ad56c002118b,001,2021-08-19_15h29.18.775,natb3,2021.2.3,Win32,59.96282305,61178a927e39ad56c002118b,611e07ecdcc96256ae8d5b80,611e6aa902f00d05399d5a04,
,,,,space,0.318,,0,287,287,36,1,W, , , , ,space,2000,2,61178a927e39ad56c002118b,001,2021-08-19_15h29.18.775,natb3,2021.2.3,Win32,59.96282305,61178a927e39ad56c002118b,611e07ecdcc96256ae8d5b80,611e6aa902f00d05399d5a04,
,,,,space,0.3299,,0,288,288,148,1,X, , , , ,,2000,2,61178a927e39ad56c002118b,001,2021-08-19_15h29.18.775,natb3,2021.2.3,Win32,59.96282305,61178a927e39ad56c002118b,611e07ecdcc96256ae8d5b80,611e6aa902f00d05399d5a04,
,,,,space,0.4633,,0,289,289,106,1,T, , , , ,space,1500,1.5,61178a927e39ad56c002118b,001,2021-08-19_15h29.18.775,natb3,2021.2.3,Win32,59.96282305,61178a927e39ad56c002118b,611e07ecdcc96256ae8d5b80,611e6aa902f00d05399d5a04,
,,,,space,0.4134,,0,290,290,139,1,V, , , , ,space,2000,2,61178a927e39ad56c002118b,001,2021-08-19_15h29.18.775,natb3,2021.2.3,Win32,59.96282305,61178a927e39ad56c002118b,611e07ecdcc96256ae8d5b80,611e6aa902f00d05399d5a04,
,,,,space,0.4134,,0,291,291,260,1,R, , , , ,space,2000,2,61178a927e39ad56c002118b,001,2021-08-19_15h29.18.775,natb3,2021.2.3,Win32,59.96282305,61178a927e39ad56c002118b,611e07ecdcc96256ae8d5b80,611e6aa902f00d05399d5a04,
,,,,space,0.449,,0,292,292,214,1,W, , , , ,space,2000,2,61178a927e39ad56c002118b,001,2021-08-19_15h29.18.775,natb3,2021.2.3,Win32,59.96282305,61178a927e39ad56c002118b,611e07ecdcc96256ae8d5b80,611e6aa902f00d05399d5a04,
,,,,space,0.4974,,0,293,293,231,1,I, , , , ,space,2500,2.5,61178a927e39ad56c002118b,001,2021-08-19_15h29.18.775,natb3,2021.2.3,Win32,59.96282305,61178a927e39ad56c002118b,611e07ecdcc96256ae8d5b80,611e6aa902f00d05399d5a04,
,,,,,,,0,294,294,96,1,X, , , , ,,1500,1.5,61178a927e39ad56c002118b,001,2021-08-19_15h29.18.775,natb3,2021.2.3,Win32,59.96282305,61178a927e39ad56c002118b,611e07ecdcc96256ae8d5b80,611e6aa902f00d05399d5a04,
,,,,space,0.3504,,0,295,295,275,1,G, , , , ,space,1500,1.5,61178a927e39ad56c002118b,001,2021-08-19_15h29.18.775,natb3,2021.2.3,Win32,59.96282305,61178a927e39ad56c002118b,611e07ecdcc96256ae8d5b80,611e6aa902f00d05399d5a04,
,,,,space,0.3472,,0,296,296,159,1,S, , , , ,space,2500,2.5,61178a927e39ad56c002118b,001,2021-08-19_15h29.18.775,natb3,2021.2.3,Win32,59.96282305,61178a927e39ad56c002118b,611e07ecdcc96256ae8d5b80,611e6aa902f00d05399d5a04,
,,,,space,0.3338,,0,297,297,128,1,D, , , , ,space,2500,2.5,61178a927e39ad56c002118b,001,2021-08-19_15h29.18.775,natb3,2021.2.3,Win32,59.96282305,61178a927e39ad56c002118b,611e07ecdcc96256ae8d5b80,611e6aa902f00d05399d5a04,
,,,,,,,0,298,298,243,1,X, , , , ,,2500,2.5,61178a927e39ad56c002118b,001,2021-08-19_15h29.18.775,natb3,2021.2.3,Win32,59.96282305,61178a927e39ad56c002118b,611e07ecdcc96256ae8d5b80,611e6aa902f00d05399d5a04,
,,,,space,0.4077,,0,299,299,127,1,S, , , , ,space,2500,2.5,61178a927e39ad56c002118b,001,2021-08-19_15h29.18.775,natb3,2021.2.3,Win32,59.96282305,61178a927e39ad56c002118b,611e07ecdcc96256ae8d5b80,611e6aa902f00d05399d5a04,
,,,,,,,0,300,300,179,1,X, ,9, ,2,,1500,1.5,61178a927e39ad56c002118b,001,2021-08-19_15h29.18.775,natb3,2021.2.3,Win32,59.96282305,61178a927e39ad56c002118b,611e07ecdcc96256ae8d5b80,611e6aa902f00d05399d5a04,
,,,,,,,0,301,301,84,1,X, , , , ,,2000,2,61178a927e39ad56c002118b,001,2021-08-19_15h29.18.775,natb3,2021.2.3,Win32,59.96282305,61178a927e39ad56c002118b,611e07ecdcc96256ae8d5b80,611e6aa902f00d05399d5a04,
,,,,space,0.3871,,0,302,302,208,1,B, , , , ,space,1500,1.5,61178a927e39ad56c002118b,001,2021-08-19_15h29.18.775,natb3,2021.2.3,Win32,59.96282305,61178a927e39ad56c002118b,611e07ecdcc96256ae8d5b80,611e6aa902f00d05399d5a04,
,,,,space,0.6643,,0,303,303,42,1,U, , , , ,space,1500,1.5,61178a927e39ad56c002118b,001,2021-08-19_15h29.18.775,natb3,2021.2.3,Win32,59.96282305,61178a927e39ad56c002118b,611e07ecdcc96256ae8d5b80,611e6aa902f00d05399d5a04,
,,,,space,0.7766,,0,304,304,150,1,T, , , , ,space,2500,2.5,61178a927e39ad56c002118b,001,2021-08-19_15h29.18.775,natb3,2021.2.3,Win32,59.96282305,61178a927e39ad56c002118b,611e07ecdcc96256ae8d5b80,611e6aa902f00d05399d5a04,
,,,,space,0.346,,0,305,305,83,1,D, , , , ,space,2000,2,61178a927e39ad56c002118b,001,2021-08-19_15h29.18.775,natb3,2021.2.3,Win32,59.96282305,61178a927e39ad56c002118b,611e07ecdcc96256ae8d5b80,611e6aa902f00d05399d5a04,
,,,,space,0.3729,,0,306,306,25,1,Z, , , , ,space,2500,2.5,61178a927e39ad56c002118b,001,2021-08-19_15h29.18.775,natb3,2021.2.3,Win32,59.96282305,61178a927e39ad56c002118b,611e07ecdcc96256ae8d5b80,611e6aa902f00d05399d5a04,
,,,,space,0.3529,,0,307,307,44,1,I, , , , ,space,2500,2.5,61178a927e39ad56c002118b,001,2021-08-19_15h29.18.775,natb3,2021.2.3,Win32,59.96282305,61178a927e39ad56c002118b,611e07ecdcc96256ae8d5b80,611e6aa902f00d05399d5a04,
,,,,,,,0,308,308,18,1,X, ,2,5,8,,2500,2.5,61178a927e39ad56c002118b,001,2021-08-19_15h29.18.775,natb3,2021.2.3,Win32,59.96282305,61178a927e39ad56c002118b,611e07ecdcc96256ae8d5b80,611e6aa902f00d05399d5a04,
,,,,space,0.4763,,0,309,309,250,1,V, , , , ,space,2000,2,61178a927e39ad56c002118b,001,2021-08-19_15h29.18.775,natb3,2021.2.3,Win32,59.96282305,61178a927e39ad56c002118b,611e07ecdcc96256ae8d5b80,611e6aa902f00d05399d5a04,
,,,,space,0.4079,,0,310,310,156,1,P, , , , ,space,1500,1.5,61178a927e39ad56c002118b,001,2021-08-19_15h29.18.775,natb3,2021.2.3,Win32,59.96282305,61178a927e39ad56c002118b,611e07ecdcc96256ae8d5b80,611e6aa902f00d05399d5a04,
,,,,,,,0,311,311,211,1,X, , , , ,,2500,2.5,61178a927e39ad56c002118b,001,2021-08-19_15h29.18.775,natb3,2021.2.3,Win32,59.96282305,61178a927e39ad56c002118b,611e07ecdcc96256ae8d5b80,611e6aa902f00d05399d5a04,
,,,,space,0.504,,0,312,312,6,1,Y, , , , ,space,2500,2.5,61178a927e39ad56c002118b,001,2021-08-19_15h29.18.775,natb3,2021.2.3,Win32,59.96282305,61178a927e39ad56c002118b,611e07ecdcc96256ae8d5b80,611e6aa902f00d05399d5a04,
,,,,space,0.3672,,0,313,313,142,1,N, , , , ,space,2500,2.5,61178a927e39ad56c002118b,001,2021-08-19_15h29.18.775,natb3,2021.2.3,Win32,59.96282305,61178a927e39ad56c002118b,611e07ecdcc96256ae8d5b80,611e6aa902f00d05399d5a04,
,,,,space,0.3463,,0,314,314,30,1,N, , , , ,space,2500,2.5,61178a927e39ad56c002118b,001,2021-08-19_15h29.18.775,natb3,2021.2.3,Win32,59.96282305,61178a927e39ad56c002118b,611e07ecdcc96256ae8d5b80,611e6aa902f00d05399d5a04,
,,,,space,0.4838,,0,315,315,189,1,O, , , , ,space,1500,1.5,61178a927e39ad56c002118b,001,2021-08-19_15h29.18.775,natb3,2021.2.3,Win32,59.96282305,61178a927e39ad56c002118b,611e07ecdcc96256ae8d5b80,611e6aa902f00d05399d5a04,
,,,,space,0.3473,,0,316,316,79,1,P, , , , ,space,2000,2,61178a927e39ad56c002118b,001,2021-08-19_15h29.18.775,natb3,2021.2.3,Win32,59.96282305,61178a927e39ad56c002118b,611e07ecdcc96256ae8d5b80,611e6aa902f00d05399d5a04,
,,,,space,0.2816,,0,317,317,276,1,H, , , , ,space,2000,2,61178a927e39ad56c002118b,001,2021-08-19_15h29.18.775,natb3,2021.2.3,Win32,59.96282305,61178a927e39ad56c002118b,611e07ecdcc96256ae8d5b80,611e6aa902f00d05399d5a04,
,,,,space,0.3402,,0,318,318,228,1,Y, , , , ,space,2000,2,61178a927e39ad56c002118b,001,2021-08-19_15h29.18.775,natb3,2021.2.3,Win32,59.96282305,61178a927e39ad56c002118b,611e07ecdcc96256ae8d5b80,611e6aa902f00d05399d5a04,
,,,,,,,0,319,319,54,1,X, , , , ,,2000,2,61178a927e39ad56c002118b,001,2021-08-19_15h29.18.775,natb3,2021.2.3,Win32,59.96282305,61178a927e39ad56c002118b,611e07ecdcc96256ae8d5b80,611e6aa902f00d05399d5a04,
,,,,space,0.3563,,0,320,320,216,1,R, , , , ,space,1500,1.5,61178a927e39ad56c002118b,001,2021-08-19_15h29.18.775,natb3,2021.2.3,Win32,59.96282305,61178a927e39ad56c002118b,611e07ecdcc96256ae8d5b80,611e6aa902f00d05399d5a04,
,,,,space,0.384,,0,321,321,253,1,N, , , , ,space,2500,2.5,61178a927e39ad56c002118b,001,2021-08-19_15h29.18.775,natb3,2021.2.3,Win32,59.96282305,61178a927e39ad56c002118b,611e07ecdcc96256ae8d5b80,611e6aa902f00d05399d5a04,
,,,,,,,0,322,322,27,1,X,5, ,1,3,,1500,1.5,61178a927e39ad56c002118b,001,2021-08-19_15h29.18.775,natb3,2021.2.3,Win32,59.96282305,61178a927e39ad56c002118b,611e07ecdcc96256ae8d5b80,611e6aa902f00d05399d5a04,
,,,,space,0.3934,,0,323,323,269,1,A, , , , ,space,2500,2.5,61178a927e39ad56c002118b,001,2021-08-19_15h29.18.775,natb3,2021.2.3,Win32,59.96282305,61178a927e39ad56c002118b,611e07ecdcc96256ae8d5b80,611e6aa902f00d05399d5a04,
,,,,space,0.4148,,0,324,324,288,1,M, , , , ,space,1500,1.5,61178a927e39ad56c002118b,001,2021-08-19_15h29.18.775,natb3,2021.2.3,Win32,59.96282305,61178a927e39ad56c002118b,611e07ecdcc96256ae8d5b80,611e6aa902f00d05399d5a04,
,,,,space,0.3798,,0,325,325,47,1,P, , , , ,space,2000,2,61178a927e39ad56c002118b,001,2021-08-19_15h29.18.775,natb3,2021.2.3,Win32,59.96282305,61178a927e39ad56c002118b,611e07ecdcc96256ae8d5b80,611e6aa902f00d05399d5a04,
,,,,,,,0,326,326,39,1,X,6,2, , ,,1500,1.5,61178a927e39ad56c002118b,001,2021-08-19_15h29.18.775,natb3,2021.2.3,Win32,59.96282305,61178a927e39ad56c002118b,611e07ecdcc96256ae8d5b80,611e6aa902f00d05399d5a04,
,,,,space,0.4042,,0,327,327,107,1,X,9,3, ,2,,2000,2,61178a927e39ad56c002118b,001,2021-08-19_15h29.18.775,natb3,2021.2.3,Win32,59.96282305,61178a927e39ad56c002118b,611e07ecdcc96256ae8d5b80,611e6aa902f00d05399d5a04,
,,,,,,,0,328,328,252,1,X,3, ,6,9,,2000,2,61178a927e39ad56c002118b,001,2021-08-19_15h29.18.775,natb3,2021.2.3,Win32,59.96282305,61178a927e39ad56c002118b,611e07ecdcc96256ae8d5b80,611e6aa902f00d05399d5a04,
,,,,space,0.3998,,0,329,329,227,1,T, , , , ,space,1500,1.5,61178a927e39ad56c002118b,001,2021-08-19_15h29.18.775,natb3,2021.2.3,Win32,59.96282305,61178a927e39ad56c002118b,611e07ecdcc96256ae8d5b80,611e6aa902f00d05399d5a04,
,,,,space,0.5536,,0,330,330,38,1,R, , , , ,space,2500,2.5,61178a927e39ad56c002118b,001,2021-08-19_15h29.18.775,natb3,2021.2.3,Win32,59.96282305,61178a927e39ad56c002118b,611e07ecdcc96256ae8d5b80,611e6aa902f00d05399d5a04,
,,,,space,0.4369,,0,331,331,224,1,W, , , , ,space,1500,1.5,61178a927e39ad56c002118b,001,2021-08-19_15h29.18.775,natb3,2021.2.3,Win32,59.96282305,61178a927e39ad56c002118b,611e07ecdcc96256ae8d5b80,611e6aa902f00d05399d5a04,
,,,,space,0.4955,,0,332,332,238,1,D, , , , ,space,1500,1.5,61178a927e39ad56c002118b,001,2021-08-19_15h29.18.775,natb3,2021.2.3,Win32,59.96282305,61178a927e39ad56c002118b,611e07ecdcc96256ae8d5b80,611e6aa902f00d05399d5a04,
,,,,space,0.3787,,0,333,333,72,1,T, , , , ,space,1500,1.5,61178a927e39ad56c002118b,001,2021-08-19_15h29.18.775,natb3,2021.2.3,Win32,59.96282305,61178a927e39ad56c002118b,611e07ecdcc96256ae8d5b80,611e6aa902f00d05399d5a04,
,,,,space,0.3927,,0,334,334,99,1,N, , , , ,space,2500,2.5,61178a927e39ad56c002118b,001,2021-08-19_15h29.18.775,natb3,2021.2.3,Win32,59.96282305,61178a927e39ad56c002118b,611e07ecdcc96256ae8d5b80,611e6aa902f00d05399d5a04,
,,,,space,0.3068,,0,335,335,309,1,H, , , , ,space,2500,2.5,61178a927e39ad56c002118b,001,2021-08-19_15h29.18.775,natb3,2021.2.3,Win32,59.96282305,61178a927e39ad56c002118b,611e07ecdcc96256ae8d5b80,611e6aa902f00d05399d5a04,
