key_resp_2.keys,key_resp_2.rt,key_resp_3.keys,key_resp_3.rt,key_resp.keys,key_resp_4.keys,trials.thisRepN,trials.thisTrialN,trials.thisN,trials.thisIndex,trials.ran,stimulus,distractor1,distractor2,distractor3,distractor4,CorrAns,isi_duration,isi_dur_in_seconds,participant,session,date,expName,psychopyVersion,OS,frameRate,PROLIFIC_PID,STUDY_ID,SESSION_ID,key_resp.rt,key_resp_4.rt
return,26.9768,space,13.7582,,,0,0,0,333,1,I, , , , ,space,1500,1.5,6117aae89db1cfe1a7a339fa,001,2021-08-17_16h58.22.535,natb3,2021.2.3,MacIntel,59.97720866,6117aae89db1cfe1a7a339fa,6107d0959f7c4c3641818b95,611bdc3bdc33d27549ef896e,,
,,,,space,,0,1,1,152,1,U, , , , ,space,2000,2,6117aae89db1cfe1a7a339fa,001,2021-08-17_16h58.22.535,natb3,2021.2.3,MacIntel,59.97720866,6117aae89db1cfe1a7a339fa,6107d0959f7c4c3641818b95,611bdc3bdc33d27549ef896e,0.4403,
,,,,space,,0,2,2,121,1,I, , , , ,space,2000,2,6117aae89db1cfe1a7a339fa,001,2021-08-17_16h58.22.535,natb3,2021.2.3,MacIntel,59.97720866,6117aae89db1cfe1a7a339fa,6107d0959f7c4c3641818b95,611bdc3bdc33d27549ef896e,0.2515,
,,,,space,,0,3,3,257,1,W, , , , ,space,2000,2,6117aae89db1cfe1a7a339fa,001,2021-08-17_16h58.22.535,natb3,2021.2.3,MacIntel,59.97720866,6117aae89db1cfe1a7a339fa,6107d0959f7c4c3641818b95,611bdc3bdc33d27549ef896e,0.2828,
,,,,space,,0,4,4,84,1,X, , , , ,,2000,2,6117aae89db1cfe1a7a339fa,001,2021-08-17_16h58.22.535,natb3,2021.2.3,MacIntel,59.97720866,6117aae89db1cfe1a7a339fa,6107d0959f7c4c3641818b95,611bdc3bdc33d27549ef896e,0.2875,
,,,,space,,0,5,5,282,1,X, , , , ,,2500,2.5,6117aae89db1cfe1a7a339fa,001,2021-08-17_16h58.22.535,natb3,2021.2.3,MacIntel,59.97720866,6117aae89db1cfe1a7a339fa,6107d0959f7c4c3641818b95,611bdc3bdc33d27549ef896e,0.3053,
,,,,space,,0,6,6,25,1,Z, , , , ,space,2500,2.5,6117aae89db1cfe1a7a339fa,001,2021-08-17_16h58.22.535,natb3,2021.2.3,MacIntel,59.97720866,6117aae89db1cfe1a7a339fa,6107d0959f7c4c3641818b95,611bdc3bdc33d27549ef896e,0.4862,
,,,,space,,0,7,7,292,1,E, , , , ,space,2000,2,6117aae89db1cfe1a7a339fa,001,2021-08-17_16h58.22.535,natb3,2021.2.3,MacIntel,59.97720866,6117aae89db1cfe1a7a339fa,6107d0959f7c4c3641818b95,611bdc3bdc33d27549ef896e,0.5981,
,,,,,,0,8,8,203,1,X, , , , ,,2500,2.5,6117aae89db1cfe1a7a339fa,001,2021-08-17_16h58.22.535,natb3,2021.2.3,MacIntel,59.97720866,6117aae89db1cfe1a7a339fa,6107d0959f7c4c3641818b95,611bdc3bdc33d27549ef896e,,
,,,,,,0,9,9,23,1,X,1, ,5, ,,2000,2,6117aae89db1cfe1a7a339fa,001,2021-08-17_16h58.22.535,natb3,2021.2.3,MacIntel,59.97720866,6117aae89db1cfe1a7a339fa,6107d0959f7c4c3641818b95,611bdc3bdc33d27549ef896e,,
,,,,,,0,10,10,116,1,X, , , , ,,2000,2,6117aae89db1cfe1a7a339fa,001,2021-08-17_16h58.22.535,natb3,2021.2.3,MacIntel,59.97720866,6117aae89db1cfe1a7a339fa,6107d0959f7c4c3641818b95,611bdc3bdc33d27549ef896e,,
,,,,space,,0,11,11,181,1,E, , , , ,space,1500,1.5,6117aae89db1cfe1a7a339fa,001,2021-08-17_16h58.22.535,natb3,2021.2.3,MacIntel,59.97720866,6117aae89db1cfe1a7a339fa,6107d0959f7c4c3641818b95,611bdc3bdc33d27549ef896e,0.5118,
,,,,space,,0,12,12,270,1,S, , , , ,space,1500,1.5,6117aae89db1cfe1a7a339fa,001,2021-08-17_16h58.22.535,natb3,2021.2.3,MacIntel,59.97720866,6117aae89db1cfe1a7a339fa,6107d0959f7c4c3641818b95,611bdc3bdc33d27549ef896e,0.4221,
,,,,space,,0,13,13,319,1,V, , , , ,space,2000,2,6117aae89db1cfe1a7a339fa,001,2021-08-17_16h58.22.535,natb3,2021.2.3,MacIntel,59.97720866,6117aae89db1cfe1a7a339fa,6107d0959f7c4c3641818b95,611bdc3bdc33d27549ef896e,0.4371,
,,,,space,,0,14,14,105,1,R, , , , ,space,2500,2.5,6117aae89db1cfe1a7a339fa,001,2021-08-17_16h58.22.535,natb3,2021.2.3,MacIntel,59.97720866,6117aae89db1cfe1a7a339fa,6107d0959f7c4c3641818b95,611bdc3bdc33d27549ef896e,0.4525,
,,,,space,,0,15,15,28,1,V, , , , ,space,1500,1.5,6117aae89db1cfe1a7a339fa,001,2021-08-17_16h58.22.535,natb3,2021.2.3,MacIntel,59.97720866,6117aae89db1cfe1a7a339fa,6107d0959f7c4c3641818b95,611bdc3bdc33d27549ef896e,0.4143,
,,,,space,,0,16,16,83,1,D, , , , ,space,2000,2,6117aae89db1cfe1a7a339fa,001,2021-08-17_16h58.22.535,natb3,2021.2.3,MacIntel,59.97720866,6117aae89db1cfe1a7a339fa,6107d0959f7c4c3641818b95,611bdc3bdc33d27549ef896e,0.3844,
,,,,space,,0,17,17,134,1,J, , , , ,space,2000,2,6117aae89db1cfe1a7a339fa,001,2021-08-17_16h58.22.535,natb3,2021.2.3,MacIntel,59.97720866,6117aae89db1cfe1a7a339fa,6107d0959f7c4c3641818b95,611bdc3bdc33d27549ef896e,0.3793,
,,,,space,,0,18,18,111,1,O, , , , ,space,2000,2,6117aae89db1cfe1a7a339fa,001,2021-08-17_16h58.22.535,natb3,2021.2.3,MacIntel,59.97720866,6117aae89db1cfe1a7a339fa,6107d0959f7c4c3641818b95,611bdc3bdc33d27549ef896e,0.3629,
,,,,space,,0,19,19,114,1,E, , , , ,space,2000,2,6117aae89db1cfe1a7a339fa,001,2021-08-17_16h58.22.535,natb3,2021.2.3,MacIntel,59.97720866,6117aae89db1cfe1a7a339fa,6107d0959f7c4c3641818b95,611bdc3bdc33d27549ef896e,0.3666,
,,,,space,,0,20,20,92,1,Z, , , , ,space,1500,1.5,6117aae89db1cfe1a7a339fa,001,2021-08-17_16h58.22.535,natb3,2021.2.3,MacIntel,59.97720866,6117aae89db1cfe1a7a339fa,6107d0959f7c4c3641818b95,611bdc3bdc33d27549ef896e,0.4363,
,,,,space,,0,21,21,235,1,A, , , , ,space,1500,1.5,6117aae89db1cfe1a7a339fa,001,2021-08-17_16h58.22.535,natb3,2021.2.3,MacIntel,59.97720866,6117aae89db1cfe1a7a339fa,6107d0959f7c4c3641818b95,611bdc3bdc33d27549ef896e,0.3948,
,,,,space,,0,22,22,130,1,F, , , , ,space,2000,2,6117aae89db1cfe1a7a339fa,001,2021-08-17_16h58.22.535,natb3,2021.2.3,MacIntel,59.97720866,6117aae89db1cfe1a7a339fa,6107d0959f7c4c3641818b95,611bdc3bdc33d27549ef896e,0.4833,
,,,,space,,0,23,23,250,1,V, , , , ,space,2000,2,6117aae89db1cfe1a7a339fa,001,2021-08-17_16h58.22.535,natb3,2021.2.3,MacIntel,59.97720866,6117aae89db1cfe1a7a339fa,6107d0959f7c4c3641818b95,611bdc3bdc33d27549ef896e,0.369,
,,,,space,,0,24,24,284,1,V, , , , ,space,2500,2.5,6117aae89db1cfe1a7a339fa,001,2021-08-17_16h58.22.535,natb3,2021.2.3,MacIntel,59.97720866,6117aae89db1cfe1a7a339fa,6107d0959f7c4c3641818b95,611bdc3bdc33d27549ef896e,0.3307,
,,,,space,,0,25,25,279,1,K, , , , ,space,2500,2.5,6117aae89db1cfe1a7a339fa,001,2021-08-17_16h58.22.535,natb3,2021.2.3,MacIntel,59.97720866,6117aae89db1cfe1a7a339fa,6107d0959f7c4c3641818b95,611bdc3bdc33d27549ef896e,0.4707,
,,,,space,,0,26,26,269,1,A, , , , ,space,2500,2.5,6117aae89db1cfe1a7a339fa,001,2021-08-17_16h58.22.535,natb3,2021.2.3,MacIntel,59.97720866,6117aae89db1cfe1a7a339fa,6107d0959f7c4c3641818b95,611bdc3bdc33d27549ef896e,0.3972,
,,,,space,,0,27,27,71,1,R, , , , ,space,2500,2.5,6117aae89db1cfe1a7a339fa,001,2021-08-17_16h58.22.535,natb3,2021.2.3,MacIntel,59.97720866,6117aae89db1cfe1a7a339fa,6107d0959f7c4c3641818b95,611bdc3bdc33d27549ef896e,0.4909,
,,,,space,,0,28,28,185,1,Y, , , , ,space,2500,2.5,6117aae89db1cfe1a7a339fa,001,2021-08-17_16h58.22.535,natb3,2021.2.3,MacIntel,59.97720866,6117aae89db1cfe1a7a339fa,6107d0959f7c4c3641818b95,611bdc3bdc33d27549ef896e,0.4154,
,,,,space,,0,29,29,159,1,S, , , , ,space,2500,2.5,6117aae89db1cfe1a7a339fa,001,2021-08-17_16h58.22.535,natb3,2021.2.3,MacIntel,59.97720866,6117aae89db1cfe1a7a339fa,6107d0959f7c4c3641818b95,611bdc3bdc33d27549ef896e,0.4405,
,,,,space,,0,30,30,97,1,B, , , , ,space,2500,2.5,6117aae89db1cfe1a7a339fa,001,2021-08-17_16h58.22.535,natb3,2021.2.3,MacIntel,59.97720866,6117aae89db1cfe1a7a339fa,6107d0959f7c4c3641818b95,611bdc3bdc33d27549ef896e,0.3889,
,,,,space,,0,31,31,321,1,N, , , , ,space,2000,2,6117aae89db1cfe1a7a339fa,001,2021-08-17_16h58.22.535,natb3,2021.2.3,MacIntel,59.97720866,6117aae89db1cfe1a7a339fa,6107d0959f7c4c3641818b95,611bdc3bdc33d27549ef896e,0.4833,
,,,,space,,0,32,32,123,1,O, , , , ,space,1500,1.5,6117aae89db1cfe1a7a339fa,001,2021-08-17_16h58.22.535,natb3,2021.2.3,MacIntel,59.97720866,6117aae89db1cfe1a7a339fa,6107d0959f7c4c3641818b95,611bdc3bdc33d27549ef896e,0.4457,
,,,,space,,0,33,33,326,1,W, , , , ,space,2000,2,6117aae89db1cfe1a7a339fa,001,2021-08-17_16h58.22.535,natb3,2021.2.3,MacIntel,59.97720866,6117aae89db1cfe1a7a339fa,6107d0959f7c4c3641818b95,611bdc3bdc33d27549ef896e,0.4143,
,,,,space,,0,34,34,21,1,J, , , , ,space,1500,1.5,6117aae89db1cfe1a7a339fa,001,2021-08-17_16h58.22.535,natb3,2021.2.3,MacIntel,59.97720866,6117aae89db1cfe1a7a339fa,6107d0959f7c4c3641818b95,611bdc3bdc33d27549ef896e,0.3854,
,,,,space,,0,35,35,109,1,U, , , , ,space,1500,1.5,6117aae89db1cfe1a7a339fa,001,2021-08-17_16h58.22.535,natb3,2021.2.3,MacIntel,59.97720866,6117aae89db1cfe1a7a339fa,6107d0959f7c4c3641818b95,611bdc3bdc33d27549ef896e,0.3513,
,,,,space,,0,36,36,75,1,U, , , , ,space,1500,1.5,6117aae89db1cfe1a7a339fa,001,2021-08-17_16h58.22.535,natb3,2021.2.3,MacIntel,59.97720866,6117aae89db1cfe1a7a339fa,6107d0959f7c4c3641818b95,611bdc3bdc33d27549ef896e,0.3979,
,,,,space,,0,37,37,309,1,H, , , , ,space,2500,2.5,6117aae89db1cfe1a7a339fa,001,2021-08-17_16h58.22.535,natb3,2021.2.3,MacIntel,59.97720866,6117aae89db1cfe1a7a339fa,6107d0959f7c4c3641818b95,611bdc3bdc33d27549ef896e,0.4178,
,,,,space,,0,38,38,160,1,D, , , , ,space,1500,1.5,6117aae89db1cfe1a7a339fa,001,2021-08-17_16h58.22.535,natb3,2021.2.3,MacIntel,59.97720866,6117aae89db1cfe1a7a339fa,6107d0959f7c4c3641818b95,611bdc3bdc33d27549ef896e,0.5908,
,,,,,,0,39,39,252,1,X,3, ,6,9,,2000,2,6117aae89db1cfe1a7a339fa,001,2021-08-17_16h58.22.535,natb3,2021.2.3,MacIntel,59.97720866,6117aae89db1cfe1a7a339fa,6107d0959f7c4c3641818b95,611bdc3bdc33d27549ef896e,,
,,,,space,,0,40,40,261,1,T, , , , ,space,2000,2,6117aae89db1cfe1a7a339fa,001,2021-08-17_16h58.22.535,natb3,2021.2.3,MacIntel,59.97720866,6117aae89db1cfe1a7a339fa,6107d0959f7c4c3641818b95,611bdc3bdc33d27549ef896e,0.5257,
,,,,space,,0,41,41,320,1,B, , , , ,space,1500,1.5,6117aae89db1cfe1a7a339fa,001,2021-08-17_16h58.22.535,natb3,2021.2.3,MacIntel,59.97720866,6117aae89db1cfe1a7a339fa,6107d0959f7c4c3641818b95,611bdc3bdc33d27549ef896e,0.5887,
,,,,space,,0,42,42,12,1,X, , , , ,,1500,1.5,6117aae89db1cfe1a7a339fa,001,2021-08-17_16h58.22.535,natb3,2021.2.3,MacIntel,59.97720866,6117aae89db1cfe1a7a339fa,6107d0959f7c4c3641818b95,611bdc3bdc33d27549ef896e,0.3447,
,,,,space,,0,43,43,113,1,W, , , , ,space,2500,2.5,6117aae89db1cfe1a7a339fa,001,2021-08-17_16h58.22.535,natb3,2021.2.3,MacIntel,59.97720866,6117aae89db1cfe1a7a339fa,6107d0959f7c4c3641818b95,611bdc3bdc33d27549ef896e,0.6374,
,,,,,,0,44,44,102,1,X, ,6, , ,,1500,1.5,6117aae89db1cfe1a7a339fa,001,2021-08-17_16h58.22.535,natb3,2021.2.3,MacIntel,59.97720866,6117aae89db1cfe1a7a339fa,6107d0959f7c4c3641818b95,611bdc3bdc33d27549ef896e,,
,,,,,,0,45,45,255,1,X, , , , ,,1500,1.5,6117aae89db1cfe1a7a339fa,001,2021-08-17_16h58.22.535,natb3,2021.2.3,MacIntel,59.97720866,6117aae89db1cfe1a7a339fa,6107d0959f7c4c3641818b95,611bdc3bdc33d27549ef896e,,
,,,,space,,0,46,46,14,1,S, , , , ,space,2500,2.5,6117aae89db1cfe1a7a339fa,001,2021-08-17_16h58.22.535,natb3,2021.2.3,MacIntel,59.97720866,6117aae89db1cfe1a7a339fa,6107d0959f7c4c3641818b95,611bdc3bdc33d27549ef896e,0.5886,
,,,,,,0,47,47,129,1,X,2,3,5, ,,1500,1.5,6117aae89db1cfe1a7a339fa,001,2021-08-17_16h58.22.535,natb3,2021.2.3,MacIntel,59.97720866,6117aae89db1cfe1a7a339fa,6107d0959f7c4c3641818b95,611bdc3bdc33d27549ef896e,,
,,,,,,0,48,48,162,1,X,1,6, ,2,,1500,1.5,6117aae89db1cfe1a7a339fa,001,2021-08-17_16h58.22.535,natb3,2021.2.3,MacIntel,59.97720866,6117aae89db1cfe1a7a339fa,6107d0959f7c4c3641818b95,611bdc3bdc33d27549ef896e,,
,,,,space,,0,49,49,36,1,W, , , , ,space,2000,2,6117aae89db1cfe1a7a339fa,001,2021-08-17_16h58.22.535,natb3,2021.2.3,MacIntel,59.97720866,6117aae89db1cfe1a7a339fa,6107d0959f7c4c3641818b95,611bdc3bdc33d27549ef896e,0.5676,
,,,,space,,0,50,50,55,1,H, , , , ,space,2500,2.5,6117aae89db1cfe1a7a339fa,001,2021-08-17_16h58.22.535,natb3,2021.2.3,MacIntel,59.97720866,6117aae89db1cfe1a7a339fa,6107d0959f7c4c3641818b95,611bdc3bdc33d27549ef896e,0.4041,
,,,,,,0,51,51,248,1,X, ,1,5, ,,1500,1.5,6117aae89db1cfe1a7a339fa,001,2021-08-17_16h58.22.535,natb3,2021.2.3,MacIntel,59.97720866,6117aae89db1cfe1a7a339fa,6107d0959f7c4c3641818b95,611bdc3bdc33d27549ef896e,,
,,,,space,,0,52,52,38,1,R, , , , ,space,2500,2.5,6117aae89db1cfe1a7a339fa,001,2021-08-17_16h58.22.535,natb3,2021.2.3,MacIntel,59.97720866,6117aae89db1cfe1a7a339fa,6107d0959f7c4c3641818b95,611bdc3bdc33d27549ef896e,0.398,
,,,,space,,0,53,53,81,1,S, , , , ,space,2000,2,6117aae89db1cfe1a7a339fa,001,2021-08-17_16h58.22.535,natb3,2021.2.3,MacIntel,59.97720866,6117aae89db1cfe1a7a339fa,6107d0959f7c4c3641818b95,611bdc3bdc33d27549ef896e,0.5653,
,,,,space,,0,54,54,192,1,A, , , , ,space,2000,2,6117aae89db1cfe1a7a339fa,001,2021-08-17_16h58.22.535,natb3,2021.2.3,MacIntel,59.97720866,6117aae89db1cfe1a7a339fa,6107d0959f7c4c3641818b95,611bdc3bdc33d27549ef896e,0.5474,
,,,,space,,0,55,55,119,1,Y, , , , ,space,2500,2.5,6117aae89db1cfe1a7a339fa,001,2021-08-17_16h58.22.535,natb3,2021.2.3,MacIntel,59.97720866,6117aae89db1cfe1a7a339fa,6107d0959f7c4c3641818b95,611bdc3bdc33d27549ef896e,0.7872,
,,,,space,,0,56,56,139,1,V, , , , ,space,2000,2,6117aae89db1cfe1a7a339fa,001,2021-08-17_16h58.22.535,natb3,2021.2.3,MacIntel,59.97720866,6117aae89db1cfe1a7a339fa,6107d0959f7c4c3641818b95,611bdc3bdc33d27549ef896e,0.4692,
,,,,space,,0,57,57,234,1,P, , , , ,space,2000,2,6117aae89db1cfe1a7a339fa,001,2021-08-17_16h58.22.535,natb3,2021.2.3,MacIntel,59.97720866,6117aae89db1cfe1a7a339fa,6107d0959f7c4c3641818b95,611bdc3bdc33d27549ef896e,0.3767,
,,,,,,0,58,58,271,1,X, , , , ,,2500,2.5,6117aae89db1cfe1a7a339fa,001,2021-08-17_16h58.22.535,natb3,2021.2.3,MacIntel,59.97720866,6117aae89db1cfe1a7a339fa,6107d0959f7c4c3641818b95,611bdc3bdc33d27549ef896e,,
,,,,space,,0,59,59,127,1,S, , , , ,space,2500,2.5,6117aae89db1cfe1a7a339fa,001,2021-08-17_16h58.22.535,natb3,2021.2.3,MacIntel,59.97720866,6117aae89db1cfe1a7a339fa,6107d0959f7c4c3641818b95,611bdc3bdc33d27549ef896e,0.4697,
,,,,space,,0,60,60,293,1,R, , , , ,space,2500,2.5,6117aae89db1cfe1a7a339fa,001,2021-08-17_16h58.22.535,natb3,2021.2.3,MacIntel,59.97720866,6117aae89db1cfe1a7a339fa,6107d0959f7c4c3641818b95,611bdc3bdc33d27549ef896e,0.4662,
,,,,,,0,61,61,89,1,X,3, , , ,,2000,2,6117aae89db1cfe1a7a339fa,001,2021-08-17_16h58.22.535,natb3,2021.2.3,MacIntel,59.97720866,6117aae89db1cfe1a7a339fa,6107d0959f7c4c3641818b95,611bdc3bdc33d27549ef896e,,
,,,,,,0,62,62,78,1,X, , , , ,,2000,2,6117aae89db1cfe1a7a339fa,001,2021-08-17_16h58.22.535,natb3,2021.2.3,MacIntel,59.97720866,6117aae89db1cfe1a7a339fa,6107d0959f7c4c3641818b95,611bdc3bdc33d27549ef896e,,
,,,,space,,0,63,63,306,1,D, , , , ,space,2000,2,6117aae89db1cfe1a7a339fa,001,2021-08-17_16h58.22.535,natb3,2021.2.3,MacIntel,59.97720866,6117aae89db1cfe1a7a339fa,6107d0959f7c4c3641818b95,611bdc3bdc33d27549ef896e,0.4857,
,,,,space,,0,64,64,64,1,N, , , , ,space,2000,2,6117aae89db1cfe1a7a339fa,001,2021-08-17_16h58.22.535,natb3,2021.2.3,MacIntel,59.97720866,6117aae89db1cfe1a7a339fa,6107d0959f7c4c3641818b95,611bdc3bdc33d27549ef896e,0.6195,
,,,,space,,0,65,65,198,1,H, , , , ,space,2500,2.5,6117aae89db1cfe1a7a339fa,001,2021-08-17_16h58.22.535,natb3,2021.2.3,MacIntel,59.97720866,6117aae89db1cfe1a7a339fa,6107d0959f7c4c3641818b95,611bdc3bdc33d27549ef896e,0.4725,
,,,,space,,0,66,66,2,1,E, , , , ,space,2500,2.5,6117aae89db1cfe1a7a339fa,001,2021-08-17_16h58.22.535,natb3,2021.2.3,MacIntel,59.97720866,6117aae89db1cfe1a7a339fa,6107d0959f7c4c3641818b95,611bdc3bdc33d27549ef896e,0.569,
,,,,space,,0,67,67,194,1,D, , , , ,space,2000,2,6117aae89db1cfe1a7a339fa,001,2021-08-17_16h58.22.535,natb3,2021.2.3,MacIntel,59.97720866,6117aae89db1cfe1a7a339fa,6107d0959f7c4c3641818b95,611bdc3bdc33d27549ef896e,0.4717,
,,,,space,,0,68,68,126,1,A, , , , ,space,2500,2.5,6117aae89db1cfe1a7a339fa,001,2021-08-17_16h58.22.535,natb3,2021.2.3,MacIntel,59.97720866,6117aae89db1cfe1a7a339fa,6107d0959f7c4c3641818b95,611bdc3bdc33d27549ef896e,0.4511,
,,,,space,,0,69,69,16,1,D, , , , ,space,1500,1.5,6117aae89db1cfe1a7a339fa,001,2021-08-17_16h58.22.535,natb3,2021.2.3,MacIntel,59.97720866,6117aae89db1cfe1a7a339fa,6107d0959f7c4c3641818b95,611bdc3bdc33d27549ef896e,0.4554,
,,,,space,,0,70,70,120,1,U, , , , ,space,1500,1.5,6117aae89db1cfe1a7a339fa,001,2021-08-17_16h58.22.535,natb3,2021.2.3,MacIntel,59.97720866,6117aae89db1cfe1a7a339fa,6107d0959f7c4c3641818b95,611bdc3bdc33d27549ef896e,0.3975,
,,,,space,,0,71,71,217,1,T, , , , ,space,2500,2.5,6117aae89db1cfe1a7a339fa,001,2021-08-17_16h58.22.535,natb3,2021.2.3,MacIntel,59.97720866,6117aae89db1cfe1a7a339fa,6107d0959f7c4c3641818b95,611bdc3bdc33d27549ef896e,0.5685,
,,,,space,,0,72,72,40,1,T, , , , ,space,1500,1.5,6117aae89db1cfe1a7a339fa,001,2021-08-17_16h58.22.535,natb3,2021.2.3,MacIntel,59.97720866,6117aae89db1cfe1a7a339fa,6107d0959f7c4c3641818b95,611bdc3bdc33d27549ef896e,0.5621,
,,,,space,,0,73,73,132,1,H, , , , ,space,2500,2.5,6117aae89db1cfe1a7a339fa,001,2021-08-17_16h58.22.535,natb3,2021.2.3,MacIntel,59.97720866,6117aae89db1cfe1a7a339fa,6107d0959f7c4c3641818b95,611bdc3bdc33d27549ef896e,0.4035,
,,,,space,,0,74,74,30,1,N, , , , ,space,2500,2.5,6117aae89db1cfe1a7a339fa,001,2021-08-17_16h58.22.535,natb3,2021.2.3,MacIntel,59.97720866,6117aae89db1cfe1a7a339fa,6107d0959f7c4c3641818b95,611bdc3bdc33d27549ef896e,0.3396,
,,,,space,,0,75,75,256,1,Q, , , , ,space,2000,2,6117aae89db1cfe1a7a339fa,001,2021-08-17_16h58.22.535,natb3,2021.2.3,MacIntel,59.97720866,6117aae89db1cfe1a7a339fa,6107d0959f7c4c3641818b95,611bdc3bdc33d27549ef896e,0.3729,
,,,,space,,0,76,76,22,1,K, , , , ,space,2000,2,6117aae89db1cfe1a7a339fa,001,2021-08-17_16h58.22.535,natb3,2021.2.3,MacIntel,59.97720866,6117aae89db1cfe1a7a339fa,6107d0959f7c4c3641818b95,611bdc3bdc33d27549ef896e,0.3474,
,,,,space,,0,77,77,312,1,K, , , , ,space,2000,2,6117aae89db1cfe1a7a339fa,001,2021-08-17_16h58.22.535,natb3,2021.2.3,MacIntel,59.97720866,6117aae89db1cfe1a7a339fa,6107d0959f7c4c3641818b95,611bdc3bdc33d27549ef896e,0.5217,
,,,,space,,0,78,78,334,1,O, , , , ,space,1500,1.5,6117aae89db1cfe1a7a339fa,001,2021-08-17_16h58.22.535,natb3,2021.2.3,MacIntel,59.97720866,6117aae89db1cfe1a7a339fa,6107d0959f7c4c3641818b95,611bdc3bdc33d27549ef896e,0.5377,
,,,,,,0,79,79,273,1,X, , , , ,,2000,2,6117aae89db1cfe1a7a339fa,001,2021-08-17_16h58.22.535,natb3,2021.2.3,MacIntel,59.97720866,6117aae89db1cfe1a7a339fa,6107d0959f7c4c3641818b95,611bdc3bdc33d27549ef896e,,
,,,,space,,0,80,80,274,1,F, , , , ,space,2000,2,6117aae89db1cfe1a7a339fa,001,2021-08-17_16h58.22.535,natb3,2021.2.3,MacIntel,59.97720866,6117aae89db1cfe1a7a339fa,6107d0959f7c4c3641818b95,611bdc3bdc33d27549ef896e,0.575,
,,,,space,,0,81,81,244,1,J, , , , ,space,1500,1.5,6117aae89db1cfe1a7a339fa,001,2021-08-17_16h58.22.535,natb3,2021.2.3,MacIntel,59.97720866,6117aae89db1cfe1a7a339fa,6107d0959f7c4c3641818b95,611bdc3bdc33d27549ef896e,0.4836,
,,,,space,,0,82,82,190,1,P, , , , ,space,2000,2,6117aae89db1cfe1a7a339fa,001,2021-08-17_16h58.22.535,natb3,2021.2.3,MacIntel,59.97720866,6117aae89db1cfe1a7a339fa,6107d0959f7c4c3641818b95,611bdc3bdc33d27549ef896e,0.4153,
,,,,space,,0,83,83,100,1,M, , , , ,space,2000,2,6117aae89db1cfe1a7a339fa,001,2021-08-17_16h58.22.535,natb3,2021.2.3,MacIntel,59.97720866,6117aae89db1cfe1a7a339fa,6107d0959f7c4c3641818b95,611bdc3bdc33d27549ef896e,0.5109,
,,,,space,,0,84,84,143,1,M, , , , ,space,2500,2.5,6117aae89db1cfe1a7a339fa,001,2021-08-17_16h58.22.535,natb3,2021.2.3,MacIntel,59.97720866,6117aae89db1cfe1a7a339fa,6107d0959f7c4c3641818b95,611bdc3bdc33d27549ef896e,0.4128,
,,,,space,,0,85,85,186,1,U, , , , ,space,2500,2.5,6117aae89db1cfe1a7a339fa,001,2021-08-17_16h58.22.535,natb3,2021.2.3,MacIntel,59.97720866,6117aae89db1cfe1a7a339fa,6107d0959f7c4c3641818b95,611bdc3bdc33d27549ef896e,0.3685,
,,,,space,,0,86,86,216,1,R, , , , ,space,1500,1.5,6117aae89db1cfe1a7a339fa,001,2021-08-17_16h58.22.535,natb3,2021.2.3,MacIntel,59.97720866,6117aae89db1cfe1a7a339fa,6107d0959f7c4c3641818b95,611bdc3bdc33d27549ef896e,0.4093,
,,,,space,,0,87,87,101,1,Q, , , , ,space,2500,2.5,6117aae89db1cfe1a7a339fa,001,2021-08-17_16h58.22.535,natb3,2021.2.3,MacIntel,59.97720866,6117aae89db1cfe1a7a339fa,6107d0959f7c4c3641818b95,611bdc3bdc33d27549ef896e,0.3998,
,,,,space,,0,88,88,32,1,M, , , , ,space,1500,1.5,6117aae89db1cfe1a7a339fa,001,2021-08-17_16h58.22.535,natb3,2021.2.3,MacIntel,59.97720866,6117aae89db1cfe1a7a339fa,6107d0959f7c4c3641818b95,611bdc3bdc33d27549ef896e,0.3742,
,,,,space,,0,89,89,254,1,M, , , , ,space,1500,1.5,6117aae89db1cfe1a7a339fa,001,2021-08-17_16h58.22.535,natb3,2021.2.3,MacIntel,59.97720866,6117aae89db1cfe1a7a339fa,6107d0959f7c4c3641818b95,611bdc3bdc33d27549ef896e,0.4835,
,,,,space,,0,90,90,264,1,U, , , , ,space,2000,2,6117aae89db1cfe1a7a339fa,001,2021-08-17_16h58.22.535,natb3,2021.2.3,MacIntel,59.97720866,6117aae89db1cfe1a7a339fa,6107d0959f7c4c3641818b95,611bdc3bdc33d27549ef896e,0.3627,
,,,,space,,0,91,91,156,1,P, , , , ,space,1500,1.5,6117aae89db1cfe1a7a339fa,001,2021-08-17_16h58.22.535,natb3,2021.2.3,MacIntel,59.97720866,6117aae89db1cfe1a7a339fa,6107d0959f7c4c3641818b95,611bdc3bdc33d27549ef896e,0.442,
,,,,space,,0,92,92,301,1,P, , , , ,space,1500,1.5,6117aae89db1cfe1a7a339fa,001,2021-08-17_16h58.22.535,natb3,2021.2.3,MacIntel,59.97720866,6117aae89db1cfe1a7a339fa,6107d0959f7c4c3641818b95,611bdc3bdc33d27549ef896e,0.3532,
,,,,,,0,93,93,318,1,X, , , , ,,1500,1.5,6117aae89db1cfe1a7a339fa,001,2021-08-17_16h58.22.535,natb3,2021.2.3,MacIntel,59.97720866,6117aae89db1cfe1a7a339fa,6107d0959f7c4c3641818b95,611bdc3bdc33d27549ef896e,,
,,,,space,,0,94,94,202,1,L, , , , ,space,2500,2.5,6117aae89db1cfe1a7a339fa,001,2021-08-17_16h58.22.535,natb3,2021.2.3,MacIntel,59.97720866,6117aae89db1cfe1a7a339fa,6107d0959f7c4c3641818b95,611bdc3bdc33d27549ef896e,0.4984,
,,,,space,,0,95,95,142,1,N, , , , ,space,2500,2.5,6117aae89db1cfe1a7a339fa,001,2021-08-17_16h58.22.535,natb3,2021.2.3,MacIntel,59.97720866,6117aae89db1cfe1a7a339fa,6107d0959f7c4c3641818b95,611bdc3bdc33d27549ef896e,0.5454,
,,,,,,0,96,96,168,1,X, , , , ,,2500,2.5,6117aae89db1cfe1a7a339fa,001,2021-08-17_16h58.22.535,natb3,2021.2.3,MacIntel,59.97720866,6117aae89db1cfe1a7a339fa,6107d0959f7c4c3641818b95,611bdc3bdc33d27549ef896e,,
,,,,,,0,97,97,295,1,X,8,7,5, ,,2500,2.5,6117aae89db1cfe1a7a339fa,001,2021-08-17_16h58.22.535,natb3,2021.2.3,MacIntel,59.97720866,6117aae89db1cfe1a7a339fa,6107d0959f7c4c3641818b95,611bdc3bdc33d27549ef896e,,
,,,,space,,0,98,98,323,1,M, , , , ,space,2500,2.5,6117aae89db1cfe1a7a339fa,001,2021-08-17_16h58.22.535,natb3,2021.2.3,MacIntel,59.97720866,6117aae89db1cfe1a7a339fa,6107d0959f7c4c3641818b95,611bdc3bdc33d27549ef896e,0.4832,
,,,,space,,0,99,99,272,1,D, , , , ,space,2000,2,6117aae89db1cfe1a7a339fa,001,2021-08-17_16h58.22.535,natb3,2021.2.3,MacIntel,59.97720866,6117aae89db1cfe1a7a339fa,6107d0959f7c4c3641818b95,611bdc3bdc33d27549ef896e,0.499,
,,,,space,,0,100,100,226,1,R, , , , ,space,2000,2,6117aae89db1cfe1a7a339fa,001,2021-08-17_16h58.22.535,natb3,2021.2.3,MacIntel,59.97720866,6117aae89db1cfe1a7a339fa,6107d0959f7c4c3641818b95,611bdc3bdc33d27549ef896e,0.5459,
,,,,space,,0,101,101,183,1,R, , , , ,space,1500,1.5,6117aae89db1cfe1a7a339fa,001,2021-08-17_16h58.22.535,natb3,2021.2.3,MacIntel,59.97720866,6117aae89db1cfe1a7a339fa,6107d0959f7c4c3641818b95,611bdc3bdc33d27549ef896e,0.4876,
,,,,,,0,102,102,107,1,X,9,3, ,2,,2000,2,6117aae89db1cfe1a7a339fa,001,2021-08-17_16h58.22.535,natb3,2021.2.3,MacIntel,59.97720866,6117aae89db1cfe1a7a339fa,6107d0959f7c4c3641818b95,611bdc3bdc33d27549ef896e,,
,,,,space,,0,103,103,267,1,P, , , , ,space,2000,2,6117aae89db1cfe1a7a339fa,001,2021-08-17_16h58.22.535,natb3,2021.2.3,MacIntel,59.97720866,6117aae89db1cfe1a7a339fa,6107d0959f7c4c3641818b95,611bdc3bdc33d27549ef896e,0.6308,
,,,,space,,0,104,104,124,1,P, , , , ,space,2000,2,6117aae89db1cfe1a7a339fa,001,2021-08-17_16h58.22.535,natb3,2021.2.3,MacIntel,59.97720866,6117aae89db1cfe1a7a339fa,6107d0959f7c4c3641818b95,611bdc3bdc33d27549ef896e,0.3846,
,,,,,,0,105,105,329,1,X,3,4, ,2,,2500,2.5,6117aae89db1cfe1a7a339fa,001,2021-08-17_16h58.22.535,natb3,2021.2.3,MacIntel,59.97720866,6117aae89db1cfe1a7a339fa,6107d0959f7c4c3641818b95,611bdc3bdc33d27549ef896e,,
,,,,,,0,106,106,213,1,X, , , , ,,2500,2.5,6117aae89db1cfe1a7a339fa,001,2021-08-17_16h58.22.535,natb3,2021.2.3,MacIntel,59.97720866,6117aae89db1cfe1a7a339fa,6107d0959f7c4c3641818b95,611bdc3bdc33d27549ef896e,,
,,,,space,,0,107,107,310,1,J, , , , ,space,2500,2.5,6117aae89db1cfe1a7a339fa,001,2021-08-17_16h58.22.535,natb3,2021.2.3,MacIntel,59.97720866,6117aae89db1cfe1a7a339fa,6107d0959f7c4c3641818b95,611bdc3bdc33d27549ef896e,0.4767,
,,,,space,,0,108,108,291,1,X, , , , ,,2000,2,6117aae89db1cfe1a7a339fa,001,2021-08-17_16h58.22.535,natb3,2021.2.3,MacIntel,59.97720866,6117aae89db1cfe1a7a339fa,6107d0959f7c4c3641818b95,611bdc3bdc33d27549ef896e,0.4191,
,,,,space,,0,109,109,50,1,D, , , , ,space,1500,1.5,6117aae89db1cfe1a7a339fa,001,2021-08-17_16h58.22.535,natb3,2021.2.3,MacIntel,59.97720866,6117aae89db1cfe1a7a339fa,6107d0959f7c4c3641818b95,611bdc3bdc33d27549ef896e,0.5027,
,,,,space,,0,110,110,177,1,M, , , , ,space,2500,2.5,6117aae89db1cfe1a7a339fa,001,2021-08-17_16h58.22.535,natb3,2021.2.3,MacIntel,59.97720866,6117aae89db1cfe1a7a339fa,6107d0959f7c4c3641818b95,611bdc3bdc33d27549ef896e,0.5038,
,,,,,,0,111,111,93,1,X,5, ,7, ,,2500,2.5,6117aae89db1cfe1a7a339fa,001,2021-08-17_16h58.22.535,natb3,2021.2.3,MacIntel,59.97720866,6117aae89db1cfe1a7a339fa,6107d0959f7c4c3641818b95,611bdc3bdc33d27549ef896e,,
,,,,space,,0,112,112,199,1,J, , , , ,space,2500,2.5,6117aae89db1cfe1a7a339fa,001,2021-08-17_16h58.22.535,natb3,2021.2.3,MacIntel,59.97720866,6117aae89db1cfe1a7a339fa,6107d0959f7c4c3641818b95,611bdc3bdc33d27549ef896e,0.4232,
,,,,space,,0,113,113,135,1,K, , , , ,space,1500,1.5,6117aae89db1cfe1a7a339fa,001,2021-08-17_16h58.22.535,natb3,2021.2.3,MacIntel,59.97720866,6117aae89db1cfe1a7a339fa,6107d0959f7c4c3641818b95,611bdc3bdc33d27549ef896e,0.5683,
,,,,,,0,114,114,218,1,X,1,3, ,8,,1500,1.5,6117aae89db1cfe1a7a339fa,001,2021-08-17_16h58.22.535,natb3,2021.2.3,MacIntel,59.97720866,6117aae89db1cfe1a7a339fa,6107d0959f7c4c3641818b95,611bdc3bdc33d27549ef896e,,
,,,,space,,0,115,115,196,1,F, , , , ,space,1500,1.5,6117aae89db1cfe1a7a339fa,001,2021-08-17_16h58.22.535,natb3,2021.2.3,MacIntel,59.97720866,6117aae89db1cfe1a7a339fa,6107d0959f7c4c3641818b95,611bdc3bdc33d27549ef896e,0.4733,
,,,,space,,0,116,116,94,1,C, , , , ,space,2000,2,6117aae89db1cfe1a7a339fa,001,2021-08-17_16h58.22.535,natb3,2021.2.3,MacIntel,59.97720866,6117aae89db1cfe1a7a339fa,6107d0959f7c4c3641818b95,611bdc3bdc33d27549ef896e,0.4368,
,,,,,,0,117,117,125,1,X, , , , ,,2000,2,6117aae89db1cfe1a7a339fa,001,2021-08-17_16h58.22.535,natb3,2021.2.3,MacIntel,59.97720866,6117aae89db1cfe1a7a339fa,6107d0959f7c4c3641818b95,611bdc3bdc33d27549ef896e,,
,,,,space,,0,118,118,58,1,L, , , , ,space,2000,2,6117aae89db1cfe1a7a339fa,001,2021-08-17_16h58.22.535,natb3,2021.2.3,MacIntel,59.97720866,6117aae89db1cfe1a7a339fa,6107d0959f7c4c3641818b95,611bdc3bdc33d27549ef896e,0.5465,
,,,,,,0,119,119,287,1,X, ,2, ,9,,2000,2,6117aae89db1cfe1a7a339fa,001,2021-08-17_16h58.22.535,natb3,2021.2.3,MacIntel,59.97720866,6117aae89db1cfe1a7a339fa,6107d0959f7c4c3641818b95,611bdc3bdc33d27549ef896e,,
,,,,,,0,120,120,51,1,X,7,5,8, ,,1500,1.5,6117aae89db1cfe1a7a339fa,001,2021-08-17_16h58.22.535,natb3,2021.2.3,MacIntel,59.97720866,6117aae89db1cfe1a7a339fa,6107d0959f7c4c3641818b95,611bdc3bdc33d27549ef896e,,
,,,,,,0,121,121,211,1,X, , , , ,,2500,2.5,6117aae89db1cfe1a7a339fa,001,2021-08-17_16h58.22.535,natb3,2021.2.3,MacIntel,59.97720866,6117aae89db1cfe1a7a339fa,6107d0959f7c4c3641818b95,611bdc3bdc33d27549ef896e,,
,,,,space,,0,122,122,246,1,L, , , , ,space,2500,2.5,6117aae89db1cfe1a7a339fa,001,2021-08-17_16h58.22.535,natb3,2021.2.3,MacIntel,59.97720866,6117aae89db1cfe1a7a339fa,6107d0959f7c4c3641818b95,611bdc3bdc33d27549ef896e,0.5152,
,,,,,,0,123,123,236,1,X,3, ,4,7,,2500,2.5,6117aae89db1cfe1a7a339fa,001,2021-08-17_16h58.22.535,natb3,2021.2.3,MacIntel,59.97720866,6117aae89db1cfe1a7a339fa,6107d0959f7c4c3641818b95,611bdc3bdc33d27549ef896e,,
,,,,space,,0,124,124,6,1,Y, , , , ,space,2500,2.5,6117aae89db1cfe1a7a339fa,001,2021-08-17_16h58.22.535,natb3,2021.2.3,MacIntel,59.97720866,6117aae89db1cfe1a7a339fa,6107d0959f7c4c3641818b95,611bdc3bdc33d27549ef896e,0.6728,
,,,,space,,0,125,125,24,1,L, , , , ,space,2500,2.5,6117aae89db1cfe1a7a339fa,001,2021-08-17_16h58.22.535,natb3,2021.2.3,MacIntel,59.97720866,6117aae89db1cfe1a7a339fa,6107d0959f7c4c3641818b95,611bdc3bdc33d27549ef896e,0.6549,
,,,,space,,0,126,126,193,1,S, , , , ,space,2500,2.5,6117aae89db1cfe1a7a339fa,001,2021-08-17_16h58.22.535,natb3,2021.2.3,MacIntel,59.97720866,6117aae89db1cfe1a7a339fa,6107d0959f7c4c3641818b95,611bdc3bdc33d27549ef896e,0.5172,
,,,,,,0,127,127,7,1,X, , , , ,,1500,1.5,6117aae89db1cfe1a7a339fa,001,2021-08-17_16h58.22.535,natb3,2021.2.3,MacIntel,59.97720866,6117aae89db1cfe1a7a339fa,6107d0959f7c4c3641818b95,611bdc3bdc33d27549ef896e,,
,,,,space,,0,128,128,72,1,T, , , , ,space,1500,1.5,6117aae89db1cfe1a7a339fa,001,2021-08-17_16h58.22.535,natb3,2021.2.3,MacIntel,59.97720866,6117aae89db1cfe1a7a339fa,6107d0959f7c4c3641818b95,611bdc3bdc33d27549ef896e,0.5862,
,,,,,,0,129,129,179,1,X, ,9, ,2,,1500,1.5,6117aae89db1cfe1a7a339fa,001,2021-08-17_16h58.22.535,natb3,2021.2.3,MacIntel,59.97720866,6117aae89db1cfe1a7a339fa,6107d0959f7c4c3641818b95,611bdc3bdc33d27549ef896e,,
,,,,space,,0,130,130,10,1,O, , , , ,space,2000,2,6117aae89db1cfe1a7a339fa,001,2021-08-17_16h58.22.535,natb3,2021.2.3,MacIntel,59.97720866,6117aae89db1cfe1a7a339fa,6107d0959f7c4c3641818b95,611bdc3bdc33d27549ef896e,0.4862,
,,,,space,,0,131,131,88,1,J, , , , ,space,2500,2.5,6117aae89db1cfe1a7a339fa,001,2021-08-17_16h58.22.535,natb3,2021.2.3,MacIntel,59.97720866,6117aae89db1cfe1a7a339fa,6107d0959f7c4c3641818b95,611bdc3bdc33d27549ef896e,0.5363,
,,,,space,,0,132,132,205,1,C, , , , ,space,2000,2,6117aae89db1cfe1a7a339fa,001,2021-08-17_16h58.22.535,natb3,2021.2.3,MacIntel,59.97720866,6117aae89db1cfe1a7a339fa,6107d0959f7c4c3641818b95,611bdc3bdc33d27549ef896e,0.4122,
,,,,,,0,133,133,283,1,C, , , , ,space,1500,1.5,6117aae89db1cfe1a7a339fa,001,2021-08-17_16h58.22.535,natb3,2021.2.3,MacIntel,59.97720866,6117aae89db1cfe1a7a339fa,6107d0959f7c4c3641818b95,611bdc3bdc33d27549ef896e,,
,,,,space,,0,134,134,276,1,H, , , , ,space,2000,2,6117aae89db1cfe1a7a339fa,001,2021-08-17_16h58.22.535,natb3,2021.2.3,MacIntel,59.97720866,6117aae89db1cfe1a7a339fa,6107d0959f7c4c3641818b95,611bdc3bdc33d27549ef896e,0.3963,
,,,,,,0,135,135,90,1,K, , , , ,space,2000,2,6117aae89db1cfe1a7a339fa,001,2021-08-17_16h58.22.535,natb3,2021.2.3,MacIntel,59.97720866,6117aae89db1cfe1a7a339fa,6107d0959f7c4c3641818b95,611bdc3bdc33d27549ef896e,,
,,,,,,0,136,136,277,1,X,8,5, ,2,,2000,2,6117aae89db1cfe1a7a339fa,001,2021-08-17_16h58.22.535,natb3,2021.2.3,MacIntel,59.97720866,6117aae89db1cfe1a7a339fa,6107d0959f7c4c3641818b95,611bdc3bdc33d27549ef896e,,
,,,,,,0,137,137,207,1,X,9, ,2, ,,2500,2.5,6117aae89db1cfe1a7a339fa,001,2021-08-17_16h58.22.535,natb3,2021.2.3,MacIntel,59.97720866,6117aae89db1cfe1a7a339fa,6107d0959f7c4c3641818b95,611bdc3bdc33d27549ef896e,,
,,,,space,,0,138,138,136,1,Z, , , , ,space,2500,2.5,6117aae89db1cfe1a7a339fa,001,2021-08-17_16h58.22.535,natb3,2021.2.3,MacIntel,59.97720866,6117aae89db1cfe1a7a339fa,6107d0959f7c4c3641818b95,611bdc3bdc33d27549ef896e,0.744,
,,,,space,,0,139,139,332,1,U, , , , ,space,2000,2,6117aae89db1cfe1a7a339fa,001,2021-08-17_16h58.22.535,natb3,2021.2.3,MacIntel,59.97720866,6117aae89db1cfe1a7a339fa,6107d0959f7c4c3641818b95,611bdc3bdc33d27549ef896e,0.5113,
,,,,space,,0,140,140,223,1,Q, , , , ,space,2000,2,6117aae89db1cfe1a7a339fa,001,2021-08-17_16h58.22.535,natb3,2021.2.3,MacIntel,59.97720866,6117aae89db1cfe1a7a339fa,6107d0959f7c4c3641818b95,611bdc3bdc33d27549ef896e,0.4216,
,,,,space,,0,141,141,296,1,Y, , , , ,space,2500,2.5,6117aae89db1cfe1a7a339fa,001,2021-08-17_16h58.22.535,natb3,2021.2.3,MacIntel,59.97720866,6117aae89db1cfe1a7a339fa,6107d0959f7c4c3641818b95,611bdc3bdc33d27549ef896e,0.4525,
,,,,space,,0,142,142,144,1,Q, , , , ,space,2500,2.5,6117aae89db1cfe1a7a339fa,001,2021-08-17_16h58.22.535,natb3,2021.2.3,MacIntel,59.97720866,6117aae89db1cfe1a7a339fa,6107d0959f7c4c3641818b95,611bdc3bdc33d27549ef896e,0.4288,
,,,,space,,0,143,143,307,1,F, , , , ,space,2500,2.5,6117aae89db1cfe1a7a339fa,001,2021-08-17_16h58.22.535,natb3,2021.2.3,MacIntel,59.97720866,6117aae89db1cfe1a7a339fa,6107d0959f7c4c3641818b95,611bdc3bdc33d27549ef896e,0.3569,
,,,,space,,0,144,144,151,1,Y, , , , ,space,2500,2.5,6117aae89db1cfe1a7a339fa,001,2021-08-17_16h58.22.535,natb3,2021.2.3,MacIntel,59.97720866,6117aae89db1cfe1a7a339fa,6107d0959f7c4c3641818b95,611bdc3bdc33d27549ef896e,0.4021,
,,,,space,,0,145,145,222,1,O, , , , ,space,2000,2,6117aae89db1cfe1a7a339fa,001,2021-08-17_16h58.22.535,natb3,2021.2.3,MacIntel,59.97720866,6117aae89db1cfe1a7a339fa,6107d0959f7c4c3641818b95,611bdc3bdc33d27549ef896e,0.4715,
,,,,space,,0,146,146,206,1,V, , , , ,space,2000,2,6117aae89db1cfe1a7a339fa,001,2021-08-17_16h58.22.535,natb3,2021.2.3,MacIntel,59.97720866,6117aae89db1cfe1a7a339fa,6107d0959f7c4c3641818b95,611bdc3bdc33d27549ef896e,0.4142,
,,,,space,,0,147,147,278,1,J, , , , ,space,2000,2,6117aae89db1cfe1a7a339fa,001,2021-08-17_16h58.22.535,natb3,2021.2.3,MacIntel,59.97720866,6117aae89db1cfe1a7a339fa,6107d0959f7c4c3641818b95,611bdc3bdc33d27549ef896e,0.4044,
,,,,,,0,148,148,133,1,X, ,4, ,6,,2500,2.5,6117aae89db1cfe1a7a339fa,001,2021-08-17_16h58.22.535,natb3,2021.2.3,MacIntel,59.97720866,6117aae89db1cfe1a7a339fa,6107d0959f7c4c3641818b95,611bdc3bdc33d27549ef896e,,
,,,,space,,0,149,149,77,1,O, , , , ,space,2000,2,6117aae89db1cfe1a7a339fa,001,2021-08-17_16h58.22.535,natb3,2021.2.3,MacIntel,59.97720866,6117aae89db1cfe1a7a339fa,6107d0959f7c4c3641818b95,611bdc3bdc33d27549ef896e,0.5948,
,,,,space,,0,150,150,57,1,K, , , , ,space,2500,2.5,6117aae89db1cfe1a7a339fa,001,2021-08-17_16h58.22.535,natb3,2021.2.3,MacIntel,59.97720866,6117aae89db1cfe1a7a339fa,6107d0959f7c4c3641818b95,611bdc3bdc33d27549ef896e,0.4398,
,,,,space,,0,151,151,184,1,T, , , , ,space,2000,2,6117aae89db1cfe1a7a339fa,001,2021-08-17_16h58.22.535,natb3,2021.2.3,MacIntel,59.97720866,6117aae89db1cfe1a7a339fa,6107d0959f7c4c3641818b95,611bdc3bdc33d27549ef896e,0.4196,
,,,,space,,0,152,152,219,1,Y, , , , ,space,2000,2,6117aae89db1cfe1a7a339fa,001,2021-08-17_16h58.22.535,natb3,2021.2.3,MacIntel,59.97720866,6117aae89db1cfe1a7a339fa,6107d0959f7c4c3641818b95,611bdc3bdc33d27549ef896e,0.5014,
,,,,space,,0,153,153,314,1,L, , , , ,space,1500,1.5,6117aae89db1cfe1a7a339fa,001,2021-08-17_16h58.22.535,natb3,2021.2.3,MacIntel,59.97720866,6117aae89db1cfe1a7a339fa,6107d0959f7c4c3641818b95,611bdc3bdc33d27549ef896e,0.4744,
,,,,,,0,154,154,35,1,X, , , , ,,2500,2.5,6117aae89db1cfe1a7a339fa,001,2021-08-17_16h58.22.535,natb3,2021.2.3,MacIntel,59.97720866,6117aae89db1cfe1a7a339fa,6107d0959f7c4c3641818b95,611bdc3bdc33d27549ef896e,,
,,,,,,0,155,155,200,1,X,7, ,5,3,,1500,1.5,6117aae89db1cfe1a7a339fa,001,2021-08-17_16h58.22.535,natb3,2021.2.3,MacIntel,59.97720866,6117aae89db1cfe1a7a339fa,6107d0959f7c4c3641818b95,611bdc3bdc33d27549ef896e,,
,,,,space,,0,156,156,20,1,H, , , , ,space,1500,1.5,6117aae89db1cfe1a7a339fa,001,2021-08-17_16h58.22.535,natb3,2021.2.3,MacIntel,59.97720866,6117aae89db1cfe1a7a339fa,6107d0959f7c4c3641818b95,611bdc3bdc33d27549ef896e,0.6878,
,,,,space,,0,157,157,157,1,A, , , , ,space,2500,2.5,6117aae89db1cfe1a7a339fa,001,2021-08-17_16h58.22.535,natb3,2021.2.3,MacIntel,59.97720866,6117aae89db1cfe1a7a339fa,6107d0959f7c4c3641818b95,611bdc3bdc33d27549ef896e,0.4938,
,,,,space,,0,158,158,275,1,G, , , , ,space,1500,1.5,6117aae89db1cfe1a7a339fa,001,2021-08-17_16h58.22.535,natb3,2021.2.3,MacIntel,59.97720866,6117aae89db1cfe1a7a339fa,6107d0959f7c4c3641818b95,611bdc3bdc33d27549ef896e,0.5047,
,,,,space,,0,159,159,304,1,S, , , , ,space,2000,2,6117aae89db1cfe1a7a339fa,001,2021-08-17_16h58.22.535,natb3,2021.2.3,MacIntel,59.97720866,6117aae89db1cfe1a7a339fa,6107d0959f7c4c3641818b95,611bdc3bdc33d27549ef896e,0.4612,
,,,,space,,0,160,160,286,1,N, , , , ,space,1500,1.5,6117aae89db1cfe1a7a339fa,001,2021-08-17_16h58.22.535,natb3,2021.2.3,MacIntel,59.97720866,6117aae89db1cfe1a7a339fa,6107d0959f7c4c3641818b95,611bdc3bdc33d27549ef896e,0.4899,
,,,,space,,0,161,161,303,1,A, , , , ,space,2000,2,6117aae89db1cfe1a7a339fa,001,2021-08-17_16h58.22.535,natb3,2021.2.3,MacIntel,59.97720866,6117aae89db1cfe1a7a339fa,6107d0959f7c4c3641818b95,611bdc3bdc33d27549ef896e,0.4853,
,,,,space,,0,162,162,204,1,Z, , , , ,space,2000,2,6117aae89db1cfe1a7a339fa,001,2021-08-17_16h58.22.535,natb3,2021.2.3,MacIntel,59.97720866,6117aae89db1cfe1a7a339fa,6107d0959f7c4c3641818b95,611bdc3bdc33d27549ef896e,0.5538,
,,,,space,,0,163,163,34,1,Q, , , , ,space,2500,2.5,6117aae89db1cfe1a7a339fa,001,2021-08-17_16h58.22.535,natb3,2021.2.3,MacIntel,59.97720866,6117aae89db1cfe1a7a339fa,6107d0959f7c4c3641818b95,611bdc3bdc33d27549ef896e,0.7272,
,,,,space,,0,164,164,316,1,Z, , , , ,space,1500,1.5,6117aae89db1cfe1a7a339fa,001,2021-08-17_16h58.22.535,natb3,2021.2.3,MacIntel,59.97720866,6117aae89db1cfe1a7a339fa,6107d0959f7c4c3641818b95,611bdc3bdc33d27549ef896e,0.5052,
,,,,space,,0,165,165,280,1,L, , , , ,space,1500,1.5,6117aae89db1cfe1a7a339fa,001,2021-08-17_16h58.22.535,natb3,2021.2.3,MacIntel,59.97720866,6117aae89db1cfe1a7a339fa,6107d0959f7c4c3641818b95,611bdc3bdc33d27549ef896e,0.6748,
,,,,space,,0,166,166,249,1,C, , , , ,space,2000,2,6117aae89db1cfe1a7a339fa,001,2021-08-17_16h58.22.535,natb3,2021.2.3,MacIntel,59.97720866,6117aae89db1cfe1a7a339fa,6107d0959f7c4c3641818b95,611bdc3bdc33d27549ef896e,0.5422,
,,,,space,space,0,167,167,155,1,O, , , , ,space,1500,1.5,6117aae89db1cfe1a7a339fa,001,2021-08-17_16h58.22.535,natb3,2021.2.3,MacIntel,59.97720866,6117aae89db1cfe1a7a339fa,6107d0959f7c4c3641818b95,611bdc3bdc33d27549ef896e,0.5145,42.2156
,,,,,,0,168,168,106,1,T, , , , ,space,1500,1.5,6117aae89db1cfe1a7a339fa,001,2021-08-17_16h58.22.535,natb3,2021.2.3,MacIntel,59.97720866,6117aae89db1cfe1a7a339fa,6107d0959f7c4c3641818b95,611bdc3bdc33d27549ef896e,,
,,,,space,,0,169,169,5,1,T, , , , ,space,2000,2,6117aae89db1cfe1a7a339fa,001,2021-08-17_16h58.22.535,natb3,2021.2.3,MacIntel,59.97720866,6117aae89db1cfe1a7a339fa,6107d0959f7c4c3641818b95,611bdc3bdc33d27549ef896e,0.3593,
,,,,,,0,170,170,69,1,X, , , , ,,1500,1.5,6117aae89db1cfe1a7a339fa,001,2021-08-17_16h58.22.535,natb3,2021.2.3,MacIntel,59.97720866,6117aae89db1cfe1a7a339fa,6107d0959f7c4c3641818b95,611bdc3bdc33d27549ef896e,,
,,,,,,0,171,171,43,1,X, ,6, ,2,,2500,2.5,6117aae89db1cfe1a7a339fa,001,2021-08-17_16h58.22.535,natb3,2021.2.3,MacIntel,59.97720866,6117aae89db1cfe1a7a339fa,6107d0959f7c4c3641818b95,611bdc3bdc33d27549ef896e,,
,,,,,,0,172,172,175,1,X,7, ,4,2,,1500,1.5,6117aae89db1cfe1a7a339fa,001,2021-08-17_16h58.22.535,natb3,2021.2.3,MacIntel,59.97720866,6117aae89db1cfe1a7a339fa,6107d0959f7c4c3641818b95,611bdc3bdc33d27549ef896e,,
,,,,space,,0,173,173,208,1,B, , , , ,space,1500,1.5,6117aae89db1cfe1a7a339fa,001,2021-08-17_16h58.22.535,natb3,2021.2.3,MacIntel,59.97720866,6117aae89db1cfe1a7a339fa,6107d0959f7c4c3641818b95,611bdc3bdc33d27549ef896e,0.4493,
,,,,space,,0,174,174,176,1,N, , , , ,space,1500,1.5,6117aae89db1cfe1a7a339fa,001,2021-08-17_16h58.22.535,natb3,2021.2.3,MacIntel,59.97720866,6117aae89db1cfe1a7a339fa,6107d0959f7c4c3641818b95,611bdc3bdc33d27549ef896e,0.5819,
,,,,space,,0,175,175,17,1,F, , , , ,space,2500,2.5,6117aae89db1cfe1a7a339fa,001,2021-08-17_16h58.22.535,natb3,2021.2.3,MacIntel,59.97720866,6117aae89db1cfe1a7a339fa,6107d0959f7c4c3641818b95,611bdc3bdc33d27549ef896e,0.3208,
,,,,space,,0,176,176,288,1,M, , , , ,space,1500,1.5,6117aae89db1cfe1a7a339fa,001,2021-08-17_16h58.22.535,natb3,2021.2.3,MacIntel,59.97720866,6117aae89db1cfe1a7a339fa,6107d0959f7c4c3641818b95,611bdc3bdc33d27549ef896e,0.4234,
,,,,space,,0,177,177,63,1,B, , , , ,space,2000,2,6117aae89db1cfe1a7a339fa,001,2021-08-17_16h58.22.535,natb3,2021.2.3,MacIntel,59.97720866,6117aae89db1cfe1a7a339fa,6107d0959f7c4c3641818b95,611bdc3bdc33d27549ef896e,0.4648,
,,,,,,0,178,178,299,1,X, , , , ,,2500,2.5,6117aae89db1cfe1a7a339fa,001,2021-08-17_16h58.22.535,natb3,2021.2.3,MacIntel,59.97720866,6117aae89db1cfe1a7a339fa,6107d0959f7c4c3641818b95,611bdc3bdc33d27549ef896e,,
,,,,space,,0,179,179,324,1,Q, , , , ,space,2000,2,6117aae89db1cfe1a7a339fa,001,2021-08-17_16h58.22.535,natb3,2021.2.3,MacIntel,59.97720866,6117aae89db1cfe1a7a339fa,6107d0959f7c4c3641818b95,611bdc3bdc33d27549ef896e,0.4931,
,,,,,,0,180,180,66,1,X, ,4,7, ,,2000,2,6117aae89db1cfe1a7a339fa,001,2021-08-17_16h58.22.535,natb3,2021.2.3,MacIntel,59.97720866,6117aae89db1cfe1a7a339fa,6107d0959f7c4c3641818b95,611bdc3bdc33d27549ef896e,,
,,,,space,,0,181,181,330,1,T, , , , ,space,2500,2.5,6117aae89db1cfe1a7a339fa,001,2021-08-17_16h58.22.535,natb3,2021.2.3,MacIntel,59.97720866,6117aae89db1cfe1a7a339fa,6107d0959f7c4c3641818b95,611bdc3bdc33d27549ef896e,0.4405,
,,,,,,0,182,182,18,1,X, ,2,5,8,,2500,2.5,6117aae89db1cfe1a7a339fa,001,2021-08-17_16h58.22.535,natb3,2021.2.3,MacIntel,59.97720866,6117aae89db1cfe1a7a339fa,6107d0959f7c4c3641818b95,611bdc3bdc33d27549ef896e,,
,,,,space,,0,183,183,224,1,W, , , , ,space,1500,1.5,6117aae89db1cfe1a7a339fa,001,2021-08-17_16h58.22.535,natb3,2021.2.3,MacIntel,59.97720866,6117aae89db1cfe1a7a339fa,6107d0959f7c4c3641818b95,611bdc3bdc33d27549ef896e,0.4639,
,,,,,,0,184,184,229,1,X,8, ,2,6,,2500,2.5,6117aae89db1cfe1a7a339fa,001,2021-08-17_16h58.22.535,natb3,2021.2.3,MacIntel,59.97720866,6117aae89db1cfe1a7a339fa,6107d0959f7c4c3641818b95,611bdc3bdc33d27549ef896e,,
,,,,space,,0,185,185,104,1,E, , , , ,space,2000,2,6117aae89db1cfe1a7a339fa,001,2021-08-17_16h58.22.535,natb3,2021.2.3,MacIntel,59.97720866,6117aae89db1cfe1a7a339fa,6107d0959f7c4c3641818b95,611bdc3bdc33d27549ef896e,0.8934,
,,,,space,,0,186,186,37,1,E, , , , ,space,2500,2.5,6117aae89db1cfe1a7a339fa,001,2021-08-17_16h58.22.535,natb3,2021.2.3,MacIntel,59.97720866,6117aae89db1cfe1a7a339fa,6107d0959f7c4c3641818b95,611bdc3bdc33d27549ef896e,0.5701,
,,,,space,,0,187,187,137,1,C, , , , ,space,2500,2.5,6117aae89db1cfe1a7a339fa,001,2021-08-17_16h58.22.535,natb3,2021.2.3,MacIntel,59.97720866,6117aae89db1cfe1a7a339fa,6107d0959f7c4c3641818b95,611bdc3bdc33d27549ef896e,0.4283,
,,,,space,,0,188,188,241,1,G, , , , ,space,2500,2.5,6117aae89db1cfe1a7a339fa,001,2021-08-17_16h58.22.535,natb3,2021.2.3,MacIntel,59.97720866,6117aae89db1cfe1a7a339fa,6107d0959f7c4c3641818b95,611bdc3bdc33d27549ef896e,0.3641,
,,,,space,,0,189,189,188,1,I, , , , ,space,2500,2.5,6117aae89db1cfe1a7a339fa,001,2021-08-17_16h58.22.535,natb3,2021.2.3,MacIntel,59.97720866,6117aae89db1cfe1a7a339fa,6107d0959f7c4c3641818b95,611bdc3bdc33d27549ef896e,0.4416,
,,,,space,,0,190,190,56,1,J, , , , ,space,1500,1.5,6117aae89db1cfe1a7a339fa,001,2021-08-17_16h58.22.535,natb3,2021.2.3,MacIntel,59.97720866,6117aae89db1cfe1a7a339fa,6107d0959f7c4c3641818b95,611bdc3bdc33d27549ef896e,0.681,
,,,,space,,0,191,191,298,1,I, , , , ,space,2000,2,6117aae89db1cfe1a7a339fa,001,2021-08-17_16h58.22.535,natb3,2021.2.3,MacIntel,59.97720866,6117aae89db1cfe1a7a339fa,6107d0959f7c4c3641818b95,611bdc3bdc33d27549ef896e,0.4297,
,,,,,,0,192,192,141,1,X,1, ,4,6,,1500,1.5,6117aae89db1cfe1a7a339fa,001,2021-08-17_16h58.22.535,natb3,2021.2.3,MacIntel,59.97720866,6117aae89db1cfe1a7a339fa,6107d0959f7c4c3641818b95,611bdc3bdc33d27549ef896e,,
,,,,space,,0,193,193,65,1,M, , , , ,space,1500,1.5,6117aae89db1cfe1a7a339fa,001,2021-08-17_16h58.22.535,natb3,2021.2.3,MacIntel,59.97720866,6117aae89db1cfe1a7a339fa,6107d0959f7c4c3641818b95,611bdc3bdc33d27549ef896e,0.5342,
,,,,space,,0,194,194,265,1,I, , , , ,space,2000,2,6117aae89db1cfe1a7a339fa,001,2021-08-17_16h58.22.535,natb3,2021.2.3,MacIntel,59.97720866,6117aae89db1cfe1a7a339fa,6107d0959f7c4c3641818b95,611bdc3bdc33d27549ef896e,0.6944,
,,,,,,0,195,195,27,1,X,5, ,1,3,,1500,1.5,6117aae89db1cfe1a7a339fa,001,2021-08-17_16h58.22.535,natb3,2021.2.3,MacIntel,59.97720866,6117aae89db1cfe1a7a339fa,6107d0959f7c4c3641818b95,611bdc3bdc33d27549ef896e,,
,,,,,,0,196,196,86,1,G, , , , ,space,2000,2,6117aae89db1cfe1a7a339fa,001,2021-08-17_16h58.22.535,natb3,2021.2.3,MacIntel,59.97720866,6117aae89db1cfe1a7a339fa,6107d0959f7c4c3641818b95,611bdc3bdc33d27549ef896e,,
,,,,space,,0,197,197,1,1,W, , , , ,space,2000,2,6117aae89db1cfe1a7a339fa,001,2021-08-17_16h58.22.535,natb3,2021.2.3,MacIntel,59.97720866,6117aae89db1cfe1a7a339fa,6107d0959f7c4c3641818b95,611bdc3bdc33d27549ef896e,0.4355,
,,,,space,,0,198,198,110,1,I, , , , ,space,1500,1.5,6117aae89db1cfe1a7a339fa,001,2021-08-17_16h58.22.535,natb3,2021.2.3,MacIntel,59.97720866,6117aae89db1cfe1a7a339fa,6107d0959f7c4c3641818b95,611bdc3bdc33d27549ef896e,0.664,
,,,,space,,0,199,199,138,1,X,8,5, ,3,,2000,2,6117aae89db1cfe1a7a339fa,001,2021-08-17_16h58.22.535,natb3,2021.2.3,MacIntel,59.97720866,6117aae89db1cfe1a7a339fa,6107d0959f7c4c3641818b95,611bdc3bdc33d27549ef896e,0.3253,
,,,,,,0,200,200,145,1,X, , , , ,,2000,2,6117aae89db1cfe1a7a339fa,001,2021-08-17_16h58.22.535,natb3,2021.2.3,MacIntel,59.97720866,6117aae89db1cfe1a7a339fa,6107d0959f7c4c3641818b95,611bdc3bdc33d27549ef896e,,
,,,,space,,0,201,201,170,1,Z, , , , ,space,2000,2,6117aae89db1cfe1a7a339fa,001,2021-08-17_16h58.22.535,natb3,2021.2.3,MacIntel,59.97720866,6117aae89db1cfe1a7a339fa,6107d0959f7c4c3641818b95,611bdc3bdc33d27549ef896e,0.5033,
,,,,,,0,202,202,182,1,X, , , , ,,1500,1.5,6117aae89db1cfe1a7a339fa,001,2021-08-17_16h58.22.535,natb3,2021.2.3,MacIntel,59.97720866,6117aae89db1cfe1a7a339fa,6107d0959f7c4c3641818b95,611bdc3bdc33d27549ef896e,,
,,,,,,0,203,203,325,1,X, , , , ,,2500,2.5,6117aae89db1cfe1a7a339fa,001,2021-08-17_16h58.22.535,natb3,2021.2.3,MacIntel,59.97720866,6117aae89db1cfe1a7a339fa,6107d0959f7c4c3641818b95,611bdc3bdc33d27549ef896e,,
,,,,space,,0,204,204,238,1,D, , , , ,space,1500,1.5,6117aae89db1cfe1a7a339fa,001,2021-08-17_16h58.22.535,natb3,2021.2.3,MacIntel,59.97720866,6117aae89db1cfe1a7a339fa,6107d0959f7c4c3641818b95,611bdc3bdc33d27549ef896e,0.6312,
,,,,space,,0,205,205,231,1,I, , , , ,space,2500,2.5,6117aae89db1cfe1a7a339fa,001,2021-08-17_16h58.22.535,natb3,2021.2.3,MacIntel,59.97720866,6117aae89db1cfe1a7a339fa,6107d0959f7c4c3641818b95,611bdc3bdc33d27549ef896e,0.6605,
,,,,space,,0,206,206,214,1,W, , , , ,space,2000,2,6117aae89db1cfe1a7a339fa,001,2021-08-17_16h58.22.535,natb3,2021.2.3,MacIntel,59.97720866,6117aae89db1cfe1a7a339fa,6107d0959f7c4c3641818b95,611bdc3bdc33d27549ef896e,0.7148,
,,,,space,,0,207,207,242,1,H, , , , ,space,2500,2.5,6117aae89db1cfe1a7a339fa,001,2021-08-17_16h58.22.535,natb3,2021.2.3,MacIntel,59.97720866,6117aae89db1cfe1a7a339fa,6107d0959f7c4c3641818b95,611bdc3bdc33d27549ef896e,0.8375,
,,,,space,,0,208,208,29,1,B, , , , ,space,1500,1.5,6117aae89db1cfe1a7a339fa,001,2021-08-17_16h58.22.535,natb3,2021.2.3,MacIntel,59.97720866,6117aae89db1cfe1a7a339fa,6107d0959f7c4c3641818b95,611bdc3bdc33d27549ef896e,0.4809,
,,,,space,,0,209,209,8,1,U, , , , ,space,1500,1.5,6117aae89db1cfe1a7a339fa,001,2021-08-17_16h58.22.535,natb3,2021.2.3,MacIntel,59.97720866,6117aae89db1cfe1a7a339fa,6107d0959f7c4c3641818b95,611bdc3bdc33d27549ef896e,0.4967,
,,,,space,,0,210,210,180,1,W, , , , ,space,2000,2,6117aae89db1cfe1a7a339fa,001,2021-08-17_16h58.22.535,natb3,2021.2.3,MacIntel,59.97720866,6117aae89db1cfe1a7a339fa,6107d0959f7c4c3641818b95,611bdc3bdc33d27549ef896e,0.7378,
,,,,space,,0,211,211,52,1,F, , , , ,space,1500,1.5,6117aae89db1cfe1a7a339fa,001,2021-08-17_16h58.22.535,natb3,2021.2.3,MacIntel,59.97720866,6117aae89db1cfe1a7a339fa,6107d0959f7c4c3641818b95,611bdc3bdc33d27549ef896e,0.5164,
,,,,space,,0,212,212,45,1,O, , , , ,space,2000,2,6117aae89db1cfe1a7a339fa,001,2021-08-17_16h58.22.535,natb3,2021.2.3,MacIntel,59.97720866,6117aae89db1cfe1a7a339fa,6107d0959f7c4c3641818b95,611bdc3bdc33d27549ef896e,0.3115,
,,,,space,,0,213,213,146,1,W, , , , ,space,1500,1.5,6117aae89db1cfe1a7a339fa,001,2021-08-17_16h58.22.535,natb3,2021.2.3,MacIntel,59.97720866,6117aae89db1cfe1a7a339fa,6107d0959f7c4c3641818b95,611bdc3bdc33d27549ef896e,0.4358,
,,,,space,,0,214,214,54,1,X, , , , ,,2000,2,6117aae89db1cfe1a7a339fa,001,2021-08-17_16h58.22.535,natb3,2021.2.3,MacIntel,59.97720866,6117aae89db1cfe1a7a339fa,6107d0959f7c4c3641818b95,611bdc3bdc33d27549ef896e,0.4288,
,,,,,,0,215,215,171,1,X, , , , ,,1500,1.5,6117aae89db1cfe1a7a339fa,001,2021-08-17_16h58.22.535,natb3,2021.2.3,MacIntel,59.97720866,6117aae89db1cfe1a7a339fa,6107d0959f7c4c3641818b95,611bdc3bdc33d27549ef896e,,
,,,,space,,0,216,216,80,1,A, , , , ,space,2000,2,6117aae89db1cfe1a7a339fa,001,2021-08-17_16h58.22.535,natb3,2021.2.3,MacIntel,59.97720866,6117aae89db1cfe1a7a339fa,6107d0959f7c4c3641818b95,611bdc3bdc33d27549ef896e,0.6352,
,,,,space,,0,217,217,228,1,Y, , , , ,space,2000,2,6117aae89db1cfe1a7a339fa,001,2021-08-17_16h58.22.535,natb3,2021.2.3,MacIntel,59.97720866,6117aae89db1cfe1a7a339fa,6107d0959f7c4c3641818b95,611bdc3bdc33d27549ef896e,0.4685,
,,,,space,,0,218,218,91,1,L, , , , ,space,2000,2,6117aae89db1cfe1a7a339fa,001,2021-08-17_16h58.22.535,natb3,2021.2.3,MacIntel,59.97720866,6117aae89db1cfe1a7a339fa,6107d0959f7c4c3641818b95,611bdc3bdc33d27549ef896e,0.428,
,,,,,,0,219,219,4,1,X, , , , ,,2000,2,6117aae89db1cfe1a7a339fa,001,2021-08-17_16h58.22.535,natb3,2021.2.3,MacIntel,59.97720866,6117aae89db1cfe1a7a339fa,6107d0959f7c4c3641818b95,611bdc3bdc33d27549ef896e,,
,,,,space,,0,220,220,201,1,K, , , , ,space,1500,1.5,6117aae89db1cfe1a7a339fa,001,2021-08-17_16h58.22.535,natb3,2021.2.3,MacIntel,59.97720866,6117aae89db1cfe1a7a339fa,6107d0959f7c4c3641818b95,611bdc3bdc33d27549ef896e,0.5012,
,,,,space,,0,221,221,290,1,W, , , , ,space,1500,1.5,6117aae89db1cfe1a7a339fa,001,2021-08-17_16h58.22.535,natb3,2021.2.3,MacIntel,59.97720866,6117aae89db1cfe1a7a339fa,6107d0959f7c4c3641818b95,611bdc3bdc33d27549ef896e,0.5483,
,,,,space,,0,222,222,197,1,G, , , , ,space,2500,2.5,6117aae89db1cfe1a7a339fa,001,2021-08-17_16h58.22.535,natb3,2021.2.3,MacIntel,59.97720866,6117aae89db1cfe1a7a339fa,6107d0959f7c4c3641818b95,611bdc3bdc33d27549ef896e,0.5006,
,,,,,,0,223,223,118,1,X, , , , ,,2000,2,6117aae89db1cfe1a7a339fa,001,2021-08-17_16h58.22.535,natb3,2021.2.3,MacIntel,59.97720866,6117aae89db1cfe1a7a339fa,6107d0959f7c4c3641818b95,611bdc3bdc33d27549ef896e,,
,,,,space,,0,224,224,174,1,B, , , , ,space,2500,2.5,6117aae89db1cfe1a7a339fa,001,2021-08-17_16h58.22.535,natb3,2021.2.3,MacIntel,59.97720866,6117aae89db1cfe1a7a339fa,6107d0959f7c4c3641818b95,611bdc3bdc33d27549ef896e,0.535,
,,,,,,0,225,225,195,1,X, , , , ,,1500,1.5,6117aae89db1cfe1a7a339fa,001,2021-08-17_16h58.22.535,natb3,2021.2.3,MacIntel,59.97720866,6117aae89db1cfe1a7a339fa,6107d0959f7c4c3641818b95,611bdc3bdc33d27549ef896e,,
,,,,space,,0,226,226,42,1,U, , , , ,space,1500,1.5,6117aae89db1cfe1a7a339fa,001,2021-08-17_16h58.22.535,natb3,2021.2.3,MacIntel,59.97720866,6117aae89db1cfe1a7a339fa,6107d0959f7c4c3641818b95,611bdc3bdc33d27549ef896e,0.6029,
,,,,space,,0,227,227,220,1,U, , , , ,space,2500,2.5,6117aae89db1cfe1a7a339fa,001,2021-08-17_16h58.22.535,natb3,2021.2.3,MacIntel,59.97720866,6117aae89db1cfe1a7a339fa,6107d0959f7c4c3641818b95,611bdc3bdc33d27549ef896e,0.519,
,,,,space,,0,228,228,0,1,Q, , , , ,space,1500,1.5,6117aae89db1cfe1a7a339fa,001,2021-08-17_16h58.22.535,natb3,2021.2.3,MacIntel,59.97720866,6117aae89db1cfe1a7a339fa,6107d0959f7c4c3641818b95,611bdc3bdc33d27549ef896e,0.531,
,,,,space,,0,229,229,251,1,B, , , , ,space,1500,1.5,6117aae89db1cfe1a7a339fa,001,2021-08-17_16h58.22.535,natb3,2021.2.3,MacIntel,59.97720866,6117aae89db1cfe1a7a339fa,6107d0959f7c4c3641818b95,611bdc3bdc33d27549ef896e,0.4677,
,,,,,,0,230,230,322,1,X, , ,1,6,,2000,2,6117aae89db1cfe1a7a339fa,001,2021-08-17_16h58.22.535,natb3,2021.2.3,MacIntel,59.97720866,6117aae89db1cfe1a7a339fa,6107d0959f7c4c3641818b95,611bdc3bdc33d27549ef896e,,
,,,,space,,0,231,231,317,1,C, , , , ,space,2000,2,6117aae89db1cfe1a7a339fa,001,2021-08-17_16h58.22.535,natb3,2021.2.3,MacIntel,59.97720866,6117aae89db1cfe1a7a339fa,6107d0959f7c4c3641818b95,611bdc3bdc33d27549ef896e,0.6273,
,,,,space,,0,232,232,70,1,E, , , , ,space,2500,2.5,6117aae89db1cfe1a7a339fa,001,2021-08-17_16h58.22.535,natb3,2021.2.3,MacIntel,59.97720866,6117aae89db1cfe1a7a339fa,6107d0959f7c4c3641818b95,611bdc3bdc33d27549ef896e,0.3514,
,,,,space,,0,233,233,178,1,Q, , , , ,space,1500,1.5,6117aae89db1cfe1a7a339fa,001,2021-08-17_16h58.22.535,natb3,2021.2.3,MacIntel,59.97720866,6117aae89db1cfe1a7a339fa,6107d0959f7c4c3641818b95,611bdc3bdc33d27549ef896e,0.4044,
,,,,space,,0,234,234,147,1,E, , , , ,space,2000,2,6117aae89db1cfe1a7a339fa,001,2021-08-17_16h58.22.535,natb3,2021.2.3,MacIntel,59.97720866,6117aae89db1cfe1a7a339fa,6107d0959f7c4c3641818b95,611bdc3bdc33d27549ef896e,0.3671,
,,,,space,,0,235,235,210,1,M, , , , ,space,1500,1.5,6117aae89db1cfe1a7a339fa,001,2021-08-17_16h58.22.535,natb3,2021.2.3,MacIntel,59.97720866,6117aae89db1cfe1a7a339fa,6107d0959f7c4c3641818b95,611bdc3bdc33d27549ef896e,0.3702,
,,,,space,,0,236,236,85,1,F, , , , ,space,2500,2.5,6117aae89db1cfe1a7a339fa,001,2021-08-17_16h58.22.535,natb3,2021.2.3,MacIntel,59.97720866,6117aae89db1cfe1a7a339fa,6107d0959f7c4c3641818b95,611bdc3bdc33d27549ef896e,0.3615,
,,,,space,,0,237,237,87,1,H, , , , ,space,1500,1.5,6117aae89db1cfe1a7a339fa,001,2021-08-17_16h58.22.535,natb3,2021.2.3,MacIntel,59.97720866,6117aae89db1cfe1a7a339fa,6107d0959f7c4c3641818b95,611bdc3bdc33d27549ef896e,0.3546,
,,,,space,,0,238,238,187,1,X, ,3,7,4,,1500,1.5,6117aae89db1cfe1a7a339fa,001,2021-08-17_16h58.22.535,natb3,2021.2.3,MacIntel,59.97720866,6117aae89db1cfe1a7a339fa,6107d0959f7c4c3641818b95,611bdc3bdc33d27549ef896e,0.3755,
,,,,,,0,239,239,60,1,X,7,3,5, ,,1500,1.5,6117aae89db1cfe1a7a339fa,001,2021-08-17_16h58.22.535,natb3,2021.2.3,MacIntel,59.97720866,6117aae89db1cfe1a7a339fa,6107d0959f7c4c3641818b95,611bdc3bdc33d27549ef896e,,
,,,,space,,0,240,240,294,1,T, , , , ,space,2000,2,6117aae89db1cfe1a7a339fa,001,2021-08-17_16h58.22.535,natb3,2021.2.3,MacIntel,59.97720866,6117aae89db1cfe1a7a339fa,6107d0959f7c4c3641818b95,611bdc3bdc33d27549ef896e,0.3851,
,,,,space,,0,241,241,227,1,T, , , , ,space,1500,1.5,6117aae89db1cfe1a7a339fa,001,2021-08-17_16h58.22.535,natb3,2021.2.3,MacIntel,59.97720866,6117aae89db1cfe1a7a339fa,6107d0959f7c4c3641818b95,611bdc3bdc33d27549ef896e,0.4625,
,,,,space,,0,242,242,76,1,I, , , , ,space,2000,2,6117aae89db1cfe1a7a339fa,001,2021-08-17_16h58.22.535,natb3,2021.2.3,MacIntel,59.97720866,6117aae89db1cfe1a7a339fa,6107d0959f7c4c3641818b95,611bdc3bdc33d27549ef896e,0.3688,
,,,,,,0,243,243,74,1,X, ,4,3,2,,1500,1.5,6117aae89db1cfe1a7a339fa,001,2021-08-17_16h58.22.535,natb3,2021.2.3,MacIntel,59.97720866,6117aae89db1cfe1a7a339fa,6107d0959f7c4c3641818b95,611bdc3bdc33d27549ef896e,,
,,,,space,,0,244,244,68,1,W, , , , ,space,2500,2.5,6117aae89db1cfe1a7a339fa,001,2021-08-17_16h58.22.535,natb3,2021.2.3,MacIntel,59.97720866,6117aae89db1cfe1a7a339fa,6107d0959f7c4c3641818b95,611bdc3bdc33d27549ef896e,0.4992,
,,,,,,0,245,245,311,1,X,1,2,7,3,,2500,2.5,6117aae89db1cfe1a7a339fa,001,2021-08-17_16h58.22.535,natb3,2021.2.3,MacIntel,59.97720866,6117aae89db1cfe1a7a339fa,6107d0959f7c4c3641818b95,611bdc3bdc33d27549ef896e,,
,,,,space,,0,246,246,128,1,D, , , , ,space,2500,2.5,6117aae89db1cfe1a7a339fa,001,2021-08-17_16h58.22.535,natb3,2021.2.3,MacIntel,59.97720866,6117aae89db1cfe1a7a339fa,6107d0959f7c4c3641818b95,611bdc3bdc33d27549ef896e,0.4488,
,,,,space,,0,247,247,149,1,R, , , , ,space,2000,2,6117aae89db1cfe1a7a339fa,001,2021-08-17_16h58.22.535,natb3,2021.2.3,MacIntel,59.97720866,6117aae89db1cfe1a7a339fa,6107d0959f7c4c3641818b95,611bdc3bdc33d27549ef896e,0.4703,
,,,,space,,0,248,248,67,1,Q, , , , ,space,2000,2,6117aae89db1cfe1a7a339fa,001,2021-08-17_16h58.22.535,natb3,2021.2.3,MacIntel,59.97720866,6117aae89db1cfe1a7a339fa,6107d0959f7c4c3641818b95,611bdc3bdc33d27549ef896e,0.4518,
,,,,,,0,249,249,259,1,X,8, , ,3,,2500,2.5,6117aae89db1cfe1a7a339fa,001,2021-08-17_16h58.22.535,natb3,2021.2.3,MacIntel,59.97720866,6117aae89db1cfe1a7a339fa,6107d0959f7c4c3641818b95,611bdc3bdc33d27549ef896e,,
,,,,space,,0,250,250,140,1,B, , , , ,space,2500,2.5,6117aae89db1cfe1a7a339fa,001,2021-08-17_16h58.22.535,natb3,2021.2.3,MacIntel,59.97720866,6117aae89db1cfe1a7a339fa,6107d0959f7c4c3641818b95,611bdc3bdc33d27549ef896e,0.4984,
,,,,space,,0,251,251,212,1,Q, , , , ,space,2500,2.5,6117aae89db1cfe1a7a339fa,001,2021-08-17_16h58.22.535,natb3,2021.2.3,MacIntel,59.97720866,6117aae89db1cfe1a7a339fa,6107d0959f7c4c3641818b95,611bdc3bdc33d27549ef896e,0.4953,
,,,,space,,0,252,252,19,1,G, , , , ,space,1500,1.5,6117aae89db1cfe1a7a339fa,001,2021-08-17_16h58.22.535,natb3,2021.2.3,MacIntel,59.97720866,6117aae89db1cfe1a7a339fa,6107d0959f7c4c3641818b95,611bdc3bdc33d27549ef896e,0.5384,
,,,,space,,0,253,253,115,1,R, , , , ,space,1500,1.5,6117aae89db1cfe1a7a339fa,001,2021-08-17_16h58.22.535,natb3,2021.2.3,MacIntel,59.97720866,6117aae89db1cfe1a7a339fa,6107d0959f7c4c3641818b95,611bdc3bdc33d27549ef896e,0.4788,
,,,,space,,0,254,254,215,1,E, , , , ,space,2500,2.5,6117aae89db1cfe1a7a339fa,001,2021-08-17_16h58.22.535,natb3,2021.2.3,MacIntel,59.97720866,6117aae89db1cfe1a7a339fa,6107d0959f7c4c3641818b95,611bdc3bdc33d27549ef896e,0.6082,
,,,,,,0,255,255,335,1,P,,,,,space,1500,1.5,6117aae89db1cfe1a7a339fa,001,2021-08-17_16h58.22.535,natb3,2021.2.3,MacIntel,59.97720866,6117aae89db1cfe1a7a339fa,6107d0959f7c4c3641818b95,611bdc3bdc33d27549ef896e,,
,,,,space,,0,256,256,266,1,O, , , , ,space,1500,1.5,6117aae89db1cfe1a7a339fa,001,2021-08-17_16h58.22.535,natb3,2021.2.3,MacIntel,59.97720866,6117aae89db1cfe1a7a339fa,6107d0959f7c4c3641818b95,611bdc3bdc33d27549ef896e,0.5141,
,,,,space,,0,257,257,327,1,E, , , , ,space,1500,1.5,6117aae89db1cfe1a7a339fa,001,2021-08-17_16h58.22.535,natb3,2021.2.3,MacIntel,59.97720866,6117aae89db1cfe1a7a339fa,6107d0959f7c4c3641818b95,611bdc3bdc33d27549ef896e,0.407,
,,,,,,0,258,258,39,1,X,6,2, , ,,1500,1.5,6117aae89db1cfe1a7a339fa,001,2021-08-17_16h58.22.535,natb3,2021.2.3,MacIntel,59.97720866,6117aae89db1cfe1a7a339fa,6107d0959f7c4c3641818b95,611bdc3bdc33d27549ef896e,,
,,,,space,,0,259,259,297,1,U, , , , ,space,2000,2,6117aae89db1cfe1a7a339fa,001,2021-08-17_16h58.22.535,natb3,2021.2.3,MacIntel,59.97720866,6117aae89db1cfe1a7a339fa,6107d0959f7c4c3641818b95,611bdc3bdc33d27549ef896e,0.4672,
,,,,,,0,260,260,302,1,X, , , , ,,2000,2,6117aae89db1cfe1a7a339fa,001,2021-08-17_16h58.22.535,natb3,2021.2.3,MacIntel,59.97720866,6117aae89db1cfe1a7a339fa,6107d0959f7c4c3641818b95,611bdc3bdc33d27549ef896e,,
,,,,space,,0,261,261,103,1,W, , , , ,space,2000,2,6117aae89db1cfe1a7a339fa,001,2021-08-17_16h58.22.535,natb3,2021.2.3,MacIntel,59.97720866,6117aae89db1cfe1a7a339fa,6107d0959f7c4c3641818b95,611bdc3bdc33d27549ef896e,0.5135,
,,,,space,,0,262,262,225,1,E, , , , ,space,2000,2,6117aae89db1cfe1a7a339fa,001,2021-08-17_16h58.22.535,natb3,2021.2.3,MacIntel,59.97720866,6117aae89db1cfe1a7a339fa,6107d0959f7c4c3641818b95,611bdc3bdc33d27549ef896e,0.4816,
,,,,,,0,263,263,96,1,X, , , , ,,1500,1.5,6117aae89db1cfe1a7a339fa,001,2021-08-17_16h58.22.535,natb3,2021.2.3,MacIntel,59.97720866,6117aae89db1cfe1a7a339fa,6107d0959f7c4c3641818b95,611bdc3bdc33d27549ef896e,,
,,,,space,,0,264,264,331,1,Y, , , , ,space,2500,2.5,6117aae89db1cfe1a7a339fa,001,2021-08-17_16h58.22.535,natb3,2021.2.3,MacIntel,59.97720866,6117aae89db1cfe1a7a339fa,6107d0959f7c4c3641818b95,611bdc3bdc33d27549ef896e,0.3478,
,,,,,,0,265,265,49,1,S, , , , ,space,1500,1.5,6117aae89db1cfe1a7a339fa,001,2021-08-17_16h58.22.535,natb3,2021.2.3,MacIntel,59.97720866,6117aae89db1cfe1a7a339fa,6107d0959f7c4c3641818b95,611bdc3bdc33d27549ef896e,,
,,,,space,,0,266,266,150,1,T, , , , ,space,2500,2.5,6117aae89db1cfe1a7a339fa,001,2021-08-17_16h58.22.535,natb3,2021.2.3,MacIntel,59.97720866,6117aae89db1cfe1a7a339fa,6107d0959f7c4c3641818b95,611bdc3bdc33d27549ef896e,0.4243,
,,,,,,0,267,267,33,1,X, , , , ,,1500,1.5,6117aae89db1cfe1a7a339fa,001,2021-08-17_16h58.22.535,natb3,2021.2.3,MacIntel,59.97720866,6117aae89db1cfe1a7a339fa,6107d0959f7c4c3641818b95,611bdc3bdc33d27549ef896e,,
,,,,space,,0,268,268,13,1,A, , , , ,space,2000,2,6117aae89db1cfe1a7a339fa,001,2021-08-17_16h58.22.535,natb3,2021.2.3,MacIntel,59.97720866,6117aae89db1cfe1a7a339fa,6107d0959f7c4c3641818b95,611bdc3bdc33d27549ef896e,0.4349,
,,,,,,0,269,269,46,1,X, , , , ,,2000,2,6117aae89db1cfe1a7a339fa,001,2021-08-17_16h58.22.535,natb3,2021.2.3,MacIntel,59.97720866,6117aae89db1cfe1a7a339fa,6107d0959f7c4c3641818b95,611bdc3bdc33d27549ef896e,,
,,,,space,,0,270,270,169,1,L, , , , ,space,2500,2.5,6117aae89db1cfe1a7a339fa,001,2021-08-17_16h58.22.535,natb3,2021.2.3,MacIntel,59.97720866,6117aae89db1cfe1a7a339fa,6107d0959f7c4c3641818b95,611bdc3bdc33d27549ef896e,0.4298,
,,,,,,0,271,271,122,1,X,1, , ,8,,1500,1.5,6117aae89db1cfe1a7a339fa,001,2021-08-17_16h58.22.535,natb3,2021.2.3,MacIntel,59.97720866,6117aae89db1cfe1a7a339fa,6107d0959f7c4c3641818b95,611bdc3bdc33d27549ef896e,,
,,,,space,,0,272,272,281,1,Z, , , , ,space,1500,1.5,6117aae89db1cfe1a7a339fa,001,2021-08-17_16h58.22.535,natb3,2021.2.3,MacIntel,59.97720866,6117aae89db1cfe1a7a339fa,6107d0959f7c4c3641818b95,611bdc3bdc33d27549ef896e,0.3846,
,,,,space,,0,273,273,44,1,I, , , , ,space,2500,2.5,6117aae89db1cfe1a7a339fa,001,2021-08-17_16h58.22.535,natb3,2021.2.3,MacIntel,59.97720866,6117aae89db1cfe1a7a339fa,6107d0959f7c4c3641818b95,611bdc3bdc33d27549ef896e,0.4766,
,,,,space,,0,274,274,189,1,O, , , , ,space,1500,1.5,6117aae89db1cfe1a7a339fa,001,2021-08-17_16h58.22.535,natb3,2021.2.3,MacIntel,59.97720866,6117aae89db1cfe1a7a339fa,6107d0959f7c4c3641818b95,611bdc3bdc33d27549ef896e,0.4491,
,,,,space,,0,275,275,263,1,X,4, ,6, ,,1500,1.5,6117aae89db1cfe1a7a339fa,001,2021-08-17_16h58.22.535,natb3,2021.2.3,MacIntel,59.97720866,6117aae89db1cfe1a7a339fa,6107d0959f7c4c3641818b95,611bdc3bdc33d27549ef896e,0.3651,
,,,,,,0,276,276,98,1,X, , , , ,,2500,2.5,6117aae89db1cfe1a7a339fa,001,2021-08-17_16h58.22.535,natb3,2021.2.3,MacIntel,59.97720866,6117aae89db1cfe1a7a339fa,6107d0959f7c4c3641818b95,611bdc3bdc33d27549ef896e,,
,,,,space,,0,277,277,328,1,R, , , , ,space,1500,1.5,6117aae89db1cfe1a7a339fa,001,2021-08-17_16h58.22.535,natb3,2021.2.3,MacIntel,59.97720866,6117aae89db1cfe1a7a339fa,6107d0959f7c4c3641818b95,611bdc3bdc33d27549ef896e,0.5464,
,,,,space,,0,278,278,154,1,I, , , , ,space,2500,2.5,6117aae89db1cfe1a7a339fa,001,2021-08-17_16h58.22.535,natb3,2021.2.3,MacIntel,59.97720866,6117aae89db1cfe1a7a339fa,6107d0959f7c4c3641818b95,611bdc3bdc33d27549ef896e,0.5677,
,,,,space,,0,279,279,48,1,A, , , , ,space,2500,2.5,6117aae89db1cfe1a7a339fa,001,2021-08-17_16h58.22.535,natb3,2021.2.3,MacIntel,59.97720866,6117aae89db1cfe1a7a339fa,6107d0959f7c4c3641818b95,611bdc3bdc33d27549ef896e,0.4717,
,,,,,,0,280,280,153,1,X,4,7, ,6,,2000,2,6117aae89db1cfe1a7a339fa,001,2021-08-17_16h58.22.535,natb3,2021.2.3,MacIntel,59.97720866,6117aae89db1cfe1a7a339fa,6107d0959f7c4c3641818b95,611bdc3bdc33d27549ef896e,,
,,,,space,,0,281,281,59,1,Z, , , , ,space,2000,2,6117aae89db1cfe1a7a339fa,001,2021-08-17_16h58.22.535,natb3,2021.2.3,MacIntel,59.97720866,6117aae89db1cfe1a7a339fa,6107d0959f7c4c3641818b95,611bdc3bdc33d27549ef896e,0.452,
,,,,space,,0,282,282,47,1,P, , , , ,space,2000,2,6117aae89db1cfe1a7a339fa,001,2021-08-17_16h58.22.535,natb3,2021.2.3,MacIntel,59.97720866,6117aae89db1cfe1a7a339fa,6107d0959f7c4c3641818b95,611bdc3bdc33d27549ef896e,0.4521,
,,,,space,,0,283,283,285,1,B, , , , ,space,1500,1.5,6117aae89db1cfe1a7a339fa,001,2021-08-17_16h58.22.535,natb3,2021.2.3,MacIntel,59.97720866,6117aae89db1cfe1a7a339fa,6107d0959f7c4c3641818b95,611bdc3bdc33d27549ef896e,0.581,
,,,,space,,0,284,284,167,1,K, , , , ,space,1500,1.5,6117aae89db1cfe1a7a339fa,001,2021-08-17_16h58.22.535,natb3,2021.2.3,MacIntel,59.97720866,6117aae89db1cfe1a7a339fa,6107d0959f7c4c3641818b95,611bdc3bdc33d27549ef896e,0.451,
,,,,space,,0,285,285,61,1,C, , , , ,space,2000,2,6117aae89db1cfe1a7a339fa,001,2021-08-17_16h58.22.535,natb3,2021.2.3,MacIntel,59.97720866,6117aae89db1cfe1a7a339fa,6107d0959f7c4c3641818b95,611bdc3bdc33d27549ef896e,0.4205,
,,,,,,0,286,286,31,1,X, , , , ,,1500,1.5,6117aae89db1cfe1a7a339fa,001,2021-08-17_16h58.22.535,natb3,2021.2.3,MacIntel,59.97720866,6117aae89db1cfe1a7a339fa,6107d0959f7c4c3641818b95,611bdc3bdc33d27549ef896e,,
,,,,,,0,287,287,166,1,X, , , , ,,2000,2,6117aae89db1cfe1a7a339fa,001,2021-08-17_16h58.22.535,natb3,2021.2.3,MacIntel,59.97720866,6117aae89db1cfe1a7a339fa,6107d0959f7c4c3641818b95,611bdc3bdc33d27549ef896e,,
,,,,space,,0,288,288,240,1,F, , , , ,space,2500,2.5,6117aae89db1cfe1a7a339fa,001,2021-08-17_16h58.22.535,natb3,2021.2.3,MacIntel,59.97720866,6117aae89db1cfe1a7a339fa,6107d0959f7c4c3641818b95,611bdc3bdc33d27549ef896e,0.4667,
,,,,space,,0,289,289,163,1,G, , , , ,space,2500,2.5,6117aae89db1cfe1a7a339fa,001,2021-08-17_16h58.22.535,natb3,2021.2.3,MacIntel,59.97720866,6117aae89db1cfe1a7a339fa,6107d0959f7c4c3641818b95,611bdc3bdc33d27549ef896e,0.444,
,,,,space,,0,290,290,230,1,U, , , , ,space,1500,1.5,6117aae89db1cfe1a7a339fa,001,2021-08-17_16h58.22.535,natb3,2021.2.3,MacIntel,59.97720866,6117aae89db1cfe1a7a339fa,6107d0959f7c4c3641818b95,611bdc3bdc33d27549ef896e,0.4812,
,,,,,,0,291,291,305,1,X, , , , ,,1500,1.5,6117aae89db1cfe1a7a339fa,001,2021-08-17_16h58.22.535,natb3,2021.2.3,MacIntel,59.97720866,6117aae89db1cfe1a7a339fa,6107d0959f7c4c3641818b95,611bdc3bdc33d27549ef896e,,
,,,,,,0,292,292,15,1,X, , , , ,,1500,1.5,6117aae89db1cfe1a7a339fa,001,2021-08-17_16h58.22.535,natb3,2021.2.3,MacIntel,59.97720866,6117aae89db1cfe1a7a339fa,6107d0959f7c4c3641818b95,611bdc3bdc33d27549ef896e,,
,,,,space,,0,293,293,165,1,J, , , , ,space,2500,2.5,6117aae89db1cfe1a7a339fa,001,2021-08-17_16h58.22.535,natb3,2021.2.3,MacIntel,59.97720866,6117aae89db1cfe1a7a339fa,6107d0959f7c4c3641818b95,611bdc3bdc33d27549ef896e,0.4798,
,,,,space,,0,294,294,9,1,I, , , , ,space,1500,1.5,6117aae89db1cfe1a7a339fa,001,2021-08-17_16h58.22.535,natb3,2021.2.3,MacIntel,59.97720866,6117aae89db1cfe1a7a339fa,6107d0959f7c4c3641818b95,611bdc3bdc33d27549ef896e,0.5456,
,,,,space,,0,295,295,258,1,E, , , , ,space,1500,1.5,6117aae89db1cfe1a7a339fa,001,2021-08-17_16h58.22.535,natb3,2021.2.3,MacIntel,59.97720866,6117aae89db1cfe1a7a339fa,6107d0959f7c4c3641818b95,611bdc3bdc33d27549ef896e,0.6195,
,,,,,,0,296,296,243,1,X, , , , ,,2500,2.5,6117aae89db1cfe1a7a339fa,001,2021-08-17_16h58.22.535,natb3,2021.2.3,MacIntel,59.97720866,6117aae89db1cfe1a7a339fa,6107d0959f7c4c3641818b95,611bdc3bdc33d27549ef896e,,
,,,,space,,0,297,297,237,1,S, , , , ,space,1500,1.5,6117aae89db1cfe1a7a339fa,001,2021-08-17_16h58.22.535,natb3,2021.2.3,MacIntel,59.97720866,6117aae89db1cfe1a7a339fa,6107d0959f7c4c3641818b95,611bdc3bdc33d27549ef896e,0.5667,
,,,,space,,0,298,298,112,1,Q, , , , ,space,2500,2.5,6117aae89db1cfe1a7a339fa,001,2021-08-17_16h58.22.535,natb3,2021.2.3,MacIntel,59.97720866,6117aae89db1cfe1a7a339fa,6107d0959f7c4c3641818b95,611bdc3bdc33d27549ef896e,0.4398,
,,,,space,,0,299,299,62,1,V, , , , ,space,1500,1.5,6117aae89db1cfe1a7a339fa,001,2021-08-17_16h58.22.535,natb3,2021.2.3,MacIntel,59.97720866,6117aae89db1cfe1a7a339fa,6107d0959f7c4c3641818b95,611bdc3bdc33d27549ef896e,0.4482,
,,,,,,0,300,300,268,1,X,6, ,3, ,,2500,2.5,6117aae89db1cfe1a7a339fa,001,2021-08-17_16h58.22.535,natb3,2021.2.3,MacIntel,59.97720866,6117aae89db1cfe1a7a339fa,6107d0959f7c4c3641818b95,611bdc3bdc33d27549ef896e,,
,,,,space,,0,301,301,232,1,O, , , , ,space,2500,2.5,6117aae89db1cfe1a7a339fa,001,2021-08-17_16h58.22.535,natb3,2021.2.3,MacIntel,59.97720866,6117aae89db1cfe1a7a339fa,6107d0959f7c4c3641818b95,611bdc3bdc33d27549ef896e,0.5327,
,,,,space,,0,302,302,221,1,I, , , , ,space,2500,2.5,6117aae89db1cfe1a7a339fa,001,2021-08-17_16h58.22.535,natb3,2021.2.3,MacIntel,59.97720866,6117aae89db1cfe1a7a339fa,6107d0959f7c4c3641818b95,611bdc3bdc33d27549ef896e,0.4682,
,,,,,,0,303,303,239,1,X, , , , ,,2000,2,6117aae89db1cfe1a7a339fa,001,2021-08-17_16h58.22.535,natb3,2021.2.3,MacIntel,59.97720866,6117aae89db1cfe1a7a339fa,6107d0959f7c4c3641818b95,611bdc3bdc33d27549ef896e,,
,,,,space,,0,304,304,131,1,G, , , , ,space,1500,1.5,6117aae89db1cfe1a7a339fa,001,2021-08-17_16h58.22.535,natb3,2021.2.3,MacIntel,59.97720866,6117aae89db1cfe1a7a339fa,6107d0959f7c4c3641818b95,611bdc3bdc33d27549ef896e,0.5211,
,,,,space,,0,305,305,117,1,T, , , , ,space,2500,2.5,6117aae89db1cfe1a7a339fa,001,2021-08-17_16h58.22.535,natb3,2021.2.3,MacIntel,59.97720866,6117aae89db1cfe1a7a339fa,6107d0959f7c4c3641818b95,611bdc3bdc33d27549ef896e,0.4771,
,,,,space,,0,306,306,26,1,C, , , , ,space,2000,2,6117aae89db1cfe1a7a339fa,001,2021-08-17_16h58.22.535,natb3,2021.2.3,MacIntel,59.97720866,6117aae89db1cfe1a7a339fa,6107d0959f7c4c3641818b95,611bdc3bdc33d27549ef896e,0.4188,
,,,,space,,0,307,307,41,1,Y, , , , ,space,2500,2.5,6117aae89db1cfe1a7a339fa,001,2021-08-17_16h58.22.535,natb3,2021.2.3,MacIntel,59.97720866,6117aae89db1cfe1a7a339fa,6107d0959f7c4c3641818b95,611bdc3bdc33d27549ef896e,0.4837,
,,,,space,,0,308,308,247,1,Z, , , , ,space,1500,1.5,6117aae89db1cfe1a7a339fa,001,2021-08-17_16h58.22.535,natb3,2021.2.3,MacIntel,59.97720866,6117aae89db1cfe1a7a339fa,6107d0959f7c4c3641818b95,611bdc3bdc33d27549ef896e,0.7603,
,,,,space,,0,309,309,300,1,O, , , , ,space,2500,2.5,6117aae89db1cfe1a7a339fa,001,2021-08-17_16h58.22.535,natb3,2021.2.3,MacIntel,59.97720866,6117aae89db1cfe1a7a339fa,6107d0959f7c4c3641818b95,611bdc3bdc33d27549ef896e,0.4359,
,,,,space,,0,310,310,11,1,P, , , , ,space,2500,2.5,6117aae89db1cfe1a7a339fa,001,2021-08-17_16h58.22.535,natb3,2021.2.3,MacIntel,59.97720866,6117aae89db1cfe1a7a339fa,6107d0959f7c4c3641818b95,611bdc3bdc33d27549ef896e,0.3318,
,,,,space,,0,311,311,73,1,Y, , , , ,space,2000,2,6117aae89db1cfe1a7a339fa,001,2021-08-17_16h58.22.535,natb3,2021.2.3,MacIntel,59.97720866,6117aae89db1cfe1a7a339fa,6107d0959f7c4c3641818b95,611bdc3bdc33d27549ef896e,0.3531,
,,,,space,,0,312,312,95,1,V, , , , ,space,1500,1.5,6117aae89db1cfe1a7a339fa,001,2021-08-17_16h58.22.535,natb3,2021.2.3,MacIntel,59.97720866,6117aae89db1cfe1a7a339fa,6107d0959f7c4c3641818b95,611bdc3bdc33d27549ef896e,0.4313,
,,,,space,,0,313,313,99,1,N, , , , ,space,2500,2.5,6117aae89db1cfe1a7a339fa,001,2021-08-17_16h58.22.535,natb3,2021.2.3,MacIntel,59.97720866,6117aae89db1cfe1a7a339fa,6107d0959f7c4c3641818b95,611bdc3bdc33d27549ef896e,0.345,
,,,,space,,0,314,314,172,1,C, , , , ,space,1500,1.5,6117aae89db1cfe1a7a339fa,001,2021-08-17_16h58.22.535,natb3,2021.2.3,MacIntel,59.97720866,6117aae89db1cfe1a7a339fa,6107d0959f7c4c3641818b95,611bdc3bdc33d27549ef896e,0.4259,
,,,,space,,0,315,315,289,1,Q, , , , ,space,2000,2,6117aae89db1cfe1a7a339fa,001,2021-08-17_16h58.22.535,natb3,2021.2.3,MacIntel,59.97720866,6117aae89db1cfe1a7a339fa,6107d0959f7c4c3641818b95,611bdc3bdc33d27549ef896e,0.3861,
,,,,space,,0,316,316,173,1,V, , , , ,space,1500,1.5,6117aae89db1cfe1a7a339fa,001,2021-08-17_16h58.22.535,natb3,2021.2.3,MacIntel,59.97720866,6117aae89db1cfe1a7a339fa,6107d0959f7c4c3641818b95,611bdc3bdc33d27549ef896e,0.4173,
,,,,space,,0,317,317,161,1,F, , , , ,space,1500,1.5,6117aae89db1cfe1a7a339fa,001,2021-08-17_16h58.22.535,natb3,2021.2.3,MacIntel,59.97720866,6117aae89db1cfe1a7a339fa,6107d0959f7c4c3641818b95,611bdc3bdc33d27549ef896e,0.4273,
,,,,,,0,318,318,233,1,X, ,2, ,5,,1500,1.5,6117aae89db1cfe1a7a339fa,001,2021-08-17_16h58.22.535,natb3,2021.2.3,MacIntel,59.97720866,6117aae89db1cfe1a7a339fa,6107d0959f7c4c3641818b95,611bdc3bdc33d27549ef896e,,
,,,,space,,0,319,319,164,1,H, , , , ,space,2500,2.5,6117aae89db1cfe1a7a339fa,001,2021-08-17_16h58.22.535,natb3,2021.2.3,MacIntel,59.97720866,6117aae89db1cfe1a7a339fa,6107d0959f7c4c3641818b95,611bdc3bdc33d27549ef896e,0.4799,
,,,,space,,0,320,320,209,1,N, , , , ,space,2000,2,6117aae89db1cfe1a7a339fa,001,2021-08-17_16h58.22.535,natb3,2021.2.3,MacIntel,59.97720866,6117aae89db1cfe1a7a339fa,6107d0959f7c4c3641818b95,611bdc3bdc33d27549ef896e,0.4235,
,,,,space,,0,321,321,53,1,G, , , , ,space,2500,2.5,6117aae89db1cfe1a7a339fa,001,2021-08-17_16h58.22.535,natb3,2021.2.3,MacIntel,59.97720866,6117aae89db1cfe1a7a339fa,6107d0959f7c4c3641818b95,611bdc3bdc33d27549ef896e,0.418,
,,,,,,0,322,322,82,1,X,4,6,1,7,,2000,2,6117aae89db1cfe1a7a339fa,001,2021-08-17_16h58.22.535,natb3,2021.2.3,MacIntel,59.97720866,6117aae89db1cfe1a7a339fa,6107d0959f7c4c3641818b95,611bdc3bdc33d27549ef896e,,
,,,,space,,0,323,323,3,1,R, , , , ,space,2000,2,6117aae89db1cfe1a7a339fa,001,2021-08-17_16h58.22.535,natb3,2021.2.3,MacIntel,59.97720866,6117aae89db1cfe1a7a339fa,6107d0959f7c4c3641818b95,611bdc3bdc33d27549ef896e,0.408,
,,,,space,,0,324,324,262,1,Y, , , , ,space,2500,2.5,6117aae89db1cfe1a7a339fa,001,2021-08-17_16h58.22.535,natb3,2021.2.3,MacIntel,59.97720866,6117aae89db1cfe1a7a339fa,6107d0959f7c4c3641818b95,611bdc3bdc33d27549ef896e,0.4131,
,,,,space,,0,325,325,79,1,P, , , , ,space,2000,2,6117aae89db1cfe1a7a339fa,001,2021-08-17_16h58.22.535,natb3,2021.2.3,MacIntel,59.97720866,6117aae89db1cfe1a7a339fa,6107d0959f7c4c3641818b95,611bdc3bdc33d27549ef896e,0.5212,
,,,,space,,0,326,326,253,1,N, , , , ,space,2500,2.5,6117aae89db1cfe1a7a339fa,001,2021-08-17_16h58.22.535,natb3,2021.2.3,MacIntel,59.97720866,6117aae89db1cfe1a7a339fa,6107d0959f7c4c3641818b95,611bdc3bdc33d27549ef896e,0.3914,
,,,,space,,0,327,327,245,1,K, , , , ,space,2000,2,6117aae89db1cfe1a7a339fa,001,2021-08-17_16h58.22.535,natb3,2021.2.3,MacIntel,59.97720866,6117aae89db1cfe1a7a339fa,6107d0959f7c4c3641818b95,611bdc3bdc33d27549ef896e,0.4122,
,,,,,,0,328,328,191,1,X,1, ,3,4,,2500,2.5,6117aae89db1cfe1a7a339fa,001,2021-08-17_16h58.22.535,natb3,2021.2.3,MacIntel,59.97720866,6117aae89db1cfe1a7a339fa,6107d0959f7c4c3641818b95,611bdc3bdc33d27549ef896e,,
,,,,space,,0,329,329,308,1,G, , , , ,space,1500,1.5,6117aae89db1cfe1a7a339fa,001,2021-08-17_16h58.22.535,natb3,2021.2.3,MacIntel,59.97720866,6117aae89db1cfe1a7a339fa,6107d0959f7c4c3641818b95,611bdc3bdc33d27549ef896e,0.3935,
,,,,,,0,330,330,148,1,X, , , , ,,2000,2,6117aae89db1cfe1a7a339fa,001,2021-08-17_16h58.22.535,natb3,2021.2.3,MacIntel,59.97720866,6117aae89db1cfe1a7a339fa,6107d0959f7c4c3641818b95,611bdc3bdc33d27549ef896e,,
,,,,,,0,331,331,315,1,X, , , , ,,2500,2.5,6117aae89db1cfe1a7a339fa,001,2021-08-17_16h58.22.535,natb3,2021.2.3,MacIntel,59.97720866,6117aae89db1cfe1a7a339fa,6107d0959f7c4c3641818b95,611bdc3bdc33d27549ef896e,,
,,,,,,0,332,332,158,1,X, , , , ,,1500,1.5,6117aae89db1cfe1a7a339fa,001,2021-08-17_16h58.22.535,natb3,2021.2.3,MacIntel,59.97720866,6117aae89db1cfe1a7a339fa,6107d0959f7c4c3641818b95,611bdc3bdc33d27549ef896e,,
,,,,space,,0,333,333,108,1,Y, , , , ,space,2500,2.5,6117aae89db1cfe1a7a339fa,001,2021-08-17_16h58.22.535,natb3,2021.2.3,MacIntel,59.97720866,6117aae89db1cfe1a7a339fa,6107d0959f7c4c3641818b95,611bdc3bdc33d27549ef896e,0.4316,
,,,,,,0,334,334,313,1,X, , , , ,,2500,2.5,6117aae89db1cfe1a7a339fa,001,2021-08-17_16h58.22.535,natb3,2021.2.3,MacIntel,59.97720866,6117aae89db1cfe1a7a339fa,6107d0959f7c4c3641818b95,611bdc3bdc33d27549ef896e,,
,,,,space,,0,335,335,260,1,R, , , , ,space,2000,2,6117aae89db1cfe1a7a339fa,001,2021-08-17_16h58.22.535,natb3,2021.2.3,MacIntel,59.97720866,6117aae89db1cfe1a7a339fa,6107d0959f7c4c3641818b95,611bdc3bdc33d27549ef896e,0.5781,
