key_resp_2.keys,key_resp_2.rt,key_resp_3.keys,key_resp_3.rt,key_resp.keys,key_resp_4.keys,trials.thisRepN,trials.thisTrialN,trials.thisN,trials.thisIndex,trials.ran,stimulus,distractor1,distractor2,distractor3,distractor4,CorrAns,isi_duration,isi_dur_in_seconds,participant,session,date,expName,psychopyVersion,OS,frameRate,PROLIFIC_PID,STUDY_ID,SESSION_ID,key_resp.rt,key_resp_4.rt
return,16.9875,space,31.2421,,,0,0,0,213,1,X, , , , ,,2500,2.5,61180d8558ab6be9ca450cb1,001,2021-08-19_16h09.57.329,natb3,2021.2.3,Win32,60.00960154,61180d8558ab6be9ca450cb1,611e07ecdcc96256ae8d5b80,611e743015740b5910ec2e3a,,
,,,,space,,0,1,1,10,1,O, , , , ,space,2000,2,61180d8558ab6be9ca450cb1,001,2021-08-19_16h09.57.329,natb3,2021.2.3,Win32,60.00960154,61180d8558ab6be9ca450cb1,611e07ecdcc96256ae8d5b80,611e743015740b5910ec2e3a,0.5782,
,,,,space,,0,2,2,219,1,Y, , , , ,space,2000,2,61180d8558ab6be9ca450cb1,001,2021-08-19_16h09.57.329,natb3,2021.2.3,Win32,60.00960154,61180d8558ab6be9ca450cb1,611e07ecdcc96256ae8d5b80,611e743015740b5910ec2e3a,0.4443,
,,,,space,,0,3,3,159,1,S, , , , ,space,2500,2.5,61180d8558ab6be9ca450cb1,001,2021-08-19_16h09.57.329,natb3,2021.2.3,Win32,60.00960154,61180d8558ab6be9ca450cb1,611e07ecdcc96256ae8d5b80,611e743015740b5910ec2e3a,0.3993,
,,,,space,,0,4,4,136,1,Z, , , , ,space,2500,2.5,61180d8558ab6be9ca450cb1,001,2021-08-19_16h09.57.329,natb3,2021.2.3,Win32,60.00960154,61180d8558ab6be9ca450cb1,611e07ecdcc96256ae8d5b80,611e743015740b5910ec2e3a,0.3882,
,,,,,,0,5,5,211,1,X, , , , ,,2500,2.5,61180d8558ab6be9ca450cb1,001,2021-08-19_16h09.57.329,natb3,2021.2.3,Win32,60.00960154,61180d8558ab6be9ca450cb1,611e07ecdcc96256ae8d5b80,611e743015740b5910ec2e3a,,
,,,,space,,0,6,6,335,1,P,,,,,space,1500,1.5,61180d8558ab6be9ca450cb1,001,2021-08-19_16h09.57.329,natb3,2021.2.3,Win32,60.00960154,61180d8558ab6be9ca450cb1,611e07ecdcc96256ae8d5b80,611e743015740b5910ec2e3a,0.4974,
,,,,space,,0,7,7,250,1,V, , , , ,space,2000,2,61180d8558ab6be9ca450cb1,001,2021-08-19_16h09.57.329,natb3,2021.2.3,Win32,60.00960154,61180d8558ab6be9ca450cb1,611e07ecdcc96256ae8d5b80,611e743015740b5910ec2e3a,0.635,
,,,,space,,0,8,8,1,1,W, , , , ,space,2000,2,61180d8558ab6be9ca450cb1,001,2021-08-19_16h09.57.329,natb3,2021.2.3,Win32,60.00960154,61180d8558ab6be9ca450cb1,611e07ecdcc96256ae8d5b80,611e743015740b5910ec2e3a,0.3656,
,,,,space,,0,9,9,48,1,A, , , , ,space,2500,2.5,61180d8558ab6be9ca450cb1,001,2021-08-19_16h09.57.329,natb3,2021.2.3,Win32,60.00960154,61180d8558ab6be9ca450cb1,611e07ecdcc96256ae8d5b80,611e743015740b5910ec2e3a,0.3827,
,,,,space,,0,10,10,234,1,P, , , , ,space,2000,2,61180d8558ab6be9ca450cb1,001,2021-08-19_16h09.57.329,natb3,2021.2.3,Win32,60.00960154,61180d8558ab6be9ca450cb1,611e07ecdcc96256ae8d5b80,611e743015740b5910ec2e3a,0.3988,
,,,,space,,0,11,11,135,1,K, , , , ,space,1500,1.5,61180d8558ab6be9ca450cb1,001,2021-08-19_16h09.57.329,natb3,2021.2.3,Win32,60.00960154,61180d8558ab6be9ca450cb1,611e07ecdcc96256ae8d5b80,611e743015740b5910ec2e3a,0.3597,
,,,,space,,0,12,12,169,1,L, , , , ,space,2500,2.5,61180d8558ab6be9ca450cb1,001,2021-08-19_16h09.57.329,natb3,2021.2.3,Win32,60.00960154,61180d8558ab6be9ca450cb1,611e07ecdcc96256ae8d5b80,611e743015740b5910ec2e3a,0.3843,
,,,,space,,0,13,13,156,1,P, , , , ,space,1500,1.5,61180d8558ab6be9ca450cb1,001,2021-08-19_16h09.57.329,natb3,2021.2.3,Win32,60.00960154,61180d8558ab6be9ca450cb1,611e07ecdcc96256ae8d5b80,611e743015740b5910ec2e3a,0.3574,
,,,,space,,0,14,14,134,1,J, , , , ,space,2000,2,61180d8558ab6be9ca450cb1,001,2021-08-19_16h09.57.329,natb3,2021.2.3,Win32,60.00960154,61180d8558ab6be9ca450cb1,611e07ecdcc96256ae8d5b80,611e743015740b5910ec2e3a,0.2877,
,,,,space,,0,15,15,324,1,Q, , , , ,space,2000,2,61180d8558ab6be9ca450cb1,001,2021-08-19_16h09.57.329,natb3,2021.2.3,Win32,60.00960154,61180d8558ab6be9ca450cb1,611e07ecdcc96256ae8d5b80,611e743015740b5910ec2e3a,0.3326,
,,,,space,,0,16,16,3,1,R, , , , ,space,2000,2,61180d8558ab6be9ca450cb1,001,2021-08-19_16h09.57.329,natb3,2021.2.3,Win32,60.00960154,61180d8558ab6be9ca450cb1,611e07ecdcc96256ae8d5b80,611e743015740b5910ec2e3a,0.3662,
,,,,space,,0,17,17,49,1,S, , , , ,space,1500,1.5,61180d8558ab6be9ca450cb1,001,2021-08-19_16h09.57.329,natb3,2021.2.3,Win32,60.00960154,61180d8558ab6be9ca450cb1,611e07ecdcc96256ae8d5b80,611e743015740b5910ec2e3a,0.3913,
,,,,space,,0,18,18,167,1,K, , , , ,space,1500,1.5,61180d8558ab6be9ca450cb1,001,2021-08-19_16h09.57.329,natb3,2021.2.3,Win32,60.00960154,61180d8558ab6be9ca450cb1,611e07ecdcc96256ae8d5b80,611e743015740b5910ec2e3a,0.3692,
,,,,space,,0,19,19,148,1,X, , , , ,,2000,2,61180d8558ab6be9ca450cb1,001,2021-08-19_16h09.57.329,natb3,2021.2.3,Win32,60.00960154,61180d8558ab6be9ca450cb1,611e07ecdcc96256ae8d5b80,611e743015740b5910ec2e3a,0.3359,
,,,,,,0,20,20,318,1,X, , , , ,,1500,1.5,61180d8558ab6be9ca450cb1,001,2021-08-19_16h09.57.329,natb3,2021.2.3,Win32,60.00960154,61180d8558ab6be9ca450cb1,611e07ecdcc96256ae8d5b80,611e743015740b5910ec2e3a,,
,,,,space,,0,21,21,220,1,U, , , , ,space,2500,2.5,61180d8558ab6be9ca450cb1,001,2021-08-19_16h09.57.329,natb3,2021.2.3,Win32,60.00960154,61180d8558ab6be9ca450cb1,611e07ecdcc96256ae8d5b80,611e743015740b5910ec2e3a,0.3736,
,,,,space,,0,22,22,20,1,H, , , , ,space,1500,1.5,61180d8558ab6be9ca450cb1,001,2021-08-19_16h09.57.329,natb3,2021.2.3,Win32,60.00960154,61180d8558ab6be9ca450cb1,611e07ecdcc96256ae8d5b80,611e743015740b5910ec2e3a,0.4839,
,,,,space,,0,23,23,185,1,Y, , , , ,space,2500,2.5,61180d8558ab6be9ca450cb1,001,2021-08-19_16h09.57.329,natb3,2021.2.3,Win32,60.00960154,61180d8558ab6be9ca450cb1,611e07ecdcc96256ae8d5b80,611e743015740b5910ec2e3a,0.4077,
,,,,,,0,24,24,158,1,X, , , , ,,1500,1.5,61180d8558ab6be9ca450cb1,001,2021-08-19_16h09.57.329,natb3,2021.2.3,Win32,60.00960154,61180d8558ab6be9ca450cb1,611e07ecdcc96256ae8d5b80,611e743015740b5910ec2e3a,,
,,,,space,,0,25,25,247,1,Z, , , , ,space,1500,1.5,61180d8558ab6be9ca450cb1,001,2021-08-19_16h09.57.329,natb3,2021.2.3,Win32,60.00960154,61180d8558ab6be9ca450cb1,611e07ecdcc96256ae8d5b80,611e743015740b5910ec2e3a,0.3828,
,,,,space,,0,26,26,76,1,I, , , , ,space,2000,2,61180d8558ab6be9ca450cb1,001,2021-08-19_16h09.57.329,natb3,2021.2.3,Win32,60.00960154,61180d8558ab6be9ca450cb1,611e07ecdcc96256ae8d5b80,611e743015740b5910ec2e3a,0.3761,
,,,,space,,0,27,27,201,1,K, , , , ,space,1500,1.5,61180d8558ab6be9ca450cb1,001,2021-08-19_16h09.57.329,natb3,2021.2.3,Win32,60.00960154,61180d8558ab6be9ca450cb1,611e07ecdcc96256ae8d5b80,611e743015740b5910ec2e3a,0.5423,
,,,,,,0,28,28,166,1,X, , , , ,,2000,2,61180d8558ab6be9ca450cb1,001,2021-08-19_16h09.57.329,natb3,2021.2.3,Win32,60.00960154,61180d8558ab6be9ca450cb1,611e07ecdcc96256ae8d5b80,611e743015740b5910ec2e3a,,
,,,,space,,0,29,29,180,1,W, , , , ,space,2000,2,61180d8558ab6be9ca450cb1,001,2021-08-19_16h09.57.329,natb3,2021.2.3,Win32,60.00960154,61180d8558ab6be9ca450cb1,611e07ecdcc96256ae8d5b80,611e743015740b5910ec2e3a,0.3834,
,,,,space,,0,30,30,278,1,J, , , , ,space,2000,2,61180d8558ab6be9ca450cb1,001,2021-08-19_16h09.57.329,natb3,2021.2.3,Win32,60.00960154,61180d8558ab6be9ca450cb1,611e07ecdcc96256ae8d5b80,611e743015740b5910ec2e3a,0.4659,
,,,,space,,0,31,31,105,1,R, , , , ,space,2500,2.5,61180d8558ab6be9ca450cb1,001,2021-08-19_16h09.57.329,natb3,2021.2.3,Win32,60.00960154,61180d8558ab6be9ca450cb1,611e07ecdcc96256ae8d5b80,611e743015740b5910ec2e3a,0.4537,
,,,,space,,0,32,32,38,1,R, , , , ,space,2500,2.5,61180d8558ab6be9ca450cb1,001,2021-08-19_16h09.57.329,natb3,2021.2.3,Win32,60.00960154,61180d8558ab6be9ca450cb1,611e07ecdcc96256ae8d5b80,611e743015740b5910ec2e3a,0.457,
,,,,space,,0,33,33,56,1,J, , , , ,space,1500,1.5,61180d8558ab6be9ca450cb1,001,2021-08-19_16h09.57.329,natb3,2021.2.3,Win32,60.00960154,61180d8558ab6be9ca450cb1,611e07ecdcc96256ae8d5b80,611e743015740b5910ec2e3a,0.5348,
,,,,space,,0,34,34,115,1,R, , , , ,space,1500,1.5,61180d8558ab6be9ca450cb1,001,2021-08-19_16h09.57.329,natb3,2021.2.3,Win32,60.00960154,61180d8558ab6be9ca450cb1,611e07ecdcc96256ae8d5b80,611e743015740b5910ec2e3a,0.5239,
,,,,,,0,35,35,239,1,X, , , , ,,2000,2,61180d8558ab6be9ca450cb1,001,2021-08-19_16h09.57.329,natb3,2021.2.3,Win32,60.00960154,61180d8558ab6be9ca450cb1,611e07ecdcc96256ae8d5b80,611e743015740b5910ec2e3a,,
,,,,,,0,36,36,236,1,X,3, ,4,7,,2500,2.5,61180d8558ab6be9ca450cb1,001,2021-08-19_16h09.57.329,natb3,2021.2.3,Win32,60.00960154,61180d8558ab6be9ca450cb1,611e07ecdcc96256ae8d5b80,611e743015740b5910ec2e3a,,
,,,,,,0,37,37,33,1,X, , , , ,,1500,1.5,61180d8558ab6be9ca450cb1,001,2021-08-19_16h09.57.329,natb3,2021.2.3,Win32,60.00960154,61180d8558ab6be9ca450cb1,611e07ecdcc96256ae8d5b80,611e743015740b5910ec2e3a,,
,,,,space,,0,38,38,204,1,Z, , , , ,space,2000,2,61180d8558ab6be9ca450cb1,001,2021-08-19_16h09.57.329,natb3,2021.2.3,Win32,60.00960154,61180d8558ab6be9ca450cb1,611e07ecdcc96256ae8d5b80,611e743015740b5910ec2e3a,0.4275,
,,,,space,,0,39,39,42,1,U, , , , ,space,1500,1.5,61180d8558ab6be9ca450cb1,001,2021-08-19_16h09.57.329,natb3,2021.2.3,Win32,60.00960154,61180d8558ab6be9ca450cb1,611e07ecdcc96256ae8d5b80,611e743015740b5910ec2e3a,0.4872,
,,,,,,0,40,40,15,1,X, , , , ,,1500,1.5,61180d8558ab6be9ca450cb1,001,2021-08-19_16h09.57.329,natb3,2021.2.3,Win32,60.00960154,61180d8558ab6be9ca450cb1,611e07ecdcc96256ae8d5b80,611e743015740b5910ec2e3a,,
,,,,,,0,41,41,107,1,X,9,3, ,2,,2000,2,61180d8558ab6be9ca450cb1,001,2021-08-19_16h09.57.329,natb3,2021.2.3,Win32,60.00960154,61180d8558ab6be9ca450cb1,611e07ecdcc96256ae8d5b80,611e743015740b5910ec2e3a,,
,,,,space,,0,42,42,212,1,Q, , , , ,space,2500,2.5,61180d8558ab6be9ca450cb1,001,2021-08-19_16h09.57.329,natb3,2021.2.3,Win32,60.00960154,61180d8558ab6be9ca450cb1,611e07ecdcc96256ae8d5b80,611e743015740b5910ec2e3a,0.4331,
,,,,space,,0,43,43,157,1,A, , , , ,space,2500,2.5,61180d8558ab6be9ca450cb1,001,2021-08-19_16h09.57.329,natb3,2021.2.3,Win32,60.00960154,61180d8558ab6be9ca450cb1,611e07ecdcc96256ae8d5b80,611e743015740b5910ec2e3a,0.4042,
,,,,space,,0,44,44,253,1,N, , , , ,space,2500,2.5,61180d8558ab6be9ca450cb1,001,2021-08-19_16h09.57.329,natb3,2021.2.3,Win32,60.00960154,61180d8558ab6be9ca450cb1,611e07ecdcc96256ae8d5b80,611e743015740b5910ec2e3a,0.4286,
,,,,space,,0,45,45,103,1,W, , , , ,space,2000,2,61180d8558ab6be9ca450cb1,001,2021-08-19_16h09.57.329,natb3,2021.2.3,Win32,60.00960154,61180d8558ab6be9ca450cb1,611e07ecdcc96256ae8d5b80,611e743015740b5910ec2e3a,0.4947,
,,,,,,0,46,46,200,1,X,7, ,5,3,,1500,1.5,61180d8558ab6be9ca450cb1,001,2021-08-19_16h09.57.329,natb3,2021.2.3,Win32,60.00960154,61180d8558ab6be9ca450cb1,611e07ecdcc96256ae8d5b80,611e743015740b5910ec2e3a,,
,,,,,,0,47,47,82,1,X,4,6,1,7,,2000,2,61180d8558ab6be9ca450cb1,001,2021-08-19_16h09.57.329,natb3,2021.2.3,Win32,60.00960154,61180d8558ab6be9ca450cb1,611e07ecdcc96256ae8d5b80,611e743015740b5910ec2e3a,,
,,,,space,,0,48,48,21,1,J, , , , ,space,1500,1.5,61180d8558ab6be9ca450cb1,001,2021-08-19_16h09.57.329,natb3,2021.2.3,Win32,60.00960154,61180d8558ab6be9ca450cb1,611e07ecdcc96256ae8d5b80,611e743015740b5910ec2e3a,0.3352,
,,,,space,,0,49,49,303,1,A, , , , ,space,2000,2,61180d8558ab6be9ca450cb1,001,2021-08-19_16h09.57.329,natb3,2021.2.3,Win32,60.00960154,61180d8558ab6be9ca450cb1,611e07ecdcc96256ae8d5b80,611e743015740b5910ec2e3a,0.4557,
,,,,space,,0,50,50,215,1,E, , , , ,space,2500,2.5,61180d8558ab6be9ca450cb1,001,2021-08-19_16h09.57.329,natb3,2021.2.3,Win32,60.00960154,61180d8558ab6be9ca450cb1,611e07ecdcc96256ae8d5b80,611e743015740b5910ec2e3a,0.3998,
,,,,space,,0,51,51,59,1,Z, , , , ,space,2000,2,61180d8558ab6be9ca450cb1,001,2021-08-19_16h09.57.329,natb3,2021.2.3,Win32,60.00960154,61180d8558ab6be9ca450cb1,611e07ecdcc96256ae8d5b80,611e743015740b5910ec2e3a,0.3944,
,,,,,,0,52,52,313,1,X, , , , ,,2500,2.5,61180d8558ab6be9ca450cb1,001,2021-08-19_16h09.57.329,natb3,2021.2.3,Win32,60.00960154,61180d8558ab6be9ca450cb1,611e07ecdcc96256ae8d5b80,611e743015740b5910ec2e3a,,
,,,,space,,0,53,53,106,1,T, , , , ,space,1500,1.5,61180d8558ab6be9ca450cb1,001,2021-08-19_16h09.57.329,natb3,2021.2.3,Win32,60.00960154,61180d8558ab6be9ca450cb1,611e07ecdcc96256ae8d5b80,611e743015740b5910ec2e3a,0.4449,
,,,,,,0,54,54,175,1,X,7, ,4,2,,1500,1.5,61180d8558ab6be9ca450cb1,001,2021-08-19_16h09.57.329,natb3,2021.2.3,Win32,60.00960154,61180d8558ab6be9ca450cb1,611e07ecdcc96256ae8d5b80,611e743015740b5910ec2e3a,,
,,,,space,,0,55,55,227,1,T, , , , ,space,1500,1.5,61180d8558ab6be9ca450cb1,001,2021-08-19_16h09.57.329,natb3,2021.2.3,Win32,60.00960154,61180d8558ab6be9ca450cb1,611e07ecdcc96256ae8d5b80,611e743015740b5910ec2e3a,0.3745,
,,,,space,,0,56,56,108,1,Y, , , , ,space,2500,2.5,61180d8558ab6be9ca450cb1,001,2021-08-19_16h09.57.329,natb3,2021.2.3,Win32,60.00960154,61180d8558ab6be9ca450cb1,611e07ecdcc96256ae8d5b80,611e743015740b5910ec2e3a,0.383,
,,,,space,,0,57,57,226,1,R, , , , ,space,2000,2,61180d8558ab6be9ca450cb1,001,2021-08-19_16h09.57.329,natb3,2021.2.3,Win32,60.00960154,61180d8558ab6be9ca450cb1,611e07ecdcc96256ae8d5b80,611e743015740b5910ec2e3a,0.4051,
,,,,,,0,58,58,35,1,X, , , , ,,2500,2.5,61180d8558ab6be9ca450cb1,001,2021-08-19_16h09.57.329,natb3,2021.2.3,Win32,60.00960154,61180d8558ab6be9ca450cb1,611e07ecdcc96256ae8d5b80,611e743015740b5910ec2e3a,,
,,,,,,0,59,59,141,1,X,1, ,4,6,,1500,1.5,61180d8558ab6be9ca450cb1,001,2021-08-19_16h09.57.329,natb3,2021.2.3,Win32,60.00960154,61180d8558ab6be9ca450cb1,611e07ecdcc96256ae8d5b80,611e743015740b5910ec2e3a,,
,,,,space,,0,60,60,154,1,I, , , , ,space,2500,2.5,61180d8558ab6be9ca450cb1,001,2021-08-19_16h09.57.329,natb3,2021.2.3,Win32,60.00960154,61180d8558ab6be9ca450cb1,611e07ecdcc96256ae8d5b80,611e743015740b5910ec2e3a,0.4241,
,,,,space,,0,61,61,254,1,M, , , , ,space,1500,1.5,61180d8558ab6be9ca450cb1,001,2021-08-19_16h09.57.329,natb3,2021.2.3,Win32,60.00960154,61180d8558ab6be9ca450cb1,611e07ecdcc96256ae8d5b80,611e743015740b5910ec2e3a,0.5042,
,,,,space,,0,62,62,173,1,V, , , , ,space,1500,1.5,61180d8558ab6be9ca450cb1,001,2021-08-19_16h09.57.329,natb3,2021.2.3,Win32,60.00960154,61180d8558ab6be9ca450cb1,611e07ecdcc96256ae8d5b80,611e743015740b5910ec2e3a,0.4272,
,,,,space,,0,63,63,267,1,P, , , , ,space,2000,2,61180d8558ab6be9ca450cb1,001,2021-08-19_16h09.57.329,natb3,2021.2.3,Win32,60.00960154,61180d8558ab6be9ca450cb1,611e07ecdcc96256ae8d5b80,611e743015740b5910ec2e3a,0.4654,
,,,,,,0,64,64,78,1,X, , , , ,,2000,2,61180d8558ab6be9ca450cb1,001,2021-08-19_16h09.57.329,natb3,2021.2.3,Win32,60.00960154,61180d8558ab6be9ca450cb1,611e07ecdcc96256ae8d5b80,611e743015740b5910ec2e3a,,
,,,,space,,0,65,65,104,1,E, , , , ,space,2000,2,61180d8558ab6be9ca450cb1,001,2021-08-19_16h09.57.329,natb3,2021.2.3,Win32,60.00960154,61180d8558ab6be9ca450cb1,611e07ecdcc96256ae8d5b80,611e743015740b5910ec2e3a,0.3914,
,,,,,,0,66,66,273,1,X, , , , ,,2000,2,61180d8558ab6be9ca450cb1,001,2021-08-19_16h09.57.329,natb3,2021.2.3,Win32,60.00960154,61180d8558ab6be9ca450cb1,611e07ecdcc96256ae8d5b80,611e743015740b5910ec2e3a,,
,,,,space,,0,67,67,41,1,Y, , , , ,space,2500,2.5,61180d8558ab6be9ca450cb1,001,2021-08-19_16h09.57.329,natb3,2021.2.3,Win32,60.00960154,61180d8558ab6be9ca450cb1,611e07ecdcc96256ae8d5b80,611e743015740b5910ec2e3a,0.401,
,,,,space,,0,68,68,121,1,I, , , , ,space,2000,2,61180d8558ab6be9ca450cb1,001,2021-08-19_16h09.57.329,natb3,2021.2.3,Win32,60.00960154,61180d8558ab6be9ca450cb1,611e07ecdcc96256ae8d5b80,611e743015740b5910ec2e3a,0.4692,
,,,,space,,0,69,69,186,1,U, , , , ,space,2500,2.5,61180d8558ab6be9ca450cb1,001,2021-08-19_16h09.57.329,natb3,2021.2.3,Win32,60.00960154,61180d8558ab6be9ca450cb1,611e07ecdcc96256ae8d5b80,611e743015740b5910ec2e3a,0.3707,
,,,,space,,0,70,70,206,1,V, , , , ,space,2000,2,61180d8558ab6be9ca450cb1,001,2021-08-19_16h09.57.329,natb3,2021.2.3,Win32,60.00960154,61180d8558ab6be9ca450cb1,611e07ecdcc96256ae8d5b80,611e743015740b5910ec2e3a,0.3872,
,,,,,,0,71,71,93,1,X,5, ,7, ,,2500,2.5,61180d8558ab6be9ca450cb1,001,2021-08-19_16h09.57.329,natb3,2021.2.3,Win32,60.00960154,61180d8558ab6be9ca450cb1,611e07ecdcc96256ae8d5b80,611e743015740b5910ec2e3a,,
,,,,space,,0,72,72,222,1,O, , , , ,space,2000,2,61180d8558ab6be9ca450cb1,001,2021-08-19_16h09.57.329,natb3,2021.2.3,Win32,60.00960154,61180d8558ab6be9ca450cb1,611e07ecdcc96256ae8d5b80,611e743015740b5910ec2e3a,0.4348,
,,,,space,,0,73,73,330,1,T, , , , ,space,2500,2.5,61180d8558ab6be9ca450cb1,001,2021-08-19_16h09.57.329,natb3,2021.2.3,Win32,60.00960154,61180d8558ab6be9ca450cb1,611e07ecdcc96256ae8d5b80,611e743015740b5910ec2e3a,0.4419,
,,,,space,,0,74,74,0,1,Q, , , , ,space,1500,1.5,61180d8558ab6be9ca450cb1,001,2021-08-19_16h09.57.329,natb3,2021.2.3,Win32,60.00960154,61180d8558ab6be9ca450cb1,611e07ecdcc96256ae8d5b80,611e743015740b5910ec2e3a,0.5415,
,,,,,,0,75,75,311,1,X,1,2,7,3,,2500,2.5,61180d8558ab6be9ca450cb1,001,2021-08-19_16h09.57.329,natb3,2021.2.3,Win32,60.00960154,61180d8558ab6be9ca450cb1,611e07ecdcc96256ae8d5b80,611e743015740b5910ec2e3a,,
,,,,space,,0,76,76,109,1,U, , , , ,space,1500,1.5,61180d8558ab6be9ca450cb1,001,2021-08-19_16h09.57.329,natb3,2021.2.3,Win32,60.00960154,61180d8558ab6be9ca450cb1,611e07ecdcc96256ae8d5b80,611e743015740b5910ec2e3a,0.3815,
,,,,space,,0,77,77,164,1,H, , , , ,space,2500,2.5,61180d8558ab6be9ca450cb1,001,2021-08-19_16h09.57.329,natb3,2021.2.3,Win32,60.00960154,61180d8558ab6be9ca450cb1,611e07ecdcc96256ae8d5b80,611e743015740b5910ec2e3a,0.3373,
,,,,space,,0,78,78,217,1,T, , , , ,space,2500,2.5,61180d8558ab6be9ca450cb1,001,2021-08-19_16h09.57.329,natb3,2021.2.3,Win32,60.00960154,61180d8558ab6be9ca450cb1,611e07ecdcc96256ae8d5b80,611e743015740b5910ec2e3a,0.3827,
,,,,space,,0,79,79,284,1,V, , , , ,space,2500,2.5,61180d8558ab6be9ca450cb1,001,2021-08-19_16h09.57.329,natb3,2021.2.3,Win32,60.00960154,61180d8558ab6be9ca450cb1,611e07ecdcc96256ae8d5b80,611e743015740b5910ec2e3a,0.3888,
,,,,space,,0,80,80,95,1,V, , , , ,space,1500,1.5,61180d8558ab6be9ca450cb1,001,2021-08-19_16h09.57.329,natb3,2021.2.3,Win32,60.00960154,61180d8558ab6be9ca450cb1,611e07ecdcc96256ae8d5b80,611e743015740b5910ec2e3a,0.5433,
,,,,space,,0,81,81,210,1,M, , , , ,space,1500,1.5,61180d8558ab6be9ca450cb1,001,2021-08-19_16h09.57.329,natb3,2021.2.3,Win32,60.00960154,61180d8558ab6be9ca450cb1,611e07ecdcc96256ae8d5b80,611e743015740b5910ec2e3a,0.4702,
,,,,,,0,82,82,191,1,X,1, ,3,4,,2500,2.5,61180d8558ab6be9ca450cb1,001,2021-08-19_16h09.57.329,natb3,2021.2.3,Win32,60.00960154,61180d8558ab6be9ca450cb1,611e07ecdcc96256ae8d5b80,611e743015740b5910ec2e3a,,
,,,,space,,0,83,83,332,1,U, , , , ,space,2000,2,61180d8558ab6be9ca450cb1,001,2021-08-19_16h09.57.329,natb3,2021.2.3,Win32,60.00960154,61180d8558ab6be9ca450cb1,611e07ecdcc96256ae8d5b80,611e743015740b5910ec2e3a,0.4322,
,,,,space,,0,84,84,216,1,R, , , , ,space,1500,1.5,61180d8558ab6be9ca450cb1,001,2021-08-19_16h09.57.329,natb3,2021.2.3,Win32,60.00960154,61180d8558ab6be9ca450cb1,611e07ecdcc96256ae8d5b80,611e743015740b5910ec2e3a,0.4265,
,,,,space,,0,85,85,238,1,D, , , , ,space,1500,1.5,61180d8558ab6be9ca450cb1,001,2021-08-19_16h09.57.329,natb3,2021.2.3,Win32,60.00960154,61180d8558ab6be9ca450cb1,611e07ecdcc96256ae8d5b80,611e743015740b5910ec2e3a,0.6155,
,,,,,,0,86,86,125,1,X, , , , ,,2000,2,61180d8558ab6be9ca450cb1,001,2021-08-19_16h09.57.329,natb3,2021.2.3,Win32,60.00960154,61180d8558ab6be9ca450cb1,611e07ecdcc96256ae8d5b80,611e743015740b5910ec2e3a,,
,,,,space,,0,87,87,193,1,S, , , , ,space,2500,2.5,61180d8558ab6be9ca450cb1,001,2021-08-19_16h09.57.329,natb3,2021.2.3,Win32,60.00960154,61180d8558ab6be9ca450cb1,611e07ecdcc96256ae8d5b80,611e743015740b5910ec2e3a,0.3555,
,,,,space,,0,88,88,231,1,I, , , , ,space,2500,2.5,61180d8558ab6be9ca450cb1,001,2021-08-19_16h09.57.329,natb3,2021.2.3,Win32,60.00960154,61180d8558ab6be9ca450cb1,611e07ecdcc96256ae8d5b80,611e743015740b5910ec2e3a,0.3584,
,,,,,,0,89,89,187,1,X, ,3,7,4,,1500,1.5,61180d8558ab6be9ca450cb1,001,2021-08-19_16h09.57.329,natb3,2021.2.3,Win32,60.00960154,61180d8558ab6be9ca450cb1,611e07ecdcc96256ae8d5b80,611e743015740b5910ec2e3a,,
,,,,space,,0,90,90,62,1,V, , , , ,space,1500,1.5,61180d8558ab6be9ca450cb1,001,2021-08-19_16h09.57.329,natb3,2021.2.3,Win32,60.00960154,61180d8558ab6be9ca450cb1,611e07ecdcc96256ae8d5b80,611e743015740b5910ec2e3a,0.3374,
,,,,space,,0,91,91,190,1,P, , , , ,space,2000,2,61180d8558ab6be9ca450cb1,001,2021-08-19_16h09.57.329,natb3,2021.2.3,Win32,60.00960154,61180d8558ab6be9ca450cb1,611e07ecdcc96256ae8d5b80,611e743015740b5910ec2e3a,0.3895,
,,,,space,,0,92,92,225,1,E, , , , ,space,2000,2,61180d8558ab6be9ca450cb1,001,2021-08-19_16h09.57.329,natb3,2021.2.3,Win32,60.00960154,61180d8558ab6be9ca450cb1,611e07ecdcc96256ae8d5b80,611e743015740b5910ec2e3a,0.3847,
,,,,space,,0,93,93,320,1,B, , , , ,space,1500,1.5,61180d8558ab6be9ca450cb1,001,2021-08-19_16h09.57.329,natb3,2021.2.3,Win32,60.00960154,61180d8558ab6be9ca450cb1,611e07ecdcc96256ae8d5b80,611e743015740b5910ec2e3a,0.3995,
,,,,space,,0,94,94,260,1,R, , , , ,space,2000,2,61180d8558ab6be9ca450cb1,001,2021-08-19_16h09.57.329,natb3,2021.2.3,Win32,60.00960154,61180d8558ab6be9ca450cb1,611e07ecdcc96256ae8d5b80,611e743015740b5910ec2e3a,0.3873,
,,,,,,0,95,95,60,1,X,7,3,5, ,,1500,1.5,61180d8558ab6be9ca450cb1,001,2021-08-19_16h09.57.329,natb3,2021.2.3,Win32,60.00960154,61180d8558ab6be9ca450cb1,611e07ecdcc96256ae8d5b80,611e743015740b5910ec2e3a,,
,,,,space,,0,96,96,130,1,F, , , , ,space,2000,2,61180d8558ab6be9ca450cb1,001,2021-08-19_16h09.57.329,natb3,2021.2.3,Win32,60.00960154,61180d8558ab6be9ca450cb1,611e07ecdcc96256ae8d5b80,611e743015740b5910ec2e3a,0.3176,
,,,,space,,0,97,97,202,1,L, , , , ,space,2500,2.5,61180d8558ab6be9ca450cb1,001,2021-08-19_16h09.57.329,natb3,2021.2.3,Win32,60.00960154,61180d8558ab6be9ca450cb1,611e07ecdcc96256ae8d5b80,611e743015740b5910ec2e3a,0.3346,
,,,,space,,0,98,98,101,1,Q, , , , ,space,2500,2.5,61180d8558ab6be9ca450cb1,001,2021-08-19_16h09.57.329,natb3,2021.2.3,Win32,60.00960154,61180d8558ab6be9ca450cb1,611e07ecdcc96256ae8d5b80,611e743015740b5910ec2e3a,0.3711,
,,,,space,,0,99,99,292,1,E, , , , ,space,2000,2,61180d8558ab6be9ca450cb1,001,2021-08-19_16h09.57.329,natb3,2021.2.3,Win32,60.00960154,61180d8558ab6be9ca450cb1,611e07ecdcc96256ae8d5b80,611e743015740b5910ec2e3a,0.3664,
,,,,space,,0,100,100,36,1,W, , , , ,space,2000,2,61180d8558ab6be9ca450cb1,001,2021-08-19_16h09.57.329,natb3,2021.2.3,Win32,60.00960154,61180d8558ab6be9ca450cb1,611e07ecdcc96256ae8d5b80,611e743015740b5910ec2e3a,0.511,
,,,,space,,0,101,101,331,1,Y, , , , ,space,2500,2.5,61180d8558ab6be9ca450cb1,001,2021-08-19_16h09.57.329,natb3,2021.2.3,Win32,60.00960154,61180d8558ab6be9ca450cb1,611e07ecdcc96256ae8d5b80,611e743015740b5910ec2e3a,0.4701,
,,,,,,0,102,102,18,1,X, ,2,5,8,,2500,2.5,61180d8558ab6be9ca450cb1,001,2021-08-19_16h09.57.329,natb3,2021.2.3,Win32,60.00960154,61180d8558ab6be9ca450cb1,611e07ecdcc96256ae8d5b80,611e743015740b5910ec2e3a,,
,,,,space,,0,103,103,265,1,I, , , , ,space,2000,2,61180d8558ab6be9ca450cb1,001,2021-08-19_16h09.57.329,natb3,2021.2.3,Win32,60.00960154,61180d8558ab6be9ca450cb1,611e07ecdcc96256ae8d5b80,611e743015740b5910ec2e3a,0.3721,
,,,,,,0,104,104,287,1,X, ,2, ,9,,2000,2,61180d8558ab6be9ca450cb1,001,2021-08-19_16h09.57.329,natb3,2021.2.3,Win32,60.00960154,61180d8558ab6be9ca450cb1,611e07ecdcc96256ae8d5b80,611e743015740b5910ec2e3a,,
,,,,space,,0,105,105,88,1,J, , , , ,space,2500,2.5,61180d8558ab6be9ca450cb1,001,2021-08-19_16h09.57.329,natb3,2021.2.3,Win32,60.00960154,61180d8558ab6be9ca450cb1,611e07ecdcc96256ae8d5b80,611e743015740b5910ec2e3a,0.4711,
,,,,space,,0,106,106,323,1,M, , , , ,space,2500,2.5,61180d8558ab6be9ca450cb1,001,2021-08-19_16h09.57.329,natb3,2021.2.3,Win32,60.00960154,61180d8558ab6be9ca450cb1,611e07ecdcc96256ae8d5b80,611e743015740b5910ec2e3a,0.4434,
,,,,space,,0,107,107,256,1,Q, , , , ,space,2000,2,61180d8558ab6be9ca450cb1,001,2021-08-19_16h09.57.329,natb3,2021.2.3,Win32,60.00960154,61180d8558ab6be9ca450cb1,611e07ecdcc96256ae8d5b80,611e743015740b5910ec2e3a,0.4103,
,,,,space,,0,108,108,221,1,I, , , , ,space,2500,2.5,61180d8558ab6be9ca450cb1,001,2021-08-19_16h09.57.329,natb3,2021.2.3,Win32,60.00960154,61180d8558ab6be9ca450cb1,611e07ecdcc96256ae8d5b80,611e743015740b5910ec2e3a,0.4157,
,,,,space,,0,109,109,90,1,K, , , , ,space,2000,2,61180d8558ab6be9ca450cb1,001,2021-08-19_16h09.57.329,natb3,2021.2.3,Win32,60.00960154,61180d8558ab6be9ca450cb1,611e07ecdcc96256ae8d5b80,611e743015740b5910ec2e3a,0.4586,
,,,,space,,0,110,110,83,1,D, , , , ,space,2000,2,61180d8558ab6be9ca450cb1,001,2021-08-19_16h09.57.329,natb3,2021.2.3,Win32,60.00960154,61180d8558ab6be9ca450cb1,611e07ecdcc96256ae8d5b80,611e743015740b5910ec2e3a,0.42,
,,,,space,,0,111,111,40,1,T, , , , ,space,1500,1.5,61180d8558ab6be9ca450cb1,001,2021-08-19_16h09.57.329,natb3,2021.2.3,Win32,60.00960154,61180d8558ab6be9ca450cb1,611e07ecdcc96256ae8d5b80,611e743015740b5910ec2e3a,0.4164,
,,,,space,,0,112,112,286,1,N, , , , ,space,1500,1.5,61180d8558ab6be9ca450cb1,001,2021-08-19_16h09.57.329,natb3,2021.2.3,Win32,60.00960154,61180d8558ab6be9ca450cb1,611e07ecdcc96256ae8d5b80,611e743015740b5910ec2e3a,0.3717,
,,,,space,,0,113,113,189,1,O, , , , ,space,1500,1.5,61180d8558ab6be9ca450cb1,001,2021-08-19_16h09.57.329,natb3,2021.2.3,Win32,60.00960154,61180d8558ab6be9ca450cb1,611e07ecdcc96256ae8d5b80,611e743015740b5910ec2e3a,0.4494,
,,,,space,,0,114,114,237,1,S, , , , ,space,1500,1.5,61180d8558ab6be9ca450cb1,001,2021-08-19_16h09.57.329,natb3,2021.2.3,Win32,60.00960154,61180d8558ab6be9ca450cb1,611e07ecdcc96256ae8d5b80,611e743015740b5910ec2e3a,0.4051,
,,,,space,,0,115,115,72,1,T, , , , ,space,1500,1.5,61180d8558ab6be9ca450cb1,001,2021-08-19_16h09.57.329,natb3,2021.2.3,Win32,60.00960154,61180d8558ab6be9ca450cb1,611e07ecdcc96256ae8d5b80,611e743015740b5910ec2e3a,0.3489,
,,,,,,0,116,116,255,1,X, , , , ,,1500,1.5,61180d8558ab6be9ca450cb1,001,2021-08-19_16h09.57.329,natb3,2021.2.3,Win32,60.00960154,61180d8558ab6be9ca450cb1,611e07ecdcc96256ae8d5b80,611e743015740b5910ec2e3a,,
,,,,space,,0,117,117,262,1,Y, , , , ,space,2500,2.5,61180d8558ab6be9ca450cb1,001,2021-08-19_16h09.57.329,natb3,2021.2.3,Win32,60.00960154,61180d8558ab6be9ca450cb1,611e07ecdcc96256ae8d5b80,611e743015740b5910ec2e3a,0.3162,
,,,,space,,0,118,118,179,1,X, ,9, ,2,,1500,1.5,61180d8558ab6be9ca450cb1,001,2021-08-19_16h09.57.329,natb3,2021.2.3,Win32,60.00960154,61180d8558ab6be9ca450cb1,611e07ecdcc96256ae8d5b80,611e743015740b5910ec2e3a,0.3484,
,,,,space,,0,119,119,165,1,J, , , , ,space,2500,2.5,61180d8558ab6be9ca450cb1,001,2021-08-19_16h09.57.329,natb3,2021.2.3,Win32,60.00960154,61180d8558ab6be9ca450cb1,611e07ecdcc96256ae8d5b80,611e743015740b5910ec2e3a,0.3701,
,,,,,,0,120,120,4,1,X, , , , ,,2000,2,61180d8558ab6be9ca450cb1,001,2021-08-19_16h09.57.329,natb3,2021.2.3,Win32,60.00960154,61180d8558ab6be9ca450cb1,611e07ecdcc96256ae8d5b80,611e743015740b5910ec2e3a,,
,,,,space,,0,121,121,5,1,T, , , , ,space,2000,2,61180d8558ab6be9ca450cb1,001,2021-08-19_16h09.57.329,natb3,2021.2.3,Win32,60.00960154,61180d8558ab6be9ca450cb1,611e07ecdcc96256ae8d5b80,611e743015740b5910ec2e3a,0.4196,
,,,,,,0,122,122,12,1,X, , , , ,,1500,1.5,61180d8558ab6be9ca450cb1,001,2021-08-19_16h09.57.329,natb3,2021.2.3,Win32,60.00960154,61180d8558ab6be9ca450cb1,611e07ecdcc96256ae8d5b80,611e743015740b5910ec2e3a,,
,,,,space,,0,123,123,279,1,K, , , , ,space,2500,2.5,61180d8558ab6be9ca450cb1,001,2021-08-19_16h09.57.329,natb3,2021.2.3,Win32,60.00960154,61180d8558ab6be9ca450cb1,611e07ecdcc96256ae8d5b80,611e743015740b5910ec2e3a,0.4123,
,,,,,,0,124,124,145,1,X, , , , ,,2000,2,61180d8558ab6be9ca450cb1,001,2021-08-19_16h09.57.329,natb3,2021.2.3,Win32,60.00960154,61180d8558ab6be9ca450cb1,611e07ecdcc96256ae8d5b80,611e743015740b5910ec2e3a,,
,,,,,,0,125,125,325,1,X, , , , ,,2500,2.5,61180d8558ab6be9ca450cb1,001,2021-08-19_16h09.57.329,natb3,2021.2.3,Win32,60.00960154,61180d8558ab6be9ca450cb1,611e07ecdcc96256ae8d5b80,611e743015740b5910ec2e3a,,
,,,,,,0,126,126,218,1,X,1,3, ,8,,1500,1.5,61180d8558ab6be9ca450cb1,001,2021-08-19_16h09.57.329,natb3,2021.2.3,Win32,60.00960154,61180d8558ab6be9ca450cb1,611e07ecdcc96256ae8d5b80,611e743015740b5910ec2e3a,,
,,,,space,,0,127,127,196,1,F, , , , ,space,1500,1.5,61180d8558ab6be9ca450cb1,001,2021-08-19_16h09.57.329,natb3,2021.2.3,Win32,60.00960154,61180d8558ab6be9ca450cb1,611e07ecdcc96256ae8d5b80,611e743015740b5910ec2e3a,0.5333,
,,,,space,,0,128,128,244,1,J, , , , ,space,1500,1.5,61180d8558ab6be9ca450cb1,001,2021-08-19_16h09.57.329,natb3,2021.2.3,Win32,60.00960154,61180d8558ab6be9ca450cb1,611e07ecdcc96256ae8d5b80,611e743015740b5910ec2e3a,0.455,
,,,,,,0,129,129,7,1,X, , , , ,,1500,1.5,61180d8558ab6be9ca450cb1,001,2021-08-19_16h09.57.329,natb3,2021.2.3,Win32,60.00960154,61180d8558ab6be9ca450cb1,611e07ecdcc96256ae8d5b80,611e743015740b5910ec2e3a,,
,,,,space,,0,130,130,63,1,B, , , , ,space,2000,2,61180d8558ab6be9ca450cb1,001,2021-08-19_16h09.57.329,natb3,2021.2.3,Win32,60.00960154,61180d8558ab6be9ca450cb1,611e07ecdcc96256ae8d5b80,611e743015740b5910ec2e3a,0.457,
,,,,space,,0,131,131,293,1,R, , , , ,space,2500,2.5,61180d8558ab6be9ca450cb1,001,2021-08-19_16h09.57.329,natb3,2021.2.3,Win32,60.00960154,61180d8558ab6be9ca450cb1,611e07ecdcc96256ae8d5b80,611e743015740b5910ec2e3a,0.4491,
,,,,space,,0,132,132,197,1,G, , , , ,space,2500,2.5,61180d8558ab6be9ca450cb1,001,2021-08-19_16h09.57.329,natb3,2021.2.3,Win32,60.00960154,61180d8558ab6be9ca450cb1,611e07ecdcc96256ae8d5b80,611e743015740b5910ec2e3a,0.4877,
,,,,,,0,133,133,291,1,X, , , , ,,2000,2,61180d8558ab6be9ca450cb1,001,2021-08-19_16h09.57.329,natb3,2021.2.3,Win32,60.00960154,61180d8558ab6be9ca450cb1,611e07ecdcc96256ae8d5b80,611e743015740b5910ec2e3a,,
,,,,space,,0,134,134,34,1,Q, , , , ,space,2500,2.5,61180d8558ab6be9ca450cb1,001,2021-08-19_16h09.57.329,natb3,2021.2.3,Win32,60.00960154,61180d8558ab6be9ca450cb1,611e07ecdcc96256ae8d5b80,611e743015740b5910ec2e3a,0.4174,
,,,,,,0,135,135,315,1,X, , , , ,,2500,2.5,61180d8558ab6be9ca450cb1,001,2021-08-19_16h09.57.329,natb3,2021.2.3,Win32,60.00960154,61180d8558ab6be9ca450cb1,611e07ecdcc96256ae8d5b80,611e743015740b5910ec2e3a,,
,,,,,,0,136,136,268,1,X,6, ,3, ,,2500,2.5,61180d8558ab6be9ca450cb1,001,2021-08-19_16h09.57.329,natb3,2021.2.3,Win32,60.00960154,61180d8558ab6be9ca450cb1,611e07ecdcc96256ae8d5b80,611e743015740b5910ec2e3a,,
,,,,space,,0,137,137,70,1,E, , , , ,space,2500,2.5,61180d8558ab6be9ca450cb1,001,2021-08-19_16h09.57.329,natb3,2021.2.3,Win32,60.00960154,61180d8558ab6be9ca450cb1,611e07ecdcc96256ae8d5b80,611e743015740b5910ec2e3a,0.4098,
,,,,space,,0,138,138,126,1,A, , , , ,space,2500,2.5,61180d8558ab6be9ca450cb1,001,2021-08-19_16h09.57.329,natb3,2021.2.3,Win32,60.00960154,61180d8558ab6be9ca450cb1,611e07ecdcc96256ae8d5b80,611e743015740b5910ec2e3a,0.4989,
,,,,space,,0,139,139,13,1,A, , , , ,space,2000,2,61180d8558ab6be9ca450cb1,001,2021-08-19_16h09.57.329,natb3,2021.2.3,Win32,60.00960154,61180d8558ab6be9ca450cb1,611e07ecdcc96256ae8d5b80,611e743015740b5910ec2e3a,0.3827,
,,,,space,,0,140,140,170,1,Z, , , , ,space,2000,2,61180d8558ab6be9ca450cb1,001,2021-08-19_16h09.57.329,natb3,2021.2.3,Win32,60.00960154,61180d8558ab6be9ca450cb1,611e07ecdcc96256ae8d5b80,611e743015740b5910ec2e3a,0.4272,
,,,,space,,0,141,141,2,1,E, , , , ,space,2500,2.5,61180d8558ab6be9ca450cb1,001,2021-08-19_16h09.57.329,natb3,2021.2.3,Win32,60.00960154,61180d8558ab6be9ca450cb1,611e07ecdcc96256ae8d5b80,611e743015740b5910ec2e3a,0.4013,
,,,,,,0,142,142,322,1,X, , ,1,6,,2000,2,61180d8558ab6be9ca450cb1,001,2021-08-19_16h09.57.329,natb3,2021.2.3,Win32,60.00960154,61180d8558ab6be9ca450cb1,611e07ecdcc96256ae8d5b80,611e743015740b5910ec2e3a,,
,,,,space,,0,143,143,192,1,A, , , , ,space,2000,2,61180d8558ab6be9ca450cb1,001,2021-08-19_16h09.57.329,natb3,2021.2.3,Win32,60.00960154,61180d8558ab6be9ca450cb1,611e07ecdcc96256ae8d5b80,611e743015740b5910ec2e3a,0.3564,
,,,,space,,0,144,144,110,1,I, , , , ,space,1500,1.5,61180d8558ab6be9ca450cb1,001,2021-08-19_16h09.57.329,natb3,2021.2.3,Win32,60.00960154,61180d8558ab6be9ca450cb1,611e07ecdcc96256ae8d5b80,611e743015740b5910ec2e3a,0.6278,
,,,,space,,0,145,145,124,1,P, , , , ,space,2000,2,61180d8558ab6be9ca450cb1,001,2021-08-19_16h09.57.329,natb3,2021.2.3,Win32,60.00960154,61180d8558ab6be9ca450cb1,611e07ecdcc96256ae8d5b80,611e743015740b5910ec2e3a,0.4559,
,,,,,,0,146,146,302,1,X, , , , ,,2000,2,61180d8558ab6be9ca450cb1,001,2021-08-19_16h09.57.329,natb3,2021.2.3,Win32,60.00960154,61180d8558ab6be9ca450cb1,611e07ecdcc96256ae8d5b80,611e743015740b5910ec2e3a,,
,,,,space,,0,147,147,276,1,H, , , , ,space,2000,2,61180d8558ab6be9ca450cb1,001,2021-08-19_16h09.57.329,natb3,2021.2.3,Win32,60.00960154,61180d8558ab6be9ca450cb1,611e07ecdcc96256ae8d5b80,611e743015740b5910ec2e3a,0.3886,
,,,,,,0,148,148,69,1,X, , , , ,,1500,1.5,61180d8558ab6be9ca450cb1,001,2021-08-19_16h09.57.329,natb3,2021.2.3,Win32,60.00960154,61180d8558ab6be9ca450cb1,611e07ecdcc96256ae8d5b80,611e743015740b5910ec2e3a,,
,,,,space,,0,149,149,85,1,F, , , , ,space,2500,2.5,61180d8558ab6be9ca450cb1,001,2021-08-19_16h09.57.329,natb3,2021.2.3,Win32,60.00960154,61180d8558ab6be9ca450cb1,611e07ecdcc96256ae8d5b80,611e743015740b5910ec2e3a,0.5061,
,,,,space,,0,150,150,99,1,N, , , , ,space,2500,2.5,61180d8558ab6be9ca450cb1,001,2021-08-19_16h09.57.329,natb3,2021.2.3,Win32,60.00960154,61180d8558ab6be9ca450cb1,611e07ecdcc96256ae8d5b80,611e743015740b5910ec2e3a,0.5594,
,,,,space,,0,151,151,309,1,H, , , , ,space,2500,2.5,61180d8558ab6be9ca450cb1,001,2021-08-19_16h09.57.329,natb3,2021.2.3,Win32,60.00960154,61180d8558ab6be9ca450cb1,611e07ecdcc96256ae8d5b80,611e743015740b5910ec2e3a,0.4876,
,,,,space,,0,152,152,306,1,D, , , , ,space,2000,2,61180d8558ab6be9ca450cb1,001,2021-08-19_16h09.57.329,natb3,2021.2.3,Win32,60.00960154,61180d8558ab6be9ca450cb1,611e07ecdcc96256ae8d5b80,611e743015740b5910ec2e3a,0.558,
,,,,space,,0,153,153,117,1,T, , , , ,space,2500,2.5,61180d8558ab6be9ca450cb1,001,2021-08-19_16h09.57.329,natb3,2021.2.3,Win32,60.00960154,61180d8558ab6be9ca450cb1,611e07ecdcc96256ae8d5b80,611e743015740b5910ec2e3a,0.4215,
,,,,space,,0,154,154,120,1,U, , , , ,space,1500,1.5,61180d8558ab6be9ca450cb1,001,2021-08-19_16h09.57.329,natb3,2021.2.3,Win32,60.00960154,61180d8558ab6be9ca450cb1,611e07ecdcc96256ae8d5b80,611e743015740b5910ec2e3a,0.701,
,,,,,,0,155,155,89,1,X,3, , , ,,2000,2,61180d8558ab6be9ca450cb1,001,2021-08-19_16h09.57.329,natb3,2021.2.3,Win32,60.00960154,61180d8558ab6be9ca450cb1,611e07ecdcc96256ae8d5b80,611e743015740b5910ec2e3a,,
,,,,space,,0,156,156,68,1,W, , , , ,space,2500,2.5,61180d8558ab6be9ca450cb1,001,2021-08-19_16h09.57.329,natb3,2021.2.3,Win32,60.00960154,61180d8558ab6be9ca450cb1,611e07ecdcc96256ae8d5b80,611e743015740b5910ec2e3a,0.5028,
,,,,space,,0,157,157,86,1,G, , , , ,space,2000,2,61180d8558ab6be9ca450cb1,001,2021-08-19_16h09.57.329,natb3,2021.2.3,Win32,60.00960154,61180d8558ab6be9ca450cb1,611e07ecdcc96256ae8d5b80,611e743015740b5910ec2e3a,0.6996,
,,,,space,,0,158,158,246,1,L, , , , ,space,2500,2.5,61180d8558ab6be9ca450cb1,001,2021-08-19_16h09.57.329,natb3,2021.2.3,Win32,60.00960154,61180d8558ab6be9ca450cb1,611e07ecdcc96256ae8d5b80,611e743015740b5910ec2e3a,0.3875,
,,,,space,,0,159,159,142,1,N, , , , ,space,2500,2.5,61180d8558ab6be9ca450cb1,001,2021-08-19_16h09.57.329,natb3,2021.2.3,Win32,60.00960154,61180d8558ab6be9ca450cb1,611e07ecdcc96256ae8d5b80,611e743015740b5910ec2e3a,0.7221,
,,,,space,,0,160,160,188,1,I, , , , ,space,2500,2.5,61180d8558ab6be9ca450cb1,001,2021-08-19_16h09.57.329,natb3,2021.2.3,Win32,60.00960154,61180d8558ab6be9ca450cb1,611e07ecdcc96256ae8d5b80,611e743015740b5910ec2e3a,0.3996,
,,,,,,0,161,161,176,1,N, , , , ,space,1500,1.5,61180d8558ab6be9ca450cb1,001,2021-08-19_16h09.57.329,natb3,2021.2.3,Win32,60.00960154,61180d8558ab6be9ca450cb1,611e07ecdcc96256ae8d5b80,611e743015740b5910ec2e3a,,
,,,,space,,0,162,162,114,1,E, , , , ,space,2000,2,61180d8558ab6be9ca450cb1,001,2021-08-19_16h09.57.329,natb3,2021.2.3,Win32,60.00960154,61180d8558ab6be9ca450cb1,611e07ecdcc96256ae8d5b80,611e743015740b5910ec2e3a,0.3511,
,,,,,,0,163,163,51,1,X,7,5,8, ,,1500,1.5,61180d8558ab6be9ca450cb1,001,2021-08-19_16h09.57.329,natb3,2021.2.3,Win32,60.00960154,61180d8558ab6be9ca450cb1,611e07ecdcc96256ae8d5b80,611e743015740b5910ec2e3a,,
,,,,space,,0,164,164,123,1,O, , , , ,space,1500,1.5,61180d8558ab6be9ca450cb1,001,2021-08-19_16h09.57.329,natb3,2021.2.3,Win32,60.00960154,61180d8558ab6be9ca450cb1,611e07ecdcc96256ae8d5b80,611e743015740b5910ec2e3a,0.3654,
,,,,space,,0,165,165,295,1,X,8,7,5, ,,2500,2.5,61180d8558ab6be9ca450cb1,001,2021-08-19_16h09.57.329,natb3,2021.2.3,Win32,60.00960154,61180d8558ab6be9ca450cb1,611e07ecdcc96256ae8d5b80,611e743015740b5910ec2e3a,0.3747,
,,,,space,,0,166,166,44,1,I, , , , ,space,2500,2.5,61180d8558ab6be9ca450cb1,001,2021-08-19_16h09.57.329,natb3,2021.2.3,Win32,60.00960154,61180d8558ab6be9ca450cb1,611e07ecdcc96256ae8d5b80,611e743015740b5910ec2e3a,0.406,
,,,,space,space,0,167,167,316,1,Z, , , , ,space,1500,1.5,61180d8558ab6be9ca450cb1,001,2021-08-19_16h09.57.329,natb3,2021.2.3,Win32,60.00960154,61180d8558ab6be9ca450cb1,611e07ecdcc96256ae8d5b80,611e743015740b5910ec2e3a,0.3944,7.7046
,,,,space,,0,168,168,127,1,S, , , , ,space,2500,2.5,61180d8558ab6be9ca450cb1,001,2021-08-19_16h09.57.329,natb3,2021.2.3,Win32,60.00960154,61180d8558ab6be9ca450cb1,611e07ecdcc96256ae8d5b80,611e743015740b5910ec2e3a,0.4002,
,,,,space,,0,169,169,301,1,P, , , , ,space,1500,1.5,61180d8558ab6be9ca450cb1,001,2021-08-19_16h09.57.329,natb3,2021.2.3,Win32,60.00960154,61180d8558ab6be9ca450cb1,611e07ecdcc96256ae8d5b80,611e743015740b5910ec2e3a,0.5035,
,,,,,,0,170,170,74,1,X, ,4,3,2,,1500,1.5,61180d8558ab6be9ca450cb1,001,2021-08-19_16h09.57.329,natb3,2021.2.3,Win32,60.00960154,61180d8558ab6be9ca450cb1,611e07ecdcc96256ae8d5b80,611e743015740b5910ec2e3a,,
,,,,space,,0,171,171,150,1,T, , , , ,space,2500,2.5,61180d8558ab6be9ca450cb1,001,2021-08-19_16h09.57.329,natb3,2021.2.3,Win32,60.00960154,61180d8558ab6be9ca450cb1,611e07ecdcc96256ae8d5b80,611e743015740b5910ec2e3a,0.3575,
,,,,space,,0,172,172,327,1,E, , , , ,space,1500,1.5,61180d8558ab6be9ca450cb1,001,2021-08-19_16h09.57.329,natb3,2021.2.3,Win32,60.00960154,61180d8558ab6be9ca450cb1,611e07ecdcc96256ae8d5b80,611e743015740b5910ec2e3a,0.4358,
,,,,space,,0,173,173,174,1,B, , , , ,space,2500,2.5,61180d8558ab6be9ca450cb1,001,2021-08-19_16h09.57.329,natb3,2021.2.3,Win32,60.00960154,61180d8558ab6be9ca450cb1,611e07ecdcc96256ae8d5b80,611e743015740b5910ec2e3a,0.492,
,,,,space,,0,174,174,94,1,C, , , , ,space,2000,2,61180d8558ab6be9ca450cb1,001,2021-08-19_16h09.57.329,natb3,2021.2.3,Win32,60.00960154,61180d8558ab6be9ca450cb1,611e07ecdcc96256ae8d5b80,611e743015740b5910ec2e3a,0.4248,
,,,,space,,0,175,175,47,1,P, , , , ,space,2000,2,61180d8558ab6be9ca450cb1,001,2021-08-19_16h09.57.329,natb3,2021.2.3,Win32,60.00960154,61180d8558ab6be9ca450cb1,611e07ecdcc96256ae8d5b80,611e743015740b5910ec2e3a,0.4084,
,,,,space,,0,176,176,328,1,R, , , , ,space,1500,1.5,61180d8558ab6be9ca450cb1,001,2021-08-19_16h09.57.329,natb3,2021.2.3,Win32,60.00960154,61180d8558ab6be9ca450cb1,611e07ecdcc96256ae8d5b80,611e743015740b5910ec2e3a,0.4334,
,,,,,,0,177,177,129,1,X,2,3,5, ,,1500,1.5,61180d8558ab6be9ca450cb1,001,2021-08-19_16h09.57.329,natb3,2021.2.3,Win32,60.00960154,61180d8558ab6be9ca450cb1,611e07ecdcc96256ae8d5b80,611e743015740b5910ec2e3a,,
,,,,space,,0,178,178,312,1,K, , , , ,space,2000,2,61180d8558ab6be9ca450cb1,001,2021-08-19_16h09.57.329,natb3,2021.2.3,Win32,60.00960154,61180d8558ab6be9ca450cb1,611e07ecdcc96256ae8d5b80,611e743015740b5910ec2e3a,0.4008,
,,,,space,,0,179,179,84,1,X, , , , ,,2000,2,61180d8558ab6be9ca450cb1,001,2021-08-19_16h09.57.329,natb3,2021.2.3,Win32,60.00960154,61180d8558ab6be9ca450cb1,611e07ecdcc96256ae8d5b80,611e743015740b5910ec2e3a,0.3336,
,,,,space,,0,180,180,194,1,D, , , , ,space,2000,2,61180d8558ab6be9ca450cb1,001,2021-08-19_16h09.57.329,natb3,2021.2.3,Win32,60.00960154,61180d8558ab6be9ca450cb1,611e07ecdcc96256ae8d5b80,611e743015740b5910ec2e3a,0.391,
,,,,,,0,181,181,138,1,X,8,5, ,3,,2000,2,61180d8558ab6be9ca450cb1,001,2021-08-19_16h09.57.329,natb3,2021.2.3,Win32,60.00960154,61180d8558ab6be9ca450cb1,611e07ecdcc96256ae8d5b80,611e743015740b5910ec2e3a,,
,,,,space,,0,182,182,326,1,W, , , , ,space,2000,2,61180d8558ab6be9ca450cb1,001,2021-08-19_16h09.57.329,natb3,2021.2.3,Win32,60.00960154,61180d8558ab6be9ca450cb1,611e07ecdcc96256ae8d5b80,611e743015740b5910ec2e3a,0.3778,
,,,,space,,0,183,183,319,1,V, , , , ,space,2000,2,61180d8558ab6be9ca450cb1,001,2021-08-19_16h09.57.329,natb3,2021.2.3,Win32,60.00960154,61180d8558ab6be9ca450cb1,611e07ecdcc96256ae8d5b80,611e743015740b5910ec2e3a,0.4421,
,,,,,,0,184,184,27,1,X,5, ,1,3,,1500,1.5,61180d8558ab6be9ca450cb1,001,2021-08-19_16h09.57.329,natb3,2021.2.3,Win32,60.00960154,61180d8558ab6be9ca450cb1,611e07ecdcc96256ae8d5b80,611e743015740b5910ec2e3a,,
,,,,space,,0,185,185,334,1,O, , , , ,space,1500,1.5,61180d8558ab6be9ca450cb1,001,2021-08-19_16h09.57.329,natb3,2021.2.3,Win32,60.00960154,61180d8558ab6be9ca450cb1,611e07ecdcc96256ae8d5b80,611e743015740b5910ec2e3a,0.5239,
,,,,space,,0,186,186,45,1,O, , , , ,space,2000,2,61180d8558ab6be9ca450cb1,001,2021-08-19_16h09.57.329,natb3,2021.2.3,Win32,60.00960154,61180d8558ab6be9ca450cb1,611e07ecdcc96256ae8d5b80,611e743015740b5910ec2e3a,0.6178,
,,,,space,,0,187,187,224,1,W, , , , ,space,1500,1.5,61180d8558ab6be9ca450cb1,001,2021-08-19_16h09.57.329,natb3,2021.2.3,Win32,60.00960154,61180d8558ab6be9ca450cb1,611e07ecdcc96256ae8d5b80,611e743015740b5910ec2e3a,0.7066,
,,,,,,0,188,188,46,1,X, , , , ,,2000,2,61180d8558ab6be9ca450cb1,001,2021-08-19_16h09.57.329,natb3,2021.2.3,Win32,60.00960154,61180d8558ab6be9ca450cb1,611e07ecdcc96256ae8d5b80,611e743015740b5910ec2e3a,,
,,,,,,0,189,189,96,1,X, , , , ,,1500,1.5,61180d8558ab6be9ca450cb1,001,2021-08-19_16h09.57.329,natb3,2021.2.3,Win32,60.00960154,61180d8558ab6be9ca450cb1,611e07ecdcc96256ae8d5b80,611e743015740b5910ec2e3a,,
,,,,space,,0,190,190,172,1,C, , , , ,space,1500,1.5,61180d8558ab6be9ca450cb1,001,2021-08-19_16h09.57.329,natb3,2021.2.3,Win32,60.00960154,61180d8558ab6be9ca450cb1,611e07ecdcc96256ae8d5b80,611e743015740b5910ec2e3a,0.51,
,,,,space,,0,191,191,288,1,M, , , , ,space,1500,1.5,61180d8558ab6be9ca450cb1,001,2021-08-19_16h09.57.329,natb3,2021.2.3,Win32,60.00960154,61180d8558ab6be9ca450cb1,611e07ecdcc96256ae8d5b80,611e743015740b5910ec2e3a,0.5113,
,,,,space,,0,192,192,321,1,N, , , , ,space,2000,2,61180d8558ab6be9ca450cb1,001,2021-08-19_16h09.57.329,natb3,2021.2.3,Win32,60.00960154,61180d8558ab6be9ca450cb1,611e07ecdcc96256ae8d5b80,611e743015740b5910ec2e3a,0.4525,
,,,,space,,0,193,193,11,1,P, , , , ,space,2500,2.5,61180d8558ab6be9ca450cb1,001,2021-08-19_16h09.57.329,natb3,2021.2.3,Win32,60.00960154,61180d8558ab6be9ca450cb1,611e07ecdcc96256ae8d5b80,611e743015740b5910ec2e3a,0.4689,
,,,,,,0,194,194,233,1,X, ,2, ,5,,1500,1.5,61180d8558ab6be9ca450cb1,001,2021-08-19_16h09.57.329,natb3,2021.2.3,Win32,60.00960154,61180d8558ab6be9ca450cb1,611e07ecdcc96256ae8d5b80,611e743015740b5910ec2e3a,,
,,,,,,0,195,195,277,1,X,8,5, ,2,,2000,2,61180d8558ab6be9ca450cb1,001,2021-08-19_16h09.57.329,natb3,2021.2.3,Win32,60.00960154,61180d8558ab6be9ca450cb1,611e07ecdcc96256ae8d5b80,611e743015740b5910ec2e3a,,
,,,,space,,0,196,196,272,1,D, , , , ,space,2000,2,61180d8558ab6be9ca450cb1,001,2021-08-19_16h09.57.329,natb3,2021.2.3,Win32,60.00960154,61180d8558ab6be9ca450cb1,611e07ecdcc96256ae8d5b80,611e743015740b5910ec2e3a,0.3864,
,,,,space,,0,197,197,298,1,I, , , , ,space,2000,2,61180d8558ab6be9ca450cb1,001,2021-08-19_16h09.57.329,natb3,2021.2.3,Win32,60.00960154,61180d8558ab6be9ca450cb1,611e07ecdcc96256ae8d5b80,611e743015740b5910ec2e3a,0.4916,
,,,,space,,0,198,198,52,1,F, , , , ,space,1500,1.5,61180d8558ab6be9ca450cb1,001,2021-08-19_16h09.57.329,natb3,2021.2.3,Win32,60.00960154,61180d8558ab6be9ca450cb1,611e07ecdcc96256ae8d5b80,611e743015740b5910ec2e3a,0.6607,
,,,,space,,0,199,199,113,1,W, , , , ,space,2500,2.5,61180d8558ab6be9ca450cb1,001,2021-08-19_16h09.57.329,natb3,2021.2.3,Win32,60.00960154,61180d8558ab6be9ca450cb1,611e07ecdcc96256ae8d5b80,611e743015740b5910ec2e3a,0.4919,
,,,,space,,0,200,200,199,1,J, , , , ,space,2500,2.5,61180d8558ab6be9ca450cb1,001,2021-08-19_16h09.57.329,natb3,2021.2.3,Win32,60.00960154,61180d8558ab6be9ca450cb1,611e07ecdcc96256ae8d5b80,611e743015740b5910ec2e3a,0.4903,
,,,,space,,0,201,201,147,1,E, , , , ,space,2000,2,61180d8558ab6be9ca450cb1,001,2021-08-19_16h09.57.329,natb3,2021.2.3,Win32,60.00960154,61180d8558ab6be9ca450cb1,611e07ecdcc96256ae8d5b80,611e743015740b5910ec2e3a,0.4996,
,,,,,,0,202,202,102,1,X, ,6, , ,,1500,1.5,61180d8558ab6be9ca450cb1,001,2021-08-19_16h09.57.329,natb3,2021.2.3,Win32,60.00960154,61180d8558ab6be9ca450cb1,611e07ecdcc96256ae8d5b80,611e743015740b5910ec2e3a,,
,,,,space,,0,203,203,240,1,F, , , , ,space,2500,2.5,61180d8558ab6be9ca450cb1,001,2021-08-19_16h09.57.329,natb3,2021.2.3,Win32,60.00960154,61180d8558ab6be9ca450cb1,611e07ecdcc96256ae8d5b80,611e743015740b5910ec2e3a,0.4203,
,,,,space,,0,204,204,223,1,Q, , , , ,space,2000,2,61180d8558ab6be9ca450cb1,001,2021-08-19_16h09.57.329,natb3,2021.2.3,Win32,60.00960154,61180d8558ab6be9ca450cb1,611e07ecdcc96256ae8d5b80,611e743015740b5910ec2e3a,0.4834,
,,,,,,0,205,205,171,1,X, , , , ,,1500,1.5,61180d8558ab6be9ca450cb1,001,2021-08-19_16h09.57.329,natb3,2021.2.3,Win32,60.00960154,61180d8558ab6be9ca450cb1,611e07ecdcc96256ae8d5b80,611e743015740b5910ec2e3a,,
,,,,,,0,206,206,122,1,X,1, , ,8,,1500,1.5,61180d8558ab6be9ca450cb1,001,2021-08-19_16h09.57.329,natb3,2021.2.3,Win32,60.00960154,61180d8558ab6be9ca450cb1,611e07ecdcc96256ae8d5b80,611e743015740b5910ec2e3a,,
,,,,space,,0,207,207,119,1,Y, , , , ,space,2500,2.5,61180d8558ab6be9ca450cb1,001,2021-08-19_16h09.57.329,natb3,2021.2.3,Win32,60.00960154,61180d8558ab6be9ca450cb1,611e07ecdcc96256ae8d5b80,611e743015740b5910ec2e3a,0.5084,
,,,,space,,0,208,208,53,1,G, , , , ,space,2500,2.5,61180d8558ab6be9ca450cb1,001,2021-08-19_16h09.57.329,natb3,2021.2.3,Win32,60.00960154,61180d8558ab6be9ca450cb1,611e07ecdcc96256ae8d5b80,611e743015740b5910ec2e3a,0.4862,
,,,,space,,0,209,209,181,1,E, , , , ,space,1500,1.5,61180d8558ab6be9ca450cb1,001,2021-08-19_16h09.57.329,natb3,2021.2.3,Win32,60.00960154,61180d8558ab6be9ca450cb1,611e07ecdcc96256ae8d5b80,611e743015740b5910ec2e3a,0.5911,
,,,,space,,0,210,210,285,1,B, , , , ,space,1500,1.5,61180d8558ab6be9ca450cb1,001,2021-08-19_16h09.57.329,natb3,2021.2.3,Win32,60.00960154,61180d8558ab6be9ca450cb1,611e07ecdcc96256ae8d5b80,611e743015740b5910ec2e3a,0.4945,
,,,,,,0,211,211,282,1,X, , , , ,,2500,2.5,61180d8558ab6be9ca450cb1,001,2021-08-19_16h09.57.329,natb3,2021.2.3,Win32,60.00960154,61180d8558ab6be9ca450cb1,611e07ecdcc96256ae8d5b80,611e743015740b5910ec2e3a,,
,,,,space,,0,212,212,32,1,M, , , , ,space,1500,1.5,61180d8558ab6be9ca450cb1,001,2021-08-19_16h09.57.329,natb3,2021.2.3,Win32,60.00960154,61180d8558ab6be9ca450cb1,611e07ecdcc96256ae8d5b80,611e743015740b5910ec2e3a,0.4693,
,,,,space,,0,213,213,281,1,Z, , , , ,space,1500,1.5,61180d8558ab6be9ca450cb1,001,2021-08-19_16h09.57.329,natb3,2021.2.3,Win32,60.00960154,61180d8558ab6be9ca450cb1,611e07ecdcc96256ae8d5b80,611e743015740b5910ec2e3a,0.5761,
,,,,space,,0,214,214,26,1,C, , , , ,space,2000,2,61180d8558ab6be9ca450cb1,001,2021-08-19_16h09.57.329,natb3,2021.2.3,Win32,60.00960154,61180d8558ab6be9ca450cb1,611e07ecdcc96256ae8d5b80,611e743015740b5910ec2e3a,0.5503,
,,,,space,,0,215,215,146,1,W, , , , ,space,1500,1.5,61180d8558ab6be9ca450cb1,001,2021-08-19_16h09.57.329,natb3,2021.2.3,Win32,60.00960154,61180d8558ab6be9ca450cb1,611e07ecdcc96256ae8d5b80,611e743015740b5910ec2e3a,0.484,
,,,,space,,0,216,216,178,1,Q, , , , ,space,1500,1.5,61180d8558ab6be9ca450cb1,001,2021-08-19_16h09.57.329,natb3,2021.2.3,Win32,60.00960154,61180d8558ab6be9ca450cb1,611e07ecdcc96256ae8d5b80,611e743015740b5910ec2e3a,0.4051,
,,,,space,,0,217,217,151,1,Y, , , , ,space,2500,2.5,61180d8558ab6be9ca450cb1,001,2021-08-19_16h09.57.329,natb3,2021.2.3,Win32,60.00960154,61180d8558ab6be9ca450cb1,611e07ecdcc96256ae8d5b80,611e743015740b5910ec2e3a,0.4666,
,,,,,,0,218,218,116,1,X, , , , ,,2000,2,61180d8558ab6be9ca450cb1,001,2021-08-19_16h09.57.329,natb3,2021.2.3,Win32,60.00960154,61180d8558ab6be9ca450cb1,611e07ecdcc96256ae8d5b80,611e743015740b5910ec2e3a,,
,,,,space,,0,219,219,314,1,L, , , , ,space,1500,1.5,61180d8558ab6be9ca450cb1,001,2021-08-19_16h09.57.329,natb3,2021.2.3,Win32,60.00960154,61180d8558ab6be9ca450cb1,611e07ecdcc96256ae8d5b80,611e743015740b5910ec2e3a,0.4328,
,,,,space,,0,220,220,242,1,H, , , , ,space,2500,2.5,61180d8558ab6be9ca450cb1,001,2021-08-19_16h09.57.329,natb3,2021.2.3,Win32,60.00960154,61180d8558ab6be9ca450cb1,611e07ecdcc96256ae8d5b80,611e743015740b5910ec2e3a,0.4327,
,,,,space,,0,221,221,8,1,U, , , , ,space,1500,1.5,61180d8558ab6be9ca450cb1,001,2021-08-19_16h09.57.329,natb3,2021.2.3,Win32,60.00960154,61180d8558ab6be9ca450cb1,611e07ecdcc96256ae8d5b80,611e743015740b5910ec2e3a,0.4504,
,,,,space,,0,222,222,214,1,W, , , , ,space,2000,2,61180d8558ab6be9ca450cb1,001,2021-08-19_16h09.57.329,natb3,2021.2.3,Win32,60.00960154,61180d8558ab6be9ca450cb1,611e07ecdcc96256ae8d5b80,611e743015740b5910ec2e3a,0.3732,
,,,,space,,0,223,223,161,1,F, , , , ,space,1500,1.5,61180d8558ab6be9ca450cb1,001,2021-08-19_16h09.57.329,natb3,2021.2.3,Win32,60.00960154,61180d8558ab6be9ca450cb1,611e07ecdcc96256ae8d5b80,611e743015740b5910ec2e3a,0.4098,
,,,,space,,0,224,224,139,1,V, , , , ,space,2000,2,61180d8558ab6be9ca450cb1,001,2021-08-19_16h09.57.329,natb3,2021.2.3,Win32,60.00960154,61180d8558ab6be9ca450cb1,611e07ecdcc96256ae8d5b80,611e743015740b5910ec2e3a,0.344,
,,,,space,,0,225,225,98,1,X, , , , ,,2500,2.5,61180d8558ab6be9ca450cb1,001,2021-08-19_16h09.57.329,natb3,2021.2.3,Win32,60.00960154,61180d8558ab6be9ca450cb1,611e07ecdcc96256ae8d5b80,611e743015740b5910ec2e3a,0.343,
,,,,space,,0,226,226,177,1,M, , , , ,space,2500,2.5,61180d8558ab6be9ca450cb1,001,2021-08-19_16h09.57.329,natb3,2021.2.3,Win32,60.00960154,61180d8558ab6be9ca450cb1,611e07ecdcc96256ae8d5b80,611e743015740b5910ec2e3a,0.3385,
,,,,space,,0,227,227,67,1,Q, , , , ,space,2000,2,61180d8558ab6be9ca450cb1,001,2021-08-19_16h09.57.329,natb3,2021.2.3,Win32,60.00960154,61180d8558ab6be9ca450cb1,611e07ecdcc96256ae8d5b80,611e743015740b5910ec2e3a,0.3673,
,,,,space,,0,228,228,97,1,B, , , , ,space,2500,2.5,61180d8558ab6be9ca450cb1,001,2021-08-19_16h09.57.329,natb3,2021.2.3,Win32,60.00960154,61180d8558ab6be9ca450cb1,611e07ecdcc96256ae8d5b80,611e743015740b5910ec2e3a,0.3092,
,,,,space,,0,229,229,297,1,U, , , , ,space,2000,2,61180d8558ab6be9ca450cb1,001,2021-08-19_16h09.57.329,natb3,2021.2.3,Win32,60.00960154,61180d8558ab6be9ca450cb1,611e07ecdcc96256ae8d5b80,611e743015740b5910ec2e3a,0.3854,
,,,,,,0,230,230,207,1,X,9, ,2, ,,2500,2.5,61180d8558ab6be9ca450cb1,001,2021-08-19_16h09.57.329,natb3,2021.2.3,Win32,60.00960154,61180d8558ab6be9ca450cb1,611e07ecdcc96256ae8d5b80,611e743015740b5910ec2e3a,,
,,,,,,0,231,231,252,1,X,3, ,6,9,,2000,2,61180d8558ab6be9ca450cb1,001,2021-08-19_16h09.57.329,natb3,2021.2.3,Win32,60.00960154,61180d8558ab6be9ca450cb1,611e07ecdcc96256ae8d5b80,611e743015740b5910ec2e3a,,
,,,,,,0,232,232,118,1,X, , , , ,,2000,2,61180d8558ab6be9ca450cb1,001,2021-08-19_16h09.57.329,natb3,2021.2.3,Win32,60.00960154,61180d8558ab6be9ca450cb1,611e07ecdcc96256ae8d5b80,611e743015740b5910ec2e3a,,
,,,,,,0,233,233,248,1,X, ,1,5, ,,1500,1.5,61180d8558ab6be9ca450cb1,001,2021-08-19_16h09.57.329,natb3,2021.2.3,Win32,60.00960154,61180d8558ab6be9ca450cb1,611e07ecdcc96256ae8d5b80,611e743015740b5910ec2e3a,,
,,,,space,,0,234,234,75,1,U, , , , ,space,1500,1.5,61180d8558ab6be9ca450cb1,001,2021-08-19_16h09.57.329,natb3,2021.2.3,Win32,60.00960154,61180d8558ab6be9ca450cb1,611e07ecdcc96256ae8d5b80,611e743015740b5910ec2e3a,0.4868,
,,,,space,,0,235,235,241,1,G, , , , ,space,2500,2.5,61180d8558ab6be9ca450cb1,001,2021-08-19_16h09.57.329,natb3,2021.2.3,Win32,60.00960154,61180d8558ab6be9ca450cb1,611e07ecdcc96256ae8d5b80,611e743015740b5910ec2e3a,0.3691,
,,,,space,,0,236,236,251,1,B, , , , ,space,1500,1.5,61180d8558ab6be9ca450cb1,001,2021-08-19_16h09.57.329,natb3,2021.2.3,Win32,60.00960154,61180d8558ab6be9ca450cb1,611e07ecdcc96256ae8d5b80,611e743015740b5910ec2e3a,0.4209,
,,,,space,,0,237,237,16,1,D, , , , ,space,1500,1.5,61180d8558ab6be9ca450cb1,001,2021-08-19_16h09.57.329,natb3,2021.2.3,Win32,60.00960154,61180d8558ab6be9ca450cb1,611e07ecdcc96256ae8d5b80,611e743015740b5910ec2e3a,0.423,
,,,,space,,0,238,238,19,1,G, , , , ,space,1500,1.5,61180d8558ab6be9ca450cb1,001,2021-08-19_16h09.57.329,natb3,2021.2.3,Win32,60.00960154,61180d8558ab6be9ca450cb1,611e07ecdcc96256ae8d5b80,611e743015740b5910ec2e3a,0.4108,
,,,,space,,0,239,239,144,1,Q, , , , ,space,2500,2.5,61180d8558ab6be9ca450cb1,001,2021-08-19_16h09.57.329,natb3,2021.2.3,Win32,60.00960154,61180d8558ab6be9ca450cb1,611e07ecdcc96256ae8d5b80,611e743015740b5910ec2e3a,0.419,
,,,,space,,0,240,240,245,1,K, , , , ,space,2000,2,61180d8558ab6be9ca450cb1,001,2021-08-19_16h09.57.329,natb3,2021.2.3,Win32,60.00960154,61180d8558ab6be9ca450cb1,611e07ecdcc96256ae8d5b80,611e743015740b5910ec2e3a,0.4099,
,,,,space,,0,241,241,307,1,F, , , , ,space,2500,2.5,61180d8558ab6be9ca450cb1,001,2021-08-19_16h09.57.329,natb3,2021.2.3,Win32,60.00960154,61180d8558ab6be9ca450cb1,611e07ecdcc96256ae8d5b80,611e743015740b5910ec2e3a,0.3837,
,,,,,,0,242,242,133,1,X, ,4, ,6,,2500,2.5,61180d8558ab6be9ca450cb1,001,2021-08-19_16h09.57.329,natb3,2021.2.3,Win32,60.00960154,61180d8558ab6be9ca450cb1,611e07ecdcc96256ae8d5b80,611e743015740b5910ec2e3a,,
,,,,space,,0,243,243,317,1,C, , , , ,space,2000,2,61180d8558ab6be9ca450cb1,001,2021-08-19_16h09.57.329,natb3,2021.2.3,Win32,60.00960154,61180d8558ab6be9ca450cb1,611e07ecdcc96256ae8d5b80,611e743015740b5910ec2e3a,0.4158,
,,,,,,0,244,244,329,1,X,3,4, ,2,,2500,2.5,61180d8558ab6be9ca450cb1,001,2021-08-19_16h09.57.329,natb3,2021.2.3,Win32,60.00960154,61180d8558ab6be9ca450cb1,611e07ecdcc96256ae8d5b80,611e743015740b5910ec2e3a,,
,,,,space,,0,245,245,128,1,D, , , , ,space,2500,2.5,61180d8558ab6be9ca450cb1,001,2021-08-19_16h09.57.329,natb3,2021.2.3,Win32,60.00960154,61180d8558ab6be9ca450cb1,611e07ecdcc96256ae8d5b80,611e743015740b5910ec2e3a,0.3603,
,,,,,,0,246,246,229,1,X,8, ,2,6,,2500,2.5,61180d8558ab6be9ca450cb1,001,2021-08-19_16h09.57.329,natb3,2021.2.3,Win32,60.00960154,61180d8558ab6be9ca450cb1,611e07ecdcc96256ae8d5b80,611e743015740b5910ec2e3a,,
,,,,space,,0,247,247,296,1,Y, , , , ,space,2500,2.5,61180d8558ab6be9ca450cb1,001,2021-08-19_16h09.57.329,natb3,2021.2.3,Win32,60.00960154,61180d8558ab6be9ca450cb1,611e07ecdcc96256ae8d5b80,611e743015740b5910ec2e3a,0.6052,
,,,,,,0,248,248,43,1,X, ,6, ,2,,2500,2.5,61180d8558ab6be9ca450cb1,001,2021-08-19_16h09.57.329,natb3,2021.2.3,Win32,60.00960154,61180d8558ab6be9ca450cb1,611e07ecdcc96256ae8d5b80,611e743015740b5910ec2e3a,,
,,,,,,0,249,249,263,1,X,4, ,6, ,,1500,1.5,61180d8558ab6be9ca450cb1,001,2021-08-19_16h09.57.329,natb3,2021.2.3,Win32,60.00960154,61180d8558ab6be9ca450cb1,611e07ecdcc96256ae8d5b80,611e743015740b5910ec2e3a,,
,,,,space,,0,250,250,264,1,U, , , , ,space,2000,2,61180d8558ab6be9ca450cb1,001,2021-08-19_16h09.57.329,natb3,2021.2.3,Win32,60.00960154,61180d8558ab6be9ca450cb1,611e07ecdcc96256ae8d5b80,611e743015740b5910ec2e3a,0.4168,
,,,,space,,0,251,251,232,1,O, , , , ,space,2500,2.5,61180d8558ab6be9ca450cb1,001,2021-08-19_16h09.57.329,natb3,2021.2.3,Win32,60.00960154,61180d8558ab6be9ca450cb1,611e07ecdcc96256ae8d5b80,611e743015740b5910ec2e3a,0.5694,
,,,,,,0,252,252,162,1,X,1,6, ,2,,1500,1.5,61180d8558ab6be9ca450cb1,001,2021-08-19_16h09.57.329,natb3,2021.2.3,Win32,60.00960154,61180d8558ab6be9ca450cb1,611e07ecdcc96256ae8d5b80,611e743015740b5910ec2e3a,,
,,,,space,,0,253,253,310,1,J, , , , ,space,2500,2.5,61180d8558ab6be9ca450cb1,001,2021-08-19_16h09.57.329,natb3,2021.2.3,Win32,60.00960154,61180d8558ab6be9ca450cb1,611e07ecdcc96256ae8d5b80,611e743015740b5910ec2e3a,0.341,
,,,,space,,0,254,254,304,1,S, , , , ,space,2000,2,61180d8558ab6be9ca450cb1,001,2021-08-19_16h09.57.329,natb3,2021.2.3,Win32,60.00960154,61180d8558ab6be9ca450cb1,611e07ecdcc96256ae8d5b80,611e743015740b5910ec2e3a,0.4034,
,,,,space,,0,255,255,77,1,O, , , , ,space,2000,2,61180d8558ab6be9ca450cb1,001,2021-08-19_16h09.57.329,natb3,2021.2.3,Win32,60.00960154,61180d8558ab6be9ca450cb1,611e07ecdcc96256ae8d5b80,611e743015740b5910ec2e3a,0.3745,
,,,,space,,0,256,256,294,1,T, , , , ,space,2000,2,61180d8558ab6be9ca450cb1,001,2021-08-19_16h09.57.329,natb3,2021.2.3,Win32,60.00960154,61180d8558ab6be9ca450cb1,611e07ecdcc96256ae8d5b80,611e743015740b5910ec2e3a,0.3846,
,,,,space,,0,257,257,243,1,X, , , , ,,2500,2.5,61180d8558ab6be9ca450cb1,001,2021-08-19_16h09.57.329,natb3,2021.2.3,Win32,60.00960154,61180d8558ab6be9ca450cb1,611e07ecdcc96256ae8d5b80,611e743015740b5910ec2e3a,0.343,
,,,,space,,0,258,258,283,1,C, , , , ,space,1500,1.5,61180d8558ab6be9ca450cb1,001,2021-08-19_16h09.57.329,natb3,2021.2.3,Win32,60.00960154,61180d8558ab6be9ca450cb1,611e07ecdcc96256ae8d5b80,611e743015740b5910ec2e3a,0.4837,
,,,,space,,0,259,259,65,1,M, , , , ,space,1500,1.5,61180d8558ab6be9ca450cb1,001,2021-08-19_16h09.57.329,natb3,2021.2.3,Win32,60.00960154,61180d8558ab6be9ca450cb1,611e07ecdcc96256ae8d5b80,611e743015740b5910ec2e3a,0.4227,
,,,,space,,0,260,260,160,1,D, , , , ,space,1500,1.5,61180d8558ab6be9ca450cb1,001,2021-08-19_16h09.57.329,natb3,2021.2.3,Win32,60.00960154,61180d8558ab6be9ca450cb1,611e07ecdcc96256ae8d5b80,611e743015740b5910ec2e3a,0.5777,
,,,,space,,0,261,261,71,1,R, , , , ,space,2500,2.5,61180d8558ab6be9ca450cb1,001,2021-08-19_16h09.57.329,natb3,2021.2.3,Win32,60.00960154,61180d8558ab6be9ca450cb1,611e07ecdcc96256ae8d5b80,611e743015740b5910ec2e3a,0.4841,
,,,,space,,0,262,262,258,1,E, , , , ,space,1500,1.5,61180d8558ab6be9ca450cb1,001,2021-08-19_16h09.57.329,natb3,2021.2.3,Win32,60.00960154,61180d8558ab6be9ca450cb1,611e07ecdcc96256ae8d5b80,611e743015740b5910ec2e3a,0.5093,
,,,,space,,0,263,263,50,1,D, , , , ,space,1500,1.5,61180d8558ab6be9ca450cb1,001,2021-08-19_16h09.57.329,natb3,2021.2.3,Win32,60.00960154,61180d8558ab6be9ca450cb1,611e07ecdcc96256ae8d5b80,611e743015740b5910ec2e3a,0.434,
,,,,space,,0,264,264,112,1,Q, , , , ,space,2500,2.5,61180d8558ab6be9ca450cb1,001,2021-08-19_16h09.57.329,natb3,2021.2.3,Win32,60.00960154,61180d8558ab6be9ca450cb1,611e07ecdcc96256ae8d5b80,611e743015740b5910ec2e3a,0.5408,
,,,,space,,0,265,265,140,1,B, , , , ,space,2500,2.5,61180d8558ab6be9ca450cb1,001,2021-08-19_16h09.57.329,natb3,2021.2.3,Win32,60.00960154,61180d8558ab6be9ca450cb1,611e07ecdcc96256ae8d5b80,611e743015740b5910ec2e3a,0.5168,
,,,,space,,0,266,266,132,1,H, , , , ,space,2500,2.5,61180d8558ab6be9ca450cb1,001,2021-08-19_16h09.57.329,natb3,2021.2.3,Win32,60.00960154,61180d8558ab6be9ca450cb1,611e07ecdcc96256ae8d5b80,611e743015740b5910ec2e3a,0.5827,
,,,,space,,0,267,267,64,1,N, , , , ,space,2000,2,61180d8558ab6be9ca450cb1,001,2021-08-19_16h09.57.329,natb3,2021.2.3,Win32,60.00960154,61180d8558ab6be9ca450cb1,611e07ecdcc96256ae8d5b80,611e743015740b5910ec2e3a,0.4491,
,,,,space,,0,268,268,228,1,Y, , , , ,space,2000,2,61180d8558ab6be9ca450cb1,001,2021-08-19_16h09.57.329,natb3,2021.2.3,Win32,60.00960154,61180d8558ab6be9ca450cb1,611e07ecdcc96256ae8d5b80,611e743015740b5910ec2e3a,0.5169,
,,,,space,,0,269,269,58,1,L, , , , ,space,2000,2,61180d8558ab6be9ca450cb1,001,2021-08-19_16h09.57.329,natb3,2021.2.3,Win32,60.00960154,61180d8558ab6be9ca450cb1,611e07ecdcc96256ae8d5b80,611e743015740b5910ec2e3a,0.4518,
,,,,space,,0,270,270,205,1,C, , , , ,space,2000,2,61180d8558ab6be9ca450cb1,001,2021-08-19_16h09.57.329,natb3,2021.2.3,Win32,60.00960154,61180d8558ab6be9ca450cb1,611e07ecdcc96256ae8d5b80,611e743015740b5910ec2e3a,0.4385,
,,,,space,,0,271,271,92,1,Z, , , , ,space,1500,1.5,61180d8558ab6be9ca450cb1,001,2021-08-19_16h09.57.329,natb3,2021.2.3,Win32,60.00960154,61180d8558ab6be9ca450cb1,611e07ecdcc96256ae8d5b80,611e743015740b5910ec2e3a,0.6187,
,,,,space,,0,272,272,289,1,Q, , , , ,space,2000,2,61180d8558ab6be9ca450cb1,001,2021-08-19_16h09.57.329,natb3,2021.2.3,Win32,60.00960154,61180d8558ab6be9ca450cb1,611e07ecdcc96256ae8d5b80,611e743015740b5910ec2e3a,0.8252,
,,,,space,,0,273,273,111,1,O, , , , ,space,2000,2,61180d8558ab6be9ca450cb1,001,2021-08-19_16h09.57.329,natb3,2021.2.3,Win32,60.00960154,61180d8558ab6be9ca450cb1,611e07ecdcc96256ae8d5b80,611e743015740b5910ec2e3a,0.4442,
,,,,space,,0,274,274,257,1,W, , , , ,space,2000,2,61180d8558ab6be9ca450cb1,001,2021-08-19_16h09.57.329,natb3,2021.2.3,Win32,60.00960154,61180d8558ab6be9ca450cb1,611e07ecdcc96256ae8d5b80,611e743015740b5910ec2e3a,0.4932,
,,,,space,,0,275,275,37,1,E, , , , ,space,2500,2.5,61180d8558ab6be9ca450cb1,001,2021-08-19_16h09.57.329,natb3,2021.2.3,Win32,60.00960154,61180d8558ab6be9ca450cb1,611e07ecdcc96256ae8d5b80,611e743015740b5910ec2e3a,0.5012,
,,,,space,,0,276,276,249,1,C, , , , ,space,2000,2,61180d8558ab6be9ca450cb1,001,2021-08-19_16h09.57.329,natb3,2021.2.3,Win32,60.00960154,61180d8558ab6be9ca450cb1,611e07ecdcc96256ae8d5b80,611e743015740b5910ec2e3a,0.4215,
,,,,space,,0,277,277,143,1,M, , , , ,space,2500,2.5,61180d8558ab6be9ca450cb1,001,2021-08-19_16h09.57.329,natb3,2021.2.3,Win32,60.00960154,61180d8558ab6be9ca450cb1,611e07ecdcc96256ae8d5b80,611e743015740b5910ec2e3a,0.4826,
,,,,space,,0,278,278,29,1,B, , , , ,space,1500,1.5,61180d8558ab6be9ca450cb1,001,2021-08-19_16h09.57.329,natb3,2021.2.3,Win32,60.00960154,61180d8558ab6be9ca450cb1,611e07ecdcc96256ae8d5b80,611e743015740b5910ec2e3a,0.508,
,,,,space,,0,279,279,91,1,L, , , , ,space,2000,2,61180d8558ab6be9ca450cb1,001,2021-08-19_16h09.57.329,natb3,2021.2.3,Win32,60.00960154,61180d8558ab6be9ca450cb1,611e07ecdcc96256ae8d5b80,611e743015740b5910ec2e3a,0.5493,
,,,,,,0,280,280,153,1,X,4,7, ,6,,2000,2,61180d8558ab6be9ca450cb1,001,2021-08-19_16h09.57.329,natb3,2021.2.3,Win32,60.00960154,61180d8558ab6be9ca450cb1,611e07ecdcc96256ae8d5b80,611e743015740b5910ec2e3a,,
,,,,space,,0,281,281,308,1,G, , , , ,space,1500,1.5,61180d8558ab6be9ca450cb1,001,2021-08-19_16h09.57.329,natb3,2021.2.3,Win32,60.00960154,61180d8558ab6be9ca450cb1,611e07ecdcc96256ae8d5b80,611e743015740b5910ec2e3a,0.344,
,,,,space,,0,282,282,230,1,U, , , , ,space,1500,1.5,61180d8558ab6be9ca450cb1,001,2021-08-19_16h09.57.329,natb3,2021.2.3,Win32,60.00960154,61180d8558ab6be9ca450cb1,611e07ecdcc96256ae8d5b80,611e743015740b5910ec2e3a,0.6725,
,,,,space,,0,283,283,28,1,V, , , , ,space,1500,1.5,61180d8558ab6be9ca450cb1,001,2021-08-19_16h09.57.329,natb3,2021.2.3,Win32,60.00960154,61180d8558ab6be9ca450cb1,611e07ecdcc96256ae8d5b80,611e743015740b5910ec2e3a,0.4323,
,,,,space,,0,284,284,163,1,G, , , , ,space,2500,2.5,61180d8558ab6be9ca450cb1,001,2021-08-19_16h09.57.329,natb3,2021.2.3,Win32,60.00960154,61180d8558ab6be9ca450cb1,611e07ecdcc96256ae8d5b80,611e743015740b5910ec2e3a,0.3898,
,,,,space,,0,285,285,81,1,S, , , , ,space,2000,2,61180d8558ab6be9ca450cb1,001,2021-08-19_16h09.57.329,natb3,2021.2.3,Win32,60.00960154,61180d8558ab6be9ca450cb1,611e07ecdcc96256ae8d5b80,611e743015740b5910ec2e3a,0.3887,
,,,,space,,0,286,286,290,1,W, , , , ,space,1500,1.5,61180d8558ab6be9ca450cb1,001,2021-08-19_16h09.57.329,natb3,2021.2.3,Win32,60.00960154,61180d8558ab6be9ca450cb1,611e07ecdcc96256ae8d5b80,611e743015740b5910ec2e3a,0.4673,
,,,,space,,0,287,287,333,1,I, , , , ,space,1500,1.5,61180d8558ab6be9ca450cb1,001,2021-08-19_16h09.57.329,natb3,2021.2.3,Win32,60.00960154,61180d8558ab6be9ca450cb1,611e07ecdcc96256ae8d5b80,611e743015740b5910ec2e3a,0.4839,
,,,,space,,0,288,288,17,1,F, , , , ,space,2500,2.5,61180d8558ab6be9ca450cb1,001,2021-08-19_16h09.57.329,natb3,2021.2.3,Win32,60.00960154,61180d8558ab6be9ca450cb1,611e07ecdcc96256ae8d5b80,611e743015740b5910ec2e3a,0.4419,
,,,,space,,0,289,289,14,1,S, , , , ,space,2500,2.5,61180d8558ab6be9ca450cb1,001,2021-08-19_16h09.57.329,natb3,2021.2.3,Win32,60.00960154,61180d8558ab6be9ca450cb1,611e07ecdcc96256ae8d5b80,611e743015740b5910ec2e3a,0.4273,
,,,,space,,0,290,290,299,1,X, , , , ,,2500,2.5,61180d8558ab6be9ca450cb1,001,2021-08-19_16h09.57.329,natb3,2021.2.3,Win32,60.00960154,61180d8558ab6be9ca450cb1,611e07ecdcc96256ae8d5b80,611e743015740b5910ec2e3a,0.3668,
,,,,space,,0,291,291,22,1,K, , , , ,space,2000,2,61180d8558ab6be9ca450cb1,001,2021-08-19_16h09.57.329,natb3,2021.2.3,Win32,60.00960154,61180d8558ab6be9ca450cb1,611e07ecdcc96256ae8d5b80,611e743015740b5910ec2e3a,0.3996,
,,,,space,,0,292,292,30,1,N, , , , ,space,2500,2.5,61180d8558ab6be9ca450cb1,001,2021-08-19_16h09.57.329,natb3,2021.2.3,Win32,60.00960154,61180d8558ab6be9ca450cb1,611e07ecdcc96256ae8d5b80,611e743015740b5910ec2e3a,0.4419,
,,,,,,0,293,293,23,1,X,1, ,5, ,,2000,2,61180d8558ab6be9ca450cb1,001,2021-08-19_16h09.57.329,natb3,2021.2.3,Win32,60.00960154,61180d8558ab6be9ca450cb1,611e07ecdcc96256ae8d5b80,611e743015740b5910ec2e3a,,
,,,,space,,0,294,294,155,1,O, , , , ,space,1500,1.5,61180d8558ab6be9ca450cb1,001,2021-08-19_16h09.57.329,natb3,2021.2.3,Win32,60.00960154,61180d8558ab6be9ca450cb1,611e07ecdcc96256ae8d5b80,611e743015740b5910ec2e3a,0.4164,
,,,,,,0,295,295,31,1,X, , , , ,,1500,1.5,61180d8558ab6be9ca450cb1,001,2021-08-19_16h09.57.329,natb3,2021.2.3,Win32,60.00960154,61180d8558ab6be9ca450cb1,611e07ecdcc96256ae8d5b80,611e743015740b5910ec2e3a,,
,,,,space,,0,296,296,9,1,I, , , , ,space,1500,1.5,61180d8558ab6be9ca450cb1,001,2021-08-19_16h09.57.329,natb3,2021.2.3,Win32,60.00960154,61180d8558ab6be9ca450cb1,611e07ecdcc96256ae8d5b80,611e743015740b5910ec2e3a,0.5062,
,,,,space,,0,297,297,300,1,O, , , , ,space,2500,2.5,61180d8558ab6be9ca450cb1,001,2021-08-19_16h09.57.329,natb3,2021.2.3,Win32,60.00960154,61180d8558ab6be9ca450cb1,611e07ecdcc96256ae8d5b80,611e743015740b5910ec2e3a,0.5488,
,,,,space,,0,298,298,275,1,G, , , , ,space,1500,1.5,61180d8558ab6be9ca450cb1,001,2021-08-19_16h09.57.329,natb3,2021.2.3,Win32,60.00960154,61180d8558ab6be9ca450cb1,611e07ecdcc96256ae8d5b80,611e743015740b5910ec2e3a,0.4585,
,,,,space,,0,299,299,73,1,Y, , , , ,space,2000,2,61180d8558ab6be9ca450cb1,001,2021-08-19_16h09.57.329,natb3,2021.2.3,Win32,60.00960154,61180d8558ab6be9ca450cb1,611e07ecdcc96256ae8d5b80,611e743015740b5910ec2e3a,0.3759,
,,,,space,,0,300,300,55,1,H, , , , ,space,2500,2.5,61180d8558ab6be9ca450cb1,001,2021-08-19_16h09.57.329,natb3,2021.2.3,Win32,60.00960154,61180d8558ab6be9ca450cb1,611e07ecdcc96256ae8d5b80,611e743015740b5910ec2e3a,0.4,
,,,,space,,0,301,301,266,1,O, , , , ,space,1500,1.5,61180d8558ab6be9ca450cb1,001,2021-08-19_16h09.57.329,natb3,2021.2.3,Win32,60.00960154,61180d8558ab6be9ca450cb1,611e07ecdcc96256ae8d5b80,611e743015740b5910ec2e3a,0.458,
,,,,space,,0,302,302,6,1,Y, , , , ,space,2500,2.5,61180d8558ab6be9ca450cb1,001,2021-08-19_16h09.57.329,natb3,2021.2.3,Win32,60.00960154,61180d8558ab6be9ca450cb1,611e07ecdcc96256ae8d5b80,611e743015740b5910ec2e3a,0.4115,
,,,,space,,0,303,303,24,1,L, , , , ,space,2500,2.5,61180d8558ab6be9ca450cb1,001,2021-08-19_16h09.57.329,natb3,2021.2.3,Win32,60.00960154,61180d8558ab6be9ca450cb1,611e07ecdcc96256ae8d5b80,611e743015740b5910ec2e3a,0.4366,
,,,,space,,0,304,304,152,1,U, , , , ,space,2000,2,61180d8558ab6be9ca450cb1,001,2021-08-19_16h09.57.329,natb3,2021.2.3,Win32,60.00960154,61180d8558ab6be9ca450cb1,611e07ecdcc96256ae8d5b80,611e743015740b5910ec2e3a,0.4206,
,,,,space,,0,305,305,274,1,F, , , , ,space,2000,2,61180d8558ab6be9ca450cb1,001,2021-08-19_16h09.57.329,natb3,2021.2.3,Win32,60.00960154,61180d8558ab6be9ca450cb1,611e07ecdcc96256ae8d5b80,611e743015740b5910ec2e3a,0.3207,
,,,,space,,0,306,306,280,1,L, , , , ,space,1500,1.5,61180d8558ab6be9ca450cb1,001,2021-08-19_16h09.57.329,natb3,2021.2.3,Win32,60.00960154,61180d8558ab6be9ca450cb1,611e07ecdcc96256ae8d5b80,611e743015740b5910ec2e3a,0.3773,
,,,,space,,0,307,307,25,1,Z, , , , ,space,2500,2.5,61180d8558ab6be9ca450cb1,001,2021-08-19_16h09.57.329,natb3,2021.2.3,Win32,60.00960154,61180d8558ab6be9ca450cb1,611e07ecdcc96256ae8d5b80,611e743015740b5910ec2e3a,0.316,
,,,,space,,0,308,308,208,1,B, , , , ,space,1500,1.5,61180d8558ab6be9ca450cb1,001,2021-08-19_16h09.57.329,natb3,2021.2.3,Win32,60.00960154,61180d8558ab6be9ca450cb1,611e07ecdcc96256ae8d5b80,611e743015740b5910ec2e3a,0.3498,
,,,,,,0,309,309,66,1,X, ,4,7, ,,2000,2,61180d8558ab6be9ca450cb1,001,2021-08-19_16h09.57.329,natb3,2021.2.3,Win32,60.00960154,61180d8558ab6be9ca450cb1,611e07ecdcc96256ae8d5b80,611e743015740b5910ec2e3a,,
,,,,space,,0,310,310,168,1,X, , , , ,,2500,2.5,61180d8558ab6be9ca450cb1,001,2021-08-19_16h09.57.329,natb3,2021.2.3,Win32,60.00960154,61180d8558ab6be9ca450cb1,611e07ecdcc96256ae8d5b80,611e743015740b5910ec2e3a,0.3827,
,,,,space,,0,311,311,79,1,P, , , , ,space,2000,2,61180d8558ab6be9ca450cb1,001,2021-08-19_16h09.57.329,natb3,2021.2.3,Win32,60.00960154,61180d8558ab6be9ca450cb1,611e07ecdcc96256ae8d5b80,611e743015740b5910ec2e3a,0.4117,
,,,,space,,0,312,312,137,1,C, , , , ,space,2500,2.5,61180d8558ab6be9ca450cb1,001,2021-08-19_16h09.57.329,natb3,2021.2.3,Win32,60.00960154,61180d8558ab6be9ca450cb1,611e07ecdcc96256ae8d5b80,611e743015740b5910ec2e3a,0.4022,
,,,,space,,0,313,313,183,1,R, , , , ,space,1500,1.5,61180d8558ab6be9ca450cb1,001,2021-08-19_16h09.57.329,natb3,2021.2.3,Win32,60.00960154,61180d8558ab6be9ca450cb1,611e07ecdcc96256ae8d5b80,611e743015740b5910ec2e3a,0.5824,
,,,,space,,0,314,314,270,1,S, , , , ,space,1500,1.5,61180d8558ab6be9ca450cb1,001,2021-08-19_16h09.57.329,natb3,2021.2.3,Win32,60.00960154,61180d8558ab6be9ca450cb1,611e07ecdcc96256ae8d5b80,611e743015740b5910ec2e3a,0.44,
,,,,space,,0,315,315,209,1,N, , , , ,space,2000,2,61180d8558ab6be9ca450cb1,001,2021-08-19_16h09.57.329,natb3,2021.2.3,Win32,60.00960154,61180d8558ab6be9ca450cb1,611e07ecdcc96256ae8d5b80,611e743015740b5910ec2e3a,0.4244,
,,,,,,0,316,316,203,1,X, , , , ,,2500,2.5,61180d8558ab6be9ca450cb1,001,2021-08-19_16h09.57.329,natb3,2021.2.3,Win32,60.00960154,61180d8558ab6be9ca450cb1,611e07ecdcc96256ae8d5b80,611e743015740b5910ec2e3a,,
,,,,,,0,317,317,259,1,X,8, , ,3,,2500,2.5,61180d8558ab6be9ca450cb1,001,2021-08-19_16h09.57.329,natb3,2021.2.3,Win32,60.00960154,61180d8558ab6be9ca450cb1,611e07ecdcc96256ae8d5b80,611e743015740b5910ec2e3a,,
,,,,space,,0,318,318,261,1,T, , , , ,space,2000,2,61180d8558ab6be9ca450cb1,001,2021-08-19_16h09.57.329,natb3,2021.2.3,Win32,60.00960154,61180d8558ab6be9ca450cb1,611e07ecdcc96256ae8d5b80,611e743015740b5910ec2e3a,0.4109,
,,,,space,,0,319,319,87,1,H, , , , ,space,1500,1.5,61180d8558ab6be9ca450cb1,001,2021-08-19_16h09.57.329,natb3,2021.2.3,Win32,60.00960154,61180d8558ab6be9ca450cb1,611e07ecdcc96256ae8d5b80,611e743015740b5910ec2e3a,0.4005,
,,,,,,0,320,320,39,1,X,6,2, , ,,1500,1.5,61180d8558ab6be9ca450cb1,001,2021-08-19_16h09.57.329,natb3,2021.2.3,Win32,60.00960154,61180d8558ab6be9ca450cb1,611e07ecdcc96256ae8d5b80,611e743015740b5910ec2e3a,,
,,,,space,,0,321,321,195,1,X, , , , ,,1500,1.5,61180d8558ab6be9ca450cb1,001,2021-08-19_16h09.57.329,natb3,2021.2.3,Win32,60.00960154,61180d8558ab6be9ca450cb1,611e07ecdcc96256ae8d5b80,611e743015740b5910ec2e3a,0.3336,
,,,,space,,0,322,322,131,1,G, , , , ,space,1500,1.5,61180d8558ab6be9ca450cb1,001,2021-08-19_16h09.57.329,natb3,2021.2.3,Win32,60.00960154,61180d8558ab6be9ca450cb1,611e07ecdcc96256ae8d5b80,611e743015740b5910ec2e3a,0.3729,
,,,,space,,0,323,323,149,1,R, , , , ,space,2000,2,61180d8558ab6be9ca450cb1,001,2021-08-19_16h09.57.329,natb3,2021.2.3,Win32,60.00960154,61180d8558ab6be9ca450cb1,611e07ecdcc96256ae8d5b80,611e743015740b5910ec2e3a,0.432,
,,,,space,,0,324,324,57,1,K, , , , ,space,2500,2.5,61180d8558ab6be9ca450cb1,001,2021-08-19_16h09.57.329,natb3,2021.2.3,Win32,60.00960154,61180d8558ab6be9ca450cb1,611e07ecdcc96256ae8d5b80,611e743015740b5910ec2e3a,0.4894,
,,,,space,,0,325,325,198,1,H, , , , ,space,2500,2.5,61180d8558ab6be9ca450cb1,001,2021-08-19_16h09.57.329,natb3,2021.2.3,Win32,60.00960154,61180d8558ab6be9ca450cb1,611e07ecdcc96256ae8d5b80,611e743015740b5910ec2e3a,0.4551,
,,,,,,0,326,326,54,1,X, , , , ,,2000,2,61180d8558ab6be9ca450cb1,001,2021-08-19_16h09.57.329,natb3,2021.2.3,Win32,60.00960154,61180d8558ab6be9ca450cb1,611e07ecdcc96256ae8d5b80,611e743015740b5910ec2e3a,,
,,,,space,,0,327,327,80,1,A, , , , ,space,2000,2,61180d8558ab6be9ca450cb1,001,2021-08-19_16h09.57.329,natb3,2021.2.3,Win32,60.00960154,61180d8558ab6be9ca450cb1,611e07ecdcc96256ae8d5b80,611e743015740b5910ec2e3a,0.4332,
,,,,space,,0,328,328,61,1,C, , , , ,space,2000,2,61180d8558ab6be9ca450cb1,001,2021-08-19_16h09.57.329,natb3,2021.2.3,Win32,60.00960154,61180d8558ab6be9ca450cb1,611e07ecdcc96256ae8d5b80,611e743015740b5910ec2e3a,0.4001,
,,,,,,0,329,329,305,1,X, , , , ,,1500,1.5,61180d8558ab6be9ca450cb1,001,2021-08-19_16h09.57.329,natb3,2021.2.3,Win32,60.00960154,61180d8558ab6be9ca450cb1,611e07ecdcc96256ae8d5b80,611e743015740b5910ec2e3a,,
,,,,space,,0,330,330,100,1,M, , , , ,space,2000,2,61180d8558ab6be9ca450cb1,001,2021-08-19_16h09.57.329,natb3,2021.2.3,Win32,60.00960154,61180d8558ab6be9ca450cb1,611e07ecdcc96256ae8d5b80,611e743015740b5910ec2e3a,0.4276,
,,,,,,0,331,331,271,1,X, , , , ,,2500,2.5,61180d8558ab6be9ca450cb1,001,2021-08-19_16h09.57.329,natb3,2021.2.3,Win32,60.00960154,61180d8558ab6be9ca450cb1,611e07ecdcc96256ae8d5b80,611e743015740b5910ec2e3a,,
,,,,space,,0,332,332,184,1,T, , , , ,space,2000,2,61180d8558ab6be9ca450cb1,001,2021-08-19_16h09.57.329,natb3,2021.2.3,Win32,60.00960154,61180d8558ab6be9ca450cb1,611e07ecdcc96256ae8d5b80,611e743015740b5910ec2e3a,0.4784,
,,,,space,,0,333,333,235,1,A, , , , ,space,1500,1.5,61180d8558ab6be9ca450cb1,001,2021-08-19_16h09.57.329,natb3,2021.2.3,Win32,60.00960154,61180d8558ab6be9ca450cb1,611e07ecdcc96256ae8d5b80,611e743015740b5910ec2e3a,0.6408,
,,,,space,,0,334,334,269,1,A, , , , ,space,2500,2.5,61180d8558ab6be9ca450cb1,001,2021-08-19_16h09.57.329,natb3,2021.2.3,Win32,60.00960154,61180d8558ab6be9ca450cb1,611e07ecdcc96256ae8d5b80,611e743015740b5910ec2e3a,0.5337,
,,,,,,0,335,335,182,1,X, , , , ,,1500,1.5,61180d8558ab6be9ca450cb1,001,2021-08-19_16h09.57.329,natb3,2021.2.3,Win32,60.00960154,61180d8558ab6be9ca450cb1,611e07ecdcc96256ae8d5b80,611e743015740b5910ec2e3a,,
