key_resp_2.keys,key_resp_2.rt,key_resp_3.keys,key_resp_3.rt,key_resp.keys,key_resp_4.keys,trials.thisRepN,trials.thisTrialN,trials.thisN,trials.thisIndex,trials.ran,stimulus,distractor1,distractor2,distractor3,distractor4,CorrAns,isi_duration,isi_dur_in_seconds,participant,session,date,expName,psychopyVersion,OS,frameRate,PROLIFIC_PID,STUDY_ID,SESSION_ID,key_resp.rt,key_resp_4.rt
return,9.6066,space,14.381,,,0,0,0,317,1,C, , , , ,space,2000,2,611a8a373352c487fcf111a9,001,2021-08-19_15h59.42.035,natb3,2021.2.3,MacIntel,60.0024001,611a8a373352c487fcf111a9,611e07ecdcc96256ae8d5b80,611e71cee4fe0634dfb856fc,,
,,,,,,0,1,1,214,1,W, , , , ,space,2000,2,611a8a373352c487fcf111a9,001,2021-08-19_15h59.42.035,natb3,2021.2.3,MacIntel,60.0024001,611a8a373352c487fcf111a9,611e07ecdcc96256ae8d5b80,611e71cee4fe0634dfb856fc,,
,,,,space,,0,2,2,102,1,X, ,6, , ,,1500,1.5,611a8a373352c487fcf111a9,001,2021-08-19_15h59.42.035,natb3,2021.2.3,MacIntel,60.0024001,611a8a373352c487fcf111a9,611e07ecdcc96256ae8d5b80,611e71cee4fe0634dfb856fc,0.5281,
,,,,space,,0,3,3,54,1,X, , , , ,,2000,2,611a8a373352c487fcf111a9,001,2021-08-19_15h59.42.035,natb3,2021.2.3,MacIntel,60.0024001,611a8a373352c487fcf111a9,611e07ecdcc96256ae8d5b80,611e71cee4fe0634dfb856fc,0.4516,
,,,,space,,0,4,4,46,1,X, , , , ,,2000,2,611a8a373352c487fcf111a9,001,2021-08-19_15h59.42.035,natb3,2021.2.3,MacIntel,60.0024001,611a8a373352c487fcf111a9,611e07ecdcc96256ae8d5b80,611e71cee4fe0634dfb856fc,0.4569,
,,,,,,0,5,5,292,1,E, , , , ,space,2000,2,611a8a373352c487fcf111a9,001,2021-08-19_15h59.42.035,natb3,2021.2.3,MacIntel,60.0024001,611a8a373352c487fcf111a9,611e07ecdcc96256ae8d5b80,611e71cee4fe0634dfb856fc,,
,,,,,,0,6,6,298,1,I, , , , ,space,2000,2,611a8a373352c487fcf111a9,001,2021-08-19_15h59.42.035,natb3,2021.2.3,MacIntel,60.0024001,611a8a373352c487fcf111a9,611e07ecdcc96256ae8d5b80,611e71cee4fe0634dfb856fc,,
,,,,,,0,7,7,149,1,R, , , , ,space,2000,2,611a8a373352c487fcf111a9,001,2021-08-19_15h59.42.035,natb3,2021.2.3,MacIntel,60.0024001,611a8a373352c487fcf111a9,611e07ecdcc96256ae8d5b80,611e71cee4fe0634dfb856fc,,
,,,,,,0,8,8,61,1,C, , , , ,space,2000,2,611a8a373352c487fcf111a9,001,2021-08-19_15h59.42.035,natb3,2021.2.3,MacIntel,60.0024001,611a8a373352c487fcf111a9,611e07ecdcc96256ae8d5b80,611e71cee4fe0634dfb856fc,,
,,,,,,0,9,9,109,1,U, , , , ,space,1500,1.5,611a8a373352c487fcf111a9,001,2021-08-19_15h59.42.035,natb3,2021.2.3,MacIntel,60.0024001,611a8a373352c487fcf111a9,611e07ecdcc96256ae8d5b80,611e71cee4fe0634dfb856fc,,
,,,,,,0,10,10,62,1,V, , , , ,space,1500,1.5,611a8a373352c487fcf111a9,001,2021-08-19_15h59.42.035,natb3,2021.2.3,MacIntel,60.0024001,611a8a373352c487fcf111a9,611e07ecdcc96256ae8d5b80,611e71cee4fe0634dfb856fc,,
,,,,,,0,11,11,300,1,O, , , , ,space,2500,2.5,611a8a373352c487fcf111a9,001,2021-08-19_15h59.42.035,natb3,2021.2.3,MacIntel,60.0024001,611a8a373352c487fcf111a9,611e07ecdcc96256ae8d5b80,611e71cee4fe0634dfb856fc,,
,,,,,,0,12,12,65,1,M, , , , ,space,1500,1.5,611a8a373352c487fcf111a9,001,2021-08-19_15h59.42.035,natb3,2021.2.3,MacIntel,60.0024001,611a8a373352c487fcf111a9,611e07ecdcc96256ae8d5b80,611e71cee4fe0634dfb856fc,,
,,,,,,0,13,13,172,1,C, , , , ,space,1500,1.5,611a8a373352c487fcf111a9,001,2021-08-19_15h59.42.035,natb3,2021.2.3,MacIntel,60.0024001,611a8a373352c487fcf111a9,611e07ecdcc96256ae8d5b80,611e71cee4fe0634dfb856fc,,
,,,,,,0,14,14,265,1,I, , , , ,space,2000,2,611a8a373352c487fcf111a9,001,2021-08-19_15h59.42.035,natb3,2021.2.3,MacIntel,60.0024001,611a8a373352c487fcf111a9,611e07ecdcc96256ae8d5b80,611e71cee4fe0634dfb856fc,,
,,,,space,,0,15,15,98,1,X, , , , ,,2500,2.5,611a8a373352c487fcf111a9,001,2021-08-19_15h59.42.035,natb3,2021.2.3,MacIntel,60.0024001,611a8a373352c487fcf111a9,611e07ecdcc96256ae8d5b80,611e71cee4fe0634dfb856fc,0.6021,
,,,,,,0,16,16,274,1,F, , , , ,space,2000,2,611a8a373352c487fcf111a9,001,2021-08-19_15h59.42.035,natb3,2021.2.3,MacIntel,60.0024001,611a8a373352c487fcf111a9,611e07ecdcc96256ae8d5b80,611e71cee4fe0634dfb856fc,,
,,,,,,0,17,17,112,1,Q, , , , ,space,2500,2.5,611a8a373352c487fcf111a9,001,2021-08-19_15h59.42.035,natb3,2021.2.3,MacIntel,60.0024001,611a8a373352c487fcf111a9,611e07ecdcc96256ae8d5b80,611e71cee4fe0634dfb856fc,,
,,,,,,0,18,18,279,1,K, , , , ,space,2500,2.5,611a8a373352c487fcf111a9,001,2021-08-19_15h59.42.035,natb3,2021.2.3,MacIntel,60.0024001,611a8a373352c487fcf111a9,611e07ecdcc96256ae8d5b80,611e71cee4fe0634dfb856fc,,
,,,,space,,0,19,19,311,1,X,1,2,7,3,,2500,2.5,611a8a373352c487fcf111a9,001,2021-08-19_15h59.42.035,natb3,2021.2.3,MacIntel,60.0024001,611a8a373352c487fcf111a9,611e07ecdcc96256ae8d5b80,611e71cee4fe0634dfb856fc,0.5113,
,,,,,,0,20,20,204,1,Z, , , , ,space,2000,2,611a8a373352c487fcf111a9,001,2021-08-19_15h59.42.035,natb3,2021.2.3,MacIntel,60.0024001,611a8a373352c487fcf111a9,611e07ecdcc96256ae8d5b80,611e71cee4fe0634dfb856fc,,
,,,,,,0,21,21,40,1,T, , , , ,space,1500,1.5,611a8a373352c487fcf111a9,001,2021-08-19_15h59.42.035,natb3,2021.2.3,MacIntel,60.0024001,611a8a373352c487fcf111a9,611e07ecdcc96256ae8d5b80,611e71cee4fe0634dfb856fc,,
,,,,space,,0,22,22,191,1,X,1, ,3,4,,2500,2.5,611a8a373352c487fcf111a9,001,2021-08-19_15h59.42.035,natb3,2021.2.3,MacIntel,60.0024001,611a8a373352c487fcf111a9,611e07ecdcc96256ae8d5b80,611e71cee4fe0634dfb856fc,0.4969,
,,,,,,0,23,23,256,1,Q, , , , ,space,2000,2,611a8a373352c487fcf111a9,001,2021-08-19_15h59.42.035,natb3,2021.2.3,MacIntel,60.0024001,611a8a373352c487fcf111a9,611e07ecdcc96256ae8d5b80,611e71cee4fe0634dfb856fc,,
,,,,space,,0,24,24,158,1,X, , , , ,,1500,1.5,611a8a373352c487fcf111a9,001,2021-08-19_15h59.42.035,natb3,2021.2.3,MacIntel,60.0024001,611a8a373352c487fcf111a9,611e07ecdcc96256ae8d5b80,611e71cee4fe0634dfb856fc,0.534,
,,,,space,,0,25,25,74,1,X, ,4,3,2,,1500,1.5,611a8a373352c487fcf111a9,001,2021-08-19_15h59.42.035,natb3,2021.2.3,MacIntel,60.0024001,611a8a373352c487fcf111a9,611e07ecdcc96256ae8d5b80,611e71cee4fe0634dfb856fc,0.4981,
,,,,,,0,26,26,57,1,K, , , , ,space,2500,2.5,611a8a373352c487fcf111a9,001,2021-08-19_15h59.42.035,natb3,2021.2.3,MacIntel,60.0024001,611a8a373352c487fcf111a9,611e07ecdcc96256ae8d5b80,611e71cee4fe0634dfb856fc,,
,,,,space,,0,27,27,218,1,X,1,3, ,8,,1500,1.5,611a8a373352c487fcf111a9,001,2021-08-19_15h59.42.035,natb3,2021.2.3,MacIntel,60.0024001,611a8a373352c487fcf111a9,611e07ecdcc96256ae8d5b80,611e71cee4fe0634dfb856fc,0.4466,
,,,,,,0,28,28,124,1,P, , , , ,space,2000,2,611a8a373352c487fcf111a9,001,2021-08-19_15h59.42.035,natb3,2021.2.3,MacIntel,60.0024001,611a8a373352c487fcf111a9,611e07ecdcc96256ae8d5b80,611e71cee4fe0634dfb856fc,,
,,,,,,0,29,29,202,1,L, , , , ,space,2500,2.5,611a8a373352c487fcf111a9,001,2021-08-19_15h59.42.035,natb3,2021.2.3,MacIntel,60.0024001,611a8a373352c487fcf111a9,611e07ecdcc96256ae8d5b80,611e71cee4fe0634dfb856fc,,
,,,,,,0,30,30,101,1,Q, , , , ,space,2500,2.5,611a8a373352c487fcf111a9,001,2021-08-19_15h59.42.035,natb3,2021.2.3,MacIntel,60.0024001,611a8a373352c487fcf111a9,611e07ecdcc96256ae8d5b80,611e71cee4fe0634dfb856fc,,
,,,,space,,0,31,31,18,1,X, ,2,5,8,,2500,2.5,611a8a373352c487fcf111a9,001,2021-08-19_15h59.42.035,natb3,2021.2.3,MacIntel,60.0024001,611a8a373352c487fcf111a9,611e07ecdcc96256ae8d5b80,611e71cee4fe0634dfb856fc,0.5459,
,,,,space,,0,32,32,122,1,X,1, , ,8,,1500,1.5,611a8a373352c487fcf111a9,001,2021-08-19_15h59.42.035,natb3,2021.2.3,MacIntel,60.0024001,611a8a373352c487fcf111a9,611e07ecdcc96256ae8d5b80,611e71cee4fe0634dfb856fc,0.3987,
,,,,,,0,33,33,219,1,Y, , , , ,space,2000,2,611a8a373352c487fcf111a9,001,2021-08-19_15h59.42.035,natb3,2021.2.3,MacIntel,60.0024001,611a8a373352c487fcf111a9,611e07ecdcc96256ae8d5b80,611e71cee4fe0634dfb856fc,,
,,,,,,0,34,34,293,1,R, , , , ,space,2500,2.5,611a8a373352c487fcf111a9,001,2021-08-19_15h59.42.035,natb3,2021.2.3,MacIntel,60.0024001,611a8a373352c487fcf111a9,611e07ecdcc96256ae8d5b80,611e71cee4fe0634dfb856fc,,
,,,,space,,0,35,35,20,1,H, , , , ,space,1500,1.5,611a8a373352c487fcf111a9,001,2021-08-19_15h59.42.035,natb3,2021.2.3,MacIntel,60.0024001,611a8a373352c487fcf111a9,611e07ecdcc96256ae8d5b80,611e71cee4fe0634dfb856fc,0.399,
,,,,,,0,36,36,14,1,S, , , , ,space,2500,2.5,611a8a373352c487fcf111a9,001,2021-08-19_15h59.42.035,natb3,2021.2.3,MacIntel,60.0024001,611a8a373352c487fcf111a9,611e07ecdcc96256ae8d5b80,611e71cee4fe0634dfb856fc,,
,,,,,,0,37,37,127,1,S, , , , ,space,2500,2.5,611a8a373352c487fcf111a9,001,2021-08-19_15h59.42.035,natb3,2021.2.3,MacIntel,60.0024001,611a8a373352c487fcf111a9,611e07ecdcc96256ae8d5b80,611e71cee4fe0634dfb856fc,,
,,,,,,0,38,38,59,1,Z, , , , ,space,2000,2,611a8a373352c487fcf111a9,001,2021-08-19_15h59.42.035,natb3,2021.2.3,MacIntel,60.0024001,611a8a373352c487fcf111a9,611e07ecdcc96256ae8d5b80,611e71cee4fe0634dfb856fc,,
,,,,space,,0,39,39,84,1,X, , , , ,,2000,2,611a8a373352c487fcf111a9,001,2021-08-19_15h59.42.035,natb3,2021.2.3,MacIntel,60.0024001,611a8a373352c487fcf111a9,611e07ecdcc96256ae8d5b80,611e71cee4fe0634dfb856fc,0.4668,
,,,,space,,0,40,40,27,1,X,5, ,1,3,,1500,1.5,611a8a373352c487fcf111a9,001,2021-08-19_15h59.42.035,natb3,2021.2.3,MacIntel,60.0024001,611a8a373352c487fcf111a9,611e07ecdcc96256ae8d5b80,611e71cee4fe0634dfb856fc,0.4624,
,,,,space,,0,41,41,277,1,X,8,5, ,2,,2000,2,611a8a373352c487fcf111a9,001,2021-08-19_15h59.42.035,natb3,2021.2.3,MacIntel,60.0024001,611a8a373352c487fcf111a9,611e07ecdcc96256ae8d5b80,611e71cee4fe0634dfb856fc,0.4286,
,,,,,,0,42,42,28,1,V, , , , ,space,1500,1.5,611a8a373352c487fcf111a9,001,2021-08-19_15h59.42.035,natb3,2021.2.3,MacIntel,60.0024001,611a8a373352c487fcf111a9,611e07ecdcc96256ae8d5b80,611e71cee4fe0634dfb856fc,,
,,,,,,0,43,43,331,1,Y, , , , ,space,2500,2.5,611a8a373352c487fcf111a9,001,2021-08-19_15h59.42.035,natb3,2021.2.3,MacIntel,60.0024001,611a8a373352c487fcf111a9,611e07ecdcc96256ae8d5b80,611e71cee4fe0634dfb856fc,,
,,,,,,0,44,44,128,1,D, , , , ,space,2500,2.5,611a8a373352c487fcf111a9,001,2021-08-19_15h59.42.035,natb3,2021.2.3,MacIntel,60.0024001,611a8a373352c487fcf111a9,611e07ecdcc96256ae8d5b80,611e71cee4fe0634dfb856fc,,
,,,,,,0,45,45,126,1,A, , , , ,space,2500,2.5,611a8a373352c487fcf111a9,001,2021-08-19_15h59.42.035,natb3,2021.2.3,MacIntel,60.0024001,611a8a373352c487fcf111a9,611e07ecdcc96256ae8d5b80,611e71cee4fe0634dfb856fc,,
,,,,,,0,46,46,80,1,A, , , , ,space,2000,2,611a8a373352c487fcf111a9,001,2021-08-19_15h59.42.035,natb3,2021.2.3,MacIntel,60.0024001,611a8a373352c487fcf111a9,611e07ecdcc96256ae8d5b80,611e71cee4fe0634dfb856fc,,
,,,,,,0,47,47,170,1,Z, , , , ,space,2000,2,611a8a373352c487fcf111a9,001,2021-08-19_15h59.42.035,natb3,2021.2.3,MacIntel,60.0024001,611a8a373352c487fcf111a9,611e07ecdcc96256ae8d5b80,611e71cee4fe0634dfb856fc,,
,,,,,,0,48,48,335,1,P,,,,,space,1500,1.5,611a8a373352c487fcf111a9,001,2021-08-19_15h59.42.035,natb3,2021.2.3,MacIntel,60.0024001,611a8a373352c487fcf111a9,611e07ecdcc96256ae8d5b80,611e71cee4fe0634dfb856fc,,
,,,,space,,0,49,49,145,1,X, , , , ,,2000,2,611a8a373352c487fcf111a9,001,2021-08-19_15h59.42.035,natb3,2021.2.3,MacIntel,60.0024001,611a8a373352c487fcf111a9,611e07ecdcc96256ae8d5b80,611e71cee4fe0634dfb856fc,0.5389,
,,,,space,,0,50,50,302,1,X, , , , ,,2000,2,611a8a373352c487fcf111a9,001,2021-08-19_15h59.42.035,natb3,2021.2.3,MacIntel,60.0024001,611a8a373352c487fcf111a9,611e07ecdcc96256ae8d5b80,611e71cee4fe0634dfb856fc,0.6161,
,,,,space,,0,51,51,33,1,X, , , , ,,1500,1.5,611a8a373352c487fcf111a9,001,2021-08-19_15h59.42.035,natb3,2021.2.3,MacIntel,60.0024001,611a8a373352c487fcf111a9,611e07ecdcc96256ae8d5b80,611e71cee4fe0634dfb856fc,0.6066,
,,,,space,,0,52,52,69,1,X, , , , ,,1500,1.5,611a8a373352c487fcf111a9,001,2021-08-19_15h59.42.035,natb3,2021.2.3,MacIntel,60.0024001,611a8a373352c487fcf111a9,611e07ecdcc96256ae8d5b80,611e71cee4fe0634dfb856fc,0.4706,
,,,,,,0,53,53,223,1,Q, , , , ,space,2000,2,611a8a373352c487fcf111a9,001,2021-08-19_15h59.42.035,natb3,2021.2.3,MacIntel,60.0024001,611a8a373352c487fcf111a9,611e07ecdcc96256ae8d5b80,611e71cee4fe0634dfb856fc,,
,,,,,,0,54,54,105,1,R, , , , ,space,2500,2.5,611a8a373352c487fcf111a9,001,2021-08-19_15h59.42.035,natb3,2021.2.3,MacIntel,60.0024001,611a8a373352c487fcf111a9,611e07ecdcc96256ae8d5b80,611e71cee4fe0634dfb856fc,,
,,,,,,0,55,55,328,1,R, , , , ,space,1500,1.5,611a8a373352c487fcf111a9,001,2021-08-19_15h59.42.035,natb3,2021.2.3,MacIntel,60.0024001,611a8a373352c487fcf111a9,611e07ecdcc96256ae8d5b80,611e71cee4fe0634dfb856fc,,
,,,,,,0,56,56,254,1,M, , , , ,space,1500,1.5,611a8a373352c487fcf111a9,001,2021-08-19_15h59.42.035,natb3,2021.2.3,MacIntel,60.0024001,611a8a373352c487fcf111a9,611e07ecdcc96256ae8d5b80,611e71cee4fe0634dfb856fc,,
,,,,,,0,57,57,130,1,F, , , , ,space,2000,2,611a8a373352c487fcf111a9,001,2021-08-19_15h59.42.035,natb3,2021.2.3,MacIntel,60.0024001,611a8a373352c487fcf111a9,611e07ecdcc96256ae8d5b80,611e71cee4fe0634dfb856fc,,
,,,,,,0,58,58,17,1,F, , , , ,space,2500,2.5,611a8a373352c487fcf111a9,001,2021-08-19_15h59.42.035,natb3,2021.2.3,MacIntel,60.0024001,611a8a373352c487fcf111a9,611e07ecdcc96256ae8d5b80,611e71cee4fe0634dfb856fc,,
,,,,,,0,59,59,217,1,T, , , , ,space,2500,2.5,611a8a373352c487fcf111a9,001,2021-08-19_15h59.42.035,natb3,2021.2.3,MacIntel,60.0024001,611a8a373352c487fcf111a9,611e07ecdcc96256ae8d5b80,611e71cee4fe0634dfb856fc,,
,,,,,,0,60,60,150,1,T, , , , ,space,2500,2.5,611a8a373352c487fcf111a9,001,2021-08-19_15h59.42.035,natb3,2021.2.3,MacIntel,60.0024001,611a8a373352c487fcf111a9,611e07ecdcc96256ae8d5b80,611e71cee4fe0634dfb856fc,,
,,,,,,0,61,61,110,1,I, , , , ,space,1500,1.5,611a8a373352c487fcf111a9,001,2021-08-19_15h59.42.035,natb3,2021.2.3,MacIntel,60.0024001,611a8a373352c487fcf111a9,611e07ecdcc96256ae8d5b80,611e71cee4fe0634dfb856fc,,
,,,,space,,0,62,62,103,1,W, , , , ,space,2000,2,611a8a373352c487fcf111a9,001,2021-08-19_15h59.42.035,natb3,2021.2.3,MacIntel,60.0024001,611a8a373352c487fcf111a9,611e07ecdcc96256ae8d5b80,611e71cee4fe0634dfb856fc,0.6303,
,,,,space,,0,63,63,39,1,X,6,2, , ,,1500,1.5,611a8a373352c487fcf111a9,001,2021-08-19_15h59.42.035,natb3,2021.2.3,MacIntel,60.0024001,611a8a373352c487fcf111a9,611e07ecdcc96256ae8d5b80,611e71cee4fe0634dfb856fc,0.5491,
,,,,space,,0,64,64,43,1,X, ,6, ,2,,2500,2.5,611a8a373352c487fcf111a9,001,2021-08-19_15h59.42.035,natb3,2021.2.3,MacIntel,60.0024001,611a8a373352c487fcf111a9,611e07ecdcc96256ae8d5b80,611e71cee4fe0634dfb856fc,0.4337,
,,,,,,0,65,65,86,1,G, , , , ,space,2000,2,611a8a373352c487fcf111a9,001,2021-08-19_15h59.42.035,natb3,2021.2.3,MacIntel,60.0024001,611a8a373352c487fcf111a9,611e07ecdcc96256ae8d5b80,611e71cee4fe0634dfb856fc,,
,,,,,,0,66,66,140,1,B, , , , ,space,2500,2.5,611a8a373352c487fcf111a9,001,2021-08-19_15h59.42.035,natb3,2021.2.3,MacIntel,60.0024001,611a8a373352c487fcf111a9,611e07ecdcc96256ae8d5b80,611e71cee4fe0634dfb856fc,,
,,,,,,0,67,67,242,1,H, , , , ,space,2500,2.5,611a8a373352c487fcf111a9,001,2021-08-19_15h59.42.035,natb3,2021.2.3,MacIntel,60.0024001,611a8a373352c487fcf111a9,611e07ecdcc96256ae8d5b80,611e71cee4fe0634dfb856fc,,
,,,,,,0,68,68,87,1,H, , , , ,space,1500,1.5,611a8a373352c487fcf111a9,001,2021-08-19_15h59.42.035,natb3,2021.2.3,MacIntel,60.0024001,611a8a373352c487fcf111a9,611e07ecdcc96256ae8d5b80,611e71cee4fe0634dfb856fc,,
,,,,,,0,69,69,120,1,U, , , , ,space,1500,1.5,611a8a373352c487fcf111a9,001,2021-08-19_15h59.42.035,natb3,2021.2.3,MacIntel,60.0024001,611a8a373352c487fcf111a9,611e07ecdcc96256ae8d5b80,611e71cee4fe0634dfb856fc,,
,,,,,,0,70,70,281,1,Z, , , , ,space,1500,1.5,611a8a373352c487fcf111a9,001,2021-08-19_15h59.42.035,natb3,2021.2.3,MacIntel,60.0024001,611a8a373352c487fcf111a9,611e07ecdcc96256ae8d5b80,611e71cee4fe0634dfb856fc,,
,,,,,,0,71,71,221,1,I, , , , ,space,2500,2.5,611a8a373352c487fcf111a9,001,2021-08-19_15h59.42.035,natb3,2021.2.3,MacIntel,60.0024001,611a8a373352c487fcf111a9,611e07ecdcc96256ae8d5b80,611e71cee4fe0634dfb856fc,,
,,,,,,0,72,72,21,1,J, , , , ,space,1500,1.5,611a8a373352c487fcf111a9,001,2021-08-19_15h59.42.035,natb3,2021.2.3,MacIntel,60.0024001,611a8a373352c487fcf111a9,611e07ecdcc96256ae8d5b80,611e71cee4fe0634dfb856fc,,
,,,,,,0,73,73,250,1,V, , , , ,space,2000,2,611a8a373352c487fcf111a9,001,2021-08-19_15h59.42.035,natb3,2021.2.3,MacIntel,60.0024001,611a8a373352c487fcf111a9,611e07ecdcc96256ae8d5b80,611e71cee4fe0634dfb856fc,,
,,,,,,0,74,74,186,1,U, , , , ,space,2500,2.5,611a8a373352c487fcf111a9,001,2021-08-19_15h59.42.035,natb3,2021.2.3,MacIntel,60.0024001,611a8a373352c487fcf111a9,611e07ecdcc96256ae8d5b80,611e71cee4fe0634dfb856fc,,
,,,,,,0,75,75,320,1,B, , , , ,space,1500,1.5,611a8a373352c487fcf111a9,001,2021-08-19_15h59.42.035,natb3,2021.2.3,MacIntel,60.0024001,611a8a373352c487fcf111a9,611e07ecdcc96256ae8d5b80,611e71cee4fe0634dfb856fc,,
,,,,,,0,76,76,240,1,F, , , , ,space,2500,2.5,611a8a373352c487fcf111a9,001,2021-08-19_15h59.42.035,natb3,2021.2.3,MacIntel,60.0024001,611a8a373352c487fcf111a9,611e07ecdcc96256ae8d5b80,611e71cee4fe0634dfb856fc,,
,,,,,,0,77,77,209,1,N, , , , ,space,2000,2,611a8a373352c487fcf111a9,001,2021-08-19_15h59.42.035,natb3,2021.2.3,MacIntel,60.0024001,611a8a373352c487fcf111a9,611e07ecdcc96256ae8d5b80,611e71cee4fe0634dfb856fc,,
,,,,,,0,78,78,220,1,U, , , , ,space,2500,2.5,611a8a373352c487fcf111a9,001,2021-08-19_15h59.42.035,natb3,2021.2.3,MacIntel,60.0024001,611a8a373352c487fcf111a9,611e07ecdcc96256ae8d5b80,611e71cee4fe0634dfb856fc,,
,,,,,,0,79,79,147,1,E, , , , ,space,2000,2,611a8a373352c487fcf111a9,001,2021-08-19_15h59.42.035,natb3,2021.2.3,MacIntel,60.0024001,611a8a373352c487fcf111a9,611e07ecdcc96256ae8d5b80,611e71cee4fe0634dfb856fc,,
,,,,,,0,80,80,330,1,T, , , , ,space,2500,2.5,611a8a373352c487fcf111a9,001,2021-08-19_15h59.42.035,natb3,2021.2.3,MacIntel,60.0024001,611a8a373352c487fcf111a9,611e07ecdcc96256ae8d5b80,611e71cee4fe0634dfb856fc,,
,,,,,,0,81,81,58,1,L, , , , ,space,2000,2,611a8a373352c487fcf111a9,001,2021-08-19_15h59.42.035,natb3,2021.2.3,MacIntel,60.0024001,611a8a373352c487fcf111a9,611e07ecdcc96256ae8d5b80,611e71cee4fe0634dfb856fc,,
,,,,,,0,82,82,185,1,Y, , , , ,space,2500,2.5,611a8a373352c487fcf111a9,001,2021-08-19_15h59.42.035,natb3,2021.2.3,MacIntel,60.0024001,611a8a373352c487fcf111a9,611e07ecdcc96256ae8d5b80,611e71cee4fe0634dfb856fc,,
,,,,space,,0,83,83,129,1,X,2,3,5, ,,1500,1.5,611a8a373352c487fcf111a9,001,2021-08-19_15h59.42.035,natb3,2021.2.3,MacIntel,60.0024001,611a8a373352c487fcf111a9,611e07ecdcc96256ae8d5b80,611e71cee4fe0634dfb856fc,0.4483,
,,,,,,0,84,84,307,1,F, , , , ,space,2500,2.5,611a8a373352c487fcf111a9,001,2021-08-19_15h59.42.035,natb3,2021.2.3,MacIntel,60.0024001,611a8a373352c487fcf111a9,611e07ecdcc96256ae8d5b80,611e71cee4fe0634dfb856fc,,
,,,,,,0,85,85,32,1,M, , , , ,space,1500,1.5,611a8a373352c487fcf111a9,001,2021-08-19_15h59.42.035,natb3,2021.2.3,MacIntel,60.0024001,611a8a373352c487fcf111a9,611e07ecdcc96256ae8d5b80,611e71cee4fe0634dfb856fc,,
,,,,,,0,86,86,319,1,V, , , , ,space,2000,2,611a8a373352c487fcf111a9,001,2021-08-19_15h59.42.035,natb3,2021.2.3,MacIntel,60.0024001,611a8a373352c487fcf111a9,611e07ecdcc96256ae8d5b80,611e71cee4fe0634dfb856fc,,
,,,,,,0,87,87,99,1,N, , , , ,space,2500,2.5,611a8a373352c487fcf111a9,001,2021-08-19_15h59.42.035,natb3,2021.2.3,MacIntel,60.0024001,611a8a373352c487fcf111a9,611e07ecdcc96256ae8d5b80,611e71cee4fe0634dfb856fc,,
,,,,,,0,88,88,143,1,M, , , , ,space,2500,2.5,611a8a373352c487fcf111a9,001,2021-08-19_15h59.42.035,natb3,2021.2.3,MacIntel,60.0024001,611a8a373352c487fcf111a9,611e07ecdcc96256ae8d5b80,611e71cee4fe0634dfb856fc,,
,,,,,,0,89,89,197,1,G, , , , ,space,2500,2.5,611a8a373352c487fcf111a9,001,2021-08-19_15h59.42.035,natb3,2021.2.3,MacIntel,60.0024001,611a8a373352c487fcf111a9,611e07ecdcc96256ae8d5b80,611e71cee4fe0634dfb856fc,,
,,,,,,0,90,90,49,1,S, , , , ,space,1500,1.5,611a8a373352c487fcf111a9,001,2021-08-19_15h59.42.035,natb3,2021.2.3,MacIntel,60.0024001,611a8a373352c487fcf111a9,611e07ecdcc96256ae8d5b80,611e71cee4fe0634dfb856fc,,
,,,,,,0,91,91,276,1,H, , , , ,space,2000,2,611a8a373352c487fcf111a9,001,2021-08-19_15h59.42.035,natb3,2021.2.3,MacIntel,60.0024001,611a8a373352c487fcf111a9,611e07ecdcc96256ae8d5b80,611e71cee4fe0634dfb856fc,,
,,,,,,0,92,92,164,1,H, , , , ,space,2500,2.5,611a8a373352c487fcf111a9,001,2021-08-19_15h59.42.035,natb3,2021.2.3,MacIntel,60.0024001,611a8a373352c487fcf111a9,611e07ecdcc96256ae8d5b80,611e71cee4fe0634dfb856fc,,
,,,,space,,0,93,93,305,1,X, , , , ,,1500,1.5,611a8a373352c487fcf111a9,001,2021-08-19_15h59.42.035,natb3,2021.2.3,MacIntel,60.0024001,611a8a373352c487fcf111a9,611e07ecdcc96256ae8d5b80,611e71cee4fe0634dfb856fc,0.5118,
,,,,,,0,94,94,83,1,D, , , , ,space,2000,2,611a8a373352c487fcf111a9,001,2021-08-19_15h59.42.035,natb3,2021.2.3,MacIntel,60.0024001,611a8a373352c487fcf111a9,611e07ecdcc96256ae8d5b80,611e71cee4fe0634dfb856fc,,
,,,,,,0,95,95,316,1,Z, , , , ,space,1500,1.5,611a8a373352c487fcf111a9,001,2021-08-19_15h59.42.035,natb3,2021.2.3,MacIntel,60.0024001,611a8a373352c487fcf111a9,611e07ecdcc96256ae8d5b80,611e71cee4fe0634dfb856fc,,
,,,,,,0,96,96,155,1,O, , , , ,space,1500,1.5,611a8a373352c487fcf111a9,001,2021-08-19_15h59.42.035,natb3,2021.2.3,MacIntel,60.0024001,611a8a373352c487fcf111a9,611e07ecdcc96256ae8d5b80,611e71cee4fe0634dfb856fc,,
,,,,,,0,97,97,332,1,U, , , , ,space,2000,2,611a8a373352c487fcf111a9,001,2021-08-19_15h59.42.035,natb3,2021.2.3,MacIntel,60.0024001,611a8a373352c487fcf111a9,611e07ecdcc96256ae8d5b80,611e71cee4fe0634dfb856fc,,
,,,,,,0,98,98,258,1,E, , , , ,space,1500,1.5,611a8a373352c487fcf111a9,001,2021-08-19_15h59.42.035,natb3,2021.2.3,MacIntel,60.0024001,611a8a373352c487fcf111a9,611e07ecdcc96256ae8d5b80,611e71cee4fe0634dfb856fc,,
,,,,,,0,99,99,283,1,C, , , , ,space,1500,1.5,611a8a373352c487fcf111a9,001,2021-08-19_15h59.42.035,natb3,2021.2.3,MacIntel,60.0024001,611a8a373352c487fcf111a9,611e07ecdcc96256ae8d5b80,611e71cee4fe0634dfb856fc,,
,,,,space,,0,100,100,138,1,X,8,5, ,3,,2000,2,611a8a373352c487fcf111a9,001,2021-08-19_15h59.42.035,natb3,2021.2.3,MacIntel,60.0024001,611a8a373352c487fcf111a9,611e07ecdcc96256ae8d5b80,611e71cee4fe0634dfb856fc,0.4816,
,,,,,,0,101,101,266,1,O, , , , ,space,1500,1.5,611a8a373352c487fcf111a9,001,2021-08-19_15h59.42.035,natb3,2021.2.3,MacIntel,60.0024001,611a8a373352c487fcf111a9,611e07ecdcc96256ae8d5b80,611e71cee4fe0634dfb856fc,,
,,,,,,0,102,102,222,1,O, , , , ,space,2000,2,611a8a373352c487fcf111a9,001,2021-08-19_15h59.42.035,natb3,2021.2.3,MacIntel,60.0024001,611a8a373352c487fcf111a9,611e07ecdcc96256ae8d5b80,611e71cee4fe0634dfb856fc,,
,,,,space,,0,103,103,287,1,X, ,2, ,9,,2000,2,611a8a373352c487fcf111a9,001,2021-08-19_15h59.42.035,natb3,2021.2.3,MacIntel,60.0024001,611a8a373352c487fcf111a9,611e07ecdcc96256ae8d5b80,611e71cee4fe0634dfb856fc,0.4481,
,,,,,,0,104,104,246,1,L, , , , ,space,2500,2.5,611a8a373352c487fcf111a9,001,2021-08-19_15h59.42.035,natb3,2021.2.3,MacIntel,60.0024001,611a8a373352c487fcf111a9,611e07ecdcc96256ae8d5b80,611e71cee4fe0634dfb856fc,,
,,,,,,0,105,105,88,1,J, , , , ,space,2500,2.5,611a8a373352c487fcf111a9,001,2021-08-19_15h59.42.035,natb3,2021.2.3,MacIntel,60.0024001,611a8a373352c487fcf111a9,611e07ecdcc96256ae8d5b80,611e71cee4fe0634dfb856fc,,
,,,,,,0,106,106,115,1,R, , , , ,space,1500,1.5,611a8a373352c487fcf111a9,001,2021-08-19_15h59.42.035,natb3,2021.2.3,MacIntel,60.0024001,611a8a373352c487fcf111a9,611e07ecdcc96256ae8d5b80,611e71cee4fe0634dfb856fc,,
,,,,,,0,107,107,50,1,D, , , , ,space,1500,1.5,611a8a373352c487fcf111a9,001,2021-08-19_15h59.42.035,natb3,2021.2.3,MacIntel,60.0024001,611a8a373352c487fcf111a9,611e07ecdcc96256ae8d5b80,611e71cee4fe0634dfb856fc,,
,,,,,,0,108,108,225,1,E, , , , ,space,2000,2,611a8a373352c487fcf111a9,001,2021-08-19_15h59.42.035,natb3,2021.2.3,MacIntel,60.0024001,611a8a373352c487fcf111a9,611e07ecdcc96256ae8d5b80,611e71cee4fe0634dfb856fc,,
,,,,space,,0,109,109,168,1,X, , , , ,,2500,2.5,611a8a373352c487fcf111a9,001,2021-08-19_15h59.42.035,natb3,2021.2.3,MacIntel,60.0024001,611a8a373352c487fcf111a9,611e07ecdcc96256ae8d5b80,611e71cee4fe0634dfb856fc,0.6953,
,,,,space,,0,110,110,125,1,X, , , , ,,2000,2,611a8a373352c487fcf111a9,001,2021-08-19_15h59.42.035,natb3,2021.2.3,MacIntel,60.0024001,611a8a373352c487fcf111a9,611e07ecdcc96256ae8d5b80,611e71cee4fe0634dfb856fc,0.3995,
,,,,,,0,111,111,53,1,G, , , , ,space,2500,2.5,611a8a373352c487fcf111a9,001,2021-08-19_15h59.42.035,natb3,2021.2.3,MacIntel,60.0024001,611a8a373352c487fcf111a9,611e07ecdcc96256ae8d5b80,611e71cee4fe0634dfb856fc,,
,,,,,,0,112,112,208,1,B, , , , ,space,1500,1.5,611a8a373352c487fcf111a9,001,2021-08-19_15h59.42.035,natb3,2021.2.3,MacIntel,60.0024001,611a8a373352c487fcf111a9,611e07ecdcc96256ae8d5b80,611e71cee4fe0634dfb856fc,,
,,,,,,0,113,113,71,1,R, , , , ,space,2500,2.5,611a8a373352c487fcf111a9,001,2021-08-19_15h59.42.035,natb3,2021.2.3,MacIntel,60.0024001,611a8a373352c487fcf111a9,611e07ecdcc96256ae8d5b80,611e71cee4fe0634dfb856fc,,
,,,,,,0,114,114,136,1,Z, , , , ,space,2500,2.5,611a8a373352c487fcf111a9,001,2021-08-19_15h59.42.035,natb3,2021.2.3,MacIntel,60.0024001,611a8a373352c487fcf111a9,611e07ecdcc96256ae8d5b80,611e71cee4fe0634dfb856fc,,
,,,,space,,0,115,115,229,1,X,8, ,2,6,,2500,2.5,611a8a373352c487fcf111a9,001,2021-08-19_15h59.42.035,natb3,2021.2.3,MacIntel,60.0024001,611a8a373352c487fcf111a9,611e07ecdcc96256ae8d5b80,611e71cee4fe0634dfb856fc,0.464,
,,,,,,0,116,116,280,1,L, , , , ,space,1500,1.5,611a8a373352c487fcf111a9,001,2021-08-19_15h59.42.035,natb3,2021.2.3,MacIntel,60.0024001,611a8a373352c487fcf111a9,611e07ecdcc96256ae8d5b80,611e71cee4fe0634dfb856fc,,
,,,,,,0,117,117,16,1,D, , , , ,space,1500,1.5,611a8a373352c487fcf111a9,001,2021-08-19_15h59.42.035,natb3,2021.2.3,MacIntel,60.0024001,611a8a373352c487fcf111a9,611e07ecdcc96256ae8d5b80,611e71cee4fe0634dfb856fc,,
,,,,,,0,118,118,237,1,S, , , , ,space,1500,1.5,611a8a373352c487fcf111a9,001,2021-08-19_15h59.42.035,natb3,2021.2.3,MacIntel,60.0024001,611a8a373352c487fcf111a9,611e07ecdcc96256ae8d5b80,611e71cee4fe0634dfb856fc,,
,,,,space,,0,119,119,325,1,X, , , , ,,2500,2.5,611a8a373352c487fcf111a9,001,2021-08-19_15h59.42.035,natb3,2021.2.3,MacIntel,60.0024001,611a8a373352c487fcf111a9,611e07ecdcc96256ae8d5b80,611e71cee4fe0634dfb856fc,0.4853,
,,,,,,0,120,120,324,1,Q, , , , ,space,2000,2,611a8a373352c487fcf111a9,001,2021-08-19_15h59.42.035,natb3,2021.2.3,MacIntel,60.0024001,611a8a373352c487fcf111a9,611e07ecdcc96256ae8d5b80,611e71cee4fe0634dfb856fc,,
,,,,,,0,121,121,326,1,W, , , , ,space,2000,2,611a8a373352c487fcf111a9,001,2021-08-19_15h59.42.035,natb3,2021.2.3,MacIntel,60.0024001,611a8a373352c487fcf111a9,611e07ecdcc96256ae8d5b80,611e71cee4fe0634dfb856fc,,
,,,,space,,0,122,122,141,1,X,1, ,4,6,,1500,1.5,611a8a373352c487fcf111a9,001,2021-08-19_15h59.42.035,natb3,2021.2.3,MacIntel,60.0024001,611a8a373352c487fcf111a9,611e07ecdcc96256ae8d5b80,611e71cee4fe0634dfb856fc,0.431,
,,,,space,,0,123,123,116,1,X, , , , ,,2000,2,611a8a373352c487fcf111a9,001,2021-08-19_15h59.42.035,natb3,2021.2.3,MacIntel,60.0024001,611a8a373352c487fcf111a9,611e07ecdcc96256ae8d5b80,611e71cee4fe0634dfb856fc,0.4073,
,,,,,,0,124,124,181,1,E, , , , ,space,1500,1.5,611a8a373352c487fcf111a9,001,2021-08-19_15h59.42.035,natb3,2021.2.3,MacIntel,60.0024001,611a8a373352c487fcf111a9,611e07ecdcc96256ae8d5b80,611e71cee4fe0634dfb856fc,,
,,,,space,,0,125,125,15,1,X, , , , ,,1500,1.5,611a8a373352c487fcf111a9,001,2021-08-19_15h59.42.035,natb3,2021.2.3,MacIntel,60.0024001,611a8a373352c487fcf111a9,611e07ecdcc96256ae8d5b80,611e71cee4fe0634dfb856fc,0.662,
,,,,,,0,126,126,25,1,Z, , , , ,space,2500,2.5,611a8a373352c487fcf111a9,001,2021-08-19_15h59.42.035,natb3,2021.2.3,MacIntel,60.0024001,611a8a373352c487fcf111a9,611e07ecdcc96256ae8d5b80,611e71cee4fe0634dfb856fc,,
,,,,,,0,127,127,26,1,C, , , , ,space,2000,2,611a8a373352c487fcf111a9,001,2021-08-19_15h59.42.035,natb3,2021.2.3,MacIntel,60.0024001,611a8a373352c487fcf111a9,611e07ecdcc96256ae8d5b80,611e71cee4fe0634dfb856fc,,
,,,,,,0,128,128,306,1,D, , , , ,space,2000,2,611a8a373352c487fcf111a9,001,2021-08-19_15h59.42.035,natb3,2021.2.3,MacIntel,60.0024001,611a8a373352c487fcf111a9,611e07ecdcc96256ae8d5b80,611e71cee4fe0634dfb856fc,,
,,,,space,,0,129,129,162,1,X,1,6, ,2,,1500,1.5,611a8a373352c487fcf111a9,001,2021-08-19_15h59.42.035,natb3,2021.2.3,MacIntel,60.0024001,611a8a373352c487fcf111a9,611e07ecdcc96256ae8d5b80,611e71cee4fe0634dfb856fc,0.3833,
,,,,,,0,130,130,262,1,Y, , , , ,space,2500,2.5,611a8a373352c487fcf111a9,001,2021-08-19_15h59.42.035,natb3,2021.2.3,MacIntel,60.0024001,611a8a373352c487fcf111a9,611e07ecdcc96256ae8d5b80,611e71cee4fe0634dfb856fc,,
,,,,,,0,131,131,253,1,N, , , , ,space,2500,2.5,611a8a373352c487fcf111a9,001,2021-08-19_15h59.42.035,natb3,2021.2.3,MacIntel,60.0024001,611a8a373352c487fcf111a9,611e07ecdcc96256ae8d5b80,611e71cee4fe0634dfb856fc,,
,,,,,,0,132,132,75,1,U, , , , ,space,1500,1.5,611a8a373352c487fcf111a9,001,2021-08-19_15h59.42.035,natb3,2021.2.3,MacIntel,60.0024001,611a8a373352c487fcf111a9,611e07ecdcc96256ae8d5b80,611e71cee4fe0634dfb856fc,,
,,,,,,0,133,133,73,1,Y, , , , ,space,2000,2,611a8a373352c487fcf111a9,001,2021-08-19_15h59.42.035,natb3,2021.2.3,MacIntel,60.0024001,611a8a373352c487fcf111a9,611e07ecdcc96256ae8d5b80,611e71cee4fe0634dfb856fc,,
,,,,,,0,134,134,312,1,K, , , , ,space,2000,2,611a8a373352c487fcf111a9,001,2021-08-19_15h59.42.035,natb3,2021.2.3,MacIntel,60.0024001,611a8a373352c487fcf111a9,611e07ecdcc96256ae8d5b80,611e71cee4fe0634dfb856fc,,
,,,,space,,0,135,135,207,1,X,9, ,2, ,,2500,2.5,611a8a373352c487fcf111a9,001,2021-08-19_15h59.42.035,natb3,2021.2.3,MacIntel,60.0024001,611a8a373352c487fcf111a9,611e07ecdcc96256ae8d5b80,611e71cee4fe0634dfb856fc,0.4822,
,,,,space,,0,136,136,96,1,X, , , , ,,1500,1.5,611a8a373352c487fcf111a9,001,2021-08-19_15h59.42.035,natb3,2021.2.3,MacIntel,60.0024001,611a8a373352c487fcf111a9,611e07ecdcc96256ae8d5b80,611e71cee4fe0634dfb856fc,0.5776,
,,,,space,,0,137,137,233,1,X, ,2, ,5,,1500,1.5,611a8a373352c487fcf111a9,001,2021-08-19_15h59.42.035,natb3,2021.2.3,MacIntel,60.0024001,611a8a373352c487fcf111a9,611e07ecdcc96256ae8d5b80,611e71cee4fe0634dfb856fc,0.4158,
,,,,,,0,138,138,264,1,U, , , , ,space,2000,2,611a8a373352c487fcf111a9,001,2021-08-19_15h59.42.035,natb3,2021.2.3,MacIntel,60.0024001,611a8a373352c487fcf111a9,611e07ecdcc96256ae8d5b80,611e71cee4fe0634dfb856fc,,
,,,,,,0,139,139,284,1,V, , , , ,space,2500,2.5,611a8a373352c487fcf111a9,001,2021-08-19_15h59.42.035,natb3,2021.2.3,MacIntel,60.0024001,611a8a373352c487fcf111a9,611e07ecdcc96256ae8d5b80,611e71cee4fe0634dfb856fc,,
,,,,,,0,140,140,34,1,Q, , , , ,space,2500,2.5,611a8a373352c487fcf111a9,001,2021-08-19_15h59.42.035,natb3,2021.2.3,MacIntel,60.0024001,611a8a373352c487fcf111a9,611e07ecdcc96256ae8d5b80,611e71cee4fe0634dfb856fc,,
,,,,,,0,141,141,216,1,R, , , , ,space,1500,1.5,611a8a373352c487fcf111a9,001,2021-08-19_15h59.42.035,natb3,2021.2.3,MacIntel,60.0024001,611a8a373352c487fcf111a9,611e07ecdcc96256ae8d5b80,611e71cee4fe0634dfb856fc,,
,,,,space,,0,142,142,12,1,X, , , , ,,1500,1.5,611a8a373352c487fcf111a9,001,2021-08-19_15h59.42.035,natb3,2021.2.3,MacIntel,60.0024001,611a8a373352c487fcf111a9,611e07ecdcc96256ae8d5b80,611e71cee4fe0634dfb856fc,0.4667,
,,,,,,0,143,143,314,1,L, , , , ,space,1500,1.5,611a8a373352c487fcf111a9,001,2021-08-19_15h59.42.035,natb3,2021.2.3,MacIntel,60.0024001,611a8a373352c487fcf111a9,611e07ecdcc96256ae8d5b80,611e71cee4fe0634dfb856fc,,
,,,,,,0,144,144,81,1,S, , , , ,space,2000,2,611a8a373352c487fcf111a9,001,2021-08-19_15h59.42.035,natb3,2021.2.3,MacIntel,60.0024001,611a8a373352c487fcf111a9,611e07ecdcc96256ae8d5b80,611e71cee4fe0634dfb856fc,,
,,,,,,0,145,145,121,1,I, , , , ,space,2000,2,611a8a373352c487fcf111a9,001,2021-08-19_15h59.42.035,natb3,2021.2.3,MacIntel,60.0024001,611a8a373352c487fcf111a9,611e07ecdcc96256ae8d5b80,611e71cee4fe0634dfb856fc,,
,,,,space,,0,146,146,118,1,X, , , , ,,2000,2,611a8a373352c487fcf111a9,001,2021-08-19_15h59.42.035,natb3,2021.2.3,MacIntel,60.0024001,611a8a373352c487fcf111a9,611e07ecdcc96256ae8d5b80,611e71cee4fe0634dfb856fc,0.5694,
,,,,space,,0,147,147,148,1,X, , , , ,,2000,2,611a8a373352c487fcf111a9,001,2021-08-19_15h59.42.035,natb3,2021.2.3,MacIntel,60.0024001,611a8a373352c487fcf111a9,611e07ecdcc96256ae8d5b80,611e71cee4fe0634dfb856fc,0.3851,
,,,,space,,0,148,148,200,1,X,7, ,5,3,,1500,1.5,611a8a373352c487fcf111a9,001,2021-08-19_15h59.42.035,natb3,2021.2.3,MacIntel,60.0024001,611a8a373352c487fcf111a9,611e07ecdcc96256ae8d5b80,611e71cee4fe0634dfb856fc,0.4157,
,,,,,,0,149,149,1,1,W, , , , ,space,2000,2,611a8a373352c487fcf111a9,001,2021-08-19_15h59.42.035,natb3,2021.2.3,MacIntel,60.0024001,611a8a373352c487fcf111a9,611e07ecdcc96256ae8d5b80,611e71cee4fe0634dfb856fc,,
,,,,,,0,150,150,5,1,T, , , , ,space,2000,2,611a8a373352c487fcf111a9,001,2021-08-19_15h59.42.035,natb3,2021.2.3,MacIntel,60.0024001,611a8a373352c487fcf111a9,611e07ecdcc96256ae8d5b80,611e71cee4fe0634dfb856fc,,
,,,,space,,0,151,151,236,1,X,3, ,4,7,,2500,2.5,611a8a373352c487fcf111a9,001,2021-08-19_15h59.42.035,natb3,2021.2.3,MacIntel,60.0024001,611a8a373352c487fcf111a9,611e07ecdcc96256ae8d5b80,611e71cee4fe0634dfb856fc,0.4163,
,,,,space,,0,152,152,133,1,X, ,4, ,6,,2500,2.5,611a8a373352c487fcf111a9,001,2021-08-19_15h59.42.035,natb3,2021.2.3,MacIntel,60.0024001,611a8a373352c487fcf111a9,611e07ecdcc96256ae8d5b80,611e71cee4fe0634dfb856fc,0.3658,
,,,,space,,0,153,153,166,1,X, , , , ,,2000,2,611a8a373352c487fcf111a9,001,2021-08-19_15h59.42.035,natb3,2021.2.3,MacIntel,60.0024001,611a8a373352c487fcf111a9,611e07ecdcc96256ae8d5b80,611e71cee4fe0634dfb856fc,0.3948,
,,,,space,,0,154,154,295,1,X,8,7,5, ,,2500,2.5,611a8a373352c487fcf111a9,001,2021-08-19_15h59.42.035,natb3,2021.2.3,MacIntel,60.0024001,611a8a373352c487fcf111a9,611e07ecdcc96256ae8d5b80,611e71cee4fe0634dfb856fc,0.309,
,,,,,,0,155,155,157,1,A, , , , ,space,2500,2.5,611a8a373352c487fcf111a9,001,2021-08-19_15h59.42.035,natb3,2021.2.3,MacIntel,60.0024001,611a8a373352c487fcf111a9,611e07ecdcc96256ae8d5b80,611e71cee4fe0634dfb856fc,,
,,,,,,0,156,156,285,1,B, , , , ,space,1500,1.5,611a8a373352c487fcf111a9,001,2021-08-19_15h59.42.035,natb3,2021.2.3,MacIntel,60.0024001,611a8a373352c487fcf111a9,611e07ecdcc96256ae8d5b80,611e71cee4fe0634dfb856fc,,
,,,,,,0,157,157,104,1,E, , , , ,space,2000,2,611a8a373352c487fcf111a9,001,2021-08-19_15h59.42.035,natb3,2021.2.3,MacIntel,60.0024001,611a8a373352c487fcf111a9,611e07ecdcc96256ae8d5b80,611e71cee4fe0634dfb856fc,,
,,,,,,0,158,158,37,1,E, , , , ,space,2500,2.5,611a8a373352c487fcf111a9,001,2021-08-19_15h59.42.035,natb3,2021.2.3,MacIntel,60.0024001,611a8a373352c487fcf111a9,611e07ecdcc96256ae8d5b80,611e71cee4fe0634dfb856fc,,
,,,,space,,0,159,159,35,1,X, , , , ,,2500,2.5,611a8a373352c487fcf111a9,001,2021-08-19_15h59.42.035,natb3,2021.2.3,MacIntel,60.0024001,611a8a373352c487fcf111a9,611e07ecdcc96256ae8d5b80,611e71cee4fe0634dfb856fc,0.5677,
,,,,space,,0,160,160,243,1,X, , , , ,,2500,2.5,611a8a373352c487fcf111a9,001,2021-08-19_15h59.42.035,natb3,2021.2.3,MacIntel,60.0024001,611a8a373352c487fcf111a9,611e07ecdcc96256ae8d5b80,611e71cee4fe0634dfb856fc,0.3645,
,,,,,,0,161,161,41,1,Y, , , , ,space,2500,2.5,611a8a373352c487fcf111a9,001,2021-08-19_15h59.42.035,natb3,2021.2.3,MacIntel,60.0024001,611a8a373352c487fcf111a9,611e07ecdcc96256ae8d5b80,611e71cee4fe0634dfb856fc,,
,,,,,,0,162,162,289,1,Q, , , , ,space,2000,2,611a8a373352c487fcf111a9,001,2021-08-19_15h59.42.035,natb3,2021.2.3,MacIntel,60.0024001,611a8a373352c487fcf111a9,611e07ecdcc96256ae8d5b80,611e71cee4fe0634dfb856fc,,
,,,,,,0,163,163,92,1,Z, , , , ,space,1500,1.5,611a8a373352c487fcf111a9,001,2021-08-19_15h59.42.035,natb3,2021.2.3,MacIntel,60.0024001,611a8a373352c487fcf111a9,611e07ecdcc96256ae8d5b80,611e71cee4fe0634dfb856fc,,
,,,,,,0,164,164,47,1,P, , , , ,space,2000,2,611a8a373352c487fcf111a9,001,2021-08-19_15h59.42.035,natb3,2021.2.3,MacIntel,60.0024001,611a8a373352c487fcf111a9,611e07ecdcc96256ae8d5b80,611e71cee4fe0634dfb856fc,,
,,,,,,0,165,165,270,1,S, , , , ,space,1500,1.5,611a8a373352c487fcf111a9,001,2021-08-19_15h59.42.035,natb3,2021.2.3,MacIntel,60.0024001,611a8a373352c487fcf111a9,611e07ecdcc96256ae8d5b80,611e71cee4fe0634dfb856fc,,
,,,,,,0,166,166,117,1,T, , , , ,space,2500,2.5,611a8a373352c487fcf111a9,001,2021-08-19_15h59.42.035,natb3,2021.2.3,MacIntel,60.0024001,611a8a373352c487fcf111a9,611e07ecdcc96256ae8d5b80,611e71cee4fe0634dfb856fc,,
,,,,,space,0,167,167,230,1,U, , , , ,space,1500,1.5,611a8a373352c487fcf111a9,001,2021-08-19_15h59.42.035,natb3,2021.2.3,MacIntel,60.0024001,611a8a373352c487fcf111a9,611e07ecdcc96256ae8d5b80,611e71cee4fe0634dfb856fc,,53.0107
,,,,space,,0,168,168,203,1,X, , , , ,,2500,2.5,611a8a373352c487fcf111a9,001,2021-08-19_15h59.42.035,natb3,2021.2.3,MacIntel,60.0024001,611a8a373352c487fcf111a9,611e07ecdcc96256ae8d5b80,611e71cee4fe0634dfb856fc,0.6169,
,,,,space,,0,169,169,31,1,X, , , , ,,1500,1.5,611a8a373352c487fcf111a9,001,2021-08-19_15h59.42.035,natb3,2021.2.3,MacIntel,60.0024001,611a8a373352c487fcf111a9,611e07ecdcc96256ae8d5b80,611e71cee4fe0634dfb856fc,0.4869,
,,,,,,0,170,170,111,1,O, , , , ,space,2000,2,611a8a373352c487fcf111a9,001,2021-08-19_15h59.42.035,natb3,2021.2.3,MacIntel,60.0024001,611a8a373352c487fcf111a9,611e07ecdcc96256ae8d5b80,611e71cee4fe0634dfb856fc,,
,,,,space,,0,171,171,329,1,X,3,4, ,2,,2500,2.5,611a8a373352c487fcf111a9,001,2021-08-19_15h59.42.035,natb3,2021.2.3,MacIntel,60.0024001,611a8a373352c487fcf111a9,611e07ecdcc96256ae8d5b80,611e71cee4fe0634dfb856fc,0.4755,
,,,,,,0,172,172,238,1,D, , , , ,space,1500,1.5,611a8a373352c487fcf111a9,001,2021-08-19_15h59.42.035,natb3,2021.2.3,MacIntel,60.0024001,611a8a373352c487fcf111a9,611e07ecdcc96256ae8d5b80,611e71cee4fe0634dfb856fc,,
,,,,,,0,173,173,260,1,R, , , , ,space,2000,2,611a8a373352c487fcf111a9,001,2021-08-19_15h59.42.035,natb3,2021.2.3,MacIntel,60.0024001,611a8a373352c487fcf111a9,611e07ecdcc96256ae8d5b80,611e71cee4fe0634dfb856fc,,
,,,,,,0,174,174,163,1,G, , , , ,space,2500,2.5,611a8a373352c487fcf111a9,001,2021-08-19_15h59.42.035,natb3,2021.2.3,MacIntel,60.0024001,611a8a373352c487fcf111a9,611e07ecdcc96256ae8d5b80,611e71cee4fe0634dfb856fc,,
,,,,,,0,175,175,45,1,O, , , , ,space,2000,2,611a8a373352c487fcf111a9,001,2021-08-19_15h59.42.035,natb3,2021.2.3,MacIntel,60.0024001,611a8a373352c487fcf111a9,611e07ecdcc96256ae8d5b80,611e71cee4fe0634dfb856fc,,
,,,,,,0,176,176,310,1,J, , , , ,space,2500,2.5,611a8a373352c487fcf111a9,001,2021-08-19_15h59.42.035,natb3,2021.2.3,MacIntel,60.0024001,611a8a373352c487fcf111a9,611e07ecdcc96256ae8d5b80,611e71cee4fe0634dfb856fc,,
,,,,,,0,177,177,210,1,M, , , , ,space,1500,1.5,611a8a373352c487fcf111a9,001,2021-08-19_15h59.42.035,natb3,2021.2.3,MacIntel,60.0024001,611a8a373352c487fcf111a9,611e07ecdcc96256ae8d5b80,611e71cee4fe0634dfb856fc,,
,,,,,,0,178,178,323,1,M, , , , ,space,2500,2.5,611a8a373352c487fcf111a9,001,2021-08-19_15h59.42.035,natb3,2021.2.3,MacIntel,60.0024001,611a8a373352c487fcf111a9,611e07ecdcc96256ae8d5b80,611e71cee4fe0634dfb856fc,,
,,,,,,0,179,179,301,1,P, , , , ,space,1500,1.5,611a8a373352c487fcf111a9,001,2021-08-19_15h59.42.035,natb3,2021.2.3,MacIntel,60.0024001,611a8a373352c487fcf111a9,611e07ecdcc96256ae8d5b80,611e71cee4fe0634dfb856fc,,
,,,,space,,0,180,180,4,1,X, , , , ,,2000,2,611a8a373352c487fcf111a9,001,2021-08-19_15h59.42.035,natb3,2021.2.3,MacIntel,60.0024001,611a8a373352c487fcf111a9,611e07ecdcc96256ae8d5b80,611e71cee4fe0634dfb856fc,0.4513,
,,,,,,0,181,181,151,1,Y, , , , ,space,2500,2.5,611a8a373352c487fcf111a9,001,2021-08-19_15h59.42.035,natb3,2021.2.3,MacIntel,60.0024001,611a8a373352c487fcf111a9,611e07ecdcc96256ae8d5b80,611e71cee4fe0634dfb856fc,,
,,,,,,0,182,182,275,1,G, , , , ,space,1500,1.5,611a8a373352c487fcf111a9,001,2021-08-19_15h59.42.035,natb3,2021.2.3,MacIntel,60.0024001,611a8a373352c487fcf111a9,611e07ecdcc96256ae8d5b80,611e71cee4fe0634dfb856fc,,
,,,,space,,0,183,183,213,1,X, , , , ,,2500,2.5,611a8a373352c487fcf111a9,001,2021-08-19_15h59.42.035,natb3,2021.2.3,MacIntel,60.0024001,611a8a373352c487fcf111a9,611e07ecdcc96256ae8d5b80,611e71cee4fe0634dfb856fc,0.4861,
,,,,space,,0,184,184,268,1,X,6, ,3, ,,2500,2.5,611a8a373352c487fcf111a9,001,2021-08-19_15h59.42.035,natb3,2021.2.3,MacIntel,60.0024001,611a8a373352c487fcf111a9,611e07ecdcc96256ae8d5b80,611e71cee4fe0634dfb856fc,0.4132,
,,,,,,0,185,185,11,1,P, , , , ,space,2500,2.5,611a8a373352c487fcf111a9,001,2021-08-19_15h59.42.035,natb3,2021.2.3,MacIntel,60.0024001,611a8a373352c487fcf111a9,611e07ecdcc96256ae8d5b80,611e71cee4fe0634dfb856fc,,
,,,,,,0,186,186,234,1,P, , , , ,space,2000,2,611a8a373352c487fcf111a9,001,2021-08-19_15h59.42.035,natb3,2021.2.3,MacIntel,60.0024001,611a8a373352c487fcf111a9,611e07ecdcc96256ae8d5b80,611e71cee4fe0634dfb856fc,,
,,,,,,0,187,187,199,1,J, , , , ,space,2500,2.5,611a8a373352c487fcf111a9,001,2021-08-19_15h59.42.035,natb3,2021.2.3,MacIntel,60.0024001,611a8a373352c487fcf111a9,611e07ecdcc96256ae8d5b80,611e71cee4fe0634dfb856fc,,
,,,,space,,0,188,188,259,1,X,8, , ,3,,2500,2.5,611a8a373352c487fcf111a9,001,2021-08-19_15h59.42.035,natb3,2021.2.3,MacIntel,60.0024001,611a8a373352c487fcf111a9,611e07ecdcc96256ae8d5b80,611e71cee4fe0634dfb856fc,0.4661,
,,,,space,,0,189,189,252,1,X,3, ,6,9,,2000,2,611a8a373352c487fcf111a9,001,2021-08-19_15h59.42.035,natb3,2021.2.3,MacIntel,60.0024001,611a8a373352c487fcf111a9,611e07ecdcc96256ae8d5b80,611e71cee4fe0634dfb856fc,0.4467,
,,,,,,0,190,190,108,1,Y, , , , ,space,2500,2.5,611a8a373352c487fcf111a9,001,2021-08-19_15h59.42.035,natb3,2021.2.3,MacIntel,60.0024001,611a8a373352c487fcf111a9,611e07ecdcc96256ae8d5b80,611e71cee4fe0634dfb856fc,,
,,,,,,0,191,191,267,1,P, , , , ,space,2000,2,611a8a373352c487fcf111a9,001,2021-08-19_15h59.42.035,natb3,2021.2.3,MacIntel,60.0024001,611a8a373352c487fcf111a9,611e07ecdcc96256ae8d5b80,611e71cee4fe0634dfb856fc,,
,,,,space,,0,192,192,153,1,X,4,7, ,6,,2000,2,611a8a373352c487fcf111a9,001,2021-08-19_15h59.42.035,natb3,2021.2.3,MacIntel,60.0024001,611a8a373352c487fcf111a9,611e07ecdcc96256ae8d5b80,611e71cee4fe0634dfb856fc,0.4784,
,,,,space,,0,193,193,175,1,X,7, ,4,2,,1500,1.5,611a8a373352c487fcf111a9,001,2021-08-19_15h59.42.035,natb3,2021.2.3,MacIntel,60.0024001,611a8a373352c487fcf111a9,611e07ecdcc96256ae8d5b80,611e71cee4fe0634dfb856fc,0.492,
,,,,,,0,194,194,188,1,I, , , , ,space,2500,2.5,611a8a373352c487fcf111a9,001,2021-08-19_15h59.42.035,natb3,2021.2.3,MacIntel,60.0024001,611a8a373352c487fcf111a9,611e07ecdcc96256ae8d5b80,611e71cee4fe0634dfb856fc,,
,,,,,,0,195,195,106,1,T, , , , ,space,1500,1.5,611a8a373352c487fcf111a9,001,2021-08-19_15h59.42.035,natb3,2021.2.3,MacIntel,60.0024001,611a8a373352c487fcf111a9,611e07ecdcc96256ae8d5b80,611e71cee4fe0634dfb856fc,,
,,,,,,0,196,196,144,1,Q, , , , ,space,2500,2.5,611a8a373352c487fcf111a9,001,2021-08-19_15h59.42.035,natb3,2021.2.3,MacIntel,60.0024001,611a8a373352c487fcf111a9,611e07ecdcc96256ae8d5b80,611e71cee4fe0634dfb856fc,,
,,,,space,,0,197,197,23,1,X,1, ,5, ,,2000,2,611a8a373352c487fcf111a9,001,2021-08-19_15h59.42.035,natb3,2021.2.3,MacIntel,60.0024001,611a8a373352c487fcf111a9,611e07ecdcc96256ae8d5b80,611e71cee4fe0634dfb856fc,0.3778,
,,,,space,,0,198,198,273,1,X, , , , ,,2000,2,611a8a373352c487fcf111a9,001,2021-08-19_15h59.42.035,natb3,2021.2.3,MacIntel,60.0024001,611a8a373352c487fcf111a9,611e07ecdcc96256ae8d5b80,611e71cee4fe0634dfb856fc,0.3908,
,,,,space,,0,199,199,171,1,X, , , , ,,1500,1.5,611a8a373352c487fcf111a9,001,2021-08-19_15h59.42.035,natb3,2021.2.3,MacIntel,60.0024001,611a8a373352c487fcf111a9,611e07ecdcc96256ae8d5b80,611e71cee4fe0634dfb856fc,0.443,
,,,,,,0,200,200,85,1,F, , , , ,space,2500,2.5,611a8a373352c487fcf111a9,001,2021-08-19_15h59.42.035,natb3,2021.2.3,MacIntel,60.0024001,611a8a373352c487fcf111a9,611e07ecdcc96256ae8d5b80,611e71cee4fe0634dfb856fc,,
,,,,space,,0,201,201,60,1,X,7,3,5, ,,1500,1.5,611a8a373352c487fcf111a9,001,2021-08-19_15h59.42.035,natb3,2021.2.3,MacIntel,60.0024001,611a8a373352c487fcf111a9,611e07ecdcc96256ae8d5b80,611e71cee4fe0634dfb856fc,0.4241,
,,,,,,0,202,202,113,1,W, , , , ,space,2500,2.5,611a8a373352c487fcf111a9,001,2021-08-19_15h59.42.035,natb3,2021.2.3,MacIntel,60.0024001,611a8a373352c487fcf111a9,611e07ecdcc96256ae8d5b80,611e71cee4fe0634dfb856fc,,
,,,,,,0,203,203,192,1,A, , , , ,space,2000,2,611a8a373352c487fcf111a9,001,2021-08-19_15h59.42.035,natb3,2021.2.3,MacIntel,60.0024001,611a8a373352c487fcf111a9,611e07ecdcc96256ae8d5b80,611e71cee4fe0634dfb856fc,,
,,,,,,0,204,204,79,1,P, , , , ,space,2000,2,611a8a373352c487fcf111a9,001,2021-08-19_15h59.42.035,natb3,2021.2.3,MacIntel,60.0024001,611a8a373352c487fcf111a9,611e07ecdcc96256ae8d5b80,611e71cee4fe0634dfb856fc,,
,,,,,,0,205,205,161,1,F, , , , ,space,1500,1.5,611a8a373352c487fcf111a9,001,2021-08-19_15h59.42.035,natb3,2021.2.3,MacIntel,60.0024001,611a8a373352c487fcf111a9,611e07ecdcc96256ae8d5b80,611e71cee4fe0634dfb856fc,,
,,,,,,0,206,206,77,1,O, , , , ,space,2000,2,611a8a373352c487fcf111a9,001,2021-08-19_15h59.42.035,natb3,2021.2.3,MacIntel,60.0024001,611a8a373352c487fcf111a9,611e07ecdcc96256ae8d5b80,611e71cee4fe0634dfb856fc,,
,,,,,,0,207,207,272,1,D, , , , ,space,2000,2,611a8a373352c487fcf111a9,001,2021-08-19_15h59.42.035,natb3,2021.2.3,MacIntel,60.0024001,611a8a373352c487fcf111a9,611e07ecdcc96256ae8d5b80,611e71cee4fe0634dfb856fc,,
,,,,,,0,208,208,95,1,V, , , , ,space,1500,1.5,611a8a373352c487fcf111a9,001,2021-08-19_15h59.42.035,natb3,2021.2.3,MacIntel,60.0024001,611a8a373352c487fcf111a9,611e07ecdcc96256ae8d5b80,611e71cee4fe0634dfb856fc,,
,,,,,,0,209,209,0,1,Q, , , , ,space,1500,1.5,611a8a373352c487fcf111a9,001,2021-08-19_15h59.42.035,natb3,2021.2.3,MacIntel,60.0024001,611a8a373352c487fcf111a9,611e07ecdcc96256ae8d5b80,611e71cee4fe0634dfb856fc,,
,,,,,,0,210,210,189,1,O, , , , ,space,1500,1.5,611a8a373352c487fcf111a9,001,2021-08-19_15h59.42.035,natb3,2021.2.3,MacIntel,60.0024001,611a8a373352c487fcf111a9,611e07ecdcc96256ae8d5b80,611e71cee4fe0634dfb856fc,,
,,,,space,,0,211,211,271,1,X, , , , ,,2500,2.5,611a8a373352c487fcf111a9,001,2021-08-19_15h59.42.035,natb3,2021.2.3,MacIntel,60.0024001,611a8a373352c487fcf111a9,611e07ecdcc96256ae8d5b80,611e71cee4fe0634dfb856fc,0.5827,
,,,,,,0,212,212,249,1,C, , , , ,space,2000,2,611a8a373352c487fcf111a9,001,2021-08-19_15h59.42.035,natb3,2021.2.3,MacIntel,60.0024001,611a8a373352c487fcf111a9,611e07ecdcc96256ae8d5b80,611e71cee4fe0634dfb856fc,,
,,,,,,0,213,213,215,1,E, , , , ,space,2500,2.5,611a8a373352c487fcf111a9,001,2021-08-19_15h59.42.035,natb3,2021.2.3,MacIntel,60.0024001,611a8a373352c487fcf111a9,611e07ecdcc96256ae8d5b80,611e71cee4fe0634dfb856fc,,
,,,,,,0,214,214,321,1,N, , , , ,space,2000,2,611a8a373352c487fcf111a9,001,2021-08-19_15h59.42.035,natb3,2021.2.3,MacIntel,60.0024001,611a8a373352c487fcf111a9,611e07ecdcc96256ae8d5b80,611e71cee4fe0634dfb856fc,,
,,,,,,0,215,215,132,1,H, , , , ,space,2500,2.5,611a8a373352c487fcf111a9,001,2021-08-19_15h59.42.035,natb3,2021.2.3,MacIntel,60.0024001,611a8a373352c487fcf111a9,611e07ecdcc96256ae8d5b80,611e71cee4fe0634dfb856fc,,
,,,,,,0,216,216,13,1,A, , , , ,space,2000,2,611a8a373352c487fcf111a9,001,2021-08-19_15h59.42.035,natb3,2021.2.3,MacIntel,60.0024001,611a8a373352c487fcf111a9,611e07ecdcc96256ae8d5b80,611e71cee4fe0634dfb856fc,,
,,,,space,,0,217,217,263,1,X,4, ,6, ,,1500,1.5,611a8a373352c487fcf111a9,001,2021-08-19_15h59.42.035,natb3,2021.2.3,MacIntel,60.0024001,611a8a373352c487fcf111a9,611e07ecdcc96256ae8d5b80,611e71cee4fe0634dfb856fc,0.4285,
,,,,,,0,218,218,142,1,N, , , , ,space,2500,2.5,611a8a373352c487fcf111a9,001,2021-08-19_15h59.42.035,natb3,2021.2.3,MacIntel,60.0024001,611a8a373352c487fcf111a9,611e07ecdcc96256ae8d5b80,611e71cee4fe0634dfb856fc,,
,,,,,,0,219,219,36,1,W, , , , ,space,2000,2,611a8a373352c487fcf111a9,001,2021-08-19_15h59.42.035,natb3,2021.2.3,MacIntel,60.0024001,611a8a373352c487fcf111a9,611e07ecdcc96256ae8d5b80,611e71cee4fe0634dfb856fc,,
,,,,,,0,220,220,114,1,E, , , , ,space,2000,2,611a8a373352c487fcf111a9,001,2021-08-19_15h59.42.035,natb3,2021.2.3,MacIntel,60.0024001,611a8a373352c487fcf111a9,611e07ecdcc96256ae8d5b80,611e71cee4fe0634dfb856fc,,
,,,,,,0,221,221,167,1,K, , , , ,space,1500,1.5,611a8a373352c487fcf111a9,001,2021-08-19_15h59.42.035,natb3,2021.2.3,MacIntel,60.0024001,611a8a373352c487fcf111a9,611e07ecdcc96256ae8d5b80,611e71cee4fe0634dfb856fc,,
,,,,,,0,222,222,304,1,S, , , , ,space,2000,2,611a8a373352c487fcf111a9,001,2021-08-19_15h59.42.035,natb3,2021.2.3,MacIntel,60.0024001,611a8a373352c487fcf111a9,611e07ecdcc96256ae8d5b80,611e71cee4fe0634dfb856fc,,
,,,,,,0,223,223,198,1,H, , , , ,space,2500,2.5,611a8a373352c487fcf111a9,001,2021-08-19_15h59.42.035,natb3,2021.2.3,MacIntel,60.0024001,611a8a373352c487fcf111a9,611e07ecdcc96256ae8d5b80,611e71cee4fe0634dfb856fc,,
,,,,,,0,224,224,135,1,K, , , , ,space,1500,1.5,611a8a373352c487fcf111a9,001,2021-08-19_15h59.42.035,natb3,2021.2.3,MacIntel,60.0024001,611a8a373352c487fcf111a9,611e07ecdcc96256ae8d5b80,611e71cee4fe0634dfb856fc,,
,,,,,,0,225,225,44,1,I, , , , ,space,2500,2.5,611a8a373352c487fcf111a9,001,2021-08-19_15h59.42.035,natb3,2021.2.3,MacIntel,60.0024001,611a8a373352c487fcf111a9,611e07ecdcc96256ae8d5b80,611e71cee4fe0634dfb856fc,,
,,,,,,0,226,226,212,1,Q, , , , ,space,2500,2.5,611a8a373352c487fcf111a9,001,2021-08-19_15h59.42.035,natb3,2021.2.3,MacIntel,60.0024001,611a8a373352c487fcf111a9,611e07ecdcc96256ae8d5b80,611e71cee4fe0634dfb856fc,,
,,,,,,0,227,227,3,1,R, , , , ,space,2000,2,611a8a373352c487fcf111a9,001,2021-08-19_15h59.42.035,natb3,2021.2.3,MacIntel,60.0024001,611a8a373352c487fcf111a9,611e07ecdcc96256ae8d5b80,611e71cee4fe0634dfb856fc,,
,,,,,,0,228,228,156,1,P, , , , ,space,1500,1.5,611a8a373352c487fcf111a9,001,2021-08-19_15h59.42.035,natb3,2021.2.3,MacIntel,60.0024001,611a8a373352c487fcf111a9,611e07ecdcc96256ae8d5b80,611e71cee4fe0634dfb856fc,,
,,,,,,0,229,229,180,1,W, , , , ,space,2000,2,611a8a373352c487fcf111a9,001,2021-08-19_15h59.42.035,natb3,2021.2.3,MacIntel,60.0024001,611a8a373352c487fcf111a9,611e07ecdcc96256ae8d5b80,611e71cee4fe0634dfb856fc,,
,,,,space,,0,230,230,299,1,X, , , , ,,2500,2.5,611a8a373352c487fcf111a9,001,2021-08-19_15h59.42.035,natb3,2021.2.3,MacIntel,60.0024001,611a8a373352c487fcf111a9,611e07ecdcc96256ae8d5b80,611e71cee4fe0634dfb856fc,0.5496,
,,,,,,0,231,231,67,1,Q, , , , ,space,2000,2,611a8a373352c487fcf111a9,001,2021-08-19_15h59.42.035,natb3,2021.2.3,MacIntel,60.0024001,611a8a373352c487fcf111a9,611e07ecdcc96256ae8d5b80,611e71cee4fe0634dfb856fc,,
,,,,,,0,232,232,184,1,T, , , , ,space,2000,2,611a8a373352c487fcf111a9,001,2021-08-19_15h59.42.035,natb3,2021.2.3,MacIntel,60.0024001,611a8a373352c487fcf111a9,611e07ecdcc96256ae8d5b80,611e71cee4fe0634dfb856fc,,
,,,,,,0,233,233,288,1,M, , , , ,space,1500,1.5,611a8a373352c487fcf111a9,001,2021-08-19_15h59.42.035,natb3,2021.2.3,MacIntel,60.0024001,611a8a373352c487fcf111a9,611e07ecdcc96256ae8d5b80,611e71cee4fe0634dfb856fc,,
,,,,space,,0,234,234,182,1,X, , , , ,,1500,1.5,611a8a373352c487fcf111a9,001,2021-08-19_15h59.42.035,natb3,2021.2.3,MacIntel,60.0024001,611a8a373352c487fcf111a9,611e07ecdcc96256ae8d5b80,611e71cee4fe0634dfb856fc,0.7004,
,,,,,,0,235,235,177,1,M, , , , ,space,2500,2.5,611a8a373352c487fcf111a9,001,2021-08-19_15h59.42.035,natb3,2021.2.3,MacIntel,60.0024001,611a8a373352c487fcf111a9,611e07ecdcc96256ae8d5b80,611e71cee4fe0634dfb856fc,,
,,,,,,0,236,236,327,1,E, , , , ,space,1500,1.5,611a8a373352c487fcf111a9,001,2021-08-19_15h59.42.035,natb3,2021.2.3,MacIntel,60.0024001,611a8a373352c487fcf111a9,611e07ecdcc96256ae8d5b80,611e71cee4fe0634dfb856fc,,
,,,,space,,0,237,237,255,1,X, , , , ,,1500,1.5,611a8a373352c487fcf111a9,001,2021-08-19_15h59.42.035,natb3,2021.2.3,MacIntel,60.0024001,611a8a373352c487fcf111a9,611e07ecdcc96256ae8d5b80,611e71cee4fe0634dfb856fc,0.4456,
,,,,space,,0,238,238,322,1,X, , ,1,6,,2000,2,611a8a373352c487fcf111a9,001,2021-08-19_15h59.42.035,natb3,2021.2.3,MacIntel,60.0024001,611a8a373352c487fcf111a9,611e07ecdcc96256ae8d5b80,611e71cee4fe0634dfb856fc,0.3894,
,,,,,,0,239,239,190,1,P, , , , ,space,2000,2,611a8a373352c487fcf111a9,001,2021-08-19_15h59.42.035,natb3,2021.2.3,MacIntel,60.0024001,611a8a373352c487fcf111a9,611e07ecdcc96256ae8d5b80,611e71cee4fe0634dfb856fc,,
,,,,space,,0,240,240,82,1,X,4,6,1,7,,2000,2,611a8a373352c487fcf111a9,001,2021-08-19_15h59.42.035,natb3,2021.2.3,MacIntel,60.0024001,611a8a373352c487fcf111a9,611e07ecdcc96256ae8d5b80,611e71cee4fe0634dfb856fc,0.6592,
,,,,,,0,241,241,22,1,K, , , , ,space,2000,2,611a8a373352c487fcf111a9,001,2021-08-19_15h59.42.035,natb3,2021.2.3,MacIntel,60.0024001,611a8a373352c487fcf111a9,611e07ecdcc96256ae8d5b80,611e71cee4fe0634dfb856fc,,
,,,,,,0,242,242,91,1,L, , , , ,space,2000,2,611a8a373352c487fcf111a9,001,2021-08-19_15h59.42.035,natb3,2021.2.3,MacIntel,60.0024001,611a8a373352c487fcf111a9,611e07ecdcc96256ae8d5b80,611e71cee4fe0634dfb856fc,,
,,,,space,,0,243,243,239,1,X, , , , ,,2000,2,611a8a373352c487fcf111a9,001,2021-08-19_15h59.42.035,natb3,2021.2.3,MacIntel,60.0024001,611a8a373352c487fcf111a9,611e07ecdcc96256ae8d5b80,611e71cee4fe0634dfb856fc,0.4489,
,,,,space,,0,244,244,248,1,X, ,1,5, ,,1500,1.5,611a8a373352c487fcf111a9,001,2021-08-19_15h59.42.035,natb3,2021.2.3,MacIntel,60.0024001,611a8a373352c487fcf111a9,611e07ecdcc96256ae8d5b80,611e71cee4fe0634dfb856fc,0.4155,
,,,,space,,0,245,245,51,1,X,7,5,8, ,,1500,1.5,611a8a373352c487fcf111a9,001,2021-08-19_15h59.42.035,natb3,2021.2.3,MacIntel,60.0024001,611a8a373352c487fcf111a9,611e07ecdcc96256ae8d5b80,611e71cee4fe0634dfb856fc,0.4635,
,,,,space,,0,246,246,211,1,X, , , , ,,2500,2.5,611a8a373352c487fcf111a9,001,2021-08-19_15h59.42.035,natb3,2021.2.3,MacIntel,60.0024001,611a8a373352c487fcf111a9,611e07ecdcc96256ae8d5b80,611e71cee4fe0634dfb856fc,0.3281,
,,,,,,0,247,247,38,1,R, , , , ,space,2500,2.5,611a8a373352c487fcf111a9,001,2021-08-19_15h59.42.035,natb3,2021.2.3,MacIntel,60.0024001,611a8a373352c487fcf111a9,611e07ecdcc96256ae8d5b80,611e71cee4fe0634dfb856fc,,
,,,,,,0,248,248,228,1,Y, , , , ,space,2000,2,611a8a373352c487fcf111a9,001,2021-08-19_15h59.42.035,natb3,2021.2.3,MacIntel,60.0024001,611a8a373352c487fcf111a9,611e07ecdcc96256ae8d5b80,611e71cee4fe0634dfb856fc,,
,,,,,,0,249,249,64,1,N, , , , ,space,2000,2,611a8a373352c487fcf111a9,001,2021-08-19_15h59.42.035,natb3,2021.2.3,MacIntel,60.0024001,611a8a373352c487fcf111a9,611e07ecdcc96256ae8d5b80,611e71cee4fe0634dfb856fc,,
,,,,,,0,250,250,63,1,B, , , , ,space,2000,2,611a8a373352c487fcf111a9,001,2021-08-19_15h59.42.035,natb3,2021.2.3,MacIntel,60.0024001,611a8a373352c487fcf111a9,611e07ecdcc96256ae8d5b80,611e71cee4fe0634dfb856fc,,
,,,,,,0,251,251,137,1,C, , , , ,space,2500,2.5,611a8a373352c487fcf111a9,001,2021-08-19_15h59.42.035,natb3,2021.2.3,MacIntel,60.0024001,611a8a373352c487fcf111a9,611e07ecdcc96256ae8d5b80,611e71cee4fe0634dfb856fc,,
,,,,,,0,252,252,10,1,O, , , , ,space,2000,2,611a8a373352c487fcf111a9,001,2021-08-19_15h59.42.035,natb3,2021.2.3,MacIntel,60.0024001,611a8a373352c487fcf111a9,611e07ecdcc96256ae8d5b80,611e71cee4fe0634dfb856fc,,
,,,,,,0,253,253,55,1,H, , , , ,space,2500,2.5,611a8a373352c487fcf111a9,001,2021-08-19_15h59.42.035,natb3,2021.2.3,MacIntel,60.0024001,611a8a373352c487fcf111a9,611e07ecdcc96256ae8d5b80,611e71cee4fe0634dfb856fc,,
,,,,,,0,254,254,294,1,T, , , , ,space,2000,2,611a8a373352c487fcf111a9,001,2021-08-19_15h59.42.035,natb3,2021.2.3,MacIntel,60.0024001,611a8a373352c487fcf111a9,611e07ecdcc96256ae8d5b80,611e71cee4fe0634dfb856fc,,
,,,,,,0,255,255,261,1,T, , , , ,space,2000,2,611a8a373352c487fcf111a9,001,2021-08-19_15h59.42.035,natb3,2021.2.3,MacIntel,60.0024001,611a8a373352c487fcf111a9,611e07ecdcc96256ae8d5b80,611e71cee4fe0634dfb856fc,,
,,,,space,,0,256,256,195,1,X, , , , ,,1500,1.5,611a8a373352c487fcf111a9,001,2021-08-19_15h59.42.035,natb3,2021.2.3,MacIntel,60.0024001,611a8a373352c487fcf111a9,611e07ecdcc96256ae8d5b80,611e71cee4fe0634dfb856fc,0.5499,
,,,,,,0,257,257,8,1,U, , , , ,space,1500,1.5,611a8a373352c487fcf111a9,001,2021-08-19_15h59.42.035,natb3,2021.2.3,MacIntel,60.0024001,611a8a373352c487fcf111a9,611e07ecdcc96256ae8d5b80,611e71cee4fe0634dfb856fc,,
,,,,,,0,258,258,97,1,B, , , , ,space,2500,2.5,611a8a373352c487fcf111a9,001,2021-08-19_15h59.42.035,natb3,2021.2.3,MacIntel,60.0024001,611a8a373352c487fcf111a9,611e07ecdcc96256ae8d5b80,611e71cee4fe0634dfb856fc,,
,,,,,,0,259,259,56,1,J, , , , ,space,1500,1.5,611a8a373352c487fcf111a9,001,2021-08-19_15h59.42.035,natb3,2021.2.3,MacIntel,60.0024001,611a8a373352c487fcf111a9,611e07ecdcc96256ae8d5b80,611e71cee4fe0634dfb856fc,,
,,,,,,0,260,260,257,1,W, , , , ,space,2000,2,611a8a373352c487fcf111a9,001,2021-08-19_15h59.42.035,natb3,2021.2.3,MacIntel,60.0024001,611a8a373352c487fcf111a9,611e07ecdcc96256ae8d5b80,611e71cee4fe0634dfb856fc,,
,,,,,,0,261,261,226,1,R, , , , ,space,2000,2,611a8a373352c487fcf111a9,001,2021-08-19_15h59.42.035,natb3,2021.2.3,MacIntel,60.0024001,611a8a373352c487fcf111a9,611e07ecdcc96256ae8d5b80,611e71cee4fe0634dfb856fc,,
,,,,space,,0,262,262,78,1,X, , , , ,,2000,2,611a8a373352c487fcf111a9,001,2021-08-19_15h59.42.035,natb3,2021.2.3,MacIntel,60.0024001,611a8a373352c487fcf111a9,611e07ecdcc96256ae8d5b80,611e71cee4fe0634dfb856fc,0.4185,
,,,,space,,0,263,263,313,1,X, , , , ,,2500,2.5,611a8a373352c487fcf111a9,001,2021-08-19_15h59.42.035,natb3,2021.2.3,MacIntel,60.0024001,611a8a373352c487fcf111a9,611e07ecdcc96256ae8d5b80,611e71cee4fe0634dfb856fc,0.5004,
,,,,space,,0,264,264,187,1,X, ,3,7,4,,1500,1.5,611a8a373352c487fcf111a9,001,2021-08-19_15h59.42.035,natb3,2021.2.3,MacIntel,60.0024001,611a8a373352c487fcf111a9,611e07ecdcc96256ae8d5b80,611e71cee4fe0634dfb856fc,0.4134,
,,,,,,0,265,265,19,1,G, , , , ,space,1500,1.5,611a8a373352c487fcf111a9,001,2021-08-19_15h59.42.035,natb3,2021.2.3,MacIntel,60.0024001,611a8a373352c487fcf111a9,611e07ecdcc96256ae8d5b80,611e71cee4fe0634dfb856fc,,
,,,,,,0,266,266,9,1,I, , , , ,space,1500,1.5,611a8a373352c487fcf111a9,001,2021-08-19_15h59.42.035,natb3,2021.2.3,MacIntel,60.0024001,611a8a373352c487fcf111a9,611e07ecdcc96256ae8d5b80,611e71cee4fe0634dfb856fc,,
,,,,space,,0,267,267,66,1,X, ,4,7, ,,2000,2,611a8a373352c487fcf111a9,001,2021-08-19_15h59.42.035,natb3,2021.2.3,MacIntel,60.0024001,611a8a373352c487fcf111a9,611e07ecdcc96256ae8d5b80,611e71cee4fe0634dfb856fc,0.3999,
,,,,,,0,268,268,146,1,W, , , , ,space,1500,1.5,611a8a373352c487fcf111a9,001,2021-08-19_15h59.42.035,natb3,2021.2.3,MacIntel,60.0024001,611a8a373352c487fcf111a9,611e07ecdcc96256ae8d5b80,611e71cee4fe0634dfb856fc,,
,,,,,,0,269,269,232,1,O, , , , ,space,2500,2.5,611a8a373352c487fcf111a9,001,2021-08-19_15h59.42.035,natb3,2021.2.3,MacIntel,60.0024001,611a8a373352c487fcf111a9,611e07ecdcc96256ae8d5b80,611e71cee4fe0634dfb856fc,,
,,,,,,0,270,270,303,1,A, , , , ,space,2000,2,611a8a373352c487fcf111a9,001,2021-08-19_15h59.42.035,natb3,2021.2.3,MacIntel,60.0024001,611a8a373352c487fcf111a9,611e07ecdcc96256ae8d5b80,611e71cee4fe0634dfb856fc,,
,,,,,,0,271,271,94,1,C, , , , ,space,2000,2,611a8a373352c487fcf111a9,001,2021-08-19_15h59.42.035,natb3,2021.2.3,MacIntel,60.0024001,611a8a373352c487fcf111a9,611e07ecdcc96256ae8d5b80,611e71cee4fe0634dfb856fc,,
,,,,,,0,272,272,72,1,T, , , , ,space,1500,1.5,611a8a373352c487fcf111a9,001,2021-08-19_15h59.42.035,natb3,2021.2.3,MacIntel,60.0024001,611a8a373352c487fcf111a9,611e07ecdcc96256ae8d5b80,611e71cee4fe0634dfb856fc,,
,,,,,,0,273,273,154,1,I, , , , ,space,2500,2.5,611a8a373352c487fcf111a9,001,2021-08-19_15h59.42.035,natb3,2021.2.3,MacIntel,60.0024001,611a8a373352c487fcf111a9,611e07ecdcc96256ae8d5b80,611e71cee4fe0634dfb856fc,,
,,,,,,0,274,274,334,1,O, , , , ,space,1500,1.5,611a8a373352c487fcf111a9,001,2021-08-19_15h59.42.035,natb3,2021.2.3,MacIntel,60.0024001,611a8a373352c487fcf111a9,611e07ecdcc96256ae8d5b80,611e71cee4fe0634dfb856fc,,
,,,,,,0,275,275,206,1,V, , , , ,space,2000,2,611a8a373352c487fcf111a9,001,2021-08-19_15h59.42.035,natb3,2021.2.3,MacIntel,60.0024001,611a8a373352c487fcf111a9,611e07ecdcc96256ae8d5b80,611e71cee4fe0634dfb856fc,,
,,,,,,0,276,276,76,1,I, , , , ,space,2000,2,611a8a373352c487fcf111a9,001,2021-08-19_15h59.42.035,natb3,2021.2.3,MacIntel,60.0024001,611a8a373352c487fcf111a9,611e07ecdcc96256ae8d5b80,611e71cee4fe0634dfb856fc,,
,,,,,,0,277,277,201,1,K, , , , ,space,1500,1.5,611a8a373352c487fcf111a9,001,2021-08-19_15h59.42.035,natb3,2021.2.3,MacIntel,60.0024001,611a8a373352c487fcf111a9,611e07ecdcc96256ae8d5b80,611e71cee4fe0634dfb856fc,,
,,,,,,0,278,278,173,1,V, , , , ,space,1500,1.5,611a8a373352c487fcf111a9,001,2021-08-19_15h59.42.035,natb3,2021.2.3,MacIntel,60.0024001,611a8a373352c487fcf111a9,611e07ecdcc96256ae8d5b80,611e71cee4fe0634dfb856fc,,
,,,,,,0,279,279,159,1,S, , , , ,space,2500,2.5,611a8a373352c487fcf111a9,001,2021-08-19_15h59.42.035,natb3,2021.2.3,MacIntel,60.0024001,611a8a373352c487fcf111a9,611e07ecdcc96256ae8d5b80,611e71cee4fe0634dfb856fc,,
,,,,,,0,280,280,160,1,D, , , , ,space,1500,1.5,611a8a373352c487fcf111a9,001,2021-08-19_15h59.42.035,natb3,2021.2.3,MacIntel,60.0024001,611a8a373352c487fcf111a9,611e07ecdcc96256ae8d5b80,611e71cee4fe0634dfb856fc,,
,,,,,,0,281,281,245,1,K, , , , ,space,2000,2,611a8a373352c487fcf111a9,001,2021-08-19_15h59.42.035,natb3,2021.2.3,MacIntel,60.0024001,611a8a373352c487fcf111a9,611e07ecdcc96256ae8d5b80,611e71cee4fe0634dfb856fc,,
,,,,,,0,282,282,174,1,B, , , , ,space,2500,2.5,611a8a373352c487fcf111a9,001,2021-08-19_15h59.42.035,natb3,2021.2.3,MacIntel,60.0024001,611a8a373352c487fcf111a9,611e07ecdcc96256ae8d5b80,611e71cee4fe0634dfb856fc,,
,,,,,,0,283,283,296,1,Y, , , , ,space,2500,2.5,611a8a373352c487fcf111a9,001,2021-08-19_15h59.42.035,natb3,2021.2.3,MacIntel,60.0024001,611a8a373352c487fcf111a9,611e07ecdcc96256ae8d5b80,611e71cee4fe0634dfb856fc,,
,,,,,,0,284,284,6,1,Y, , , , ,space,2500,2.5,611a8a373352c487fcf111a9,001,2021-08-19_15h59.42.035,natb3,2021.2.3,MacIntel,60.0024001,611a8a373352c487fcf111a9,611e07ecdcc96256ae8d5b80,611e71cee4fe0634dfb856fc,,
,,,,,,0,285,285,123,1,O, , , , ,space,1500,1.5,611a8a373352c487fcf111a9,001,2021-08-19_15h59.42.035,natb3,2021.2.3,MacIntel,60.0024001,611a8a373352c487fcf111a9,611e07ecdcc96256ae8d5b80,611e71cee4fe0634dfb856fc,,
,,,,,,0,286,286,30,1,N, , , , ,space,2500,2.5,611a8a373352c487fcf111a9,001,2021-08-19_15h59.42.035,natb3,2021.2.3,MacIntel,60.0024001,611a8a373352c487fcf111a9,611e07ecdcc96256ae8d5b80,611e71cee4fe0634dfb856fc,,
,,,,,,0,287,287,176,1,N, , , , ,space,1500,1.5,611a8a373352c487fcf111a9,001,2021-08-19_15h59.42.035,natb3,2021.2.3,MacIntel,60.0024001,611a8a373352c487fcf111a9,611e07ecdcc96256ae8d5b80,611e71cee4fe0634dfb856fc,,
,,,,,,0,288,288,235,1,A, , , , ,space,1500,1.5,611a8a373352c487fcf111a9,001,2021-08-19_15h59.42.035,natb3,2021.2.3,MacIntel,60.0024001,611a8a373352c487fcf111a9,611e07ecdcc96256ae8d5b80,611e71cee4fe0634dfb856fc,,
,,,,,,0,289,289,139,1,V, , , , ,space,2000,2,611a8a373352c487fcf111a9,001,2021-08-19_15h59.42.035,natb3,2021.2.3,MacIntel,60.0024001,611a8a373352c487fcf111a9,611e07ecdcc96256ae8d5b80,611e71cee4fe0634dfb856fc,,
,,,,,,0,290,290,318,1,X, , , , ,,1500,1.5,611a8a373352c487fcf111a9,001,2021-08-19_15h59.42.035,natb3,2021.2.3,MacIntel,60.0024001,611a8a373352c487fcf111a9,611e07ecdcc96256ae8d5b80,611e71cee4fe0634dfb856fc,,
,,,,,,0,291,291,224,1,W, , , , ,space,1500,1.5,611a8a373352c487fcf111a9,001,2021-08-19_15h59.42.035,natb3,2021.2.3,MacIntel,60.0024001,611a8a373352c487fcf111a9,611e07ecdcc96256ae8d5b80,611e71cee4fe0634dfb856fc,,
,,,,,,0,292,292,2,1,E, , , , ,space,2500,2.5,611a8a373352c487fcf111a9,001,2021-08-19_15h59.42.035,natb3,2021.2.3,MacIntel,60.0024001,611a8a373352c487fcf111a9,611e07ecdcc96256ae8d5b80,611e71cee4fe0634dfb856fc,,
,,,,,,0,293,293,68,1,W, , , , ,space,2500,2.5,611a8a373352c487fcf111a9,001,2021-08-19_15h59.42.035,natb3,2021.2.3,MacIntel,60.0024001,611a8a373352c487fcf111a9,611e07ecdcc96256ae8d5b80,611e71cee4fe0634dfb856fc,,
,,,,,,0,294,294,24,1,L, , , , ,space,2500,2.5,611a8a373352c487fcf111a9,001,2021-08-19_15h59.42.035,natb3,2021.2.3,MacIntel,60.0024001,611a8a373352c487fcf111a9,611e07ecdcc96256ae8d5b80,611e71cee4fe0634dfb856fc,,
,,,,,,0,295,295,278,1,J, , , , ,space,2000,2,611a8a373352c487fcf111a9,001,2021-08-19_15h59.42.035,natb3,2021.2.3,MacIntel,60.0024001,611a8a373352c487fcf111a9,611e07ecdcc96256ae8d5b80,611e71cee4fe0634dfb856fc,,
,,,,space,,0,296,296,93,1,X,5, ,7, ,,2500,2.5,611a8a373352c487fcf111a9,001,2021-08-19_15h59.42.035,natb3,2021.2.3,MacIntel,60.0024001,611a8a373352c487fcf111a9,611e07ecdcc96256ae8d5b80,611e71cee4fe0634dfb856fc,0.3493,
,,,,,,0,297,297,290,1,W, , , , ,space,1500,1.5,611a8a373352c487fcf111a9,001,2021-08-19_15h59.42.035,natb3,2021.2.3,MacIntel,60.0024001,611a8a373352c487fcf111a9,611e07ecdcc96256ae8d5b80,611e71cee4fe0634dfb856fc,,
,,,,space,,0,298,298,179,1,X, ,9, ,2,,1500,1.5,611a8a373352c487fcf111a9,001,2021-08-19_15h59.42.035,natb3,2021.2.3,MacIntel,60.0024001,611a8a373352c487fcf111a9,611e07ecdcc96256ae8d5b80,611e71cee4fe0634dfb856fc,0.3999,
,,,,,,0,299,299,227,1,T, , , , ,space,1500,1.5,611a8a373352c487fcf111a9,001,2021-08-19_15h59.42.035,natb3,2021.2.3,MacIntel,60.0024001,611a8a373352c487fcf111a9,611e07ecdcc96256ae8d5b80,611e71cee4fe0634dfb856fc,,
,,,,,,0,300,300,42,1,U, , , , ,space,1500,1.5,611a8a373352c487fcf111a9,001,2021-08-19_15h59.42.035,natb3,2021.2.3,MacIntel,60.0024001,611a8a373352c487fcf111a9,611e07ecdcc96256ae8d5b80,611e71cee4fe0634dfb856fc,,
,,,,,,0,301,301,269,1,A, , , , ,space,2500,2.5,611a8a373352c487fcf111a9,001,2021-08-19_15h59.42.035,natb3,2021.2.3,MacIntel,60.0024001,611a8a373352c487fcf111a9,611e07ecdcc96256ae8d5b80,611e71cee4fe0634dfb856fc,,
,,,,,,0,302,302,48,1,A, , , , ,space,2500,2.5,611a8a373352c487fcf111a9,001,2021-08-19_15h59.42.035,natb3,2021.2.3,MacIntel,60.0024001,611a8a373352c487fcf111a9,611e07ecdcc96256ae8d5b80,611e71cee4fe0634dfb856fc,,
,,,,,,0,303,303,193,1,S, , , , ,space,2500,2.5,611a8a373352c487fcf111a9,001,2021-08-19_15h59.42.035,natb3,2021.2.3,MacIntel,60.0024001,611a8a373352c487fcf111a9,611e07ecdcc96256ae8d5b80,611e71cee4fe0634dfb856fc,,
,,,,,,0,304,304,119,1,Y, , , , ,space,2500,2.5,611a8a373352c487fcf111a9,001,2021-08-19_15h59.42.035,natb3,2021.2.3,MacIntel,60.0024001,611a8a373352c487fcf111a9,611e07ecdcc96256ae8d5b80,611e71cee4fe0634dfb856fc,,
,,,,space,,0,305,305,315,1,X, , , , ,,2500,2.5,611a8a373352c487fcf111a9,001,2021-08-19_15h59.42.035,natb3,2021.2.3,MacIntel,60.0024001,611a8a373352c487fcf111a9,611e07ecdcc96256ae8d5b80,611e71cee4fe0634dfb856fc,0.716,
,,,,,,0,306,306,183,1,R, , , , ,space,1500,1.5,611a8a373352c487fcf111a9,001,2021-08-19_15h59.42.035,natb3,2021.2.3,MacIntel,60.0024001,611a8a373352c487fcf111a9,611e07ecdcc96256ae8d5b80,611e71cee4fe0634dfb856fc,,
,,,,space,,0,307,307,291,1,X, , , , ,,2000,2,611a8a373352c487fcf111a9,001,2021-08-19_15h59.42.035,natb3,2021.2.3,MacIntel,60.0024001,611a8a373352c487fcf111a9,611e07ecdcc96256ae8d5b80,611e71cee4fe0634dfb856fc,0.7362,
,,,,,,0,308,308,247,1,Z, , , , ,space,1500,1.5,611a8a373352c487fcf111a9,001,2021-08-19_15h59.42.035,natb3,2021.2.3,MacIntel,60.0024001,611a8a373352c487fcf111a9,611e07ecdcc96256ae8d5b80,611e71cee4fe0634dfb856fc,,
,,,,,,0,309,309,152,1,U, , , , ,space,2000,2,611a8a373352c487fcf111a9,001,2021-08-19_15h59.42.035,natb3,2021.2.3,MacIntel,60.0024001,611a8a373352c487fcf111a9,611e07ecdcc96256ae8d5b80,611e71cee4fe0634dfb856fc,,
,,,,,,0,310,310,165,1,J, , , , ,space,2500,2.5,611a8a373352c487fcf111a9,001,2021-08-19_15h59.42.035,natb3,2021.2.3,MacIntel,60.0024001,611a8a373352c487fcf111a9,611e07ecdcc96256ae8d5b80,611e71cee4fe0634dfb856fc,,
,,,,,,0,311,311,231,1,I, , , , ,space,2500,2.5,611a8a373352c487fcf111a9,001,2021-08-19_15h59.42.035,natb3,2021.2.3,MacIntel,60.0024001,611a8a373352c487fcf111a9,611e07ecdcc96256ae8d5b80,611e71cee4fe0634dfb856fc,,
,,,,space,,0,312,312,89,1,X,3, , , ,,2000,2,611a8a373352c487fcf111a9,001,2021-08-19_15h59.42.035,natb3,2021.2.3,MacIntel,60.0024001,611a8a373352c487fcf111a9,611e07ecdcc96256ae8d5b80,611e71cee4fe0634dfb856fc,0.4823,
,,,,space,,0,313,313,107,1,X,9,3, ,2,,2000,2,611a8a373352c487fcf111a9,001,2021-08-19_15h59.42.035,natb3,2021.2.3,MacIntel,60.0024001,611a8a373352c487fcf111a9,611e07ecdcc96256ae8d5b80,611e71cee4fe0634dfb856fc,0.3666,
,,,,,,0,314,314,309,1,H, , , , ,space,2500,2.5,611a8a373352c487fcf111a9,001,2021-08-19_15h59.42.035,natb3,2021.2.3,MacIntel,60.0024001,611a8a373352c487fcf111a9,611e07ecdcc96256ae8d5b80,611e71cee4fe0634dfb856fc,,
,,,,,,0,315,315,251,1,B, , , , ,space,1500,1.5,611a8a373352c487fcf111a9,001,2021-08-19_15h59.42.035,natb3,2021.2.3,MacIntel,60.0024001,611a8a373352c487fcf111a9,611e07ecdcc96256ae8d5b80,611e71cee4fe0634dfb856fc,,
,,,,,,0,316,316,90,1,K, , , , ,space,2000,2,611a8a373352c487fcf111a9,001,2021-08-19_15h59.42.035,natb3,2021.2.3,MacIntel,60.0024001,611a8a373352c487fcf111a9,611e07ecdcc96256ae8d5b80,611e71cee4fe0634dfb856fc,,
,,,,,,0,317,317,70,1,E, , , , ,space,2500,2.5,611a8a373352c487fcf111a9,001,2021-08-19_15h59.42.035,natb3,2021.2.3,MacIntel,60.0024001,611a8a373352c487fcf111a9,611e07ecdcc96256ae8d5b80,611e71cee4fe0634dfb856fc,,
,,,,,,0,318,318,169,1,L, , , , ,space,2500,2.5,611a8a373352c487fcf111a9,001,2021-08-19_15h59.42.035,natb3,2021.2.3,MacIntel,60.0024001,611a8a373352c487fcf111a9,611e07ecdcc96256ae8d5b80,611e71cee4fe0634dfb856fc,,
,,,,,,0,319,319,196,1,F, , , , ,space,1500,1.5,611a8a373352c487fcf111a9,001,2021-08-19_15h59.42.035,natb3,2021.2.3,MacIntel,60.0024001,611a8a373352c487fcf111a9,611e07ecdcc96256ae8d5b80,611e71cee4fe0634dfb856fc,,
,,,,,,0,320,320,297,1,U, , , , ,space,2000,2,611a8a373352c487fcf111a9,001,2021-08-19_15h59.42.035,natb3,2021.2.3,MacIntel,60.0024001,611a8a373352c487fcf111a9,611e07ecdcc96256ae8d5b80,611e71cee4fe0634dfb856fc,,
,,,,,,0,321,321,205,1,C, , , , ,space,2000,2,611a8a373352c487fcf111a9,001,2021-08-19_15h59.42.035,natb3,2021.2.3,MacIntel,60.0024001,611a8a373352c487fcf111a9,611e07ecdcc96256ae8d5b80,611e71cee4fe0634dfb856fc,,
,,,,space,,0,322,322,282,1,X, , , , ,,2500,2.5,611a8a373352c487fcf111a9,001,2021-08-19_15h59.42.035,natb3,2021.2.3,MacIntel,60.0024001,611a8a373352c487fcf111a9,611e07ecdcc96256ae8d5b80,611e71cee4fe0634dfb856fc,0.4341,
,,,,,,0,323,323,131,1,G, , , , ,space,1500,1.5,611a8a373352c487fcf111a9,001,2021-08-19_15h59.42.035,natb3,2021.2.3,MacIntel,60.0024001,611a8a373352c487fcf111a9,611e07ecdcc96256ae8d5b80,611e71cee4fe0634dfb856fc,,
,,,,,,0,324,324,29,1,B, , , , ,space,1500,1.5,611a8a373352c487fcf111a9,001,2021-08-19_15h59.42.035,natb3,2021.2.3,MacIntel,60.0024001,611a8a373352c487fcf111a9,611e07ecdcc96256ae8d5b80,611e71cee4fe0634dfb856fc,,
,,,,,,0,325,325,178,1,Q, , , , ,space,1500,1.5,611a8a373352c487fcf111a9,001,2021-08-19_15h59.42.035,natb3,2021.2.3,MacIntel,60.0024001,611a8a373352c487fcf111a9,611e07ecdcc96256ae8d5b80,611e71cee4fe0634dfb856fc,,
,,,,,,0,326,326,241,1,G, , , , ,space,2500,2.5,611a8a373352c487fcf111a9,001,2021-08-19_15h59.42.035,natb3,2021.2.3,MacIntel,60.0024001,611a8a373352c487fcf111a9,611e07ecdcc96256ae8d5b80,611e71cee4fe0634dfb856fc,,
,,,,,,0,327,327,100,1,M, , , , ,space,2000,2,611a8a373352c487fcf111a9,001,2021-08-19_15h59.42.035,natb3,2021.2.3,MacIntel,60.0024001,611a8a373352c487fcf111a9,611e07ecdcc96256ae8d5b80,611e71cee4fe0634dfb856fc,,
,,,,,,0,328,328,244,1,J, , , , ,space,1500,1.5,611a8a373352c487fcf111a9,001,2021-08-19_15h59.42.035,natb3,2021.2.3,MacIntel,60.0024001,611a8a373352c487fcf111a9,611e07ecdcc96256ae8d5b80,611e71cee4fe0634dfb856fc,,
,,,,,,0,329,329,52,1,F, , , , ,space,1500,1.5,611a8a373352c487fcf111a9,001,2021-08-19_15h59.42.035,natb3,2021.2.3,MacIntel,60.0024001,611a8a373352c487fcf111a9,611e07ecdcc96256ae8d5b80,611e71cee4fe0634dfb856fc,,
,,,,,,0,330,330,286,1,N, , , , ,space,1500,1.5,611a8a373352c487fcf111a9,001,2021-08-19_15h59.42.035,natb3,2021.2.3,MacIntel,60.0024001,611a8a373352c487fcf111a9,611e07ecdcc96256ae8d5b80,611e71cee4fe0634dfb856fc,,
,,,,,,0,331,331,134,1,J, , , , ,space,2000,2,611a8a373352c487fcf111a9,001,2021-08-19_15h59.42.035,natb3,2021.2.3,MacIntel,60.0024001,611a8a373352c487fcf111a9,611e07ecdcc96256ae8d5b80,611e71cee4fe0634dfb856fc,,
,,,,,,0,332,332,333,1,I, , , , ,space,1500,1.5,611a8a373352c487fcf111a9,001,2021-08-19_15h59.42.035,natb3,2021.2.3,MacIntel,60.0024001,611a8a373352c487fcf111a9,611e07ecdcc96256ae8d5b80,611e71cee4fe0634dfb856fc,,
,,,,,,0,333,333,308,1,G, , , , ,space,1500,1.5,611a8a373352c487fcf111a9,001,2021-08-19_15h59.42.035,natb3,2021.2.3,MacIntel,60.0024001,611a8a373352c487fcf111a9,611e07ecdcc96256ae8d5b80,611e71cee4fe0634dfb856fc,,
,,,,,,0,334,334,194,1,D, , , , ,space,2000,2,611a8a373352c487fcf111a9,001,2021-08-19_15h59.42.035,natb3,2021.2.3,MacIntel,60.0024001,611a8a373352c487fcf111a9,611e07ecdcc96256ae8d5b80,611e71cee4fe0634dfb856fc,,
,,,,space,,0,335,335,7,1,X, , , , ,,1500,1.5,611a8a373352c487fcf111a9,001,2021-08-19_15h59.42.035,natb3,2021.2.3,MacIntel,60.0024001,611a8a373352c487fcf111a9,611e07ecdcc96256ae8d5b80,611e71cee4fe0634dfb856fc,0.6276,
