key_resp_2.keys,key_resp_2.rt,key_resp_3.keys,key_resp_3.rt,key_resp.keys,key_resp_4.keys,trials.thisRepN,trials.thisTrialN,trials.thisN,trials.thisIndex,trials.ran,stimulus,distractor1,distractor2,distractor3,distractor4,CorrAns,isi_duration,isi_dur_in_seconds,participant,session,date,expName,psychopyVersion,OS,frameRate,PROLIFIC_PID,STUDY_ID,SESSION_ID,key_resp.rt,key_resp_4.rt
return,34.0358,space,23.3677,,,0,0,0,258,1,E, , , , ,space,1500,1.5,611a957a01ef665c99b74b93,001,2021-08-19_16h01.00.929,natb3,2021.2.3,MacIntel,59.99520038,611a957a01ef665c99b74b93,611e07ecdcc96256ae8d5b80,611e7216782f6bfb0580c6f3,,
,,,,,,0,1,1,268,1,X,6, ,3, ,,2500,2.5,611a957a01ef665c99b74b93,001,2021-08-19_16h01.00.929,natb3,2021.2.3,MacIntel,59.99520038,611a957a01ef665c99b74b93,611e07ecdcc96256ae8d5b80,611e7216782f6bfb0580c6f3,,
,,,,space,,0,2,2,223,1,Q, , , , ,space,2000,2,611a957a01ef665c99b74b93,001,2021-08-19_16h01.00.929,natb3,2021.2.3,MacIntel,59.99520038,611a957a01ef665c99b74b93,611e07ecdcc96256ae8d5b80,611e7216782f6bfb0580c6f3,0.527,
,,,,space,,0,3,3,36,1,W, , , , ,space,2000,2,611a957a01ef665c99b74b93,001,2021-08-19_16h01.00.929,natb3,2021.2.3,MacIntel,59.99520038,611a957a01ef665c99b74b93,611e07ecdcc96256ae8d5b80,611e7216782f6bfb0580c6f3,0.5002,
,,,,,,0,4,4,141,1,X,1, ,4,6,,1500,1.5,611a957a01ef665c99b74b93,001,2021-08-19_16h01.00.929,natb3,2021.2.3,MacIntel,59.99520038,611a957a01ef665c99b74b93,611e07ecdcc96256ae8d5b80,611e7216782f6bfb0580c6f3,,
,,,,space,,0,5,5,111,1,O, , , , ,space,2000,2,611a957a01ef665c99b74b93,001,2021-08-19_16h01.00.929,natb3,2021.2.3,MacIntel,59.99520038,611a957a01ef665c99b74b93,611e07ecdcc96256ae8d5b80,611e7216782f6bfb0580c6f3,0.5482,
,,,,space,,0,6,6,142,1,N, , , , ,space,2500,2.5,611a957a01ef665c99b74b93,001,2021-08-19_16h01.00.929,natb3,2021.2.3,MacIntel,59.99520038,611a957a01ef665c99b74b93,611e07ecdcc96256ae8d5b80,611e7216782f6bfb0580c6f3,0.4789,
,,,,,,0,7,7,18,1,X, ,2,5,8,,2500,2.5,611a957a01ef665c99b74b93,001,2021-08-19_16h01.00.929,natb3,2021.2.3,MacIntel,59.99520038,611a957a01ef665c99b74b93,611e07ecdcc96256ae8d5b80,611e7216782f6bfb0580c6f3,,
,,,,,,0,8,8,43,1,X, ,6, ,2,,2500,2.5,611a957a01ef665c99b74b93,001,2021-08-19_16h01.00.929,natb3,2021.2.3,MacIntel,59.99520038,611a957a01ef665c99b74b93,611e07ecdcc96256ae8d5b80,611e7216782f6bfb0580c6f3,,
,,,,space,,0,9,9,105,1,R, , , , ,space,2500,2.5,611a957a01ef665c99b74b93,001,2021-08-19_16h01.00.929,natb3,2021.2.3,MacIntel,59.99520038,611a957a01ef665c99b74b93,611e07ecdcc96256ae8d5b80,611e7216782f6bfb0580c6f3,0.5637,
,,,,space,,0,10,10,92,1,Z, , , , ,space,1500,1.5,611a957a01ef665c99b74b93,001,2021-08-19_16h01.00.929,natb3,2021.2.3,MacIntel,59.99520038,611a957a01ef665c99b74b93,611e07ecdcc96256ae8d5b80,611e7216782f6bfb0580c6f3,0.5,
,,,,space,,0,11,11,80,1,A, , , , ,space,2000,2,611a957a01ef665c99b74b93,001,2021-08-19_16h01.00.929,natb3,2021.2.3,MacIntel,59.99520038,611a957a01ef665c99b74b93,611e07ecdcc96256ae8d5b80,611e7216782f6bfb0580c6f3,0.484,
,,,,space,,0,12,12,73,1,Y, , , , ,space,2000,2,611a957a01ef665c99b74b93,001,2021-08-19_16h01.00.929,natb3,2021.2.3,MacIntel,59.99520038,611a957a01ef665c99b74b93,611e07ecdcc96256ae8d5b80,611e7216782f6bfb0580c6f3,0.4855,
,,,,space,,0,13,13,48,1,A, , , , ,space,2500,2.5,611a957a01ef665c99b74b93,001,2021-08-19_16h01.00.929,natb3,2021.2.3,MacIntel,59.99520038,611a957a01ef665c99b74b93,611e07ecdcc96256ae8d5b80,611e7216782f6bfb0580c6f3,0.5112,
,,,,space,,0,14,14,241,1,G, , , , ,space,2500,2.5,611a957a01ef665c99b74b93,001,2021-08-19_16h01.00.929,natb3,2021.2.3,MacIntel,59.99520038,611a957a01ef665c99b74b93,611e07ecdcc96256ae8d5b80,611e7216782f6bfb0580c6f3,0.4346,
,,,,space,,0,15,15,70,1,E, , , , ,space,2500,2.5,611a957a01ef665c99b74b93,001,2021-08-19_16h01.00.929,natb3,2021.2.3,MacIntel,59.99520038,611a957a01ef665c99b74b93,611e07ecdcc96256ae8d5b80,611e7216782f6bfb0580c6f3,0.4625,
,,,,space,,0,16,16,292,1,E, , , , ,space,2000,2,611a957a01ef665c99b74b93,001,2021-08-19_16h01.00.929,natb3,2021.2.3,MacIntel,59.99520038,611a957a01ef665c99b74b93,611e07ecdcc96256ae8d5b80,611e7216782f6bfb0580c6f3,0.4005,
,,,,space,,0,17,17,3,1,R, , , , ,space,2000,2,611a957a01ef665c99b74b93,001,2021-08-19_16h01.00.929,natb3,2021.2.3,MacIntel,59.99520038,611a957a01ef665c99b74b93,611e07ecdcc96256ae8d5b80,611e7216782f6bfb0580c6f3,0.5035,
,,,,,,0,18,18,60,1,X,7,3,5, ,,1500,1.5,611a957a01ef665c99b74b93,001,2021-08-19_16h01.00.929,natb3,2021.2.3,MacIntel,59.99520038,611a957a01ef665c99b74b93,611e07ecdcc96256ae8d5b80,611e7216782f6bfb0580c6f3,,
,,,,space,,0,19,19,21,1,J, , , , ,space,1500,1.5,611a957a01ef665c99b74b93,001,2021-08-19_16h01.00.929,natb3,2021.2.3,MacIntel,59.99520038,611a957a01ef665c99b74b93,611e07ecdcc96256ae8d5b80,611e7216782f6bfb0580c6f3,0.6613,
,,,,space,,0,20,20,44,1,I, , , , ,space,2500,2.5,611a957a01ef665c99b74b93,001,2021-08-19_16h01.00.929,natb3,2021.2.3,MacIntel,59.99520038,611a957a01ef665c99b74b93,611e07ecdcc96256ae8d5b80,611e7216782f6bfb0580c6f3,0.6009,
,,,,,,0,21,21,313,1,X, , , , ,,2500,2.5,611a957a01ef665c99b74b93,001,2021-08-19_16h01.00.929,natb3,2021.2.3,MacIntel,59.99520038,611a957a01ef665c99b74b93,611e07ecdcc96256ae8d5b80,611e7216782f6bfb0580c6f3,,
,,,,,,0,22,22,133,1,X, ,4, ,6,,2500,2.5,611a957a01ef665c99b74b93,001,2021-08-19_16h01.00.929,natb3,2021.2.3,MacIntel,59.99520038,611a957a01ef665c99b74b93,611e07ecdcc96256ae8d5b80,611e7216782f6bfb0580c6f3,,
,,,,space,,0,23,23,227,1,T, , , , ,space,1500,1.5,611a957a01ef665c99b74b93,001,2021-08-19_16h01.00.929,natb3,2021.2.3,MacIntel,59.99520038,611a957a01ef665c99b74b93,611e07ecdcc96256ae8d5b80,611e7216782f6bfb0580c6f3,0.4954,
,,,,,,0,24,24,107,1,X,9,3, ,2,,2000,2,611a957a01ef665c99b74b93,001,2021-08-19_16h01.00.929,natb3,2021.2.3,MacIntel,59.99520038,611a957a01ef665c99b74b93,611e07ecdcc96256ae8d5b80,611e7216782f6bfb0580c6f3,,
,,,,space,,0,25,25,242,1,H, , , , ,space,2500,2.5,611a957a01ef665c99b74b93,001,2021-08-19_16h01.00.929,natb3,2021.2.3,MacIntel,59.99520038,611a957a01ef665c99b74b93,611e07ecdcc96256ae8d5b80,611e7216782f6bfb0580c6f3,0.5485,
,,,,space,,0,26,26,63,1,B, , , , ,space,2000,2,611a957a01ef665c99b74b93,001,2021-08-19_16h01.00.929,natb3,2021.2.3,MacIntel,59.99520038,611a957a01ef665c99b74b93,611e07ecdcc96256ae8d5b80,611e7216782f6bfb0580c6f3,0.479,
,,,,,,0,27,27,239,1,X, , , , ,,2000,2,611a957a01ef665c99b74b93,001,2021-08-19_16h01.00.929,natb3,2021.2.3,MacIntel,59.99520038,611a957a01ef665c99b74b93,611e07ecdcc96256ae8d5b80,611e7216782f6bfb0580c6f3,,
,,,,space,,0,28,28,197,1,G, , , , ,space,2500,2.5,611a957a01ef665c99b74b93,001,2021-08-19_16h01.00.929,natb3,2021.2.3,MacIntel,59.99520038,611a957a01ef665c99b74b93,611e07ecdcc96256ae8d5b80,611e7216782f6bfb0580c6f3,0.5162,
,,,,space,,0,29,29,65,1,M, , , , ,space,1500,1.5,611a957a01ef665c99b74b93,001,2021-08-19_16h01.00.929,natb3,2021.2.3,MacIntel,59.99520038,611a957a01ef665c99b74b93,611e07ecdcc96256ae8d5b80,611e7216782f6bfb0580c6f3,0.4632,
,,,,,,0,30,30,168,1,X, , , , ,,2500,2.5,611a957a01ef665c99b74b93,001,2021-08-19_16h01.00.929,natb3,2021.2.3,MacIntel,59.99520038,611a957a01ef665c99b74b93,611e07ecdcc96256ae8d5b80,611e7216782f6bfb0580c6f3,,
,,,,space,,0,31,31,45,1,O, , , , ,space,2000,2,611a957a01ef665c99b74b93,001,2021-08-19_16h01.00.929,natb3,2021.2.3,MacIntel,59.99520038,611a957a01ef665c99b74b93,611e07ecdcc96256ae8d5b80,611e7216782f6bfb0580c6f3,0.5001,
,,,,space,,0,32,32,321,1,N, , , , ,space,2000,2,611a957a01ef665c99b74b93,001,2021-08-19_16h01.00.929,natb3,2021.2.3,MacIntel,59.99520038,611a957a01ef665c99b74b93,611e07ecdcc96256ae8d5b80,611e7216782f6bfb0580c6f3,0.448,
,,,,space,,0,33,33,294,1,T, , , , ,space,2000,2,611a957a01ef665c99b74b93,001,2021-08-19_16h01.00.929,natb3,2021.2.3,MacIntel,59.99520038,611a957a01ef665c99b74b93,611e07ecdcc96256ae8d5b80,611e7216782f6bfb0580c6f3,0.6194,
,,,,space,,0,34,34,26,1,C, , , , ,space,2000,2,611a957a01ef665c99b74b93,001,2021-08-19_16h01.00.929,natb3,2021.2.3,MacIntel,59.99520038,611a957a01ef665c99b74b93,611e07ecdcc96256ae8d5b80,611e7216782f6bfb0580c6f3,0.8024,
,,,,space,,0,35,35,201,1,K, , , , ,space,1500,1.5,611a957a01ef665c99b74b93,001,2021-08-19_16h01.00.929,natb3,2021.2.3,MacIntel,59.99520038,611a957a01ef665c99b74b93,611e07ecdcc96256ae8d5b80,611e7216782f6bfb0580c6f3,0.5783,
,,,,space,,0,36,36,222,1,O, , , , ,space,2000,2,611a957a01ef665c99b74b93,001,2021-08-19_16h01.00.929,natb3,2021.2.3,MacIntel,59.99520038,611a957a01ef665c99b74b93,611e07ecdcc96256ae8d5b80,611e7216782f6bfb0580c6f3,0.42,
,,,,space,,0,37,37,22,1,K, , , , ,space,2000,2,611a957a01ef665c99b74b93,001,2021-08-19_16h01.00.929,natb3,2021.2.3,MacIntel,59.99520038,611a957a01ef665c99b74b93,611e07ecdcc96256ae8d5b80,611e7216782f6bfb0580c6f3,0.5834,
,,,,space,,0,38,38,108,1,Y, , , , ,space,2500,2.5,611a957a01ef665c99b74b93,001,2021-08-19_16h01.00.929,natb3,2021.2.3,MacIntel,59.99520038,611a957a01ef665c99b74b93,611e07ecdcc96256ae8d5b80,611e7216782f6bfb0580c6f3,0.4691,
,,,,space,,0,39,39,334,1,O, , , , ,space,1500,1.5,611a957a01ef665c99b74b93,001,2021-08-19_16h01.00.929,natb3,2021.2.3,MacIntel,59.99520038,611a957a01ef665c99b74b93,611e07ecdcc96256ae8d5b80,611e7216782f6bfb0580c6f3,0.5111,
,,,,space,,0,40,40,193,1,S, , , , ,space,2500,2.5,611a957a01ef665c99b74b93,001,2021-08-19_16h01.00.929,natb3,2021.2.3,MacIntel,59.99520038,611a957a01ef665c99b74b93,611e07ecdcc96256ae8d5b80,611e7216782f6bfb0580c6f3,0.4841,
,,,,,,0,41,41,66,1,X, ,4,7, ,,2000,2,611a957a01ef665c99b74b93,001,2021-08-19_16h01.00.929,natb3,2021.2.3,MacIntel,59.99520038,611a957a01ef665c99b74b93,611e07ecdcc96256ae8d5b80,611e7216782f6bfb0580c6f3,,
,,,,space,,0,42,42,275,1,G, , , , ,space,1500,1.5,611a957a01ef665c99b74b93,001,2021-08-19_16h01.00.929,natb3,2021.2.3,MacIntel,59.99520038,611a957a01ef665c99b74b93,611e07ecdcc96256ae8d5b80,611e7216782f6bfb0580c6f3,0.5327,
,,,,,,0,43,43,182,1,X, , , , ,,1500,1.5,611a957a01ef665c99b74b93,001,2021-08-19_16h01.00.929,natb3,2021.2.3,MacIntel,59.99520038,611a957a01ef665c99b74b93,611e07ecdcc96256ae8d5b80,611e7216782f6bfb0580c6f3,,
,,,,space,,0,44,44,249,1,C, , , , ,space,2000,2,611a957a01ef665c99b74b93,001,2021-08-19_16h01.00.929,natb3,2021.2.3,MacIntel,59.99520038,611a957a01ef665c99b74b93,611e07ecdcc96256ae8d5b80,611e7216782f6bfb0580c6f3,0.5667,
,,,,space,,0,45,45,47,1,P, , , , ,space,2000,2,611a957a01ef665c99b74b93,001,2021-08-19_16h01.00.929,natb3,2021.2.3,MacIntel,59.99520038,611a957a01ef665c99b74b93,611e07ecdcc96256ae8d5b80,611e7216782f6bfb0580c6f3,0.5623,
,,,,space,,0,46,46,216,1,R, , , , ,space,1500,1.5,611a957a01ef665c99b74b93,001,2021-08-19_16h01.00.929,natb3,2021.2.3,MacIntel,59.99520038,611a957a01ef665c99b74b93,611e07ecdcc96256ae8d5b80,611e7216782f6bfb0580c6f3,0.4791,
,,,,space,,0,47,47,131,1,G, , , , ,space,1500,1.5,611a957a01ef665c99b74b93,001,2021-08-19_16h01.00.929,natb3,2021.2.3,MacIntel,59.99520038,611a957a01ef665c99b74b93,611e07ecdcc96256ae8d5b80,611e7216782f6bfb0580c6f3,0.5142,
,,,,,,0,48,48,122,1,X,1, , ,8,,1500,1.5,611a957a01ef665c99b74b93,001,2021-08-19_16h01.00.929,natb3,2021.2.3,MacIntel,59.99520038,611a957a01ef665c99b74b93,611e07ecdcc96256ae8d5b80,611e7216782f6bfb0580c6f3,,
,,,,space,,0,49,49,75,1,U, , , , ,space,1500,1.5,611a957a01ef665c99b74b93,001,2021-08-19_16h01.00.929,natb3,2021.2.3,MacIntel,59.99520038,611a957a01ef665c99b74b93,611e07ecdcc96256ae8d5b80,611e7216782f6bfb0580c6f3,0.5767,
,,,,,,0,50,50,69,1,X, , , , ,,1500,1.5,611a957a01ef665c99b74b93,001,2021-08-19_16h01.00.929,natb3,2021.2.3,MacIntel,59.99520038,611a957a01ef665c99b74b93,611e07ecdcc96256ae8d5b80,611e7216782f6bfb0580c6f3,,
,,,,space,,0,51,51,231,1,I, , , , ,space,2500,2.5,611a957a01ef665c99b74b93,001,2021-08-19_16h01.00.929,natb3,2021.2.3,MacIntel,59.99520038,611a957a01ef665c99b74b93,611e07ecdcc96256ae8d5b80,611e7216782f6bfb0580c6f3,0.5449,
,,,,space,,0,52,52,117,1,T, , , , ,space,2500,2.5,611a957a01ef665c99b74b93,001,2021-08-19_16h01.00.929,natb3,2021.2.3,MacIntel,59.99520038,611a957a01ef665c99b74b93,611e07ecdcc96256ae8d5b80,611e7216782f6bfb0580c6f3,0.4834,
,,,,space,,0,53,53,159,1,S, , , , ,space,2500,2.5,611a957a01ef665c99b74b93,001,2021-08-19_16h01.00.929,natb3,2021.2.3,MacIntel,59.99520038,611a957a01ef665c99b74b93,611e07ecdcc96256ae8d5b80,611e7216782f6bfb0580c6f3,0.5166,
,,,,,,0,54,54,195,1,X, , , , ,,1500,1.5,611a957a01ef665c99b74b93,001,2021-08-19_16h01.00.929,natb3,2021.2.3,MacIntel,59.99520038,611a957a01ef665c99b74b93,611e07ecdcc96256ae8d5b80,611e7216782f6bfb0580c6f3,,
,,,,,,0,55,55,93,1,X,5, ,7, ,,2500,2.5,611a957a01ef665c99b74b93,001,2021-08-19_16h01.00.929,natb3,2021.2.3,MacIntel,59.99520038,611a957a01ef665c99b74b93,611e07ecdcc96256ae8d5b80,611e7216782f6bfb0580c6f3,,
,,,,space,,0,56,56,210,1,M, , , , ,space,1500,1.5,611a957a01ef665c99b74b93,001,2021-08-19_16h01.00.929,natb3,2021.2.3,MacIntel,59.99520038,611a957a01ef665c99b74b93,611e07ecdcc96256ae8d5b80,611e7216782f6bfb0580c6f3,0.4126,
,,,,space,,0,57,57,29,1,B, , , , ,space,1500,1.5,611a957a01ef665c99b74b93,001,2021-08-19_16h01.00.929,natb3,2021.2.3,MacIntel,59.99520038,611a957a01ef665c99b74b93,611e07ecdcc96256ae8d5b80,611e7216782f6bfb0580c6f3,0.3453,
,,,,space,,0,58,58,174,1,B, , , , ,space,2500,2.5,611a957a01ef665c99b74b93,001,2021-08-19_16h01.00.929,natb3,2021.2.3,MacIntel,59.99520038,611a957a01ef665c99b74b93,611e07ecdcc96256ae8d5b80,611e7216782f6bfb0580c6f3,0.4821,
,,,,space,,0,59,59,94,1,C, , , , ,space,2000,2,611a957a01ef665c99b74b93,001,2021-08-19_16h01.00.929,natb3,2021.2.3,MacIntel,59.99520038,611a957a01ef665c99b74b93,611e07ecdcc96256ae8d5b80,611e7216782f6bfb0580c6f3,0.5013,
,,,,,,0,60,60,153,1,X,4,7, ,6,,2000,2,611a957a01ef665c99b74b93,001,2021-08-19_16h01.00.929,natb3,2021.2.3,MacIntel,59.99520038,611a957a01ef665c99b74b93,611e07ecdcc96256ae8d5b80,611e7216782f6bfb0580c6f3,,
,,,,space,,0,61,61,303,1,A, , , , ,space,2000,2,611a957a01ef665c99b74b93,001,2021-08-19_16h01.00.929,natb3,2021.2.3,MacIntel,59.99520038,611a957a01ef665c99b74b93,611e07ecdcc96256ae8d5b80,611e7216782f6bfb0580c6f3,0.511,
,,,,space,,0,62,62,324,1,Q, , , , ,space,2000,2,611a957a01ef665c99b74b93,001,2021-08-19_16h01.00.929,natb3,2021.2.3,MacIntel,59.99520038,611a957a01ef665c99b74b93,611e07ecdcc96256ae8d5b80,611e7216782f6bfb0580c6f3,0.4968,
,,,,space,,0,63,63,16,1,D, , , , ,space,1500,1.5,611a957a01ef665c99b74b93,001,2021-08-19_16h01.00.929,natb3,2021.2.3,MacIntel,59.99520038,611a957a01ef665c99b74b93,611e07ecdcc96256ae8d5b80,611e7216782f6bfb0580c6f3,0.4642,
,,,,space,,0,64,64,221,1,I, , , , ,space,2500,2.5,611a957a01ef665c99b74b93,001,2021-08-19_16h01.00.929,natb3,2021.2.3,MacIntel,59.99520038,611a957a01ef665c99b74b93,611e07ecdcc96256ae8d5b80,611e7216782f6bfb0580c6f3,0.4168,
,,,,,,0,65,65,84,1,X, , , , ,,2000,2,611a957a01ef665c99b74b93,001,2021-08-19_16h01.00.929,natb3,2021.2.3,MacIntel,59.99520038,611a957a01ef665c99b74b93,611e07ecdcc96256ae8d5b80,611e7216782f6bfb0580c6f3,,
,,,,space,,0,66,66,112,1,Q, , , , ,space,2500,2.5,611a957a01ef665c99b74b93,001,2021-08-19_16h01.00.929,natb3,2021.2.3,MacIntel,59.99520038,611a957a01ef665c99b74b93,611e07ecdcc96256ae8d5b80,611e7216782f6bfb0580c6f3,0.4781,
,,,,space,,0,67,67,6,1,Y, , , , ,space,2500,2.5,611a957a01ef665c99b74b93,001,2021-08-19_16h01.00.929,natb3,2021.2.3,MacIntel,59.99520038,611a957a01ef665c99b74b93,611e07ecdcc96256ae8d5b80,611e7216782f6bfb0580c6f3,0.3661,
,,,,space,,0,68,68,76,1,I, , , , ,space,2000,2,611a957a01ef665c99b74b93,001,2021-08-19_16h01.00.929,natb3,2021.2.3,MacIntel,59.99520038,611a957a01ef665c99b74b93,611e07ecdcc96256ae8d5b80,611e7216782f6bfb0580c6f3,0.5333,
,,,,space,,0,69,69,281,1,Z, , , , ,space,1500,1.5,611a957a01ef665c99b74b93,001,2021-08-19_16h01.00.929,natb3,2021.2.3,MacIntel,59.99520038,611a957a01ef665c99b74b93,611e07ecdcc96256ae8d5b80,611e7216782f6bfb0580c6f3,0.8298,
,,,,,,0,70,70,287,1,X, ,2, ,9,,2000,2,611a957a01ef665c99b74b93,001,2021-08-19_16h01.00.929,natb3,2021.2.3,MacIntel,59.99520038,611a957a01ef665c99b74b93,611e07ecdcc96256ae8d5b80,611e7216782f6bfb0580c6f3,,
,,,,space,,0,71,71,38,1,R, , , , ,space,2500,2.5,611a957a01ef665c99b74b93,001,2021-08-19_16h01.00.929,natb3,2021.2.3,MacIntel,59.99520038,611a957a01ef665c99b74b93,611e07ecdcc96256ae8d5b80,611e7216782f6bfb0580c6f3,0.5341,
,,,,space,,0,72,72,253,1,N, , , , ,space,2500,2.5,611a957a01ef665c99b74b93,001,2021-08-19_16h01.00.929,natb3,2021.2.3,MacIntel,59.99520038,611a957a01ef665c99b74b93,611e07ecdcc96256ae8d5b80,611e7216782f6bfb0580c6f3,0.4195,
,,,,,,0,73,73,129,1,X,2,3,5, ,,1500,1.5,611a957a01ef665c99b74b93,001,2021-08-19_16h01.00.929,natb3,2021.2.3,MacIntel,59.99520038,611a957a01ef665c99b74b93,611e07ecdcc96256ae8d5b80,611e7216782f6bfb0580c6f3,,
,,,,,,0,74,74,166,1,X, , , , ,,2000,2,611a957a01ef665c99b74b93,001,2021-08-19_16h01.00.929,natb3,2021.2.3,MacIntel,59.99520038,611a957a01ef665c99b74b93,611e07ecdcc96256ae8d5b80,611e7216782f6bfb0580c6f3,,
,,,,space,,0,75,75,77,1,O, , , , ,space,2000,2,611a957a01ef665c99b74b93,001,2021-08-19_16h01.00.929,natb3,2021.2.3,MacIntel,59.99520038,611a957a01ef665c99b74b93,611e07ecdcc96256ae8d5b80,611e7216782f6bfb0580c6f3,0.4849,
,,,,space,,0,76,76,68,1,W, , , , ,space,2500,2.5,611a957a01ef665c99b74b93,001,2021-08-19_16h01.00.929,natb3,2021.2.3,MacIntel,59.99520038,611a957a01ef665c99b74b93,611e07ecdcc96256ae8d5b80,611e7216782f6bfb0580c6f3,0.5666,
,,,,space,,0,77,77,219,1,Y, , , , ,space,2000,2,611a957a01ef665c99b74b93,001,2021-08-19_16h01.00.929,natb3,2021.2.3,MacIntel,59.99520038,611a957a01ef665c99b74b93,611e07ecdcc96256ae8d5b80,611e7216782f6bfb0580c6f3,0.4355,
,,,,space,,0,78,78,90,1,K, , , , ,space,2000,2,611a957a01ef665c99b74b93,001,2021-08-19_16h01.00.929,natb3,2021.2.3,MacIntel,59.99520038,611a957a01ef665c99b74b93,611e07ecdcc96256ae8d5b80,611e7216782f6bfb0580c6f3,0.4006,
,,,,space,,0,79,79,199,1,J, , , , ,space,2500,2.5,611a957a01ef665c99b74b93,001,2021-08-19_16h01.00.929,natb3,2021.2.3,MacIntel,59.99520038,611a957a01ef665c99b74b93,611e07ecdcc96256ae8d5b80,611e7216782f6bfb0580c6f3,0.3949,
,,,,space,,0,80,80,272,1,D, , , , ,space,2000,2,611a957a01ef665c99b74b93,001,2021-08-19_16h01.00.929,natb3,2021.2.3,MacIntel,59.99520038,611a957a01ef665c99b74b93,611e07ecdcc96256ae8d5b80,611e7216782f6bfb0580c6f3,0.4502,
,,,,space,,0,81,81,256,1,Q, , , , ,space,2000,2,611a957a01ef665c99b74b93,001,2021-08-19_16h01.00.929,natb3,2021.2.3,MacIntel,59.99520038,611a957a01ef665c99b74b93,611e07ecdcc96256ae8d5b80,611e7216782f6bfb0580c6f3,0.4339,
,,,,space,,0,82,82,270,1,S, , , , ,space,1500,1.5,611a957a01ef665c99b74b93,001,2021-08-19_16h01.00.929,natb3,2021.2.3,MacIntel,59.99520038,611a957a01ef665c99b74b93,611e07ecdcc96256ae8d5b80,611e7216782f6bfb0580c6f3,0.4834,
,,,,space,,0,83,83,254,1,M, , , , ,space,1500,1.5,611a957a01ef665c99b74b93,001,2021-08-19_16h01.00.929,natb3,2021.2.3,MacIntel,59.99520038,611a957a01ef665c99b74b93,611e07ecdcc96256ae8d5b80,611e7216782f6bfb0580c6f3,0.4166,
,,,,space,,0,84,84,175,1,X,7, ,4,2,,1500,1.5,611a957a01ef665c99b74b93,001,2021-08-19_16h01.00.929,natb3,2021.2.3,MacIntel,59.99520038,611a957a01ef665c99b74b93,611e07ecdcc96256ae8d5b80,611e7216782f6bfb0580c6f3,0.3703,
,,,,,,0,85,85,145,1,X, , , , ,,2000,2,611a957a01ef665c99b74b93,001,2021-08-19_16h01.00.929,natb3,2021.2.3,MacIntel,59.99520038,611a957a01ef665c99b74b93,611e07ecdcc96256ae8d5b80,611e7216782f6bfb0580c6f3,,
,,,,space,,0,86,86,178,1,Q, , , , ,space,1500,1.5,611a957a01ef665c99b74b93,001,2021-08-19_16h01.00.929,natb3,2021.2.3,MacIntel,59.99520038,611a957a01ef665c99b74b93,611e07ecdcc96256ae8d5b80,611e7216782f6bfb0580c6f3,0.8378,
,,,,space,,0,87,87,310,1,J, , , , ,space,2500,2.5,611a957a01ef665c99b74b93,001,2021-08-19_16h01.00.929,natb3,2021.2.3,MacIntel,59.99520038,611a957a01ef665c99b74b93,611e07ecdcc96256ae8d5b80,611e7216782f6bfb0580c6f3,0.4703,
,,,,space,,0,88,88,155,1,O, , , , ,space,1500,1.5,611a957a01ef665c99b74b93,001,2021-08-19_16h01.00.929,natb3,2021.2.3,MacIntel,59.99520038,611a957a01ef665c99b74b93,611e07ecdcc96256ae8d5b80,611e7216782f6bfb0580c6f3,0.4837,
,,,,space,,0,89,89,260,1,R, , , , ,space,2000,2,611a957a01ef665c99b74b93,001,2021-08-19_16h01.00.929,natb3,2021.2.3,MacIntel,59.99520038,611a957a01ef665c99b74b93,611e07ecdcc96256ae8d5b80,611e7216782f6bfb0580c6f3,0.4457,
,,,,,,0,90,90,7,1,X, , , , ,,1500,1.5,611a957a01ef665c99b74b93,001,2021-08-19_16h01.00.929,natb3,2021.2.3,MacIntel,59.99520038,611a957a01ef665c99b74b93,611e07ecdcc96256ae8d5b80,611e7216782f6bfb0580c6f3,,
,,,,space,,0,91,91,217,1,T, , , , ,space,2500,2.5,611a957a01ef665c99b74b93,001,2021-08-19_16h01.00.929,natb3,2021.2.3,MacIntel,59.99520038,611a957a01ef665c99b74b93,611e07ecdcc96256ae8d5b80,611e7216782f6bfb0580c6f3,0.5503,
,,,,space,,0,92,92,297,1,U, , , , ,space,2000,2,611a957a01ef665c99b74b93,001,2021-08-19_16h01.00.929,natb3,2021.2.3,MacIntel,59.99520038,611a957a01ef665c99b74b93,611e07ecdcc96256ae8d5b80,611e7216782f6bfb0580c6f3,0.4631,
,,,,space,,0,93,93,14,1,S, , , , ,space,2500,2.5,611a957a01ef665c99b74b93,001,2021-08-19_16h01.00.929,natb3,2021.2.3,MacIntel,59.99520038,611a957a01ef665c99b74b93,611e07ecdcc96256ae8d5b80,611e7216782f6bfb0580c6f3,0.5835,
,,,,space,,0,94,94,25,1,Z, , , , ,space,2500,2.5,611a957a01ef665c99b74b93,001,2021-08-19_16h01.00.929,natb3,2021.2.3,MacIntel,59.99520038,611a957a01ef665c99b74b93,611e07ecdcc96256ae8d5b80,611e7216782f6bfb0580c6f3,0.6465,
,,,,space,,0,95,95,185,1,Y, , , , ,space,2500,2.5,611a957a01ef665c99b74b93,001,2021-08-19_16h01.00.929,natb3,2021.2.3,MacIntel,59.99520038,611a957a01ef665c99b74b93,611e07ecdcc96256ae8d5b80,611e7216782f6bfb0580c6f3,0.5465,
,,,,space,,0,96,96,306,1,D, , , , ,space,2000,2,611a957a01ef665c99b74b93,001,2021-08-19_16h01.00.929,natb3,2021.2.3,MacIntel,59.99520038,611a957a01ef665c99b74b93,611e07ecdcc96256ae8d5b80,611e7216782f6bfb0580c6f3,0.5483,
,,,,space,,0,97,97,120,1,U, , , , ,space,1500,1.5,611a957a01ef665c99b74b93,001,2021-08-19_16h01.00.929,natb3,2021.2.3,MacIntel,59.99520038,611a957a01ef665c99b74b93,611e07ecdcc96256ae8d5b80,611e7216782f6bfb0580c6f3,0.5334,
,,,,space,,0,98,98,49,1,S, , , , ,space,1500,1.5,611a957a01ef665c99b74b93,001,2021-08-19_16h01.00.929,natb3,2021.2.3,MacIntel,59.99520038,611a957a01ef665c99b74b93,611e07ecdcc96256ae8d5b80,611e7216782f6bfb0580c6f3,0.3836,
,,,,space,,0,99,99,186,1,U, , , , ,space,2500,2.5,611a957a01ef665c99b74b93,001,2021-08-19_16h01.00.929,natb3,2021.2.3,MacIntel,59.99520038,611a957a01ef665c99b74b93,611e07ecdcc96256ae8d5b80,611e7216782f6bfb0580c6f3,0.4114,
,,,,space,,0,100,100,232,1,O, , , , ,space,2500,2.5,611a957a01ef665c99b74b93,001,2021-08-19_16h01.00.929,natb3,2021.2.3,MacIntel,59.99520038,611a957a01ef665c99b74b93,611e07ecdcc96256ae8d5b80,611e7216782f6bfb0580c6f3,0.4792,
,,,,space,,0,101,101,106,1,T, , , , ,space,1500,1.5,611a957a01ef665c99b74b93,001,2021-08-19_16h01.00.929,natb3,2021.2.3,MacIntel,59.99520038,611a957a01ef665c99b74b93,611e07ecdcc96256ae8d5b80,611e7216782f6bfb0580c6f3,0.4345,
,,,,space,,0,102,102,85,1,F, , , , ,space,2500,2.5,611a957a01ef665c99b74b93,001,2021-08-19_16h01.00.929,natb3,2021.2.3,MacIntel,59.99520038,611a957a01ef665c99b74b93,611e07ecdcc96256ae8d5b80,611e7216782f6bfb0580c6f3,0.479,
,,,,,,0,103,103,311,1,X,1,2,7,3,,2500,2.5,611a957a01ef665c99b74b93,001,2021-08-19_16h01.00.929,natb3,2021.2.3,MacIntel,59.99520038,611a957a01ef665c99b74b93,611e07ecdcc96256ae8d5b80,611e7216782f6bfb0580c6f3,,
,,,,space,,0,104,104,316,1,Z, , , , ,space,1500,1.5,611a957a01ef665c99b74b93,001,2021-08-19_16h01.00.929,natb3,2021.2.3,MacIntel,59.99520038,611a957a01ef665c99b74b93,611e07ecdcc96256ae8d5b80,611e7216782f6bfb0580c6f3,0.5483,
,,,,space,,0,105,105,144,1,Q, , , , ,space,2500,2.5,611a957a01ef665c99b74b93,001,2021-08-19_16h01.00.929,natb3,2021.2.3,MacIntel,59.99520038,611a957a01ef665c99b74b93,611e07ecdcc96256ae8d5b80,611e7216782f6bfb0580c6f3,0.6507,
,,,,space,,0,106,106,71,1,R, , , , ,space,2500,2.5,611a957a01ef665c99b74b93,001,2021-08-19_16h01.00.929,natb3,2021.2.3,MacIntel,59.99520038,611a957a01ef665c99b74b93,611e07ecdcc96256ae8d5b80,611e7216782f6bfb0580c6f3,0.4946,
,,,,space,,0,107,107,143,1,M, , , , ,space,2500,2.5,611a957a01ef665c99b74b93,001,2021-08-19_16h01.00.929,natb3,2021.2.3,MacIntel,59.99520038,611a957a01ef665c99b74b93,611e07ecdcc96256ae8d5b80,611e7216782f6bfb0580c6f3,0.402,
,,,,space,,0,108,108,151,1,Y, , , , ,space,2500,2.5,611a957a01ef665c99b74b93,001,2021-08-19_16h01.00.929,natb3,2021.2.3,MacIntel,59.99520038,611a957a01ef665c99b74b93,611e07ecdcc96256ae8d5b80,611e7216782f6bfb0580c6f3,0.4846,
,,,,,,0,109,109,98,1,X, , , , ,,2500,2.5,611a957a01ef665c99b74b93,001,2021-08-19_16h01.00.929,natb3,2021.2.3,MacIntel,59.99520038,611a957a01ef665c99b74b93,611e07ecdcc96256ae8d5b80,611e7216782f6bfb0580c6f3,,
,,,,space,,0,110,110,136,1,Z, , , , ,space,2500,2.5,611a957a01ef665c99b74b93,001,2021-08-19_16h01.00.929,natb3,2021.2.3,MacIntel,59.99520038,611a957a01ef665c99b74b93,611e07ecdcc96256ae8d5b80,611e7216782f6bfb0580c6f3,0.5193,
,,,,space,,0,111,111,215,1,E, , , , ,space,2500,2.5,611a957a01ef665c99b74b93,001,2021-08-19_16h01.00.929,natb3,2021.2.3,MacIntel,59.99520038,611a957a01ef665c99b74b93,611e07ecdcc96256ae8d5b80,611e7216782f6bfb0580c6f3,0.485,
,,,,space,,0,112,112,220,1,U, , , , ,space,2500,2.5,611a957a01ef665c99b74b93,001,2021-08-19_16h01.00.929,natb3,2021.2.3,MacIntel,59.99520038,611a957a01ef665c99b74b93,611e07ecdcc96256ae8d5b80,611e7216782f6bfb0580c6f3,0.4463,
,,,,space,,0,113,113,132,1,H, , , , ,space,2500,2.5,611a957a01ef665c99b74b93,001,2021-08-19_16h01.00.929,natb3,2021.2.3,MacIntel,59.99520038,611a957a01ef665c99b74b93,611e07ecdcc96256ae8d5b80,611e7216782f6bfb0580c6f3,0.5005,
,,,,,,0,114,114,162,1,X,1,6, ,2,,1500,1.5,611a957a01ef665c99b74b93,001,2021-08-19_16h01.00.929,natb3,2021.2.3,MacIntel,59.99520038,611a957a01ef665c99b74b93,611e07ecdcc96256ae8d5b80,611e7216782f6bfb0580c6f3,,
,,,,space,,0,115,115,280,1,L, , , , ,space,1500,1.5,611a957a01ef665c99b74b93,001,2021-08-19_16h01.00.929,natb3,2021.2.3,MacIntel,59.99520038,611a957a01ef665c99b74b93,611e07ecdcc96256ae8d5b80,611e7216782f6bfb0580c6f3,0.5136,
,,,,,,0,116,116,102,1,X, ,6, , ,,1500,1.5,611a957a01ef665c99b74b93,001,2021-08-19_16h01.00.929,natb3,2021.2.3,MacIntel,59.99520038,611a957a01ef665c99b74b93,611e07ecdcc96256ae8d5b80,611e7216782f6bfb0580c6f3,,
,,,,space,,0,117,117,327,1,E, , , , ,space,1500,1.5,611a957a01ef665c99b74b93,001,2021-08-19_16h01.00.929,natb3,2021.2.3,MacIntel,59.99520038,611a957a01ef665c99b74b93,611e07ecdcc96256ae8d5b80,611e7216782f6bfb0580c6f3,0.6964,
,,,,,,0,118,118,82,1,X,4,6,1,7,,2000,2,611a957a01ef665c99b74b93,001,2021-08-19_16h01.00.929,natb3,2021.2.3,MacIntel,59.99520038,611a957a01ef665c99b74b93,611e07ecdcc96256ae8d5b80,611e7216782f6bfb0580c6f3,,
,,,,space,,0,119,119,165,1,J, , , , ,space,2500,2.5,611a957a01ef665c99b74b93,001,2021-08-19_16h01.00.929,natb3,2021.2.3,MacIntel,59.99520038,611a957a01ef665c99b74b93,611e07ecdcc96256ae8d5b80,611e7216782f6bfb0580c6f3,0.5653,
,,,,space,,0,120,120,156,1,P, , , , ,space,1500,1.5,611a957a01ef665c99b74b93,001,2021-08-19_16h01.00.929,natb3,2021.2.3,MacIntel,59.99520038,611a957a01ef665c99b74b93,611e07ecdcc96256ae8d5b80,611e7216782f6bfb0580c6f3,0.4175,
,,,,space,,0,121,121,135,1,K, , , , ,space,1500,1.5,611a957a01ef665c99b74b93,001,2021-08-19_16h01.00.929,natb3,2021.2.3,MacIntel,59.99520038,611a957a01ef665c99b74b93,611e07ecdcc96256ae8d5b80,611e7216782f6bfb0580c6f3,0.4463,
,,,,space,,0,122,122,265,1,I, , , , ,space,2000,2,611a957a01ef665c99b74b93,001,2021-08-19_16h01.00.929,natb3,2021.2.3,MacIntel,59.99520038,611a957a01ef665c99b74b93,611e07ecdcc96256ae8d5b80,611e7216782f6bfb0580c6f3,0.4333,
,,,,space,,0,123,123,87,1,H, , , , ,space,1500,1.5,611a957a01ef665c99b74b93,001,2021-08-19_16h01.00.929,natb3,2021.2.3,MacIntel,59.99520038,611a957a01ef665c99b74b93,611e07ecdcc96256ae8d5b80,611e7216782f6bfb0580c6f3,0.4502,
,,,,space,,0,124,124,293,1,R, , , , ,space,2500,2.5,611a957a01ef665c99b74b93,001,2021-08-19_16h01.00.929,natb3,2021.2.3,MacIntel,59.99520038,611a957a01ef665c99b74b93,611e07ecdcc96256ae8d5b80,611e7216782f6bfb0580c6f3,0.4995,
,,,,,,0,125,125,27,1,X,5, ,1,3,,1500,1.5,611a957a01ef665c99b74b93,001,2021-08-19_16h01.00.929,natb3,2021.2.3,MacIntel,59.99520038,611a957a01ef665c99b74b93,611e07ecdcc96256ae8d5b80,611e7216782f6bfb0580c6f3,,
,,,,space,,0,126,126,0,1,Q, , , , ,space,1500,1.5,611a957a01ef665c99b74b93,001,2021-08-19_16h01.00.929,natb3,2021.2.3,MacIntel,59.99520038,611a957a01ef665c99b74b93,611e07ecdcc96256ae8d5b80,611e7216782f6bfb0580c6f3,0.7486,
,,,,space,,0,127,127,328,1,R, , , , ,space,1500,1.5,611a957a01ef665c99b74b93,001,2021-08-19_16h01.00.929,natb3,2021.2.3,MacIntel,59.99520038,611a957a01ef665c99b74b93,611e07ecdcc96256ae8d5b80,611e7216782f6bfb0580c6f3,0.554,
,,,,space,,0,128,128,317,1,C, , , , ,space,2000,2,611a957a01ef665c99b74b93,001,2021-08-19_16h01.00.929,natb3,2021.2.3,MacIntel,59.99520038,611a957a01ef665c99b74b93,611e07ecdcc96256ae8d5b80,611e7216782f6bfb0580c6f3,0.5309,
,,,,,,0,129,129,259,1,X,8, , ,3,,2500,2.5,611a957a01ef665c99b74b93,001,2021-08-19_16h01.00.929,natb3,2021.2.3,MacIntel,59.99520038,611a957a01ef665c99b74b93,611e07ecdcc96256ae8d5b80,611e7216782f6bfb0580c6f3,,
,,,,space,,0,130,130,58,1,L, , , , ,space,2000,2,611a957a01ef665c99b74b93,001,2021-08-19_16h01.00.929,natb3,2021.2.3,MacIntel,59.99520038,611a957a01ef665c99b74b93,611e07ecdcc96256ae8d5b80,611e7216782f6bfb0580c6f3,0.5188,
,,,,,,0,131,131,138,1,X,8,5, ,3,,2000,2,611a957a01ef665c99b74b93,001,2021-08-19_16h01.00.929,natb3,2021.2.3,MacIntel,59.99520038,611a957a01ef665c99b74b93,611e07ecdcc96256ae8d5b80,611e7216782f6bfb0580c6f3,,
,,,,space,,0,132,132,225,1,E, , , , ,space,2000,2,611a957a01ef665c99b74b93,001,2021-08-19_16h01.00.929,natb3,2021.2.3,MacIntel,59.99520038,611a957a01ef665c99b74b93,611e07ecdcc96256ae8d5b80,611e7216782f6bfb0580c6f3,0.4611,
,,,,,,0,133,133,322,1,X, , ,1,6,,2000,2,611a957a01ef665c99b74b93,001,2021-08-19_16h01.00.929,natb3,2021.2.3,MacIntel,59.99520038,611a957a01ef665c99b74b93,611e07ecdcc96256ae8d5b80,611e7216782f6bfb0580c6f3,,
,,,,space,,0,134,134,126,1,A, , , , ,space,2500,2.5,611a957a01ef665c99b74b93,001,2021-08-19_16h01.00.929,natb3,2021.2.3,MacIntel,59.99520038,611a957a01ef665c99b74b93,611e07ecdcc96256ae8d5b80,611e7216782f6bfb0580c6f3,0.5202,
,,,,space,,0,135,135,271,1,X, , , , ,,2500,2.5,611a957a01ef665c99b74b93,001,2021-08-19_16h01.00.929,natb3,2021.2.3,MacIntel,59.99520038,611a957a01ef665c99b74b93,611e07ecdcc96256ae8d5b80,611e7216782f6bfb0580c6f3,0.4305,
,,,,space,,0,136,136,150,1,T, , , , ,space,2500,2.5,611a957a01ef665c99b74b93,001,2021-08-19_16h01.00.929,natb3,2021.2.3,MacIntel,59.99520038,611a957a01ef665c99b74b93,611e07ecdcc96256ae8d5b80,611e7216782f6bfb0580c6f3,0.4869,
,,,,space,,0,137,137,206,1,V, , , , ,space,2000,2,611a957a01ef665c99b74b93,001,2021-08-19_16h01.00.929,natb3,2021.2.3,MacIntel,59.99520038,611a957a01ef665c99b74b93,611e07ecdcc96256ae8d5b80,611e7216782f6bfb0580c6f3,0.5442,
,,,,space,,0,138,138,276,1,H, , , , ,space,2000,2,611a957a01ef665c99b74b93,001,2021-08-19_16h01.00.929,natb3,2021.2.3,MacIntel,59.99520038,611a957a01ef665c99b74b93,611e07ecdcc96256ae8d5b80,611e7216782f6bfb0580c6f3,0.4675,
,,,,space,,0,139,139,164,1,H, , , , ,space,2500,2.5,611a957a01ef665c99b74b93,001,2021-08-19_16h01.00.929,natb3,2021.2.3,MacIntel,59.99520038,611a957a01ef665c99b74b93,611e07ecdcc96256ae8d5b80,611e7216782f6bfb0580c6f3,0.587,
,,,,space,,0,140,140,67,1,Q, , , , ,space,2000,2,611a957a01ef665c99b74b93,001,2021-08-19_16h01.00.929,natb3,2021.2.3,MacIntel,59.99520038,611a957a01ef665c99b74b93,611e07ecdcc96256ae8d5b80,611e7216782f6bfb0580c6f3,0.5671,
,,,,space,,0,141,141,169,1,L, , , , ,space,2500,2.5,611a957a01ef665c99b74b93,001,2021-08-19_16h01.00.929,natb3,2021.2.3,MacIntel,59.99520038,611a957a01ef665c99b74b93,611e07ecdcc96256ae8d5b80,611e7216782f6bfb0580c6f3,0.5183,
,,,,space,,0,142,142,170,1,Z, , , , ,space,2000,2,611a957a01ef665c99b74b93,001,2021-08-19_16h01.00.929,natb3,2021.2.3,MacIntel,59.99520038,611a957a01ef665c99b74b93,611e07ecdcc96256ae8d5b80,611e7216782f6bfb0580c6f3,0.6005,
,,,,space,,0,143,143,309,1,H, , , , ,space,2500,2.5,611a957a01ef665c99b74b93,001,2021-08-19_16h01.00.929,natb3,2021.2.3,MacIntel,59.99520038,611a957a01ef665c99b74b93,611e07ecdcc96256ae8d5b80,611e7216782f6bfb0580c6f3,0.5861,
,,,,space,,0,144,144,19,1,G, , , , ,space,1500,1.5,611a957a01ef665c99b74b93,001,2021-08-19_16h01.00.929,natb3,2021.2.3,MacIntel,59.99520038,611a957a01ef665c99b74b93,611e07ecdcc96256ae8d5b80,611e7216782f6bfb0580c6f3,0.7502,
,,,,,,0,145,145,263,1,X,4, ,6, ,,1500,1.5,611a957a01ef665c99b74b93,001,2021-08-19_16h01.00.929,natb3,2021.2.3,MacIntel,59.99520038,611a957a01ef665c99b74b93,611e07ecdcc96256ae8d5b80,611e7216782f6bfb0580c6f3,,
,,,,,,0,146,146,213,1,X, , , , ,,2500,2.5,611a957a01ef665c99b74b93,001,2021-08-19_16h01.00.929,natb3,2021.2.3,MacIntel,59.99520038,611a957a01ef665c99b74b93,611e07ecdcc96256ae8d5b80,611e7216782f6bfb0580c6f3,,
,,,,,,0,147,147,282,1,X, , , , ,,2500,2.5,611a957a01ef665c99b74b93,001,2021-08-19_16h01.00.929,natb3,2021.2.3,MacIntel,59.99520038,611a957a01ef665c99b74b93,611e07ecdcc96256ae8d5b80,611e7216782f6bfb0580c6f3,,
,,,,space,,0,148,148,235,1,A, , , , ,space,1500,1.5,611a957a01ef665c99b74b93,001,2021-08-19_16h01.00.929,natb3,2021.2.3,MacIntel,59.99520038,611a957a01ef665c99b74b93,611e07ecdcc96256ae8d5b80,611e7216782f6bfb0580c6f3,0.7115,
,,,,space,,0,149,149,30,1,N, , , , ,space,2500,2.5,611a957a01ef665c99b74b93,001,2021-08-19_16h01.00.929,natb3,2021.2.3,MacIntel,59.99520038,611a957a01ef665c99b74b93,611e07ecdcc96256ae8d5b80,611e7216782f6bfb0580c6f3,0.5666,
,,,,space,,0,150,150,147,1,E, , , , ,space,2000,2,611a957a01ef665c99b74b93,001,2021-08-19_16h01.00.929,natb3,2021.2.3,MacIntel,59.99520038,611a957a01ef665c99b74b93,611e07ecdcc96256ae8d5b80,611e7216782f6bfb0580c6f3,0.5337,
,,,,space,,0,151,151,127,1,S, , , , ,space,2500,2.5,611a957a01ef665c99b74b93,001,2021-08-19_16h01.00.929,natb3,2021.2.3,MacIntel,59.99520038,611a957a01ef665c99b74b93,611e07ecdcc96256ae8d5b80,611e7216782f6bfb0580c6f3,0.5127,
,,,,,,0,152,152,96,1,X, , , , ,,1500,1.5,611a957a01ef665c99b74b93,001,2021-08-19_16h01.00.929,natb3,2021.2.3,MacIntel,59.99520038,611a957a01ef665c99b74b93,611e07ecdcc96256ae8d5b80,611e7216782f6bfb0580c6f3,,
,,,,space,,0,153,153,101,1,Q, , , , ,space,2500,2.5,611a957a01ef665c99b74b93,001,2021-08-19_16h01.00.929,natb3,2021.2.3,MacIntel,59.99520038,611a957a01ef665c99b74b93,611e07ecdcc96256ae8d5b80,611e7216782f6bfb0580c6f3,0.481,
,,,,space,,0,154,154,64,1,N, , , , ,space,2000,2,611a957a01ef665c99b74b93,001,2021-08-19_16h01.00.929,natb3,2021.2.3,MacIntel,59.99520038,611a957a01ef665c99b74b93,611e07ecdcc96256ae8d5b80,611e7216782f6bfb0580c6f3,0.6507,
,,,,space,,0,155,155,83,1,D, , , , ,space,2000,2,611a957a01ef665c99b74b93,001,2021-08-19_16h01.00.929,natb3,2021.2.3,MacIntel,59.99520038,611a957a01ef665c99b74b93,611e07ecdcc96256ae8d5b80,611e7216782f6bfb0580c6f3,0.4813,
,,,,,,0,156,156,211,1,X, , , , ,,2500,2.5,611a957a01ef665c99b74b93,001,2021-08-19_16h01.00.929,natb3,2021.2.3,MacIntel,59.99520038,611a957a01ef665c99b74b93,611e07ecdcc96256ae8d5b80,611e7216782f6bfb0580c6f3,,
,,,,space,,0,157,157,312,1,K, , , , ,space,2000,2,611a957a01ef665c99b74b93,001,2021-08-19_16h01.00.929,natb3,2021.2.3,MacIntel,59.99520038,611a957a01ef665c99b74b93,611e07ecdcc96256ae8d5b80,611e7216782f6bfb0580c6f3,0.6004,
,,,,space,,0,158,158,88,1,J, , , , ,space,2500,2.5,611a957a01ef665c99b74b93,001,2021-08-19_16h01.00.929,natb3,2021.2.3,MacIntel,59.99520038,611a957a01ef665c99b74b93,611e07ecdcc96256ae8d5b80,611e7216782f6bfb0580c6f3,0.4983,
,,,,space,,0,159,159,152,1,U, , , , ,space,2000,2,611a957a01ef665c99b74b93,001,2021-08-19_16h01.00.929,natb3,2021.2.3,MacIntel,59.99520038,611a957a01ef665c99b74b93,611e07ecdcc96256ae8d5b80,611e7216782f6bfb0580c6f3,0.6164,
,,,,space,,0,160,160,139,1,V, , , , ,space,2000,2,611a957a01ef665c99b74b93,001,2021-08-19_16h01.00.929,natb3,2021.2.3,MacIntel,59.99520038,611a957a01ef665c99b74b93,611e07ecdcc96256ae8d5b80,611e7216782f6bfb0580c6f3,0.4984,
,,,,space,,0,161,161,128,1,D, , , , ,space,2500,2.5,611a957a01ef665c99b74b93,001,2021-08-19_16h01.00.929,natb3,2021.2.3,MacIntel,59.99520038,611a957a01ef665c99b74b93,611e07ecdcc96256ae8d5b80,611e7216782f6bfb0580c6f3,0.6288,
,,,,,,0,162,162,252,1,X,3, ,6,9,,2000,2,611a957a01ef665c99b74b93,001,2021-08-19_16h01.00.929,natb3,2021.2.3,MacIntel,59.99520038,611a957a01ef665c99b74b93,611e07ecdcc96256ae8d5b80,611e7216782f6bfb0580c6f3,,
,,,,,,0,163,163,54,1,X, , , , ,,2000,2,611a957a01ef665c99b74b93,001,2021-08-19_16h01.00.929,natb3,2021.2.3,MacIntel,59.99520038,611a957a01ef665c99b74b93,611e07ecdcc96256ae8d5b80,611e7216782f6bfb0580c6f3,,
,,,,space,,0,164,164,177,1,M, , , , ,space,2500,2.5,611a957a01ef665c99b74b93,001,2021-08-19_16h01.00.929,natb3,2021.2.3,MacIntel,59.99520038,611a957a01ef665c99b74b93,611e07ecdcc96256ae8d5b80,611e7216782f6bfb0580c6f3,0.5687,
,,,,space,,0,165,165,130,1,F, , , , ,space,2000,2,611a957a01ef665c99b74b93,001,2021-08-19_16h01.00.929,natb3,2021.2.3,MacIntel,59.99520038,611a957a01ef665c99b74b93,611e07ecdcc96256ae8d5b80,611e7216782f6bfb0580c6f3,0.5463,
,,,,space,,0,166,166,323,1,M, , , , ,space,2500,2.5,611a957a01ef665c99b74b93,001,2021-08-19_16h01.00.929,natb3,2021.2.3,MacIntel,59.99520038,611a957a01ef665c99b74b93,611e07ecdcc96256ae8d5b80,611e7216782f6bfb0580c6f3,0.4626,
,,,,space,space,0,167,167,61,1,C, , , , ,space,2000,2,611a957a01ef665c99b74b93,001,2021-08-19_16h01.00.929,natb3,2021.2.3,MacIntel,59.99520038,611a957a01ef665c99b74b93,611e07ecdcc96256ae8d5b80,611e7216782f6bfb0580c6f3,0.5454,51.0805
,,,,space,,0,168,168,234,1,P, , , , ,space,2000,2,611a957a01ef665c99b74b93,001,2021-08-19_16h01.00.929,natb3,2021.2.3,MacIntel,59.99520038,611a957a01ef665c99b74b93,611e07ecdcc96256ae8d5b80,611e7216782f6bfb0580c6f3,0.5856,
,,,,space,,0,169,169,209,1,N, , , , ,space,2000,2,611a957a01ef665c99b74b93,001,2021-08-19_16h01.00.929,natb3,2021.2.3,MacIntel,59.99520038,611a957a01ef665c99b74b93,611e07ecdcc96256ae8d5b80,611e7216782f6bfb0580c6f3,0.4287,
,,,,space,,0,170,170,104,1,E, , , , ,space,2000,2,611a957a01ef665c99b74b93,001,2021-08-19_16h01.00.929,natb3,2021.2.3,MacIntel,59.99520038,611a957a01ef665c99b74b93,611e07ecdcc96256ae8d5b80,611e7216782f6bfb0580c6f3,0.4336,
,,,,space,,0,171,171,9,1,I, , , , ,space,1500,1.5,611a957a01ef665c99b74b93,001,2021-08-19_16h01.00.929,natb3,2021.2.3,MacIntel,59.99520038,611a957a01ef665c99b74b93,611e07ecdcc96256ae8d5b80,611e7216782f6bfb0580c6f3,0.3835,
,,,,space,,0,172,172,330,1,T, , , , ,space,2500,2.5,611a957a01ef665c99b74b93,001,2021-08-19_16h01.00.929,natb3,2021.2.3,MacIntel,59.99520038,611a957a01ef665c99b74b93,611e07ecdcc96256ae8d5b80,611e7216782f6bfb0580c6f3,0.4617,
,,,,,,0,173,173,299,1,X, , , , ,,2500,2.5,611a957a01ef665c99b74b93,001,2021-08-19_16h01.00.929,natb3,2021.2.3,MacIntel,59.99520038,611a957a01ef665c99b74b93,611e07ecdcc96256ae8d5b80,611e7216782f6bfb0580c6f3,,
,,,,space,,0,174,174,115,1,R, , , , ,space,1500,1.5,611a957a01ef665c99b74b93,001,2021-08-19_16h01.00.929,natb3,2021.2.3,MacIntel,59.99520038,611a957a01ef665c99b74b93,611e07ecdcc96256ae8d5b80,611e7216782f6bfb0580c6f3,0.4868,
,,,,space,,0,175,175,289,1,Q, , , , ,space,2000,2,611a957a01ef665c99b74b93,001,2021-08-19_16h01.00.929,natb3,2021.2.3,MacIntel,59.99520038,611a957a01ef665c99b74b93,611e07ecdcc96256ae8d5b80,611e7216782f6bfb0580c6f3,0.5299,
,,,,space,,0,176,176,11,1,P, , , , ,space,2500,2.5,611a957a01ef665c99b74b93,001,2021-08-19_16h01.00.929,natb3,2021.2.3,MacIntel,59.99520038,611a957a01ef665c99b74b93,611e07ecdcc96256ae8d5b80,611e7216782f6bfb0580c6f3,0.4157,
,,,,,,0,177,177,74,1,X, ,4,3,2,,1500,1.5,611a957a01ef665c99b74b93,001,2021-08-19_16h01.00.929,natb3,2021.2.3,MacIntel,59.99520038,611a957a01ef665c99b74b93,611e07ecdcc96256ae8d5b80,611e7216782f6bfb0580c6f3,,
,,,,space,,0,178,178,62,1,V, , , , ,space,1500,1.5,611a957a01ef665c99b74b93,001,2021-08-19_16h01.00.929,natb3,2021.2.3,MacIntel,59.99520038,611a957a01ef665c99b74b93,611e07ecdcc96256ae8d5b80,611e7216782f6bfb0580c6f3,0.5322,
,,,,space,,0,179,179,262,1,Y, , , , ,space,2500,2.5,611a957a01ef665c99b74b93,001,2021-08-19_16h01.00.929,natb3,2021.2.3,MacIntel,59.99520038,611a957a01ef665c99b74b93,611e07ecdcc96256ae8d5b80,611e7216782f6bfb0580c6f3,0.4829,
,,,,,,0,180,180,15,1,X, , , , ,,1500,1.5,611a957a01ef665c99b74b93,001,2021-08-19_16h01.00.929,natb3,2021.2.3,MacIntel,59.99520038,611a957a01ef665c99b74b93,611e07ecdcc96256ae8d5b80,611e7216782f6bfb0580c6f3,,
,,,,,,0,181,181,295,1,X,8,7,5, ,,2500,2.5,611a957a01ef665c99b74b93,001,2021-08-19_16h01.00.929,natb3,2021.2.3,MacIntel,59.99520038,611a957a01ef665c99b74b93,611e07ecdcc96256ae8d5b80,611e7216782f6bfb0580c6f3,,
,,,,space,,0,182,182,72,1,T, , , , ,space,1500,1.5,611a957a01ef665c99b74b93,001,2021-08-19_16h01.00.929,natb3,2021.2.3,MacIntel,59.99520038,611a957a01ef665c99b74b93,611e07ecdcc96256ae8d5b80,611e7216782f6bfb0580c6f3,0.6989,
,,,,,,0,183,183,236,1,X,3, ,4,7,,2500,2.5,611a957a01ef665c99b74b93,001,2021-08-19_16h01.00.929,natb3,2021.2.3,MacIntel,59.99520038,611a957a01ef665c99b74b93,611e07ecdcc96256ae8d5b80,611e7216782f6bfb0580c6f3,,
,,,,space,,0,184,184,113,1,W, , , , ,space,2500,2.5,611a957a01ef665c99b74b93,001,2021-08-19_16h01.00.929,natb3,2021.2.3,MacIntel,59.99520038,611a957a01ef665c99b74b93,611e07ecdcc96256ae8d5b80,611e7216782f6bfb0580c6f3,0.6001,
,,,,space,,0,185,185,28,1,V, , , , ,space,1500,1.5,611a957a01ef665c99b74b93,001,2021-08-19_16h01.00.929,natb3,2021.2.3,MacIntel,59.99520038,611a957a01ef665c99b74b93,611e07ecdcc96256ae8d5b80,611e7216782f6bfb0580c6f3,0.7996,
,,,,,,0,186,186,191,1,X,1, ,3,4,,2500,2.5,611a957a01ef665c99b74b93,001,2021-08-19_16h01.00.929,natb3,2021.2.3,MacIntel,59.99520038,611a957a01ef665c99b74b93,611e07ecdcc96256ae8d5b80,611e7216782f6bfb0580c6f3,,
,,,,space,,0,187,187,212,1,Q, , , , ,space,2500,2.5,611a957a01ef665c99b74b93,001,2021-08-19_16h01.00.929,natb3,2021.2.3,MacIntel,59.99520038,611a957a01ef665c99b74b93,611e07ecdcc96256ae8d5b80,611e7216782f6bfb0580c6f3,0.5137,
,,,,space,,0,188,188,41,1,Y, , , , ,space,2500,2.5,611a957a01ef665c99b74b93,001,2021-08-19_16h01.00.929,natb3,2021.2.3,MacIntel,59.99520038,611a957a01ef665c99b74b93,611e07ecdcc96256ae8d5b80,611e7216782f6bfb0580c6f3,0.4621,
,,,,space,,0,189,189,161,1,F, , , , ,space,1500,1.5,611a957a01ef665c99b74b93,001,2021-08-19_16h01.00.929,natb3,2021.2.3,MacIntel,59.99520038,611a957a01ef665c99b74b93,611e07ecdcc96256ae8d5b80,611e7216782f6bfb0580c6f3,0.5834,
,,,,,,0,190,190,305,1,X, , , , ,,1500,1.5,611a957a01ef665c99b74b93,001,2021-08-19_16h01.00.929,natb3,2021.2.3,MacIntel,59.99520038,611a957a01ef665c99b74b93,611e07ecdcc96256ae8d5b80,611e7216782f6bfb0580c6f3,,
,,,,space,,0,191,191,237,1,S, , , , ,space,1500,1.5,611a957a01ef665c99b74b93,001,2021-08-19_16h01.00.929,natb3,2021.2.3,MacIntel,59.99520038,611a957a01ef665c99b74b93,611e07ecdcc96256ae8d5b80,611e7216782f6bfb0580c6f3,0.567,
,,,,space,,0,192,192,198,1,H, , , , ,space,2500,2.5,611a957a01ef665c99b74b93,001,2021-08-19_16h01.00.929,natb3,2021.2.3,MacIntel,59.99520038,611a957a01ef665c99b74b93,611e07ecdcc96256ae8d5b80,611e7216782f6bfb0580c6f3,0.4678,
,,,,,,0,193,193,116,1,X, , , , ,,2000,2,611a957a01ef665c99b74b93,001,2021-08-19_16h01.00.929,natb3,2021.2.3,MacIntel,59.99520038,611a957a01ef665c99b74b93,611e07ecdcc96256ae8d5b80,611e7216782f6bfb0580c6f3,,
,,,,space,,0,194,194,228,1,Y, , , , ,space,2000,2,611a957a01ef665c99b74b93,001,2021-08-19_16h01.00.929,natb3,2021.2.3,MacIntel,59.99520038,611a957a01ef665c99b74b93,611e07ecdcc96256ae8d5b80,611e7216782f6bfb0580c6f3,0.5185,
,,,,,,0,195,195,46,1,X, , , , ,,2000,2,611a957a01ef665c99b74b93,001,2021-08-19_16h01.00.929,natb3,2021.2.3,MacIntel,59.99520038,611a957a01ef665c99b74b93,611e07ecdcc96256ae8d5b80,611e7216782f6bfb0580c6f3,,
,,,,,,0,196,196,35,1,X, , , , ,,2500,2.5,611a957a01ef665c99b74b93,001,2021-08-19_16h01.00.929,natb3,2021.2.3,MacIntel,59.99520038,611a957a01ef665c99b74b93,611e07ecdcc96256ae8d5b80,611e7216782f6bfb0580c6f3,,
,,,,,,0,197,197,315,1,X, , , , ,,2500,2.5,611a957a01ef665c99b74b93,001,2021-08-19_16h01.00.929,natb3,2021.2.3,MacIntel,59.99520038,611a957a01ef665c99b74b93,611e07ecdcc96256ae8d5b80,611e7216782f6bfb0580c6f3,,
,,,,,,0,198,198,329,1,X,3,4, ,2,,2500,2.5,611a957a01ef665c99b74b93,001,2021-08-19_16h01.00.929,natb3,2021.2.3,MacIntel,59.99520038,611a957a01ef665c99b74b93,611e07ecdcc96256ae8d5b80,611e7216782f6bfb0580c6f3,,
,,,,space,,0,199,199,214,1,W, , , , ,space,2000,2,611a957a01ef665c99b74b93,001,2021-08-19_16h01.00.929,natb3,2021.2.3,MacIntel,59.99520038,611a957a01ef665c99b74b93,611e07ecdcc96256ae8d5b80,611e7216782f6bfb0580c6f3,0.4799,
,,,,space,,0,200,200,86,1,G, , , , ,space,2000,2,611a957a01ef665c99b74b93,001,2021-08-19_16h01.00.929,natb3,2021.2.3,MacIntel,59.99520038,611a957a01ef665c99b74b93,611e07ecdcc96256ae8d5b80,611e7216782f6bfb0580c6f3,0.5321,
,,,,,,0,201,201,273,1,X, , , , ,,2000,2,611a957a01ef665c99b74b93,001,2021-08-19_16h01.00.929,natb3,2021.2.3,MacIntel,59.99520038,611a957a01ef665c99b74b93,611e07ecdcc96256ae8d5b80,611e7216782f6bfb0580c6f3,,
,,,,space,,0,202,202,267,1,P, , , , ,space,2000,2,611a957a01ef665c99b74b93,001,2021-08-19_16h01.00.929,natb3,2021.2.3,MacIntel,59.99520038,611a957a01ef665c99b74b93,611e07ecdcc96256ae8d5b80,611e7216782f6bfb0580c6f3,0.5832,
,,,,space,,0,203,203,97,1,B, , , , ,space,2500,2.5,611a957a01ef665c99b74b93,001,2021-08-19_16h01.00.929,natb3,2021.2.3,MacIntel,59.99520038,611a957a01ef665c99b74b93,611e07ecdcc96256ae8d5b80,611e7216782f6bfb0580c6f3,0.6334,
,,,,space,,0,204,204,266,1,O, , , , ,space,1500,1.5,611a957a01ef665c99b74b93,001,2021-08-19_16h01.00.929,natb3,2021.2.3,MacIntel,59.99520038,611a957a01ef665c99b74b93,611e07ecdcc96256ae8d5b80,611e7216782f6bfb0580c6f3,0.5852,
,,,,space,,0,205,205,251,1,B, , , , ,space,1500,1.5,611a957a01ef665c99b74b93,001,2021-08-19_16h01.00.929,natb3,2021.2.3,MacIntel,59.99520038,611a957a01ef665c99b74b93,611e07ecdcc96256ae8d5b80,611e7216782f6bfb0580c6f3,0.5167,
,,,,space,,0,206,206,246,1,L, , , , ,space,2500,2.5,611a957a01ef665c99b74b93,001,2021-08-19_16h01.00.929,natb3,2021.2.3,MacIntel,59.99520038,611a957a01ef665c99b74b93,611e07ecdcc96256ae8d5b80,611e7216782f6bfb0580c6f3,0.6186,
,,,,space,,0,207,207,100,1,M, , , , ,space,2000,2,611a957a01ef665c99b74b93,001,2021-08-19_16h01.00.929,natb3,2021.2.3,MacIntel,59.99520038,611a957a01ef665c99b74b93,611e07ecdcc96256ae8d5b80,611e7216782f6bfb0580c6f3,0.5124,
,,,,,,0,208,208,78,1,X, , , , ,,2000,2,611a957a01ef665c99b74b93,001,2021-08-19_16h01.00.929,natb3,2021.2.3,MacIntel,59.99520038,611a957a01ef665c99b74b93,611e07ecdcc96256ae8d5b80,611e7216782f6bfb0580c6f3,,
,,,,,,0,209,209,187,1,X, ,3,7,4,,1500,1.5,611a957a01ef665c99b74b93,001,2021-08-19_16h01.00.929,natb3,2021.2.3,MacIntel,59.99520038,611a957a01ef665c99b74b93,611e07ecdcc96256ae8d5b80,611e7216782f6bfb0580c6f3,,
,,,,space,,0,210,210,240,1,F, , , , ,space,2500,2.5,611a957a01ef665c99b74b93,001,2021-08-19_16h01.00.929,natb3,2021.2.3,MacIntel,59.99520038,611a957a01ef665c99b74b93,611e07ecdcc96256ae8d5b80,611e7216782f6bfb0580c6f3,0.4995,
,,,,space,,0,211,211,285,1,B, , , , ,space,1500,1.5,611a957a01ef665c99b74b93,001,2021-08-19_16h01.00.929,natb3,2021.2.3,MacIntel,59.99520038,611a957a01ef665c99b74b93,611e07ecdcc96256ae8d5b80,611e7216782f6bfb0580c6f3,0.4333,
,,,,space,,0,212,212,13,1,A, , , , ,space,2000,2,611a957a01ef665c99b74b93,001,2021-08-19_16h01.00.929,natb3,2021.2.3,MacIntel,59.99520038,611a957a01ef665c99b74b93,611e07ecdcc96256ae8d5b80,611e7216782f6bfb0580c6f3,0.414,
,,,,space,,0,213,213,52,1,F, , , , ,space,1500,1.5,611a957a01ef665c99b74b93,001,2021-08-19_16h01.00.929,natb3,2021.2.3,MacIntel,59.99520038,611a957a01ef665c99b74b93,611e07ecdcc96256ae8d5b80,611e7216782f6bfb0580c6f3,0.3834,
,,,,,,0,214,214,4,1,X, , , , ,,2000,2,611a957a01ef665c99b74b93,001,2021-08-19_16h01.00.929,natb3,2021.2.3,MacIntel,59.99520038,611a957a01ef665c99b74b93,611e07ecdcc96256ae8d5b80,611e7216782f6bfb0580c6f3,,
,,,,space,,0,215,215,140,1,B, , , , ,space,2500,2.5,611a957a01ef665c99b74b93,001,2021-08-19_16h01.00.929,natb3,2021.2.3,MacIntel,59.99520038,611a957a01ef665c99b74b93,611e07ecdcc96256ae8d5b80,611e7216782f6bfb0580c6f3,0.4345,
,,,,space,,0,216,216,50,1,D, , , , ,space,1500,1.5,611a957a01ef665c99b74b93,001,2021-08-19_16h01.00.929,natb3,2021.2.3,MacIntel,59.99520038,611a957a01ef665c99b74b93,611e07ecdcc96256ae8d5b80,611e7216782f6bfb0580c6f3,0.4945,
,,,,space,,0,217,217,172,1,C, , , , ,space,1500,1.5,611a957a01ef665c99b74b93,001,2021-08-19_16h01.00.929,natb3,2021.2.3,MacIntel,59.99520038,611a957a01ef665c99b74b93,611e07ecdcc96256ae8d5b80,611e7216782f6bfb0580c6f3,0.3955,
,,,,space,,0,218,218,298,1,I, , , , ,space,2000,2,611a957a01ef665c99b74b93,001,2021-08-19_16h01.00.929,natb3,2021.2.3,MacIntel,59.99520038,611a957a01ef665c99b74b93,611e07ecdcc96256ae8d5b80,611e7216782f6bfb0580c6f3,0.4013,
,,,,space,,0,219,219,283,1,C, , , , ,space,1500,1.5,611a957a01ef665c99b74b93,001,2021-08-19_16h01.00.929,natb3,2021.2.3,MacIntel,59.99520038,611a957a01ef665c99b74b93,611e07ecdcc96256ae8d5b80,611e7216782f6bfb0580c6f3,0.4499,
,,,,space,,0,220,220,99,1,N, , , , ,space,2500,2.5,611a957a01ef665c99b74b93,001,2021-08-19_16h01.00.929,natb3,2021.2.3,MacIntel,59.99520038,611a957a01ef665c99b74b93,611e07ecdcc96256ae8d5b80,611e7216782f6bfb0580c6f3,0.5163,
,,,,,,0,221,221,200,1,X,7, ,5,3,,1500,1.5,611a957a01ef665c99b74b93,001,2021-08-19_16h01.00.929,natb3,2021.2.3,MacIntel,59.99520038,611a957a01ef665c99b74b93,611e07ecdcc96256ae8d5b80,611e7216782f6bfb0580c6f3,,
,,,,space,,0,222,222,24,1,L, , , , ,space,2500,2.5,611a957a01ef665c99b74b93,001,2021-08-19_16h01.00.929,natb3,2021.2.3,MacIntel,59.99520038,611a957a01ef665c99b74b93,611e07ecdcc96256ae8d5b80,611e7216782f6bfb0580c6f3,0.6827,
,,,,space,,0,223,223,181,1,E, , , , ,space,1500,1.5,611a957a01ef665c99b74b93,001,2021-08-19_16h01.00.929,natb3,2021.2.3,MacIntel,59.99520038,611a957a01ef665c99b74b93,611e07ecdcc96256ae8d5b80,611e7216782f6bfb0580c6f3,0.4118,
,,,,space,,0,224,224,173,1,V, , , , ,space,1500,1.5,611a957a01ef665c99b74b93,001,2021-08-19_16h01.00.929,natb3,2021.2.3,MacIntel,59.99520038,611a957a01ef665c99b74b93,611e07ecdcc96256ae8d5b80,611e7216782f6bfb0580c6f3,0.5292,
,,,,space,,0,225,225,59,1,Z, , , , ,space,2000,2,611a957a01ef665c99b74b93,001,2021-08-19_16h01.00.929,natb3,2021.2.3,MacIntel,59.99520038,611a957a01ef665c99b74b93,611e07ecdcc96256ae8d5b80,611e7216782f6bfb0580c6f3,0.401,
,,,,space,,0,226,226,20,1,H, , , , ,space,1500,1.5,611a957a01ef665c99b74b93,001,2021-08-19_16h01.00.929,natb3,2021.2.3,MacIntel,59.99520038,611a957a01ef665c99b74b93,611e07ecdcc96256ae8d5b80,611e7216782f6bfb0580c6f3,0.4682,
,,,,space,,0,227,227,2,1,E, , , , ,space,2500,2.5,611a957a01ef665c99b74b93,001,2021-08-19_16h01.00.929,natb3,2021.2.3,MacIntel,59.99520038,611a957a01ef665c99b74b93,611e07ecdcc96256ae8d5b80,611e7216782f6bfb0580c6f3,0.4354,
,,,,space,,0,228,228,123,1,O, , , , ,space,1500,1.5,611a957a01ef665c99b74b93,001,2021-08-19_16h01.00.929,natb3,2021.2.3,MacIntel,59.99520038,611a957a01ef665c99b74b93,611e07ecdcc96256ae8d5b80,611e7216782f6bfb0580c6f3,0.4332,
,,,,space,,0,229,229,319,1,V, , , , ,space,2000,2,611a957a01ef665c99b74b93,001,2021-08-19_16h01.00.929,natb3,2021.2.3,MacIntel,59.99520038,611a957a01ef665c99b74b93,611e07ecdcc96256ae8d5b80,611e7216782f6bfb0580c6f3,0.3867,
,,,,space,,0,230,230,160,1,D, , , , ,space,1500,1.5,611a957a01ef665c99b74b93,001,2021-08-19_16h01.00.929,natb3,2021.2.3,MacIntel,59.99520038,611a957a01ef665c99b74b93,611e07ecdcc96256ae8d5b80,611e7216782f6bfb0580c6f3,0.4139,
,,,,,,0,231,231,207,1,X,9, ,2, ,,2500,2.5,611a957a01ef665c99b74b93,001,2021-08-19_16h01.00.929,natb3,2021.2.3,MacIntel,59.99520038,611a957a01ef665c99b74b93,611e07ecdcc96256ae8d5b80,611e7216782f6bfb0580c6f3,,
,,,,,,0,232,232,171,1,X, , , , ,,1500,1.5,611a957a01ef665c99b74b93,001,2021-08-19_16h01.00.929,natb3,2021.2.3,MacIntel,59.99520038,611a957a01ef665c99b74b93,611e07ecdcc96256ae8d5b80,611e7216782f6bfb0580c6f3,,
,,,,,,0,233,233,31,1,X, , , , ,,1500,1.5,611a957a01ef665c99b74b93,001,2021-08-19_16h01.00.929,natb3,2021.2.3,MacIntel,59.99520038,611a957a01ef665c99b74b93,611e07ecdcc96256ae8d5b80,611e7216782f6bfb0580c6f3,,
,,,,space,,0,234,234,224,1,W, , , , ,space,1500,1.5,611a957a01ef665c99b74b93,001,2021-08-19_16h01.00.929,natb3,2021.2.3,MacIntel,59.99520038,611a957a01ef665c99b74b93,611e07ecdcc96256ae8d5b80,611e7216782f6bfb0580c6f3,0.603,
,,,,space,,0,235,235,332,1,U, , , , ,space,2000,2,611a957a01ef665c99b74b93,001,2021-08-19_16h01.00.929,natb3,2021.2.3,MacIntel,59.99520038,611a957a01ef665c99b74b93,611e07ecdcc96256ae8d5b80,611e7216782f6bfb0580c6f3,0.4798,
,,,,space,,0,236,236,124,1,P, , , , ,space,2000,2,611a957a01ef665c99b74b93,001,2021-08-19_16h01.00.929,natb3,2021.2.3,MacIntel,59.99520038,611a957a01ef665c99b74b93,611e07ecdcc96256ae8d5b80,611e7216782f6bfb0580c6f3,0.5791,
,,,,space,,0,237,237,149,1,R, , , , ,space,2000,2,611a957a01ef665c99b74b93,001,2021-08-19_16h01.00.929,natb3,2021.2.3,MacIntel,59.99520038,611a957a01ef665c99b74b93,611e07ecdcc96256ae8d5b80,611e7216782f6bfb0580c6f3,0.4791,
,,,,,,0,238,238,255,1,X, , , , ,,1500,1.5,611a957a01ef665c99b74b93,001,2021-08-19_16h01.00.929,natb3,2021.2.3,MacIntel,59.99520038,611a957a01ef665c99b74b93,611e07ecdcc96256ae8d5b80,611e7216782f6bfb0580c6f3,,
,,,,space,,0,239,239,190,1,P, , , , ,space,2000,2,611a957a01ef665c99b74b93,001,2021-08-19_16h01.00.929,natb3,2021.2.3,MacIntel,59.99520038,611a957a01ef665c99b74b93,611e07ecdcc96256ae8d5b80,611e7216782f6bfb0580c6f3,0.5638,
,,,,space,,0,240,240,304,1,S, , , , ,space,2000,2,611a957a01ef665c99b74b93,001,2021-08-19_16h01.00.929,natb3,2021.2.3,MacIntel,59.99520038,611a957a01ef665c99b74b93,611e07ecdcc96256ae8d5b80,611e7216782f6bfb0580c6f3,0.5167,
,,,,,,0,241,241,89,1,X,3, , , ,,2000,2,611a957a01ef665c99b74b93,001,2021-08-19_16h01.00.929,natb3,2021.2.3,MacIntel,59.99520038,611a957a01ef665c99b74b93,611e07ecdcc96256ae8d5b80,611e7216782f6bfb0580c6f3,,
,,,,space,,0,242,242,176,1,N, , , , ,space,1500,1.5,611a957a01ef665c99b74b93,001,2021-08-19_16h01.00.929,natb3,2021.2.3,MacIntel,59.99520038,611a957a01ef665c99b74b93,611e07ecdcc96256ae8d5b80,611e7216782f6bfb0580c6f3,0.5003,
,,,,space,,0,243,243,284,1,V, , , , ,space,2500,2.5,611a957a01ef665c99b74b93,001,2021-08-19_16h01.00.929,natb3,2021.2.3,MacIntel,59.99520038,611a957a01ef665c99b74b93,611e07ecdcc96256ae8d5b80,611e7216782f6bfb0580c6f3,0.45,
,,,,space,,0,244,244,257,1,W, , , , ,space,2000,2,611a957a01ef665c99b74b93,001,2021-08-19_16h01.00.929,natb3,2021.2.3,MacIntel,59.99520038,611a957a01ef665c99b74b93,611e07ecdcc96256ae8d5b80,611e7216782f6bfb0580c6f3,0.5867,
,,,,space,,0,245,245,296,1,Y, , , , ,space,2500,2.5,611a957a01ef665c99b74b93,001,2021-08-19_16h01.00.929,natb3,2021.2.3,MacIntel,59.99520038,611a957a01ef665c99b74b93,611e07ecdcc96256ae8d5b80,611e7216782f6bfb0580c6f3,0.4787,
,,,,space,,0,246,246,250,1,V, , , , ,space,2000,2,611a957a01ef665c99b74b93,001,2021-08-19_16h01.00.929,natb3,2021.2.3,MacIntel,59.99520038,611a957a01ef665c99b74b93,611e07ecdcc96256ae8d5b80,611e7216782f6bfb0580c6f3,0.4835,
,,,,,,0,247,247,243,1,X, , , , ,,2500,2.5,611a957a01ef665c99b74b93,001,2021-08-19_16h01.00.929,natb3,2021.2.3,MacIntel,59.99520038,611a957a01ef665c99b74b93,611e07ecdcc96256ae8d5b80,611e7216782f6bfb0580c6f3,,
,,,,space,,0,248,248,189,1,O, , , , ,space,1500,1.5,611a957a01ef665c99b74b93,001,2021-08-19_16h01.00.929,natb3,2021.2.3,MacIntel,59.99520038,611a957a01ef665c99b74b93,611e07ecdcc96256ae8d5b80,611e7216782f6bfb0580c6f3,0.5167,
,,,,space,,0,249,249,301,1,P, , , , ,space,1500,1.5,611a957a01ef665c99b74b93,001,2021-08-19_16h01.00.929,natb3,2021.2.3,MacIntel,59.99520038,611a957a01ef665c99b74b93,611e07ecdcc96256ae8d5b80,611e7216782f6bfb0580c6f3,0.4446,
,,,,space,,0,250,250,154,1,I, , , , ,space,2500,2.5,611a957a01ef665c99b74b93,001,2021-08-19_16h01.00.929,natb3,2021.2.3,MacIntel,59.99520038,611a957a01ef665c99b74b93,611e07ecdcc96256ae8d5b80,611e7216782f6bfb0580c6f3,0.5719,
,,,,space,,0,251,251,81,1,S, , , , ,space,2000,2,611a957a01ef665c99b74b93,001,2021-08-19_16h01.00.929,natb3,2021.2.3,MacIntel,59.99520038,611a957a01ef665c99b74b93,611e07ecdcc96256ae8d5b80,611e7216782f6bfb0580c6f3,0.429,
,,,,,,0,252,252,51,1,X,7,5,8, ,,1500,1.5,611a957a01ef665c99b74b93,001,2021-08-19_16h01.00.929,natb3,2021.2.3,MacIntel,59.99520038,611a957a01ef665c99b74b93,611e07ecdcc96256ae8d5b80,611e7216782f6bfb0580c6f3,,
,,,,,,0,253,253,325,1,X, , , , ,,2500,2.5,611a957a01ef665c99b74b93,001,2021-08-19_16h01.00.929,natb3,2021.2.3,MacIntel,59.99520038,611a957a01ef665c99b74b93,611e07ecdcc96256ae8d5b80,611e7216782f6bfb0580c6f3,,
,,,,space,,0,254,254,269,1,A, , , , ,space,2500,2.5,611a957a01ef665c99b74b93,001,2021-08-19_16h01.00.929,natb3,2021.2.3,MacIntel,59.99520038,611a957a01ef665c99b74b93,611e07ecdcc96256ae8d5b80,611e7216782f6bfb0580c6f3,0.5669,
,,,,space,,0,255,255,300,1,O, , , , ,space,2500,2.5,611a957a01ef665c99b74b93,001,2021-08-19_16h01.00.929,natb3,2021.2.3,MacIntel,59.99520038,611a957a01ef665c99b74b93,611e07ecdcc96256ae8d5b80,611e7216782f6bfb0580c6f3,0.5455,
,,,,space,,0,256,256,308,1,G, , , , ,space,1500,1.5,611a957a01ef665c99b74b93,001,2021-08-19_16h01.00.929,natb3,2021.2.3,MacIntel,59.99520038,611a957a01ef665c99b74b93,611e07ecdcc96256ae8d5b80,611e7216782f6bfb0580c6f3,0.7287,
,,,,space,,0,257,257,230,1,U, , , , ,space,1500,1.5,611a957a01ef665c99b74b93,001,2021-08-19_16h01.00.929,natb3,2021.2.3,MacIntel,59.99520038,611a957a01ef665c99b74b93,611e07ecdcc96256ae8d5b80,611e7216782f6bfb0580c6f3,0.4812,
,,,,,,0,258,258,203,1,X, , , , ,,2500,2.5,611a957a01ef665c99b74b93,001,2021-08-19_16h01.00.929,natb3,2021.2.3,MacIntel,59.99520038,611a957a01ef665c99b74b93,611e07ecdcc96256ae8d5b80,611e7216782f6bfb0580c6f3,,
,,,,space,,0,259,259,183,1,R, , , , ,space,1500,1.5,611a957a01ef665c99b74b93,001,2021-08-19_16h01.00.929,natb3,2021.2.3,MacIntel,59.99520038,611a957a01ef665c99b74b93,611e07ecdcc96256ae8d5b80,611e7216782f6bfb0580c6f3,0.5833,
,,,,,,0,260,260,179,1,X, ,9, ,2,,1500,1.5,611a957a01ef665c99b74b93,001,2021-08-19_16h01.00.929,natb3,2021.2.3,MacIntel,59.99520038,611a957a01ef665c99b74b93,611e07ecdcc96256ae8d5b80,611e7216782f6bfb0580c6f3,,
,,,,space,,0,261,261,57,1,K, , , , ,space,2500,2.5,611a957a01ef665c99b74b93,001,2021-08-19_16h01.00.929,natb3,2021.2.3,MacIntel,59.99520038,611a957a01ef665c99b74b93,611e07ecdcc96256ae8d5b80,611e7216782f6bfb0580c6f3,0.5998,
,,,,space,,0,262,262,110,1,I, , , , ,space,1500,1.5,611a957a01ef665c99b74b93,001,2021-08-19_16h01.00.929,natb3,2021.2.3,MacIntel,59.99520038,611a957a01ef665c99b74b93,611e07ecdcc96256ae8d5b80,611e7216782f6bfb0580c6f3,0.5457,
,,,,,,0,263,263,335,1,P,,,,,space,1500,1.5,611a957a01ef665c99b74b93,001,2021-08-19_16h01.00.929,natb3,2021.2.3,MacIntel,59.99520038,611a957a01ef665c99b74b93,611e07ecdcc96256ae8d5b80,611e7216782f6bfb0580c6f3,,
,,,,,,0,264,264,218,1,X,1,3, ,8,,1500,1.5,611a957a01ef665c99b74b93,001,2021-08-19_16h01.00.929,natb3,2021.2.3,MacIntel,59.99520038,611a957a01ef665c99b74b93,611e07ecdcc96256ae8d5b80,611e7216782f6bfb0580c6f3,,
,,,,space,,0,265,265,109,1,U, , , , ,space,1500,1.5,611a957a01ef665c99b74b93,001,2021-08-19_16h01.00.929,natb3,2021.2.3,MacIntel,59.99520038,611a957a01ef665c99b74b93,611e07ecdcc96256ae8d5b80,611e7216782f6bfb0580c6f3,0.5363,
,,,,space,,0,266,266,119,1,Y, , , , ,space,2500,2.5,611a957a01ef665c99b74b93,001,2021-08-19_16h01.00.929,natb3,2021.2.3,MacIntel,59.99520038,611a957a01ef665c99b74b93,611e07ecdcc96256ae8d5b80,611e7216782f6bfb0580c6f3,0.4626,
,,,,space,,0,267,267,33,1,X, , , , ,,1500,1.5,611a957a01ef665c99b74b93,001,2021-08-19_16h01.00.929,natb3,2021.2.3,MacIntel,59.99520038,611a957a01ef665c99b74b93,611e07ecdcc96256ae8d5b80,611e7216782f6bfb0580c6f3,0.5448,
,,,,space,,0,268,268,314,1,L, , , , ,space,1500,1.5,611a957a01ef665c99b74b93,001,2021-08-19_16h01.00.929,natb3,2021.2.3,MacIntel,59.99520038,611a957a01ef665c99b74b93,611e07ecdcc96256ae8d5b80,611e7216782f6bfb0580c6f3,0.5289,
,,,,space,,0,269,269,274,1,F, , , , ,space,2000,2,611a957a01ef665c99b74b93,001,2021-08-19_16h01.00.929,natb3,2021.2.3,MacIntel,59.99520038,611a957a01ef665c99b74b93,611e07ecdcc96256ae8d5b80,611e7216782f6bfb0580c6f3,0.7007,
,,,,space,,0,270,270,134,1,J, , , , ,space,2000,2,611a957a01ef665c99b74b93,001,2021-08-19_16h01.00.929,natb3,2021.2.3,MacIntel,59.99520038,611a957a01ef665c99b74b93,611e07ecdcc96256ae8d5b80,611e7216782f6bfb0580c6f3,0.5189,
,,,,,,0,271,271,277,1,X,8,5, ,2,,2000,2,611a957a01ef665c99b74b93,001,2021-08-19_16h01.00.929,natb3,2021.2.3,MacIntel,59.99520038,611a957a01ef665c99b74b93,611e07ecdcc96256ae8d5b80,611e7216782f6bfb0580c6f3,,
,,,,space,,0,272,272,137,1,C, , , , ,space,2500,2.5,611a957a01ef665c99b74b93,001,2021-08-19_16h01.00.929,natb3,2021.2.3,MacIntel,59.99520038,611a957a01ef665c99b74b93,611e07ecdcc96256ae8d5b80,611e7216782f6bfb0580c6f3,0.6512,
,,,,space,,0,273,273,245,1,K, , , , ,space,2000,2,611a957a01ef665c99b74b93,001,2021-08-19_16h01.00.929,natb3,2021.2.3,MacIntel,59.99520038,611a957a01ef665c99b74b93,611e07ecdcc96256ae8d5b80,611e7216782f6bfb0580c6f3,0.5501,
,,,,,,0,274,274,291,1,X, , , , ,,2000,2,611a957a01ef665c99b74b93,001,2021-08-19_16h01.00.929,natb3,2021.2.3,MacIntel,59.99520038,611a957a01ef665c99b74b93,611e07ecdcc96256ae8d5b80,611e7216782f6bfb0580c6f3,,
,,,,space,,0,275,275,121,1,I, , , , ,space,2000,2,611a957a01ef665c99b74b93,001,2021-08-19_16h01.00.929,natb3,2021.2.3,MacIntel,59.99520038,611a957a01ef665c99b74b93,611e07ecdcc96256ae8d5b80,611e7216782f6bfb0580c6f3,0.4786,
,,,,space,,0,276,276,32,1,M, , , , ,space,1500,1.5,611a957a01ef665c99b74b93,001,2021-08-19_16h01.00.929,natb3,2021.2.3,MacIntel,59.99520038,611a957a01ef665c99b74b93,611e07ecdcc96256ae8d5b80,611e7216782f6bfb0580c6f3,0.4786,
,,,,space,,0,277,277,42,1,U, , , , ,space,1500,1.5,611a957a01ef665c99b74b93,001,2021-08-19_16h01.00.929,natb3,2021.2.3,MacIntel,59.99520038,611a957a01ef665c99b74b93,611e07ecdcc96256ae8d5b80,611e7216782f6bfb0580c6f3,0.4669,
,,,,space,,0,278,278,53,1,G, , , , ,space,2500,2.5,611a957a01ef665c99b74b93,001,2021-08-19_16h01.00.929,natb3,2021.2.3,MacIntel,59.99520038,611a957a01ef665c99b74b93,611e07ecdcc96256ae8d5b80,611e7216782f6bfb0580c6f3,0.4621,
,,,,space,,0,279,279,247,1,Z, , , , ,space,1500,1.5,611a957a01ef665c99b74b93,001,2021-08-19_16h01.00.929,natb3,2021.2.3,MacIntel,59.99520038,611a957a01ef665c99b74b93,611e07ecdcc96256ae8d5b80,611e7216782f6bfb0580c6f3,0.536,
,,,,,,0,280,280,39,1,X,6,2, , ,,1500,1.5,611a957a01ef665c99b74b93,001,2021-08-19_16h01.00.929,natb3,2021.2.3,MacIntel,59.99520038,611a957a01ef665c99b74b93,611e07ecdcc96256ae8d5b80,611e7216782f6bfb0580c6f3,,
,,,,space,,0,281,281,333,1,I, , , , ,space,1500,1.5,611a957a01ef665c99b74b93,001,2021-08-19_16h01.00.929,natb3,2021.2.3,MacIntel,59.99520038,611a957a01ef665c99b74b93,611e07ecdcc96256ae8d5b80,611e7216782f6bfb0580c6f3,0.5524,
,,,,space,,0,282,282,40,1,T, , , , ,space,1500,1.5,611a957a01ef665c99b74b93,001,2021-08-19_16h01.00.929,natb3,2021.2.3,MacIntel,59.99520038,611a957a01ef665c99b74b93,611e07ecdcc96256ae8d5b80,611e7216782f6bfb0580c6f3,0.5971,
,,,,space,,0,283,283,194,1,D, , , , ,space,2000,2,611a957a01ef665c99b74b93,001,2021-08-19_16h01.00.929,natb3,2021.2.3,MacIntel,59.99520038,611a957a01ef665c99b74b93,611e07ecdcc96256ae8d5b80,611e7216782f6bfb0580c6f3,0.5665,
,,,,space,,0,284,284,1,1,W, , , , ,space,2000,2,611a957a01ef665c99b74b93,001,2021-08-19_16h01.00.929,natb3,2021.2.3,MacIntel,59.99520038,611a957a01ef665c99b74b93,611e07ecdcc96256ae8d5b80,611e7216782f6bfb0580c6f3,0.4782,
,,,,space,,0,285,285,202,1,L, , , , ,space,2500,2.5,611a957a01ef665c99b74b93,001,2021-08-19_16h01.00.929,natb3,2021.2.3,MacIntel,59.99520038,611a957a01ef665c99b74b93,611e07ecdcc96256ae8d5b80,611e7216782f6bfb0580c6f3,0.4505,
,,,,space,,0,286,286,114,1,E, , , , ,space,2000,2,611a957a01ef665c99b74b93,001,2021-08-19_16h01.00.929,natb3,2021.2.3,MacIntel,59.99520038,611a957a01ef665c99b74b93,611e07ecdcc96256ae8d5b80,611e7216782f6bfb0580c6f3,0.4633,
,,,,space,,0,287,287,318,1,X, , , , ,,1500,1.5,611a957a01ef665c99b74b93,001,2021-08-19_16h01.00.929,natb3,2021.2.3,MacIntel,59.99520038,611a957a01ef665c99b74b93,611e07ecdcc96256ae8d5b80,611e7216782f6bfb0580c6f3,0.4315,
,,,,space,,0,288,288,288,1,M, , , , ,space,1500,1.5,611a957a01ef665c99b74b93,001,2021-08-19_16h01.00.929,natb3,2021.2.3,MacIntel,59.99520038,611a957a01ef665c99b74b93,611e07ecdcc96256ae8d5b80,611e7216782f6bfb0580c6f3,0.5291,
,,,,,,0,289,289,23,1,X,1, ,5, ,,2000,2,611a957a01ef665c99b74b93,001,2021-08-19_16h01.00.929,natb3,2021.2.3,MacIntel,59.99520038,611a957a01ef665c99b74b93,611e07ecdcc96256ae8d5b80,611e7216782f6bfb0580c6f3,,
,,,,space,,0,290,290,244,1,J, , , , ,space,1500,1.5,611a957a01ef665c99b74b93,001,2021-08-19_16h01.00.929,natb3,2021.2.3,MacIntel,59.99520038,611a957a01ef665c99b74b93,611e07ecdcc96256ae8d5b80,611e7216782f6bfb0580c6f3,0.6494,
,,,,space,,0,291,291,91,1,L, , , , ,space,2000,2,611a957a01ef665c99b74b93,001,2021-08-19_16h01.00.929,natb3,2021.2.3,MacIntel,59.99520038,611a957a01ef665c99b74b93,611e07ecdcc96256ae8d5b80,611e7216782f6bfb0580c6f3,0.4831,
,,,,space,,0,292,292,10,1,O, , , , ,space,2000,2,611a957a01ef665c99b74b93,001,2021-08-19_16h01.00.929,natb3,2021.2.3,MacIntel,59.99520038,611a957a01ef665c99b74b93,611e07ecdcc96256ae8d5b80,611e7216782f6bfb0580c6f3,0.5499,
,,,,space,,0,293,293,278,1,J, , , , ,space,2000,2,611a957a01ef665c99b74b93,001,2021-08-19_16h01.00.929,natb3,2021.2.3,MacIntel,59.99520038,611a957a01ef665c99b74b93,611e07ecdcc96256ae8d5b80,611e7216782f6bfb0580c6f3,0.55,
,,,,space,,0,294,294,180,1,W, , , , ,space,2000,2,611a957a01ef665c99b74b93,001,2021-08-19_16h01.00.929,natb3,2021.2.3,MacIntel,59.99520038,611a957a01ef665c99b74b93,611e07ecdcc96256ae8d5b80,611e7216782f6bfb0580c6f3,0.4495,
,,,,space,,0,295,295,331,1,Y, , , , ,space,2500,2.5,611a957a01ef665c99b74b93,001,2021-08-19_16h01.00.929,natb3,2021.2.3,MacIntel,59.99520038,611a957a01ef665c99b74b93,611e07ecdcc96256ae8d5b80,611e7216782f6bfb0580c6f3,0.5625,
,,,,space,,0,296,296,238,1,D, , , , ,space,1500,1.5,611a957a01ef665c99b74b93,001,2021-08-19_16h01.00.929,natb3,2021.2.3,MacIntel,59.99520038,611a957a01ef665c99b74b93,611e07ecdcc96256ae8d5b80,611e7216782f6bfb0580c6f3,0.4619,
,,,,space,,0,297,297,146,1,W, , , , ,space,1500,1.5,611a957a01ef665c99b74b93,001,2021-08-19_16h01.00.929,natb3,2021.2.3,MacIntel,59.99520038,611a957a01ef665c99b74b93,611e07ecdcc96256ae8d5b80,611e7216782f6bfb0580c6f3,0.5838,
,,,,,,0,298,298,12,1,X, , , , ,,1500,1.5,611a957a01ef665c99b74b93,001,2021-08-19_16h01.00.929,natb3,2021.2.3,MacIntel,59.99520038,611a957a01ef665c99b74b93,611e07ecdcc96256ae8d5b80,611e7216782f6bfb0580c6f3,,
,,,,space,,0,299,299,188,1,I, , , , ,space,2500,2.5,611a957a01ef665c99b74b93,001,2021-08-19_16h01.00.929,natb3,2021.2.3,MacIntel,59.99520038,611a957a01ef665c99b74b93,611e07ecdcc96256ae8d5b80,611e7216782f6bfb0580c6f3,0.5331,
,,,,,,0,300,300,95,1,V, , , , ,space,1500,1.5,611a957a01ef665c99b74b93,001,2021-08-19_16h01.00.929,natb3,2021.2.3,MacIntel,59.99520038,611a957a01ef665c99b74b93,611e07ecdcc96256ae8d5b80,611e7216782f6bfb0580c6f3,,
,,,,space,,0,301,301,286,1,N, , , , ,space,1500,1.5,611a957a01ef665c99b74b93,001,2021-08-19_16h01.00.929,natb3,2021.2.3,MacIntel,59.99520038,611a957a01ef665c99b74b93,611e07ecdcc96256ae8d5b80,611e7216782f6bfb0580c6f3,0.5505,
,,,,,,0,302,302,125,1,X, , , , ,,2000,2,611a957a01ef665c99b74b93,001,2021-08-19_16h01.00.929,natb3,2021.2.3,MacIntel,59.99520038,611a957a01ef665c99b74b93,611e07ecdcc96256ae8d5b80,611e7216782f6bfb0580c6f3,,
,,,,space,,0,303,303,157,1,A, , , , ,space,2500,2.5,611a957a01ef665c99b74b93,001,2021-08-19_16h01.00.929,natb3,2021.2.3,MacIntel,59.99520038,611a957a01ef665c99b74b93,611e07ecdcc96256ae8d5b80,611e7216782f6bfb0580c6f3,0.6332,
,,,,space,,0,304,304,167,1,K, , , , ,space,1500,1.5,611a957a01ef665c99b74b93,001,2021-08-19_16h01.00.929,natb3,2021.2.3,MacIntel,59.99520038,611a957a01ef665c99b74b93,611e07ecdcc96256ae8d5b80,611e7216782f6bfb0580c6f3,0.4627,
,,,,space,,0,305,305,184,1,T, , , , ,space,2000,2,611a957a01ef665c99b74b93,001,2021-08-19_16h01.00.929,natb3,2021.2.3,MacIntel,59.99520038,611a957a01ef665c99b74b93,611e07ecdcc96256ae8d5b80,611e7216782f6bfb0580c6f3,0.4833,
,,,,,,0,306,306,118,1,X, , , , ,,2000,2,611a957a01ef665c99b74b93,001,2021-08-19_16h01.00.929,natb3,2021.2.3,MacIntel,59.99520038,611a957a01ef665c99b74b93,611e07ecdcc96256ae8d5b80,611e7216782f6bfb0580c6f3,,
,,,,space,,0,307,307,37,1,E, , , , ,space,2500,2.5,611a957a01ef665c99b74b93,001,2021-08-19_16h01.00.929,natb3,2021.2.3,MacIntel,59.99520038,611a957a01ef665c99b74b93,611e07ecdcc96256ae8d5b80,611e7216782f6bfb0580c6f3,0.496,
,,,,,,0,308,308,158,1,X, , , , ,,1500,1.5,611a957a01ef665c99b74b93,001,2021-08-19_16h01.00.929,natb3,2021.2.3,MacIntel,59.99520038,611a957a01ef665c99b74b93,611e07ecdcc96256ae8d5b80,611e7216782f6bfb0580c6f3,,
,,,,,,0,309,309,148,1,X, , , , ,,2000,2,611a957a01ef665c99b74b93,001,2021-08-19_16h01.00.929,natb3,2021.2.3,MacIntel,59.99520038,611a957a01ef665c99b74b93,611e07ecdcc96256ae8d5b80,611e7216782f6bfb0580c6f3,,
,,,,space,,0,310,310,55,1,H, , , , ,space,2500,2.5,611a957a01ef665c99b74b93,001,2021-08-19_16h01.00.929,natb3,2021.2.3,MacIntel,59.99520038,611a957a01ef665c99b74b93,611e07ecdcc96256ae8d5b80,611e7216782f6bfb0580c6f3,0.685,
,,,,space,,0,311,311,103,1,W, , , , ,space,2000,2,611a957a01ef665c99b74b93,001,2021-08-19_16h01.00.929,natb3,2021.2.3,MacIntel,59.99520038,611a957a01ef665c99b74b93,611e07ecdcc96256ae8d5b80,611e7216782f6bfb0580c6f3,0.5959,
,,,,space,,0,312,312,196,1,F, , , , ,space,1500,1.5,611a957a01ef665c99b74b93,001,2021-08-19_16h01.00.929,natb3,2021.2.3,MacIntel,59.99520038,611a957a01ef665c99b74b93,611e07ecdcc96256ae8d5b80,611e7216782f6bfb0580c6f3,0.484,
,,,,space,,0,313,313,163,1,G, , , , ,space,2500,2.5,611a957a01ef665c99b74b93,001,2021-08-19_16h01.00.929,natb3,2021.2.3,MacIntel,59.99520038,611a957a01ef665c99b74b93,611e07ecdcc96256ae8d5b80,611e7216782f6bfb0580c6f3,0.4666,
,,,,space,,0,314,314,205,1,C, , , , ,space,2000,2,611a957a01ef665c99b74b93,001,2021-08-19_16h01.00.929,natb3,2021.2.3,MacIntel,59.99520038,611a957a01ef665c99b74b93,611e07ecdcc96256ae8d5b80,611e7216782f6bfb0580c6f3,0.5505,
,,,,space,,0,315,315,79,1,P, , , , ,space,2000,2,611a957a01ef665c99b74b93,001,2021-08-19_16h01.00.929,natb3,2021.2.3,MacIntel,59.99520038,611a957a01ef665c99b74b93,611e07ecdcc96256ae8d5b80,611e7216782f6bfb0580c6f3,0.7117,
,,,,space,,0,316,316,208,1,B, , , , ,space,1500,1.5,611a957a01ef665c99b74b93,001,2021-08-19_16h01.00.929,natb3,2021.2.3,MacIntel,59.99520038,611a957a01ef665c99b74b93,611e07ecdcc96256ae8d5b80,611e7216782f6bfb0580c6f3,0.5009,
,,,,,,0,317,317,229,1,X,8, ,2,6,,2500,2.5,611a957a01ef665c99b74b93,001,2021-08-19_16h01.00.929,natb3,2021.2.3,MacIntel,59.99520038,611a957a01ef665c99b74b93,611e07ecdcc96256ae8d5b80,611e7216782f6bfb0580c6f3,,
,,,,space,,0,318,318,320,1,B, , , , ,space,1500,1.5,611a957a01ef665c99b74b93,001,2021-08-19_16h01.00.929,natb3,2021.2.3,MacIntel,59.99520038,611a957a01ef665c99b74b93,611e07ecdcc96256ae8d5b80,611e7216782f6bfb0580c6f3,0.4992,
,,,,,,0,319,319,248,1,X, ,1,5, ,,1500,1.5,611a957a01ef665c99b74b93,001,2021-08-19_16h01.00.929,natb3,2021.2.3,MacIntel,59.99520038,611a957a01ef665c99b74b93,611e07ecdcc96256ae8d5b80,611e7216782f6bfb0580c6f3,,
,,,,space,,0,320,320,264,1,U, , , , ,space,2000,2,611a957a01ef665c99b74b93,001,2021-08-19_16h01.00.929,natb3,2021.2.3,MacIntel,59.99520038,611a957a01ef665c99b74b93,611e07ecdcc96256ae8d5b80,611e7216782f6bfb0580c6f3,0.5997,
,,,,space,,0,321,321,56,1,J, , , , ,space,1500,1.5,611a957a01ef665c99b74b93,001,2021-08-19_16h01.00.929,natb3,2021.2.3,MacIntel,59.99520038,611a957a01ef665c99b74b93,611e07ecdcc96256ae8d5b80,611e7216782f6bfb0580c6f3,0.4625,
,,,,space,,0,322,322,34,1,Q, , , , ,space,2500,2.5,611a957a01ef665c99b74b93,001,2021-08-19_16h01.00.929,natb3,2021.2.3,MacIntel,59.99520038,611a957a01ef665c99b74b93,611e07ecdcc96256ae8d5b80,611e7216782f6bfb0580c6f3,0.4669,
,,,,space,,0,323,323,290,1,W, , , , ,space,1500,1.5,611a957a01ef665c99b74b93,001,2021-08-19_16h01.00.929,natb3,2021.2.3,MacIntel,59.99520038,611a957a01ef665c99b74b93,611e07ecdcc96256ae8d5b80,611e7216782f6bfb0580c6f3,0.4112,
,,,,space,,0,324,324,5,1,T, , , , ,space,2000,2,611a957a01ef665c99b74b93,001,2021-08-19_16h01.00.929,natb3,2021.2.3,MacIntel,59.99520038,611a957a01ef665c99b74b93,611e07ecdcc96256ae8d5b80,611e7216782f6bfb0580c6f3,0.4173,
,,,,space,,0,325,325,204,1,Z, , , , ,space,2000,2,611a957a01ef665c99b74b93,001,2021-08-19_16h01.00.929,natb3,2021.2.3,MacIntel,59.99520038,611a957a01ef665c99b74b93,611e07ecdcc96256ae8d5b80,611e7216782f6bfb0580c6f3,0.3956,
,,,,space,,0,326,326,226,1,R, , , , ,space,2000,2,611a957a01ef665c99b74b93,001,2021-08-19_16h01.00.929,natb3,2021.2.3,MacIntel,59.99520038,611a957a01ef665c99b74b93,611e07ecdcc96256ae8d5b80,611e7216782f6bfb0580c6f3,0.3948,
,,,,space,,0,327,327,192,1,A, , , , ,space,2000,2,611a957a01ef665c99b74b93,001,2021-08-19_16h01.00.929,natb3,2021.2.3,MacIntel,59.99520038,611a957a01ef665c99b74b93,611e07ecdcc96256ae8d5b80,611e7216782f6bfb0580c6f3,0.4173,
,,,,space,,0,328,328,307,1,F, , , , ,space,2500,2.5,611a957a01ef665c99b74b93,001,2021-08-19_16h01.00.929,natb3,2021.2.3,MacIntel,59.99520038,611a957a01ef665c99b74b93,611e07ecdcc96256ae8d5b80,611e7216782f6bfb0580c6f3,0.4525,
,,,,space,,0,329,329,17,1,F, , , , ,space,2500,2.5,611a957a01ef665c99b74b93,001,2021-08-19_16h01.00.929,natb3,2021.2.3,MacIntel,59.99520038,611a957a01ef665c99b74b93,611e07ecdcc96256ae8d5b80,611e7216782f6bfb0580c6f3,0.4174,
,,,,,,0,330,330,233,1,X, ,2, ,5,,1500,1.5,611a957a01ef665c99b74b93,001,2021-08-19_16h01.00.929,natb3,2021.2.3,MacIntel,59.99520038,611a957a01ef665c99b74b93,611e07ecdcc96256ae8d5b80,611e7216782f6bfb0580c6f3,,
,,,,space,,0,331,331,279,1,K, , , , ,space,2500,2.5,611a957a01ef665c99b74b93,001,2021-08-19_16h01.00.929,natb3,2021.2.3,MacIntel,59.99520038,611a957a01ef665c99b74b93,611e07ecdcc96256ae8d5b80,611e7216782f6bfb0580c6f3,0.4791,
,,,,space,,0,332,332,8,1,U, , , , ,space,1500,1.5,611a957a01ef665c99b74b93,001,2021-08-19_16h01.00.929,natb3,2021.2.3,MacIntel,59.99520038,611a957a01ef665c99b74b93,611e07ecdcc96256ae8d5b80,611e7216782f6bfb0580c6f3,0.4495,
,,,,space,,0,333,333,261,1,T, , , , ,space,2000,2,611a957a01ef665c99b74b93,001,2021-08-19_16h01.00.929,natb3,2021.2.3,MacIntel,59.99520038,611a957a01ef665c99b74b93,611e07ecdcc96256ae8d5b80,611e7216782f6bfb0580c6f3,0.4854,
,,,,,,0,334,334,302,1,X, , , , ,,2000,2,611a957a01ef665c99b74b93,001,2021-08-19_16h01.00.929,natb3,2021.2.3,MacIntel,59.99520038,611a957a01ef665c99b74b93,611e07ecdcc96256ae8d5b80,611e7216782f6bfb0580c6f3,,
,,,,space,,0,335,335,326,1,W, , , , ,space,2000,2,611a957a01ef665c99b74b93,001,2021-08-19_16h01.00.929,natb3,2021.2.3,MacIntel,59.99520038,611a957a01ef665c99b74b93,611e07ecdcc96256ae8d5b80,611e7216782f6bfb0580c6f3,0.5457,
