key_resp_2.keys,key_resp_2.rt,key_resp_3.keys,key_resp_3.rt,key_resp.keys,key_resp.rt,key_resp_4.keys,trials.thisRepN,trials.thisTrialN,trials.thisN,trials.thisIndex,trials.ran,stimulus,distractor1,distractor2,distractor3,distractor4,CorrAns,isi_duration,isi_dur_in_seconds,participant,session,date,expName,psychopyVersion,OS,frameRate,PROLIFIC_PID,STUDY_ID,SESSION_ID,key_resp_4.rt
return,20.981,space,16.0666,space,0.6257,,0,0,0,223,1,Q, , , , ,space,2000,2,611bec7e3695aa64916100ce,001,2021-08-19_16h01.30.176,natb3,2021.2.3,MacIntel,60.0024001,611bec7e3695aa64916100ce,611e07ecdcc96256ae8d5b80,611e722f07a02cbd14e5a3c8,
,,,,space,0.3172,,0,1,1,77,1,O, , , , ,space,2000,2,611bec7e3695aa64916100ce,001,2021-08-19_16h01.30.176,natb3,2021.2.3,MacIntel,60.0024001,611bec7e3695aa64916100ce,611e07ecdcc96256ae8d5b80,611e722f07a02cbd14e5a3c8,
,,,,,,,0,2,2,4,1,X, , , , ,,2000,2,611bec7e3695aa64916100ce,001,2021-08-19_16h01.30.176,natb3,2021.2.3,MacIntel,60.0024001,611bec7e3695aa64916100ce,611e07ecdcc96256ae8d5b80,611e722f07a02cbd14e5a3c8,
,,,,space,0.4016,,0,3,3,202,1,L, , , , ,space,2500,2.5,611bec7e3695aa64916100ce,001,2021-08-19_16h01.30.176,natb3,2021.2.3,MacIntel,60.0024001,611bec7e3695aa64916100ce,611e07ecdcc96256ae8d5b80,611e722f07a02cbd14e5a3c8,
,,,,space,0.3328,,0,4,4,68,1,W, , , , ,space,2500,2.5,611bec7e3695aa64916100ce,001,2021-08-19_16h01.30.176,natb3,2021.2.3,MacIntel,60.0024001,611bec7e3695aa64916100ce,611e07ecdcc96256ae8d5b80,611e722f07a02cbd14e5a3c8,
,,,,space,0.3677,,0,5,5,36,1,W, , , , ,space,2000,2,611bec7e3695aa64916100ce,001,2021-08-19_16h01.30.176,natb3,2021.2.3,MacIntel,60.0024001,611bec7e3695aa64916100ce,611e07ecdcc96256ae8d5b80,611e722f07a02cbd14e5a3c8,
,,,,space,0.4314,,0,6,6,197,1,G, , , , ,space,2500,2.5,611bec7e3695aa64916100ce,001,2021-08-19_16h01.30.176,natb3,2021.2.3,MacIntel,60.0024001,611bec7e3695aa64916100ce,611e07ecdcc96256ae8d5b80,611e722f07a02cbd14e5a3c8,
,,,,space,0.4057,,0,7,7,156,1,P, , , , ,space,1500,1.5,611bec7e3695aa64916100ce,001,2021-08-19_16h01.30.176,natb3,2021.2.3,MacIntel,60.0024001,611bec7e3695aa64916100ce,611e07ecdcc96256ae8d5b80,611e722f07a02cbd14e5a3c8,
,,,,space,0.4782,,0,8,8,235,1,A, , , , ,space,1500,1.5,611bec7e3695aa64916100ce,001,2021-08-19_16h01.30.176,natb3,2021.2.3,MacIntel,60.0024001,611bec7e3695aa64916100ce,611e07ecdcc96256ae8d5b80,611e722f07a02cbd14e5a3c8,
,,,,space,0.3746,,0,9,9,72,1,T, , , , ,space,1500,1.5,611bec7e3695aa64916100ce,001,2021-08-19_16h01.30.176,natb3,2021.2.3,MacIntel,60.0024001,611bec7e3695aa64916100ce,611e07ecdcc96256ae8d5b80,611e722f07a02cbd14e5a3c8,
,,,,space,0.3861,,0,10,10,227,1,T, , , , ,space,1500,1.5,611bec7e3695aa64916100ce,001,2021-08-19_16h01.30.176,natb3,2021.2.3,MacIntel,60.0024001,611bec7e3695aa64916100ce,611e07ecdcc96256ae8d5b80,611e722f07a02cbd14e5a3c8,
,,,,space,0.4555,,0,11,11,286,1,N, , , , ,space,1500,1.5,611bec7e3695aa64916100ce,001,2021-08-19_16h01.30.176,natb3,2021.2.3,MacIntel,60.0024001,611bec7e3695aa64916100ce,611e07ecdcc96256ae8d5b80,611e722f07a02cbd14e5a3c8,
,,,,space,0.3807,,0,12,12,62,1,V, , , , ,space,1500,1.5,611bec7e3695aa64916100ce,001,2021-08-19_16h01.30.176,natb3,2021.2.3,MacIntel,60.0024001,611bec7e3695aa64916100ce,611e07ecdcc96256ae8d5b80,611e722f07a02cbd14e5a3c8,
,,,,space,0.4499,,0,13,13,140,1,B, , , , ,space,2500,2.5,611bec7e3695aa64916100ce,001,2021-08-19_16h01.30.176,natb3,2021.2.3,MacIntel,60.0024001,611bec7e3695aa64916100ce,611e07ecdcc96256ae8d5b80,611e722f07a02cbd14e5a3c8,
,,,,space,0.3572,,0,14,14,326,1,W, , , , ,space,2000,2,611bec7e3695aa64916100ce,001,2021-08-19_16h01.30.176,natb3,2021.2.3,MacIntel,60.0024001,611bec7e3695aa64916100ce,611e07ecdcc96256ae8d5b80,611e722f07a02cbd14e5a3c8,
,,,,space,0.3677,,0,15,15,217,1,T, , , , ,space,2500,2.5,611bec7e3695aa64916100ce,001,2021-08-19_16h01.30.176,natb3,2021.2.3,MacIntel,60.0024001,611bec7e3695aa64916100ce,611e07ecdcc96256ae8d5b80,611e722f07a02cbd14e5a3c8,
,,,,space,0.6462,,0,16,16,167,1,K, , , , ,space,1500,1.5,611bec7e3695aa64916100ce,001,2021-08-19_16h01.30.176,natb3,2021.2.3,MacIntel,60.0024001,611bec7e3695aa64916100ce,611e07ecdcc96256ae8d5b80,611e722f07a02cbd14e5a3c8,
,,,,space,0.3817,,0,17,17,258,1,E, , , , ,space,1500,1.5,611bec7e3695aa64916100ce,001,2021-08-19_16h01.30.176,natb3,2021.2.3,MacIntel,60.0024001,611bec7e3695aa64916100ce,611e07ecdcc96256ae8d5b80,611e722f07a02cbd14e5a3c8,
,,,,space,0.3678,,0,18,18,127,1,S, , , , ,space,2500,2.5,611bec7e3695aa64916100ce,001,2021-08-19_16h01.30.176,natb3,2021.2.3,MacIntel,60.0024001,611bec7e3695aa64916100ce,611e07ecdcc96256ae8d5b80,611e722f07a02cbd14e5a3c8,
,,,,space,0.3494,,0,19,19,260,1,R, , , , ,space,2000,2,611bec7e3695aa64916100ce,001,2021-08-19_16h01.30.176,natb3,2021.2.3,MacIntel,60.0024001,611bec7e3695aa64916100ce,611e07ecdcc96256ae8d5b80,611e722f07a02cbd14e5a3c8,
,,,,space,0.3742,,0,20,20,96,1,X, , , , ,,1500,1.5,611bec7e3695aa64916100ce,001,2021-08-19_16h01.30.176,natb3,2021.2.3,MacIntel,60.0024001,611bec7e3695aa64916100ce,611e07ecdcc96256ae8d5b80,611e722f07a02cbd14e5a3c8,
,,,,space,0.3318,,0,21,21,124,1,P, , , , ,space,2000,2,611bec7e3695aa64916100ce,001,2021-08-19_16h01.30.176,natb3,2021.2.3,MacIntel,60.0024001,611bec7e3695aa64916100ce,611e07ecdcc96256ae8d5b80,611e722f07a02cbd14e5a3c8,
,,,,,,,0,22,22,69,1,X, , , , ,,1500,1.5,611bec7e3695aa64916100ce,001,2021-08-19_16h01.30.176,natb3,2021.2.3,MacIntel,60.0024001,611bec7e3695aa64916100ce,611e07ecdcc96256ae8d5b80,611e722f07a02cbd14e5a3c8,
,,,,space,0.3896,,0,23,23,298,1,I, , , , ,space,2000,2,611bec7e3695aa64916100ce,001,2021-08-19_16h01.30.176,natb3,2021.2.3,MacIntel,60.0024001,611bec7e3695aa64916100ce,611e07ecdcc96256ae8d5b80,611e722f07a02cbd14e5a3c8,
,,,,space,0.4827,,0,24,24,199,1,J, , , , ,space,2500,2.5,611bec7e3695aa64916100ce,001,2021-08-19_16h01.30.176,natb3,2021.2.3,MacIntel,60.0024001,611bec7e3695aa64916100ce,611e07ecdcc96256ae8d5b80,611e722f07a02cbd14e5a3c8,
,,,,,,,0,25,25,138,1,X,8,5, ,3,,2000,2,611bec7e3695aa64916100ce,001,2021-08-19_16h01.30.176,natb3,2021.2.3,MacIntel,60.0024001,611bec7e3695aa64916100ce,611e07ecdcc96256ae8d5b80,611e722f07a02cbd14e5a3c8,
,,,,space,0.5085,,0,26,26,278,1,J, , , , ,space,2000,2,611bec7e3695aa64916100ce,001,2021-08-19_16h01.30.176,natb3,2021.2.3,MacIntel,60.0024001,611bec7e3695aa64916100ce,611e07ecdcc96256ae8d5b80,611e722f07a02cbd14e5a3c8,
,,,,,,,0,27,27,259,1,X,8, , ,3,,2500,2.5,611bec7e3695aa64916100ce,001,2021-08-19_16h01.30.176,natb3,2021.2.3,MacIntel,60.0024001,611bec7e3695aa64916100ce,611e07ecdcc96256ae8d5b80,611e722f07a02cbd14e5a3c8,
,,,,space,0.4386,,0,28,28,324,1,Q, , , , ,space,2000,2,611bec7e3695aa64916100ce,001,2021-08-19_16h01.30.176,natb3,2021.2.3,MacIntel,60.0024001,611bec7e3695aa64916100ce,611e07ecdcc96256ae8d5b80,611e722f07a02cbd14e5a3c8,
,,,,space,0.4105,,0,29,29,22,1,K, , , , ,space,2000,2,611bec7e3695aa64916100ce,001,2021-08-19_16h01.30.176,natb3,2021.2.3,MacIntel,60.0024001,611bec7e3695aa64916100ce,611e07ecdcc96256ae8d5b80,611e722f07a02cbd14e5a3c8,
,,,,,,,0,30,30,125,1,X, , , , ,,2000,2,611bec7e3695aa64916100ce,001,2021-08-19_16h01.30.176,natb3,2021.2.3,MacIntel,60.0024001,611bec7e3695aa64916100ce,611e07ecdcc96256ae8d5b80,611e722f07a02cbd14e5a3c8,
,,,,space,0.425,,0,31,31,256,1,Q, , , , ,space,2000,2,611bec7e3695aa64916100ce,001,2021-08-19_16h01.30.176,natb3,2021.2.3,MacIntel,60.0024001,611bec7e3695aa64916100ce,611e07ecdcc96256ae8d5b80,611e722f07a02cbd14e5a3c8,
,,,,space,0.4422,,0,32,32,169,1,L, , , , ,space,2500,2.5,611bec7e3695aa64916100ce,001,2021-08-19_16h01.30.176,natb3,2021.2.3,MacIntel,60.0024001,611bec7e3695aa64916100ce,611e07ecdcc96256ae8d5b80,611e722f07a02cbd14e5a3c8,
,,,,space,0.4504,,0,33,33,155,1,O, , , , ,space,1500,1.5,611bec7e3695aa64916100ce,001,2021-08-19_16h01.30.176,natb3,2021.2.3,MacIntel,60.0024001,611bec7e3695aa64916100ce,611e07ecdcc96256ae8d5b80,611e722f07a02cbd14e5a3c8,
,,,,space,0.6993,,0,34,34,44,1,I, , , , ,space,2500,2.5,611bec7e3695aa64916100ce,001,2021-08-19_16h01.30.176,natb3,2021.2.3,MacIntel,60.0024001,611bec7e3695aa64916100ce,611e07ecdcc96256ae8d5b80,611e722f07a02cbd14e5a3c8,
,,,,space,0.4374,,0,35,35,120,1,U, , , , ,space,1500,1.5,611bec7e3695aa64916100ce,001,2021-08-19_16h01.30.176,natb3,2021.2.3,MacIntel,60.0024001,611bec7e3695aa64916100ce,611e07ecdcc96256ae8d5b80,611e722f07a02cbd14e5a3c8,
,,,,space,0.3832,,0,36,36,308,1,G, , , , ,space,1500,1.5,611bec7e3695aa64916100ce,001,2021-08-19_16h01.30.176,natb3,2021.2.3,MacIntel,60.0024001,611bec7e3695aa64916100ce,611e07ecdcc96256ae8d5b80,611e722f07a02cbd14e5a3c8,
,,,,space,0.4185,,0,37,37,328,1,R, , , , ,space,1500,1.5,611bec7e3695aa64916100ce,001,2021-08-19_16h01.30.176,natb3,2021.2.3,MacIntel,60.0024001,611bec7e3695aa64916100ce,611e07ecdcc96256ae8d5b80,611e722f07a02cbd14e5a3c8,
,,,,space,0.4994,,0,38,38,8,1,U, , , , ,space,1500,1.5,611bec7e3695aa64916100ce,001,2021-08-19_16h01.30.176,natb3,2021.2.3,MacIntel,60.0024001,611bec7e3695aa64916100ce,611e07ecdcc96256ae8d5b80,611e722f07a02cbd14e5a3c8,
,,,,space,0.433,,0,39,39,81,1,S, , , , ,space,2000,2,611bec7e3695aa64916100ce,001,2021-08-19_16h01.30.176,natb3,2021.2.3,MacIntel,60.0024001,611bec7e3695aa64916100ce,611e07ecdcc96256ae8d5b80,611e722f07a02cbd14e5a3c8,
,,,,space,0.4735,,0,40,40,173,1,V, , , , ,space,1500,1.5,611bec7e3695aa64916100ce,001,2021-08-19_16h01.30.176,natb3,2021.2.3,MacIntel,60.0024001,611bec7e3695aa64916100ce,611e07ecdcc96256ae8d5b80,611e722f07a02cbd14e5a3c8,
,,,,space,0.5334,,0,41,41,301,1,P, , , , ,space,1500,1.5,611bec7e3695aa64916100ce,001,2021-08-19_16h01.30.176,natb3,2021.2.3,MacIntel,60.0024001,611bec7e3695aa64916100ce,611e07ecdcc96256ae8d5b80,611e722f07a02cbd14e5a3c8,
,,,,space,0.383,,0,42,42,272,1,D, , , , ,space,2000,2,611bec7e3695aa64916100ce,001,2021-08-19_16h01.30.176,natb3,2021.2.3,MacIntel,60.0024001,611bec7e3695aa64916100ce,611e07ecdcc96256ae8d5b80,611e722f07a02cbd14e5a3c8,
,,,,,,,0,43,43,98,1,X, , , , ,,2500,2.5,611bec7e3695aa64916100ce,001,2021-08-19_16h01.30.176,natb3,2021.2.3,MacIntel,60.0024001,611bec7e3695aa64916100ce,611e07ecdcc96256ae8d5b80,611e722f07a02cbd14e5a3c8,
,,,,space,0.398,,0,44,44,304,1,S, , , , ,space,2000,2,611bec7e3695aa64916100ce,001,2021-08-19_16h01.30.176,natb3,2021.2.3,MacIntel,60.0024001,611bec7e3695aa64916100ce,611e07ecdcc96256ae8d5b80,611e722f07a02cbd14e5a3c8,
,,,,space,0.4279,,0,45,45,289,1,Q, , , , ,space,2000,2,611bec7e3695aa64916100ce,001,2021-08-19_16h01.30.176,natb3,2021.2.3,MacIntel,60.0024001,611bec7e3695aa64916100ce,611e07ecdcc96256ae8d5b80,611e722f07a02cbd14e5a3c8,
,,,,space,0.4646,,0,46,46,119,1,Y, , , , ,space,2500,2.5,611bec7e3695aa64916100ce,001,2021-08-19_16h01.30.176,natb3,2021.2.3,MacIntel,60.0024001,611bec7e3695aa64916100ce,611e07ecdcc96256ae8d5b80,611e722f07a02cbd14e5a3c8,
,,,,space,0.4939,,0,47,47,303,1,A, , , , ,space,2000,2,611bec7e3695aa64916100ce,001,2021-08-19_16h01.30.176,natb3,2021.2.3,MacIntel,60.0024001,611bec7e3695aa64916100ce,611e07ecdcc96256ae8d5b80,611e722f07a02cbd14e5a3c8,
,,,,space,0.5294,,0,48,48,190,1,P, , , , ,space,2000,2,611bec7e3695aa64916100ce,001,2021-08-19_16h01.30.176,natb3,2021.2.3,MacIntel,60.0024001,611bec7e3695aa64916100ce,611e07ecdcc96256ae8d5b80,611e722f07a02cbd14e5a3c8,
,,,,space,0.325,,0,49,49,293,1,R, , , , ,space,2500,2.5,611bec7e3695aa64916100ce,001,2021-08-19_16h01.30.176,natb3,2021.2.3,MacIntel,60.0024001,611bec7e3695aa64916100ce,611e07ecdcc96256ae8d5b80,611e722f07a02cbd14e5a3c8,
,,,,space,0.3767,,0,50,50,183,1,R, , , , ,space,1500,1.5,611bec7e3695aa64916100ce,001,2021-08-19_16h01.30.176,natb3,2021.2.3,MacIntel,60.0024001,611bec7e3695aa64916100ce,611e07ecdcc96256ae8d5b80,611e722f07a02cbd14e5a3c8,
,,,,,,,0,51,51,195,1,X, , , , ,,1500,1.5,611bec7e3695aa64916100ce,001,2021-08-19_16h01.30.176,natb3,2021.2.3,MacIntel,60.0024001,611bec7e3695aa64916100ce,611e07ecdcc96256ae8d5b80,611e722f07a02cbd14e5a3c8,
,,,,space,0.3159,,0,52,52,241,1,G, , , , ,space,2500,2.5,611bec7e3695aa64916100ce,001,2021-08-19_16h01.30.176,natb3,2021.2.3,MacIntel,60.0024001,611bec7e3695aa64916100ce,611e07ecdcc96256ae8d5b80,611e722f07a02cbd14e5a3c8,
,,,,space,0.358,,0,53,53,244,1,J, , , , ,space,1500,1.5,611bec7e3695aa64916100ce,001,2021-08-19_16h01.30.176,natb3,2021.2.3,MacIntel,60.0024001,611bec7e3695aa64916100ce,611e07ecdcc96256ae8d5b80,611e722f07a02cbd14e5a3c8,
,,,,space,0.3511,,0,54,54,42,1,U, , , , ,space,1500,1.5,611bec7e3695aa64916100ce,001,2021-08-19_16h01.30.176,natb3,2021.2.3,MacIntel,60.0024001,611bec7e3695aa64916100ce,611e07ecdcc96256ae8d5b80,611e722f07a02cbd14e5a3c8,
,,,,space,0.343,,0,55,55,106,1,T, , , , ,space,1500,1.5,611bec7e3695aa64916100ce,001,2021-08-19_16h01.30.176,natb3,2021.2.3,MacIntel,60.0024001,611bec7e3695aa64916100ce,611e07ecdcc96256ae8d5b80,611e722f07a02cbd14e5a3c8,
,,,,,,,0,56,56,102,1,X, ,6, , ,,1500,1.5,611bec7e3695aa64916100ce,001,2021-08-19_16h01.30.176,natb3,2021.2.3,MacIntel,60.0024001,611bec7e3695aa64916100ce,611e07ecdcc96256ae8d5b80,611e722f07a02cbd14e5a3c8,
,,,,,,,0,57,57,116,1,X, , , , ,,2000,2,611bec7e3695aa64916100ce,001,2021-08-19_16h01.30.176,natb3,2021.2.3,MacIntel,60.0024001,611bec7e3695aa64916100ce,611e07ecdcc96256ae8d5b80,611e722f07a02cbd14e5a3c8,
,,,,,,,0,58,58,182,1,X, , , , ,,1500,1.5,611bec7e3695aa64916100ce,001,2021-08-19_16h01.30.176,natb3,2021.2.3,MacIntel,60.0024001,611bec7e3695aa64916100ce,611e07ecdcc96256ae8d5b80,611e722f07a02cbd14e5a3c8,
,,,,space,0.3694,,0,59,59,193,1,S, , , , ,space,2500,2.5,611bec7e3695aa64916100ce,001,2021-08-19_16h01.30.176,natb3,2021.2.3,MacIntel,60.0024001,611bec7e3695aa64916100ce,611e07ecdcc96256ae8d5b80,611e722f07a02cbd14e5a3c8,
,,,,,,,0,60,60,305,1,X, , , , ,,1500,1.5,611bec7e3695aa64916100ce,001,2021-08-19_16h01.30.176,natb3,2021.2.3,MacIntel,60.0024001,611bec7e3695aa64916100ce,611e07ecdcc96256ae8d5b80,611e722f07a02cbd14e5a3c8,
,,,,,,,0,61,61,66,1,X, ,4,7, ,,2000,2,611bec7e3695aa64916100ce,001,2021-08-19_16h01.30.176,natb3,2021.2.3,MacIntel,60.0024001,611bec7e3695aa64916100ce,611e07ecdcc96256ae8d5b80,611e722f07a02cbd14e5a3c8,
,,,,space,0.8587,,0,62,62,242,1,H, , , , ,space,2500,2.5,611bec7e3695aa64916100ce,001,2021-08-19_16h01.30.176,natb3,2021.2.3,MacIntel,60.0024001,611bec7e3695aa64916100ce,611e07ecdcc96256ae8d5b80,611e722f07a02cbd14e5a3c8,
,,,,,,,0,63,63,60,1,X,7,3,5, ,,1500,1.5,611bec7e3695aa64916100ce,001,2021-08-19_16h01.30.176,natb3,2021.2.3,MacIntel,60.0024001,611bec7e3695aa64916100ce,611e07ecdcc96256ae8d5b80,611e722f07a02cbd14e5a3c8,
,,,,space,0.4161,,0,64,64,52,1,F, , , , ,space,1500,1.5,611bec7e3695aa64916100ce,001,2021-08-19_16h01.30.176,natb3,2021.2.3,MacIntel,60.0024001,611bec7e3695aa64916100ce,611e07ecdcc96256ae8d5b80,611e722f07a02cbd14e5a3c8,
,,,,space,0.7835,,0,65,65,246,1,L, , , , ,space,2500,2.5,611bec7e3695aa64916100ce,001,2021-08-19_16h01.30.176,natb3,2021.2.3,MacIntel,60.0024001,611bec7e3695aa64916100ce,611e07ecdcc96256ae8d5b80,611e722f07a02cbd14e5a3c8,
,,,,,,,0,66,66,271,1,X, , , , ,,2500,2.5,611bec7e3695aa64916100ce,001,2021-08-19_16h01.30.176,natb3,2021.2.3,MacIntel,60.0024001,611bec7e3695aa64916100ce,611e07ecdcc96256ae8d5b80,611e722f07a02cbd14e5a3c8,
,,,,space,0.4158,,0,67,67,212,1,Q, , , , ,space,2500,2.5,611bec7e3695aa64916100ce,001,2021-08-19_16h01.30.176,natb3,2021.2.3,MacIntel,60.0024001,611bec7e3695aa64916100ce,611e07ecdcc96256ae8d5b80,611e722f07a02cbd14e5a3c8,
,,,,space,0.4488,,0,68,68,300,1,O, , , , ,space,2500,2.5,611bec7e3695aa64916100ce,001,2021-08-19_16h01.30.176,natb3,2021.2.3,MacIntel,60.0024001,611bec7e3695aa64916100ce,611e07ecdcc96256ae8d5b80,611e722f07a02cbd14e5a3c8,
,,,,space,0.4815,,0,69,69,172,1,C, , , , ,space,1500,1.5,611bec7e3695aa64916100ce,001,2021-08-19_16h01.30.176,natb3,2021.2.3,MacIntel,60.0024001,611bec7e3695aa64916100ce,611e07ecdcc96256ae8d5b80,611e722f07a02cbd14e5a3c8,
,,,,space,0.4834,,0,70,70,265,1,I, , , , ,space,2000,2,611bec7e3695aa64916100ce,001,2021-08-19_16h01.30.176,natb3,2021.2.3,MacIntel,60.0024001,611bec7e3695aa64916100ce,611e07ecdcc96256ae8d5b80,611e722f07a02cbd14e5a3c8,
,,,,space,0.4837,,0,71,71,64,1,N, , , , ,space,2000,2,611bec7e3695aa64916100ce,001,2021-08-19_16h01.30.176,natb3,2021.2.3,MacIntel,60.0024001,611bec7e3695aa64916100ce,611e07ecdcc96256ae8d5b80,611e722f07a02cbd14e5a3c8,
,,,,,,,0,72,72,39,1,X,6,2, , ,,1500,1.5,611bec7e3695aa64916100ce,001,2021-08-19_16h01.30.176,natb3,2021.2.3,MacIntel,60.0024001,611bec7e3695aa64916100ce,611e07ecdcc96256ae8d5b80,611e722f07a02cbd14e5a3c8,
,,,,space,0.331,,0,73,73,43,1,X, ,6, ,2,,2500,2.5,611bec7e3695aa64916100ce,001,2021-08-19_16h01.30.176,natb3,2021.2.3,MacIntel,60.0024001,611bec7e3695aa64916100ce,611e07ecdcc96256ae8d5b80,611e722f07a02cbd14e5a3c8,
,,,,space,0.6158,,0,74,74,239,1,X, , , , ,,2000,2,611bec7e3695aa64916100ce,001,2021-08-19_16h01.30.176,natb3,2021.2.3,MacIntel,60.0024001,611bec7e3695aa64916100ce,611e07ecdcc96256ae8d5b80,611e722f07a02cbd14e5a3c8,
,,,,,,,0,75,75,277,1,X,8,5, ,2,,2000,2,611bec7e3695aa64916100ce,001,2021-08-19_16h01.30.176,natb3,2021.2.3,MacIntel,60.0024001,611bec7e3695aa64916100ce,611e07ecdcc96256ae8d5b80,611e722f07a02cbd14e5a3c8,
,,,,space,0.6489,,0,76,76,130,1,F, , , , ,space,2000,2,611bec7e3695aa64916100ce,001,2021-08-19_16h01.30.176,natb3,2021.2.3,MacIntel,60.0024001,611bec7e3695aa64916100ce,611e07ecdcc96256ae8d5b80,611e722f07a02cbd14e5a3c8,
,,,,space,0.6155,,0,77,77,13,1,A, , , , ,space,2000,2,611bec7e3695aa64916100ce,001,2021-08-19_16h01.30.176,natb3,2021.2.3,MacIntel,60.0024001,611bec7e3695aa64916100ce,611e07ecdcc96256ae8d5b80,611e722f07a02cbd14e5a3c8,
,,,,space,0.5171,,0,78,78,123,1,O, , , , ,space,1500,1.5,611bec7e3695aa64916100ce,001,2021-08-19_16h01.30.176,natb3,2021.2.3,MacIntel,60.0024001,611bec7e3695aa64916100ce,611e07ecdcc96256ae8d5b80,611e722f07a02cbd14e5a3c8,
,,,,space,0.5489,,0,79,79,30,1,N, , , , ,space,2500,2.5,611bec7e3695aa64916100ce,001,2021-08-19_16h01.30.176,natb3,2021.2.3,MacIntel,60.0024001,611bec7e3695aa64916100ce,611e07ecdcc96256ae8d5b80,611e722f07a02cbd14e5a3c8,
,,,,space,0.3848,,0,80,80,70,1,E, , , , ,space,2500,2.5,611bec7e3695aa64916100ce,001,2021-08-19_16h01.30.176,natb3,2021.2.3,MacIntel,60.0024001,611bec7e3695aa64916100ce,611e07ecdcc96256ae8d5b80,611e722f07a02cbd14e5a3c8,
,,,,space,0.4327,,0,81,81,163,1,G, , , , ,space,2500,2.5,611bec7e3695aa64916100ce,001,2021-08-19_16h01.30.176,natb3,2021.2.3,MacIntel,60.0024001,611bec7e3695aa64916100ce,611e07ecdcc96256ae8d5b80,611e722f07a02cbd14e5a3c8,
,,,,space,0.4683,,0,82,82,181,1,E, , , , ,space,1500,1.5,611bec7e3695aa64916100ce,001,2021-08-19_16h01.30.176,natb3,2021.2.3,MacIntel,60.0024001,611bec7e3695aa64916100ce,611e07ecdcc96256ae8d5b80,611e722f07a02cbd14e5a3c8,
,,,,,,,0,83,83,18,1,X, ,2,5,8,,2500,2.5,611bec7e3695aa64916100ce,001,2021-08-19_16h01.30.176,natb3,2021.2.3,MacIntel,60.0024001,611bec7e3695aa64916100ce,611e07ecdcc96256ae8d5b80,611e722f07a02cbd14e5a3c8,
,,,,space,0.4508,,0,84,84,151,1,Y, , , , ,space,2500,2.5,611bec7e3695aa64916100ce,001,2021-08-19_16h01.30.176,natb3,2021.2.3,MacIntel,60.0024001,611bec7e3695aa64916100ce,611e07ecdcc96256ae8d5b80,611e722f07a02cbd14e5a3c8,
,,,,space,0.5328,,0,85,85,274,1,F, , , , ,space,2000,2,611bec7e3695aa64916100ce,001,2021-08-19_16h01.30.176,natb3,2021.2.3,MacIntel,60.0024001,611bec7e3695aa64916100ce,611e07ecdcc96256ae8d5b80,611e722f07a02cbd14e5a3c8,
,,,,space,0.3819,,0,86,86,114,1,E, , , , ,space,2000,2,611bec7e3695aa64916100ce,001,2021-08-19_16h01.30.176,natb3,2021.2.3,MacIntel,60.0024001,611bec7e3695aa64916100ce,611e07ecdcc96256ae8d5b80,611e722f07a02cbd14e5a3c8,
,,,,space,0.5672,,0,87,87,279,1,K, , , , ,space,2500,2.5,611bec7e3695aa64916100ce,001,2021-08-19_16h01.30.176,natb3,2021.2.3,MacIntel,60.0024001,611bec7e3695aa64916100ce,611e07ecdcc96256ae8d5b80,611e722f07a02cbd14e5a3c8,
,,,,,,,0,88,88,255,1,X, , , , ,,1500,1.5,611bec7e3695aa64916100ce,001,2021-08-19_16h01.30.176,natb3,2021.2.3,MacIntel,60.0024001,611bec7e3695aa64916100ce,611e07ecdcc96256ae8d5b80,611e722f07a02cbd14e5a3c8,
,,,,space,0.5095,,0,89,89,188,1,I, , , , ,space,2500,2.5,611bec7e3695aa64916100ce,001,2021-08-19_16h01.30.176,natb3,2021.2.3,MacIntel,60.0024001,611bec7e3695aa64916100ce,611e07ecdcc96256ae8d5b80,611e722f07a02cbd14e5a3c8,
,,,,space,0.6011,,0,90,90,226,1,R, , , , ,space,2000,2,611bec7e3695aa64916100ce,001,2021-08-19_16h01.30.176,natb3,2021.2.3,MacIntel,60.0024001,611bec7e3695aa64916100ce,611e07ecdcc96256ae8d5b80,611e722f07a02cbd14e5a3c8,
,,,,space,0.3992,,0,91,91,131,1,G, , , , ,space,1500,1.5,611bec7e3695aa64916100ce,001,2021-08-19_16h01.30.176,natb3,2021.2.3,MacIntel,60.0024001,611bec7e3695aa64916100ce,611e07ecdcc96256ae8d5b80,611e722f07a02cbd14e5a3c8,
,,,,space,0.4672,,0,92,92,283,1,C, , , , ,space,1500,1.5,611bec7e3695aa64916100ce,001,2021-08-19_16h01.30.176,natb3,2021.2.3,MacIntel,60.0024001,611bec7e3695aa64916100ce,611e07ecdcc96256ae8d5b80,611e722f07a02cbd14e5a3c8,
,,,,space,0.4661,,0,93,93,198,1,H, , , , ,space,2500,2.5,611bec7e3695aa64916100ce,001,2021-08-19_16h01.30.176,natb3,2021.2.3,MacIntel,60.0024001,611bec7e3695aa64916100ce,611e07ecdcc96256ae8d5b80,611e722f07a02cbd14e5a3c8,
,,,,space,0.4339,,0,94,94,196,1,F, , , , ,space,1500,1.5,611bec7e3695aa64916100ce,001,2021-08-19_16h01.30.176,natb3,2021.2.3,MacIntel,60.0024001,611bec7e3695aa64916100ce,611e07ecdcc96256ae8d5b80,611e722f07a02cbd14e5a3c8,
,,,,space,0.401,,0,95,95,288,1,M, , , , ,space,1500,1.5,611bec7e3695aa64916100ce,001,2021-08-19_16h01.30.176,natb3,2021.2.3,MacIntel,60.0024001,611bec7e3695aa64916100ce,611e07ecdcc96256ae8d5b80,611e722f07a02cbd14e5a3c8,
,,,,,,,0,96,96,93,1,X,5, ,7, ,,2500,2.5,611bec7e3695aa64916100ce,001,2021-08-19_16h01.30.176,natb3,2021.2.3,MacIntel,60.0024001,611bec7e3695aa64916100ce,611e07ecdcc96256ae8d5b80,611e722f07a02cbd14e5a3c8,
,,,,space,0.4344,,0,97,97,185,1,Y, , , , ,space,2500,2.5,611bec7e3695aa64916100ce,001,2021-08-19_16h01.30.176,natb3,2021.2.3,MacIntel,60.0024001,611bec7e3695aa64916100ce,611e07ecdcc96256ae8d5b80,611e722f07a02cbd14e5a3c8,
,,,,,,,0,98,98,315,1,X, , , , ,,2500,2.5,611bec7e3695aa64916100ce,001,2021-08-19_16h01.30.176,natb3,2021.2.3,MacIntel,60.0024001,611bec7e3695aa64916100ce,611e07ecdcc96256ae8d5b80,611e722f07a02cbd14e5a3c8,
,,,,space,0.4176,,0,99,99,58,1,L, , , , ,space,2000,2,611bec7e3695aa64916100ce,001,2021-08-19_16h01.30.176,natb3,2021.2.3,MacIntel,60.0024001,611bec7e3695aa64916100ce,611e07ecdcc96256ae8d5b80,611e722f07a02cbd14e5a3c8,
,,,,space,0.4675,,0,100,100,63,1,B, , , , ,space,2000,2,611bec7e3695aa64916100ce,001,2021-08-19_16h01.30.176,natb3,2021.2.3,MacIntel,60.0024001,611bec7e3695aa64916100ce,611e07ecdcc96256ae8d5b80,611e722f07a02cbd14e5a3c8,
,,,,space,0.5341,,0,101,101,57,1,K, , , , ,space,2500,2.5,611bec7e3695aa64916100ce,001,2021-08-19_16h01.30.176,natb3,2021.2.3,MacIntel,60.0024001,611bec7e3695aa64916100ce,611e07ecdcc96256ae8d5b80,611e722f07a02cbd14e5a3c8,
,,,,,,,0,102,102,171,1,X, , , , ,,1500,1.5,611bec7e3695aa64916100ce,001,2021-08-19_16h01.30.176,natb3,2021.2.3,MacIntel,60.0024001,611bec7e3695aa64916100ce,611e07ecdcc96256ae8d5b80,611e722f07a02cbd14e5a3c8,
,,,,space,0.5672,,0,103,103,216,1,R, , , , ,space,1500,1.5,611bec7e3695aa64916100ce,001,2021-08-19_16h01.30.176,natb3,2021.2.3,MacIntel,60.0024001,611bec7e3695aa64916100ce,611e07ecdcc96256ae8d5b80,611e722f07a02cbd14e5a3c8,
,,,,space,0.5837,,0,104,104,59,1,Z, , , , ,space,2000,2,611bec7e3695aa64916100ce,001,2021-08-19_16h01.30.176,natb3,2021.2.3,MacIntel,60.0024001,611bec7e3695aa64916100ce,611e07ecdcc96256ae8d5b80,611e722f07a02cbd14e5a3c8,
,,,,space,0.4819,,0,105,105,26,1,C, , , , ,space,2000,2,611bec7e3695aa64916100ce,001,2021-08-19_16h01.30.176,natb3,2021.2.3,MacIntel,60.0024001,611bec7e3695aa64916100ce,611e07ecdcc96256ae8d5b80,611e722f07a02cbd14e5a3c8,
,,,,,,,0,106,106,15,1,X, , , , ,,1500,1.5,611bec7e3695aa64916100ce,001,2021-08-19_16h01.30.176,natb3,2021.2.3,MacIntel,60.0024001,611bec7e3695aa64916100ce,611e07ecdcc96256ae8d5b80,611e722f07a02cbd14e5a3c8,
,,,,space,0.4331,,0,107,107,174,1,B, , , , ,space,2500,2.5,611bec7e3695aa64916100ce,001,2021-08-19_16h01.30.176,natb3,2021.2.3,MacIntel,60.0024001,611bec7e3695aa64916100ce,611e07ecdcc96256ae8d5b80,611e722f07a02cbd14e5a3c8,
,,,,,,,0,108,108,207,1,X,9, ,2, ,,2500,2.5,611bec7e3695aa64916100ce,001,2021-08-19_16h01.30.176,natb3,2021.2.3,MacIntel,60.0024001,611bec7e3695aa64916100ce,611e07ecdcc96256ae8d5b80,611e722f07a02cbd14e5a3c8,
,,,,space,0.4568,,0,109,109,261,1,T, , , , ,space,2000,2,611bec7e3695aa64916100ce,001,2021-08-19_16h01.30.176,natb3,2021.2.3,MacIntel,60.0024001,611bec7e3695aa64916100ce,611e07ecdcc96256ae8d5b80,611e722f07a02cbd14e5a3c8,
,,,,space,0.4177,,0,110,110,180,1,W, , , , ,space,2000,2,611bec7e3695aa64916100ce,001,2021-08-19_16h01.30.176,natb3,2021.2.3,MacIntel,60.0024001,611bec7e3695aa64916100ce,611e07ecdcc96256ae8d5b80,611e722f07a02cbd14e5a3c8,
,,,,space,0.4934,,0,111,111,270,1,S, , , , ,space,1500,1.5,611bec7e3695aa64916100ce,001,2021-08-19_16h01.30.176,natb3,2021.2.3,MacIntel,60.0024001,611bec7e3695aa64916100ce,611e07ecdcc96256ae8d5b80,611e722f07a02cbd14e5a3c8,
,,,,space,0.4974,,0,112,112,262,1,Y, , , , ,space,2500,2.5,611bec7e3695aa64916100ce,001,2021-08-19_16h01.30.176,natb3,2021.2.3,MacIntel,60.0024001,611bec7e3695aa64916100ce,611e07ecdcc96256ae8d5b80,611e722f07a02cbd14e5a3c8,
,,,,,,,0,113,113,54,1,X, , , , ,,2000,2,611bec7e3695aa64916100ce,001,2021-08-19_16h01.30.176,natb3,2021.2.3,MacIntel,60.0024001,611bec7e3695aa64916100ce,611e07ecdcc96256ae8d5b80,611e722f07a02cbd14e5a3c8,
,,,,,,,0,114,114,263,1,X,4, ,6, ,,1500,1.5,611bec7e3695aa64916100ce,001,2021-08-19_16h01.30.176,natb3,2021.2.3,MacIntel,60.0024001,611bec7e3695aa64916100ce,611e07ecdcc96256ae8d5b80,611e722f07a02cbd14e5a3c8,
,,,,space,0.7108,,0,115,115,76,1,I, , , , ,space,2000,2,611bec7e3695aa64916100ce,001,2021-08-19_16h01.30.176,natb3,2021.2.3,MacIntel,60.0024001,611bec7e3695aa64916100ce,611e07ecdcc96256ae8d5b80,611e722f07a02cbd14e5a3c8,
,,,,space,0.5252,,0,116,116,86,1,G, , , , ,space,2000,2,611bec7e3695aa64916100ce,001,2021-08-19_16h01.30.176,natb3,2021.2.3,MacIntel,60.0024001,611bec7e3695aa64916100ce,611e07ecdcc96256ae8d5b80,611e722f07a02cbd14e5a3c8,
,,,,space,0.6399,,0,117,117,143,1,M, , , , ,space,2500,2.5,611bec7e3695aa64916100ce,001,2021-08-19_16h01.30.176,natb3,2021.2.3,MacIntel,60.0024001,611bec7e3695aa64916100ce,611e07ecdcc96256ae8d5b80,611e722f07a02cbd14e5a3c8,
,,,,space,0.3802,,0,118,118,211,1,X, , , , ,,2500,2.5,611bec7e3695aa64916100ce,001,2021-08-19_16h01.30.176,natb3,2021.2.3,MacIntel,60.0024001,611bec7e3695aa64916100ce,611e07ecdcc96256ae8d5b80,611e722f07a02cbd14e5a3c8,
,,,,space,0.4162,,0,119,119,65,1,M, , , , ,space,1500,1.5,611bec7e3695aa64916100ce,001,2021-08-19_16h01.30.176,natb3,2021.2.3,MacIntel,60.0024001,611bec7e3695aa64916100ce,611e07ecdcc96256ae8d5b80,611e722f07a02cbd14e5a3c8,
,,,,space,0.4828,,0,120,120,225,1,E, , , , ,space,2000,2,611bec7e3695aa64916100ce,001,2021-08-19_16h01.30.176,natb3,2021.2.3,MacIntel,60.0024001,611bec7e3695aa64916100ce,611e07ecdcc96256ae8d5b80,611e722f07a02cbd14e5a3c8,
,,,,space,0.5313,,0,121,121,83,1,D, , , , ,space,2000,2,611bec7e3695aa64916100ce,001,2021-08-19_16h01.30.176,natb3,2021.2.3,MacIntel,60.0024001,611bec7e3695aa64916100ce,611e07ecdcc96256ae8d5b80,611e722f07a02cbd14e5a3c8,
,,,,space,0.5078,,0,122,122,164,1,H, , , , ,space,2500,2.5,611bec7e3695aa64916100ce,001,2021-08-19_16h01.30.176,natb3,2021.2.3,MacIntel,60.0024001,611bec7e3695aa64916100ce,611e07ecdcc96256ae8d5b80,611e722f07a02cbd14e5a3c8,
,,,,space,0.6402,,0,123,123,146,1,W, , , , ,space,1500,1.5,611bec7e3695aa64916100ce,001,2021-08-19_16h01.30.176,natb3,2021.2.3,MacIntel,60.0024001,611bec7e3695aa64916100ce,611e07ecdcc96256ae8d5b80,611e722f07a02cbd14e5a3c8,
,,,,space,0.5077,,0,124,124,294,1,T, , , , ,space,2000,2,611bec7e3695aa64916100ce,001,2021-08-19_16h01.30.176,natb3,2021.2.3,MacIntel,60.0024001,611bec7e3695aa64916100ce,611e07ecdcc96256ae8d5b80,611e722f07a02cbd14e5a3c8,
,,,,space,0.4324,,0,125,125,154,1,I, , , , ,space,2500,2.5,611bec7e3695aa64916100ce,001,2021-08-19_16h01.30.176,natb3,2021.2.3,MacIntel,60.0024001,611bec7e3695aa64916100ce,611e07ecdcc96256ae8d5b80,611e722f07a02cbd14e5a3c8,
,,,,space,0.5466,,0,126,126,215,1,E, , , , ,space,2500,2.5,611bec7e3695aa64916100ce,001,2021-08-19_16h01.30.176,natb3,2021.2.3,MacIntel,60.0024001,611bec7e3695aa64916100ce,611e07ecdcc96256ae8d5b80,611e722f07a02cbd14e5a3c8,
,,,,space,0.6619,,0,127,127,327,1,E, , , , ,space,1500,1.5,611bec7e3695aa64916100ce,001,2021-08-19_16h01.30.176,natb3,2021.2.3,MacIntel,60.0024001,611bec7e3695aa64916100ce,611e07ecdcc96256ae8d5b80,611e722f07a02cbd14e5a3c8,
,,,,space,0.6233,,0,128,128,71,1,R, , , , ,space,2500,2.5,611bec7e3695aa64916100ce,001,2021-08-19_16h01.30.176,natb3,2021.2.3,MacIntel,60.0024001,611bec7e3695aa64916100ce,611e07ecdcc96256ae8d5b80,611e722f07a02cbd14e5a3c8,
,,,,space,0.5228,,0,129,129,320,1,B, , , , ,space,1500,1.5,611bec7e3695aa64916100ce,001,2021-08-19_16h01.30.176,natb3,2021.2.3,MacIntel,60.0024001,611bec7e3695aa64916100ce,611e07ecdcc96256ae8d5b80,611e722f07a02cbd14e5a3c8,
,,,,space,0.6694,,0,130,130,251,1,B, , , , ,space,1500,1.5,611bec7e3695aa64916100ce,001,2021-08-19_16h01.30.176,natb3,2021.2.3,MacIntel,60.0024001,611bec7e3695aa64916100ce,611e07ecdcc96256ae8d5b80,611e722f07a02cbd14e5a3c8,
,,,,space,0.4883,,0,131,131,184,1,T, , , , ,space,2000,2,611bec7e3695aa64916100ce,001,2021-08-19_16h01.30.176,natb3,2021.2.3,MacIntel,60.0024001,611bec7e3695aa64916100ce,611e07ecdcc96256ae8d5b80,611e722f07a02cbd14e5a3c8,
,,,,space,0.4783,,0,132,132,94,1,C, , , , ,space,2000,2,611bec7e3695aa64916100ce,001,2021-08-19_16h01.30.176,natb3,2021.2.3,MacIntel,60.0024001,611bec7e3695aa64916100ce,611e07ecdcc96256ae8d5b80,611e722f07a02cbd14e5a3c8,
,,,,space,0.6247,,0,133,133,49,1,S, , , , ,space,1500,1.5,611bec7e3695aa64916100ce,001,2021-08-19_16h01.30.176,natb3,2021.2.3,MacIntel,60.0024001,611bec7e3695aa64916100ce,611e07ecdcc96256ae8d5b80,611e722f07a02cbd14e5a3c8,
,,,,space,0.5654,,0,134,134,5,1,T, , , , ,space,2000,2,611bec7e3695aa64916100ce,001,2021-08-19_16h01.30.176,natb3,2021.2.3,MacIntel,60.0024001,611bec7e3695aa64916100ce,611e07ecdcc96256ae8d5b80,611e722f07a02cbd14e5a3c8,
,,,,space,0.5572,,0,135,135,6,1,Y, , , , ,space,2500,2.5,611bec7e3695aa64916100ce,001,2021-08-19_16h01.30.176,natb3,2021.2.3,MacIntel,60.0024001,611bec7e3695aa64916100ce,611e07ecdcc96256ae8d5b80,611e722f07a02cbd14e5a3c8,
,,,,space,0.4522,,0,136,136,142,1,N, , , , ,space,2500,2.5,611bec7e3695aa64916100ce,001,2021-08-19_16h01.30.176,natb3,2021.2.3,MacIntel,60.0024001,611bec7e3695aa64916100ce,611e07ecdcc96256ae8d5b80,611e722f07a02cbd14e5a3c8,
,,,,space,0.5497,,0,137,137,297,1,U, , , , ,space,2000,2,611bec7e3695aa64916100ce,001,2021-08-19_16h01.30.176,natb3,2021.2.3,MacIntel,60.0024001,611bec7e3695aa64916100ce,611e07ecdcc96256ae8d5b80,611e722f07a02cbd14e5a3c8,
,,,,space,0.5077,,0,138,138,250,1,V, , , , ,space,2000,2,611bec7e3695aa64916100ce,001,2021-08-19_16h01.30.176,natb3,2021.2.3,MacIntel,60.0024001,611bec7e3695aa64916100ce,611e07ecdcc96256ae8d5b80,611e722f07a02cbd14e5a3c8,
,,,,space,0.5212,,0,139,139,1,1,W, , , , ,space,2000,2,611bec7e3695aa64916100ce,001,2021-08-19_16h01.30.176,natb3,2021.2.3,MacIntel,60.0024001,611bec7e3695aa64916100ce,611e07ecdcc96256ae8d5b80,611e722f07a02cbd14e5a3c8,
,,,,space,0.4323,,0,140,140,220,1,U, , , , ,space,2500,2.5,611bec7e3695aa64916100ce,001,2021-08-19_16h01.30.176,natb3,2021.2.3,MacIntel,60.0024001,611bec7e3695aa64916100ce,611e07ecdcc96256ae8d5b80,611e722f07a02cbd14e5a3c8,
,,,,,,,0,141,141,252,1,X,3, ,6,9,,2000,2,611bec7e3695aa64916100ce,001,2021-08-19_16h01.30.176,natb3,2021.2.3,MacIntel,60.0024001,611bec7e3695aa64916100ce,611e07ecdcc96256ae8d5b80,611e722f07a02cbd14e5a3c8,
,,,,,,,0,142,142,335,1,P,,,,,space,1500,1.5,611bec7e3695aa64916100ce,001,2021-08-19_16h01.30.176,natb3,2021.2.3,MacIntel,60.0024001,611bec7e3695aa64916100ce,611e07ecdcc96256ae8d5b80,611e722f07a02cbd14e5a3c8,
,,,,space,0.8627,,0,143,143,281,1,Z, , , , ,space,1500,1.5,611bec7e3695aa64916100ce,001,2021-08-19_16h01.30.176,natb3,2021.2.3,MacIntel,60.0024001,611bec7e3695aa64916100ce,611e07ecdcc96256ae8d5b80,611e722f07a02cbd14e5a3c8,
,,,,space,0.7324,,0,144,144,150,1,T, , , , ,space,2500,2.5,611bec7e3695aa64916100ce,001,2021-08-19_16h01.30.176,natb3,2021.2.3,MacIntel,60.0024001,611bec7e3695aa64916100ce,611e07ecdcc96256ae8d5b80,611e722f07a02cbd14e5a3c8,
,,,,space,0.6575,,0,145,145,245,1,K, , , , ,space,2000,2,611bec7e3695aa64916100ce,001,2021-08-19_16h01.30.176,natb3,2021.2.3,MacIntel,60.0024001,611bec7e3695aa64916100ce,611e07ecdcc96256ae8d5b80,611e722f07a02cbd14e5a3c8,
,,,,space,0.5441,,0,146,146,135,1,K, , , , ,space,1500,1.5,611bec7e3695aa64916100ce,001,2021-08-19_16h01.30.176,natb3,2021.2.3,MacIntel,60.0024001,611bec7e3695aa64916100ce,611e07ecdcc96256ae8d5b80,611e722f07a02cbd14e5a3c8,
,,,,space,0.4203,,0,147,147,323,1,M, , , , ,space,2500,2.5,611bec7e3695aa64916100ce,001,2021-08-19_16h01.30.176,natb3,2021.2.3,MacIntel,60.0024001,611bec7e3695aa64916100ce,611e07ecdcc96256ae8d5b80,611e722f07a02cbd14e5a3c8,
,,,,space,0.3814,,0,148,148,117,1,T, , , , ,space,2500,2.5,611bec7e3695aa64916100ce,001,2021-08-19_16h01.30.176,natb3,2021.2.3,MacIntel,60.0024001,611bec7e3695aa64916100ce,611e07ecdcc96256ae8d5b80,611e722f07a02cbd14e5a3c8,
,,,,space,0.4313,,0,149,149,209,1,N, , , , ,space,2000,2,611bec7e3695aa64916100ce,001,2021-08-19_16h01.30.176,natb3,2021.2.3,MacIntel,60.0024001,611bec7e3695aa64916100ce,611e07ecdcc96256ae8d5b80,611e722f07a02cbd14e5a3c8,
,,,,space,0.6407,,0,150,150,330,1,T, , , , ,space,2500,2.5,611bec7e3695aa64916100ce,001,2021-08-19_16h01.30.176,natb3,2021.2.3,MacIntel,60.0024001,611bec7e3695aa64916100ce,611e07ecdcc96256ae8d5b80,611e722f07a02cbd14e5a3c8,
,,,,space,0.7236,,0,151,151,109,1,U, , , , ,space,1500,1.5,611bec7e3695aa64916100ce,001,2021-08-19_16h01.30.176,natb3,2021.2.3,MacIntel,60.0024001,611bec7e3695aa64916100ce,611e07ecdcc96256ae8d5b80,611e722f07a02cbd14e5a3c8,
,,,,space,0.4137,,0,152,152,194,1,D, , , , ,space,2000,2,611bec7e3695aa64916100ce,001,2021-08-19_16h01.30.176,natb3,2021.2.3,MacIntel,60.0024001,611bec7e3695aa64916100ce,611e07ecdcc96256ae8d5b80,611e722f07a02cbd14e5a3c8,
,,,,space,0.5032,,0,153,153,296,1,Y, , , , ,space,2500,2.5,611bec7e3695aa64916100ce,001,2021-08-19_16h01.30.176,natb3,2021.2.3,MacIntel,60.0024001,611bec7e3695aa64916100ce,611e07ecdcc96256ae8d5b80,611e722f07a02cbd14e5a3c8,
,,,,space,0.5225,,0,154,154,307,1,F, , , , ,space,2500,2.5,611bec7e3695aa64916100ce,001,2021-08-19_16h01.30.176,natb3,2021.2.3,MacIntel,60.0024001,611bec7e3695aa64916100ce,611e07ecdcc96256ae8d5b80,611e722f07a02cbd14e5a3c8,
,,,,space,0.4914,,0,155,155,176,1,N, , , , ,space,1500,1.5,611bec7e3695aa64916100ce,001,2021-08-19_16h01.30.176,natb3,2021.2.3,MacIntel,60.0024001,611bec7e3695aa64916100ce,611e07ecdcc96256ae8d5b80,611e722f07a02cbd14e5a3c8,
,,,,space,0.4656,,0,156,156,67,1,Q, , , , ,space,2000,2,611bec7e3695aa64916100ce,001,2021-08-19_16h01.30.176,natb3,2021.2.3,MacIntel,60.0024001,611bec7e3695aa64916100ce,611e07ecdcc96256ae8d5b80,611e722f07a02cbd14e5a3c8,
,,,,,,,0,157,157,84,1,X, , , , ,,2000,2,611bec7e3695aa64916100ce,001,2021-08-19_16h01.30.176,natb3,2021.2.3,MacIntel,60.0024001,611bec7e3695aa64916100ce,611e07ecdcc96256ae8d5b80,611e722f07a02cbd14e5a3c8,
,,,,space,0.4769,,0,158,158,28,1,V, , , , ,space,1500,1.5,611bec7e3695aa64916100ce,001,2021-08-19_16h01.30.176,natb3,2021.2.3,MacIntel,60.0024001,611bec7e3695aa64916100ce,611e07ecdcc96256ae8d5b80,611e722f07a02cbd14e5a3c8,
,,,,space,0.399,,0,159,159,85,1,F, , , , ,space,2500,2.5,611bec7e3695aa64916100ce,001,2021-08-19_16h01.30.176,natb3,2021.2.3,MacIntel,60.0024001,611bec7e3695aa64916100ce,611e07ecdcc96256ae8d5b80,611e722f07a02cbd14e5a3c8,
,,,,space,0.3998,,0,160,160,50,1,D, , , , ,space,1500,1.5,611bec7e3695aa64916100ce,001,2021-08-19_16h01.30.176,natb3,2021.2.3,MacIntel,60.0024001,611bec7e3695aa64916100ce,611e07ecdcc96256ae8d5b80,611e722f07a02cbd14e5a3c8,
,,,,space,0.4822,,0,161,161,205,1,C, , , , ,space,2000,2,611bec7e3695aa64916100ce,001,2021-08-19_16h01.30.176,natb3,2021.2.3,MacIntel,60.0024001,611bec7e3695aa64916100ce,611e07ecdcc96256ae8d5b80,611e722f07a02cbd14e5a3c8,
,,,,,,,0,162,162,35,1,X, , , , ,,2500,2.5,611bec7e3695aa64916100ce,001,2021-08-19_16h01.30.176,natb3,2021.2.3,MacIntel,60.0024001,611bec7e3695aa64916100ce,611e07ecdcc96256ae8d5b80,611e722f07a02cbd14e5a3c8,
,,,,space,0.3921,,0,163,163,126,1,A, , , , ,space,2500,2.5,611bec7e3695aa64916100ce,001,2021-08-19_16h01.30.176,natb3,2021.2.3,MacIntel,60.0024001,611bec7e3695aa64916100ce,611e07ecdcc96256ae8d5b80,611e722f07a02cbd14e5a3c8,
,,,,,,,0,164,164,311,1,X,1,2,7,3,,2500,2.5,611bec7e3695aa64916100ce,001,2021-08-19_16h01.30.176,natb3,2021.2.3,MacIntel,60.0024001,611bec7e3695aa64916100ce,611e07ecdcc96256ae8d5b80,611e722f07a02cbd14e5a3c8,
,,,,,,,0,165,165,33,1,X, , , , ,,1500,1.5,611bec7e3695aa64916100ce,001,2021-08-19_16h01.30.176,natb3,2021.2.3,MacIntel,60.0024001,611bec7e3695aa64916100ce,611e07ecdcc96256ae8d5b80,611e722f07a02cbd14e5a3c8,
,,,,space,0.4951,,0,166,166,165,1,J, , , , ,space,2500,2.5,611bec7e3695aa64916100ce,001,2021-08-19_16h01.30.176,natb3,2021.2.3,MacIntel,60.0024001,611bec7e3695aa64916100ce,611e07ecdcc96256ae8d5b80,611e722f07a02cbd14e5a3c8,
,,,,space,0.451,space,0,167,167,9,1,I, , , , ,space,1500,1.5,611bec7e3695aa64916100ce,001,2021-08-19_16h01.30.176,natb3,2021.2.3,MacIntel,60.0024001,611bec7e3695aa64916100ce,611e07ecdcc96256ae8d5b80,611e722f07a02cbd14e5a3c8,215.282
,,,,,,,0,168,168,302,1,X, , , , ,,2000,2,611bec7e3695aa64916100ce,001,2021-08-19_16h01.30.176,natb3,2021.2.3,MacIntel,60.0024001,611bec7e3695aa64916100ce,611e07ecdcc96256ae8d5b80,611e722f07a02cbd14e5a3c8,
,,,,,,,0,169,169,7,1,X, , , , ,,1500,1.5,611bec7e3695aa64916100ce,001,2021-08-19_16h01.30.176,natb3,2021.2.3,MacIntel,60.0024001,611bec7e3695aa64916100ce,611e07ecdcc96256ae8d5b80,611e722f07a02cbd14e5a3c8,
,,,,space,0.5296,,0,170,170,157,1,A, , , , ,space,2500,2.5,611bec7e3695aa64916100ce,001,2021-08-19_16h01.30.176,natb3,2021.2.3,MacIntel,60.0024001,611bec7e3695aa64916100ce,611e07ecdcc96256ae8d5b80,611e722f07a02cbd14e5a3c8,
,,,,space,0.4299,,0,171,171,10,1,O, , , , ,space,2000,2,611bec7e3695aa64916100ce,001,2021-08-19_16h01.30.176,natb3,2021.2.3,MacIntel,60.0024001,611bec7e3695aa64916100ce,611e07ecdcc96256ae8d5b80,611e722f07a02cbd14e5a3c8,
,,,,space,0.3906,,0,172,172,306,1,D, , , , ,space,2000,2,611bec7e3695aa64916100ce,001,2021-08-19_16h01.30.176,natb3,2021.2.3,MacIntel,60.0024001,611bec7e3695aa64916100ce,611e07ecdcc96256ae8d5b80,611e722f07a02cbd14e5a3c8,
,,,,space,0.3745,,0,173,173,92,1,Z, , , , ,space,1500,1.5,611bec7e3695aa64916100ce,001,2021-08-19_16h01.30.176,natb3,2021.2.3,MacIntel,60.0024001,611bec7e3695aa64916100ce,611e07ecdcc96256ae8d5b80,611e722f07a02cbd14e5a3c8,
,,,,space,0.3824,,0,174,174,38,1,R, , , , ,space,2500,2.5,611bec7e3695aa64916100ce,001,2021-08-19_16h01.30.176,natb3,2021.2.3,MacIntel,60.0024001,611bec7e3695aa64916100ce,611e07ecdcc96256ae8d5b80,611e722f07a02cbd14e5a3c8,
,,,,space,0.3575,,0,175,175,29,1,B, , , , ,space,1500,1.5,611bec7e3695aa64916100ce,001,2021-08-19_16h01.30.176,natb3,2021.2.3,MacIntel,60.0024001,611bec7e3695aa64916100ce,611e07ecdcc96256ae8d5b80,611e722f07a02cbd14e5a3c8,
,,,,space,0.5156,,0,176,176,319,1,V, , , , ,space,2000,2,611bec7e3695aa64916100ce,001,2021-08-19_16h01.30.176,natb3,2021.2.3,MacIntel,60.0024001,611bec7e3695aa64916100ce,611e07ecdcc96256ae8d5b80,611e722f07a02cbd14e5a3c8,
,,,,space,0.3862,,0,177,177,61,1,C, , , , ,space,2000,2,611bec7e3695aa64916100ce,001,2021-08-19_16h01.30.176,natb3,2021.2.3,MacIntel,60.0024001,611bec7e3695aa64916100ce,611e07ecdcc96256ae8d5b80,611e722f07a02cbd14e5a3c8,
,,,,,,,0,178,178,133,1,X, ,4, ,6,,2500,2.5,611bec7e3695aa64916100ce,001,2021-08-19_16h01.30.176,natb3,2021.2.3,MacIntel,60.0024001,611bec7e3695aa64916100ce,611e07ecdcc96256ae8d5b80,611e722f07a02cbd14e5a3c8,
,,,,space,0.436,,0,179,179,121,1,I, , , , ,space,2000,2,611bec7e3695aa64916100ce,001,2021-08-19_16h01.30.176,natb3,2021.2.3,MacIntel,60.0024001,611bec7e3695aa64916100ce,611e07ecdcc96256ae8d5b80,611e722f07a02cbd14e5a3c8,
,,,,,,,0,180,180,203,1,X, , , , ,,2500,2.5,611bec7e3695aa64916100ce,001,2021-08-19_16h01.30.176,natb3,2021.2.3,MacIntel,60.0024001,611bec7e3695aa64916100ce,611e07ecdcc96256ae8d5b80,611e722f07a02cbd14e5a3c8,
,,,,,,,0,181,181,233,1,X, ,2, ,5,,1500,1.5,611bec7e3695aa64916100ce,001,2021-08-19_16h01.30.176,natb3,2021.2.3,MacIntel,60.0024001,611bec7e3695aa64916100ce,611e07ecdcc96256ae8d5b80,611e722f07a02cbd14e5a3c8,
,,,,space,0.4676,,0,182,182,14,1,S, , , , ,space,2500,2.5,611bec7e3695aa64916100ce,001,2021-08-19_16h01.30.176,natb3,2021.2.3,MacIntel,60.0024001,611bec7e3695aa64916100ce,611e07ecdcc96256ae8d5b80,611e722f07a02cbd14e5a3c8,
,,,,space,0.4279,,0,183,183,316,1,Z, , , , ,space,1500,1.5,611bec7e3695aa64916100ce,001,2021-08-19_16h01.30.176,natb3,2021.2.3,MacIntel,60.0024001,611bec7e3695aa64916100ce,611e07ecdcc96256ae8d5b80,611e722f07a02cbd14e5a3c8,
,,,,space,0.4655,,0,184,184,240,1,F, , , , ,space,2500,2.5,611bec7e3695aa64916100ce,001,2021-08-19_16h01.30.176,natb3,2021.2.3,MacIntel,60.0024001,611bec7e3695aa64916100ce,611e07ecdcc96256ae8d5b80,611e722f07a02cbd14e5a3c8,
,,,,space,0.3828,,0,185,185,134,1,J, , , , ,space,2000,2,611bec7e3695aa64916100ce,001,2021-08-19_16h01.30.176,natb3,2021.2.3,MacIntel,60.0024001,611bec7e3695aa64916100ce,611e07ecdcc96256ae8d5b80,611e722f07a02cbd14e5a3c8,
,,,,space,0.3666,,0,186,186,128,1,D, , , , ,space,2500,2.5,611bec7e3695aa64916100ce,001,2021-08-19_16h01.30.176,natb3,2021.2.3,MacIntel,60.0024001,611bec7e3695aa64916100ce,611e07ecdcc96256ae8d5b80,611e722f07a02cbd14e5a3c8,
,,,,space,0.4019,,0,187,187,16,1,D, , , , ,space,1500,1.5,611bec7e3695aa64916100ce,001,2021-08-19_16h01.30.176,natb3,2021.2.3,MacIntel,60.0024001,611bec7e3695aa64916100ce,611e07ecdcc96256ae8d5b80,611e722f07a02cbd14e5a3c8,
,,,,space,0.3741,,0,188,188,170,1,Z, , , , ,space,2000,2,611bec7e3695aa64916100ce,001,2021-08-19_16h01.30.176,natb3,2021.2.3,MacIntel,60.0024001,611bec7e3695aa64916100ce,611e07ecdcc96256ae8d5b80,611e722f07a02cbd14e5a3c8,
,,,,space,0.3902,,0,189,189,309,1,H, , , , ,space,2500,2.5,611bec7e3695aa64916100ce,001,2021-08-19_16h01.30.176,natb3,2021.2.3,MacIntel,60.0024001,611bec7e3695aa64916100ce,611e07ecdcc96256ae8d5b80,611e722f07a02cbd14e5a3c8,
,,,,space,0.4177,,0,190,190,292,1,E, , , , ,space,2000,2,611bec7e3695aa64916100ce,001,2021-08-19_16h01.30.176,natb3,2021.2.3,MacIntel,60.0024001,611bec7e3695aa64916100ce,611e07ecdcc96256ae8d5b80,611e722f07a02cbd14e5a3c8,
,,,,space,0.4159,,0,191,191,95,1,V, , , , ,space,1500,1.5,611bec7e3695aa64916100ce,001,2021-08-19_16h01.30.176,natb3,2021.2.3,MacIntel,60.0024001,611bec7e3695aa64916100ce,611e07ecdcc96256ae8d5b80,611e722f07a02cbd14e5a3c8,
,,,,space,0.4137,,0,192,192,247,1,Z, , , , ,space,1500,1.5,611bec7e3695aa64916100ce,001,2021-08-19_16h01.30.176,natb3,2021.2.3,MacIntel,60.0024001,611bec7e3695aa64916100ce,611e07ecdcc96256ae8d5b80,611e722f07a02cbd14e5a3c8,
,,,,,,,0,193,193,162,1,X,1,6, ,2,,1500,1.5,611bec7e3695aa64916100ce,001,2021-08-19_16h01.30.176,natb3,2021.2.3,MacIntel,60.0024001,611bec7e3695aa64916100ce,611e07ecdcc96256ae8d5b80,611e722f07a02cbd14e5a3c8,
,,,,space,0.5617,,0,194,194,144,1,Q, , , , ,space,2500,2.5,611bec7e3695aa64916100ce,001,2021-08-19_16h01.30.176,natb3,2021.2.3,MacIntel,60.0024001,611bec7e3695aa64916100ce,611e07ecdcc96256ae8d5b80,611e722f07a02cbd14e5a3c8,
,,,,,,,0,195,195,145,1,X, , , , ,,2000,2,611bec7e3695aa64916100ce,001,2021-08-19_16h01.30.176,natb3,2021.2.3,MacIntel,60.0024001,611bec7e3695aa64916100ce,611e07ecdcc96256ae8d5b80,611e722f07a02cbd14e5a3c8,
,,,,space,0.3535,,0,196,196,139,1,V, , , , ,space,2000,2,611bec7e3695aa64916100ce,001,2021-08-19_16h01.30.176,natb3,2021.2.3,MacIntel,60.0024001,611bec7e3695aa64916100ce,611e07ecdcc96256ae8d5b80,611e722f07a02cbd14e5a3c8,
,,,,,,,0,197,197,268,1,X,6, ,3, ,,2500,2.5,611bec7e3695aa64916100ce,001,2021-08-19_16h01.30.176,natb3,2021.2.3,MacIntel,60.0024001,611bec7e3695aa64916100ce,611e07ecdcc96256ae8d5b80,611e722f07a02cbd14e5a3c8,
,,,,space,0.4229,,0,198,198,37,1,E, , , , ,space,2500,2.5,611bec7e3695aa64916100ce,001,2021-08-19_16h01.30.176,natb3,2021.2.3,MacIntel,60.0024001,611bec7e3695aa64916100ce,611e07ecdcc96256ae8d5b80,611e722f07a02cbd14e5a3c8,
,,,,space,0.5156,,0,199,199,230,1,U, , , , ,space,1500,1.5,611bec7e3695aa64916100ce,001,2021-08-19_16h01.30.176,natb3,2021.2.3,MacIntel,60.0024001,611bec7e3695aa64916100ce,611e07ecdcc96256ae8d5b80,611e722f07a02cbd14e5a3c8,
,,,,space,0.5741,,0,200,200,314,1,L, , , , ,space,1500,1.5,611bec7e3695aa64916100ce,001,2021-08-19_16h01.30.176,natb3,2021.2.3,MacIntel,60.0024001,611bec7e3695aa64916100ce,611e07ecdcc96256ae8d5b80,611e722f07a02cbd14e5a3c8,
,,,,space,0.5403,,0,201,201,21,1,J, , , , ,space,1500,1.5,611bec7e3695aa64916100ce,001,2021-08-19_16h01.30.176,natb3,2021.2.3,MacIntel,60.0024001,611bec7e3695aa64916100ce,611e07ecdcc96256ae8d5b80,611e722f07a02cbd14e5a3c8,
,,,,space,0.5234,,0,202,202,47,1,P, , , , ,space,2000,2,611bec7e3695aa64916100ce,001,2021-08-19_16h01.30.176,natb3,2021.2.3,MacIntel,60.0024001,611bec7e3695aa64916100ce,611e07ecdcc96256ae8d5b80,611e722f07a02cbd14e5a3c8,
,,,,space,0.6168,,0,203,203,90,1,K, , , , ,space,2000,2,611bec7e3695aa64916100ce,001,2021-08-19_16h01.30.176,natb3,2021.2.3,MacIntel,60.0024001,611bec7e3695aa64916100ce,611e07ecdcc96256ae8d5b80,611e722f07a02cbd14e5a3c8,
,,,,,,,0,204,204,295,1,X,8,7,5, ,,2500,2.5,611bec7e3695aa64916100ce,001,2021-08-19_16h01.30.176,natb3,2021.2.3,MacIntel,60.0024001,611bec7e3695aa64916100ce,611e07ecdcc96256ae8d5b80,611e722f07a02cbd14e5a3c8,
,,,,space,0.4283,,0,205,205,53,1,G, , , , ,space,2500,2.5,611bec7e3695aa64916100ce,001,2021-08-19_16h01.30.176,natb3,2021.2.3,MacIntel,60.0024001,611bec7e3695aa64916100ce,611e07ecdcc96256ae8d5b80,611e722f07a02cbd14e5a3c8,
,,,,space,0.4839,,0,206,206,161,1,F, , , , ,space,1500,1.5,611bec7e3695aa64916100ce,001,2021-08-19_16h01.30.176,natb3,2021.2.3,MacIntel,60.0024001,611bec7e3695aa64916100ce,611e07ecdcc96256ae8d5b80,611e722f07a02cbd14e5a3c8,
,,,,space,0.5293,,0,207,207,210,1,M, , , , ,space,1500,1.5,611bec7e3695aa64916100ce,001,2021-08-19_16h01.30.176,natb3,2021.2.3,MacIntel,60.0024001,611bec7e3695aa64916100ce,611e07ecdcc96256ae8d5b80,611e722f07a02cbd14e5a3c8,
,,,,,,,0,208,208,191,1,X,1, ,3,4,,2500,2.5,611bec7e3695aa64916100ce,001,2021-08-19_16h01.30.176,natb3,2021.2.3,MacIntel,60.0024001,611bec7e3695aa64916100ce,611e07ecdcc96256ae8d5b80,611e722f07a02cbd14e5a3c8,
,,,,,,,0,209,209,179,1,X, ,9, ,2,,1500,1.5,611bec7e3695aa64916100ce,001,2021-08-19_16h01.30.176,natb3,2021.2.3,MacIntel,60.0024001,611bec7e3695aa64916100ce,611e07ecdcc96256ae8d5b80,611e722f07a02cbd14e5a3c8,
,,,,space,0.6149,,0,210,210,224,1,W, , , , ,space,1500,1.5,611bec7e3695aa64916100ce,001,2021-08-19_16h01.30.176,natb3,2021.2.3,MacIntel,60.0024001,611bec7e3695aa64916100ce,611e07ecdcc96256ae8d5b80,611e722f07a02cbd14e5a3c8,
,,,,space,0.4079,,0,211,211,276,1,H, , , , ,space,2000,2,611bec7e3695aa64916100ce,001,2021-08-19_16h01.30.176,natb3,2021.2.3,MacIntel,60.0024001,611bec7e3695aa64916100ce,611e07ecdcc96256ae8d5b80,611e722f07a02cbd14e5a3c8,
,,,,,,,0,212,212,287,1,X, ,2, ,9,,2000,2,611bec7e3695aa64916100ce,001,2021-08-19_16h01.30.176,natb3,2021.2.3,MacIntel,60.0024001,611bec7e3695aa64916100ce,611e07ecdcc96256ae8d5b80,611e722f07a02cbd14e5a3c8,
,,,,,,,0,213,213,229,1,X,8, ,2,6,,2500,2.5,611bec7e3695aa64916100ce,001,2021-08-19_16h01.30.176,natb3,2021.2.3,MacIntel,60.0024001,611bec7e3695aa64916100ce,611e07ecdcc96256ae8d5b80,611e722f07a02cbd14e5a3c8,
,,,,space,0.5287,,0,214,214,234,1,P, , , , ,space,2000,2,611bec7e3695aa64916100ce,001,2021-08-19_16h01.30.176,natb3,2021.2.3,MacIntel,60.0024001,611bec7e3695aa64916100ce,611e07ecdcc96256ae8d5b80,611e722f07a02cbd14e5a3c8,
,,,,,,,0,215,215,299,1,X, , , , ,,2500,2.5,611bec7e3695aa64916100ce,001,2021-08-19_16h01.30.176,natb3,2021.2.3,MacIntel,60.0024001,611bec7e3695aa64916100ce,611e07ecdcc96256ae8d5b80,611e722f07a02cbd14e5a3c8,
,,,,space,0.4399,,0,216,216,275,1,G, , , , ,space,1500,1.5,611bec7e3695aa64916100ce,001,2021-08-19_16h01.30.176,natb3,2021.2.3,MacIntel,60.0024001,611bec7e3695aa64916100ce,611e07ecdcc96256ae8d5b80,611e722f07a02cbd14e5a3c8,
,,,,space,0.4411,,0,217,217,111,1,O, , , , ,space,2000,2,611bec7e3695aa64916100ce,001,2021-08-19_16h01.30.176,natb3,2021.2.3,MacIntel,60.0024001,611bec7e3695aa64916100ce,611e07ecdcc96256ae8d5b80,611e722f07a02cbd14e5a3c8,
,,,,space,0.4643,,0,218,218,105,1,R, , , , ,space,2500,2.5,611bec7e3695aa64916100ce,001,2021-08-19_16h01.30.176,natb3,2021.2.3,MacIntel,60.0024001,611bec7e3695aa64916100ce,611e07ecdcc96256ae8d5b80,611e722f07a02cbd14e5a3c8,
,,,,space,0.6066,,0,219,219,257,1,W, , , , ,space,2000,2,611bec7e3695aa64916100ce,001,2021-08-19_16h01.30.176,natb3,2021.2.3,MacIntel,60.0024001,611bec7e3695aa64916100ce,611e07ecdcc96256ae8d5b80,611e722f07a02cbd14e5a3c8,
,,,,space,0.5366,,0,220,220,3,1,R, , , , ,space,2000,2,611bec7e3695aa64916100ce,001,2021-08-19_16h01.30.176,natb3,2021.2.3,MacIntel,60.0024001,611bec7e3695aa64916100ce,611e07ecdcc96256ae8d5b80,611e722f07a02cbd14e5a3c8,
,,,,,,,0,221,221,325,1,X, , , , ,,2500,2.5,611bec7e3695aa64916100ce,001,2021-08-19_16h01.30.176,natb3,2021.2.3,MacIntel,60.0024001,611bec7e3695aa64916100ce,611e07ecdcc96256ae8d5b80,611e722f07a02cbd14e5a3c8,
,,,,space,0.416,,0,222,222,254,1,M, , , , ,space,1500,1.5,611bec7e3695aa64916100ce,001,2021-08-19_16h01.30.176,natb3,2021.2.3,MacIntel,60.0024001,611bec7e3695aa64916100ce,611e07ecdcc96256ae8d5b80,611e722f07a02cbd14e5a3c8,
,,,,space,0.5324,,0,223,223,312,1,K, , , , ,space,2000,2,611bec7e3695aa64916100ce,001,2021-08-19_16h01.30.176,natb3,2021.2.3,MacIntel,60.0024001,611bec7e3695aa64916100ce,611e07ecdcc96256ae8d5b80,611e722f07a02cbd14e5a3c8,
,,,,space,0.4513,,0,224,224,99,1,N, , , , ,space,2500,2.5,611bec7e3695aa64916100ce,001,2021-08-19_16h01.30.176,natb3,2021.2.3,MacIntel,60.0024001,611bec7e3695aa64916100ce,611e07ecdcc96256ae8d5b80,611e722f07a02cbd14e5a3c8,
,,,,,,,0,225,225,148,1,X, , , , ,,2000,2,611bec7e3695aa64916100ce,001,2021-08-19_16h01.30.176,natb3,2021.2.3,MacIntel,60.0024001,611bec7e3695aa64916100ce,611e07ecdcc96256ae8d5b80,611e722f07a02cbd14e5a3c8,
,,,,space,0.4661,,0,226,226,137,1,C, , , , ,space,2500,2.5,611bec7e3695aa64916100ce,001,2021-08-19_16h01.30.176,natb3,2021.2.3,MacIntel,60.0024001,611bec7e3695aa64916100ce,611e07ecdcc96256ae8d5b80,611e722f07a02cbd14e5a3c8,
,,,,,,,0,227,227,118,1,X, , , , ,,2000,2,611bec7e3695aa64916100ce,001,2021-08-19_16h01.30.176,natb3,2021.2.3,MacIntel,60.0024001,611bec7e3695aa64916100ce,611e07ecdcc96256ae8d5b80,611e722f07a02cbd14e5a3c8,
,,,,space,0.4903,,0,228,228,88,1,J, , , , ,space,2500,2.5,611bec7e3695aa64916100ce,001,2021-08-19_16h01.30.176,natb3,2021.2.3,MacIntel,60.0024001,611bec7e3695aa64916100ce,611e07ecdcc96256ae8d5b80,611e722f07a02cbd14e5a3c8,
,,,,space,0.5578,,0,229,229,201,1,K, , , , ,space,1500,1.5,611bec7e3695aa64916100ce,001,2021-08-19_16h01.30.176,natb3,2021.2.3,MacIntel,60.0024001,611bec7e3695aa64916100ce,611e07ecdcc96256ae8d5b80,611e722f07a02cbd14e5a3c8,
,,,,,,,0,230,230,273,1,X, , , , ,,2000,2,611bec7e3695aa64916100ce,001,2021-08-19_16h01.30.176,natb3,2021.2.3,MacIntel,60.0024001,611bec7e3695aa64916100ce,611e07ecdcc96256ae8d5b80,611e722f07a02cbd14e5a3c8,
,,,,,,,0,231,231,74,1,X, ,4,3,2,,1500,1.5,611bec7e3695aa64916100ce,001,2021-08-19_16h01.30.176,natb3,2021.2.3,MacIntel,60.0024001,611bec7e3695aa64916100ce,611e07ecdcc96256ae8d5b80,611e722f07a02cbd14e5a3c8,
,,,,space,0.4956,,0,232,232,189,1,O, , , , ,space,1500,1.5,611bec7e3695aa64916100ce,001,2021-08-19_16h01.30.176,natb3,2021.2.3,MacIntel,60.0024001,611bec7e3695aa64916100ce,611e07ecdcc96256ae8d5b80,611e722f07a02cbd14e5a3c8,
,,,,space,0.5726,,0,233,233,334,1,O, , , , ,space,1500,1.5,611bec7e3695aa64916100ce,001,2021-08-19_16h01.30.176,natb3,2021.2.3,MacIntel,60.0024001,611bec7e3695aa64916100ce,611e07ecdcc96256ae8d5b80,611e722f07a02cbd14e5a3c8,
,,,,,,,0,234,234,141,1,X,1, ,4,6,,1500,1.5,611bec7e3695aa64916100ce,001,2021-08-19_16h01.30.176,natb3,2021.2.3,MacIntel,60.0024001,611bec7e3695aa64916100ce,611e07ecdcc96256ae8d5b80,611e722f07a02cbd14e5a3c8,
,,,,space,0.4818,,0,235,235,284,1,V, , , , ,space,2500,2.5,611bec7e3695aa64916100ce,001,2021-08-19_16h01.30.176,natb3,2021.2.3,MacIntel,60.0024001,611bec7e3695aa64916100ce,611e07ecdcc96256ae8d5b80,611e722f07a02cbd14e5a3c8,
,,,,space,0.4417,,0,236,236,25,1,Z, , , , ,space,2500,2.5,611bec7e3695aa64916100ce,001,2021-08-19_16h01.30.176,natb3,2021.2.3,MacIntel,60.0024001,611bec7e3695aa64916100ce,611e07ecdcc96256ae8d5b80,611e722f07a02cbd14e5a3c8,
,,,,space,0.3928,,0,237,237,87,1,H, , , , ,space,1500,1.5,611bec7e3695aa64916100ce,001,2021-08-19_16h01.30.176,natb3,2021.2.3,MacIntel,60.0024001,611bec7e3695aa64916100ce,611e07ecdcc96256ae8d5b80,611e722f07a02cbd14e5a3c8,
,,,,,,,0,238,238,318,1,X, , , , ,,1500,1.5,611bec7e3695aa64916100ce,001,2021-08-19_16h01.30.176,natb3,2021.2.3,MacIntel,60.0024001,611bec7e3695aa64916100ce,611e07ecdcc96256ae8d5b80,611e722f07a02cbd14e5a3c8,
,,,,,,,0,239,239,291,1,X, , , , ,,2000,2,611bec7e3695aa64916100ce,001,2021-08-19_16h01.30.176,natb3,2021.2.3,MacIntel,60.0024001,611bec7e3695aa64916100ce,611e07ecdcc96256ae8d5b80,611e722f07a02cbd14e5a3c8,
,,,,space,0.4576,,0,240,240,132,1,H, , , , ,space,2500,2.5,611bec7e3695aa64916100ce,001,2021-08-19_16h01.30.176,natb3,2021.2.3,MacIntel,60.0024001,611bec7e3695aa64916100ce,611e07ecdcc96256ae8d5b80,611e722f07a02cbd14e5a3c8,
,,,,space,0.4415,,0,241,241,253,1,N, , , , ,space,2500,2.5,611bec7e3695aa64916100ce,001,2021-08-19_16h01.30.176,natb3,2021.2.3,MacIntel,60.0024001,611bec7e3695aa64916100ce,611e07ecdcc96256ae8d5b80,611e722f07a02cbd14e5a3c8,
,,,,space,0.3872,,0,242,242,332,1,U, , , , ,space,2000,2,611bec7e3695aa64916100ce,001,2021-08-19_16h01.30.176,natb3,2021.2.3,MacIntel,60.0024001,611bec7e3695aa64916100ce,611e07ecdcc96256ae8d5b80,611e722f07a02cbd14e5a3c8,
,,,,,,,0,243,243,78,1,X, , , , ,,2000,2,611bec7e3695aa64916100ce,001,2021-08-19_16h01.30.176,natb3,2021.2.3,MacIntel,60.0024001,611bec7e3695aa64916100ce,611e07ecdcc96256ae8d5b80,611e722f07a02cbd14e5a3c8,
,,,,,,,0,244,244,122,1,X,1, , ,8,,1500,1.5,611bec7e3695aa64916100ce,001,2021-08-19_16h01.30.176,natb3,2021.2.3,MacIntel,60.0024001,611bec7e3695aa64916100ce,611e07ecdcc96256ae8d5b80,611e722f07a02cbd14e5a3c8,
,,,,,,,0,245,245,46,1,X, , , , ,,2000,2,611bec7e3695aa64916100ce,001,2021-08-19_16h01.30.176,natb3,2021.2.3,MacIntel,60.0024001,611bec7e3695aa64916100ce,611e07ecdcc96256ae8d5b80,611e722f07a02cbd14e5a3c8,
,,,,space,0.4858,,0,246,246,266,1,O, , , , ,space,1500,1.5,611bec7e3695aa64916100ce,001,2021-08-19_16h01.30.176,natb3,2021.2.3,MacIntel,60.0024001,611bec7e3695aa64916100ce,611e07ecdcc96256ae8d5b80,611e722f07a02cbd14e5a3c8,
,,,,,,,0,247,247,153,1,X,4,7, ,6,,2000,2,611bec7e3695aa64916100ce,001,2021-08-19_16h01.30.176,natb3,2021.2.3,MacIntel,60.0024001,611bec7e3695aa64916100ce,611e07ecdcc96256ae8d5b80,611e722f07a02cbd14e5a3c8,
,,,,space,0.4376,,0,248,248,55,1,H, , , , ,space,2500,2.5,611bec7e3695aa64916100ce,001,2021-08-19_16h01.30.176,natb3,2021.2.3,MacIntel,60.0024001,611bec7e3695aa64916100ce,611e07ecdcc96256ae8d5b80,611e722f07a02cbd14e5a3c8,
,,,,space,0.4345,,0,249,249,221,1,I, , , , ,space,2500,2.5,611bec7e3695aa64916100ce,001,2021-08-19_16h01.30.176,natb3,2021.2.3,MacIntel,60.0024001,611bec7e3695aa64916100ce,611e07ecdcc96256ae8d5b80,611e722f07a02cbd14e5a3c8,
,,,,space,0.5745,,0,250,250,0,1,Q, , , , ,space,1500,1.5,611bec7e3695aa64916100ce,001,2021-08-19_16h01.30.176,natb3,2021.2.3,MacIntel,60.0024001,611bec7e3695aa64916100ce,611e07ecdcc96256ae8d5b80,611e722f07a02cbd14e5a3c8,
,,,,space,0.498,,0,251,251,206,1,V, , , , ,space,2000,2,611bec7e3695aa64916100ce,001,2021-08-19_16h01.30.176,natb3,2021.2.3,MacIntel,60.0024001,611bec7e3695aa64916100ce,611e07ecdcc96256ae8d5b80,611e722f07a02cbd14e5a3c8,
,,,,space,0.5593,,0,252,252,214,1,W, , , , ,space,2000,2,611bec7e3695aa64916100ce,001,2021-08-19_16h01.30.176,natb3,2021.2.3,MacIntel,60.0024001,611bec7e3695aa64916100ce,611e07ecdcc96256ae8d5b80,611e722f07a02cbd14e5a3c8,
,,,,space,0.4337,,0,253,253,17,1,F, , , , ,space,2500,2.5,611bec7e3695aa64916100ce,001,2021-08-19_16h01.30.176,natb3,2021.2.3,MacIntel,60.0024001,611bec7e3695aa64916100ce,611e07ecdcc96256ae8d5b80,611e722f07a02cbd14e5a3c8,
,,,,space,0.4421,,0,254,254,19,1,G, , , , ,space,1500,1.5,611bec7e3695aa64916100ce,001,2021-08-19_16h01.30.176,natb3,2021.2.3,MacIntel,60.0024001,611bec7e3695aa64916100ce,611e07ecdcc96256ae8d5b80,611e722f07a02cbd14e5a3c8,
,,,,space,0.3865,,0,255,255,204,1,Z, , , , ,space,2000,2,611bec7e3695aa64916100ce,001,2021-08-19_16h01.30.176,natb3,2021.2.3,MacIntel,60.0024001,611bec7e3695aa64916100ce,611e07ecdcc96256ae8d5b80,611e722f07a02cbd14e5a3c8,
,,,,space,0.3974,,0,256,256,101,1,Q, , , , ,space,2500,2.5,611bec7e3695aa64916100ce,001,2021-08-19_16h01.30.176,natb3,2021.2.3,MacIntel,60.0024001,611bec7e3695aa64916100ce,611e07ecdcc96256ae8d5b80,611e722f07a02cbd14e5a3c8,
,,,,,,,0,257,257,107,1,X,9,3, ,2,,2000,2,611bec7e3695aa64916100ce,001,2021-08-19_16h01.30.176,natb3,2021.2.3,MacIntel,60.0024001,611bec7e3695aa64916100ce,611e07ecdcc96256ae8d5b80,611e722f07a02cbd14e5a3c8,
,,,,space,0.4029,,0,258,258,149,1,R, , , , ,space,2000,2,611bec7e3695aa64916100ce,001,2021-08-19_16h01.30.176,natb3,2021.2.3,MacIntel,60.0024001,611bec7e3695aa64916100ce,611e07ecdcc96256ae8d5b80,611e722f07a02cbd14e5a3c8,
,,,,space,0.4508,,0,259,259,73,1,Y, , , , ,space,2000,2,611bec7e3695aa64916100ce,001,2021-08-19_16h01.30.176,natb3,2021.2.3,MacIntel,60.0024001,611bec7e3695aa64916100ce,611e07ecdcc96256ae8d5b80,611e722f07a02cbd14e5a3c8,
,,,,space,0.3492,,0,260,260,11,1,P, , , , ,space,2500,2.5,611bec7e3695aa64916100ce,001,2021-08-19_16h01.30.176,natb3,2021.2.3,MacIntel,60.0024001,611bec7e3695aa64916100ce,611e07ecdcc96256ae8d5b80,611e722f07a02cbd14e5a3c8,
,,,,space,0.3821,,0,261,261,147,1,E, , , , ,space,2000,2,611bec7e3695aa64916100ce,001,2021-08-19_16h01.30.176,natb3,2021.2.3,MacIntel,60.0024001,611bec7e3695aa64916100ce,611e07ecdcc96256ae8d5b80,611e722f07a02cbd14e5a3c8,
,,,,space,0.3824,,0,262,262,97,1,B, , , , ,space,2500,2.5,611bec7e3695aa64916100ce,001,2021-08-19_16h01.30.176,natb3,2021.2.3,MacIntel,60.0024001,611bec7e3695aa64916100ce,611e07ecdcc96256ae8d5b80,611e722f07a02cbd14e5a3c8,
,,,,space,0.3507,,0,263,263,115,1,R, , , , ,space,1500,1.5,611bec7e3695aa64916100ce,001,2021-08-19_16h01.30.176,natb3,2021.2.3,MacIntel,60.0024001,611bec7e3695aa64916100ce,611e07ecdcc96256ae8d5b80,611e722f07a02cbd14e5a3c8,
,,,,space,0.2822,,0,264,264,34,1,Q, , , , ,space,2500,2.5,611bec7e3695aa64916100ce,001,2021-08-19_16h01.30.176,natb3,2021.2.3,MacIntel,60.0024001,611bec7e3695aa64916100ce,611e07ecdcc96256ae8d5b80,611e722f07a02cbd14e5a3c8,
,,,,,,,0,265,265,243,1,X, , , , ,,2500,2.5,611bec7e3695aa64916100ce,001,2021-08-19_16h01.30.176,natb3,2021.2.3,MacIntel,60.0024001,611bec7e3695aa64916100ce,611e07ecdcc96256ae8d5b80,611e722f07a02cbd14e5a3c8,
,,,,space,0.4417,,0,266,266,232,1,O, , , , ,space,2500,2.5,611bec7e3695aa64916100ce,001,2021-08-19_16h01.30.176,natb3,2021.2.3,MacIntel,60.0024001,611bec7e3695aa64916100ce,611e07ecdcc96256ae8d5b80,611e722f07a02cbd14e5a3c8,
,,,,space,0.4003,,0,267,267,110,1,I, , , , ,space,1500,1.5,611bec7e3695aa64916100ce,001,2021-08-19_16h01.30.176,natb3,2021.2.3,MacIntel,60.0024001,611bec7e3695aa64916100ce,611e07ecdcc96256ae8d5b80,611e722f07a02cbd14e5a3c8,
,,,,space,0.3491,,0,268,268,32,1,M, , , , ,space,1500,1.5,611bec7e3695aa64916100ce,001,2021-08-19_16h01.30.176,natb3,2021.2.3,MacIntel,60.0024001,611bec7e3695aa64916100ce,611e07ecdcc96256ae8d5b80,611e722f07a02cbd14e5a3c8,
,,,,,,,0,269,269,329,1,X,3,4, ,2,,2500,2.5,611bec7e3695aa64916100ce,001,2021-08-19_16h01.30.176,natb3,2021.2.3,MacIntel,60.0024001,611bec7e3695aa64916100ce,611e07ecdcc96256ae8d5b80,611e722f07a02cbd14e5a3c8,
,,,,space,0.3874,,0,270,270,186,1,U, , , , ,space,2500,2.5,611bec7e3695aa64916100ce,001,2021-08-19_16h01.30.176,natb3,2021.2.3,MacIntel,60.0024001,611bec7e3695aa64916100ce,611e07ecdcc96256ae8d5b80,611e722f07a02cbd14e5a3c8,
,,,,space,0.3491,,0,271,271,290,1,W, , , , ,space,1500,1.5,611bec7e3695aa64916100ce,001,2021-08-19_16h01.30.176,natb3,2021.2.3,MacIntel,60.0024001,611bec7e3695aa64916100ce,611e07ecdcc96256ae8d5b80,611e722f07a02cbd14e5a3c8,
,,,,space,0.4174,,0,272,272,100,1,M, , , , ,space,2000,2,611bec7e3695aa64916100ce,001,2021-08-19_16h01.30.176,natb3,2021.2.3,MacIntel,60.0024001,611bec7e3695aa64916100ce,611e07ecdcc96256ae8d5b80,611e722f07a02cbd14e5a3c8,
,,,,space,0.3591,,0,273,273,159,1,S, , , , ,space,2500,2.5,611bec7e3695aa64916100ce,001,2021-08-19_16h01.30.176,natb3,2021.2.3,MacIntel,60.0024001,611bec7e3695aa64916100ce,611e07ecdcc96256ae8d5b80,611e722f07a02cbd14e5a3c8,
,,,,space,0.3754,,0,274,274,75,1,U, , , , ,space,1500,1.5,611bec7e3695aa64916100ce,001,2021-08-19_16h01.30.176,natb3,2021.2.3,MacIntel,60.0024001,611bec7e3695aa64916100ce,611e07ecdcc96256ae8d5b80,611e722f07a02cbd14e5a3c8,
,,,,space,0.3779,,0,275,275,317,1,C, , , , ,space,2000,2,611bec7e3695aa64916100ce,001,2021-08-19_16h01.30.176,natb3,2021.2.3,MacIntel,60.0024001,611bec7e3695aa64916100ce,611e07ecdcc96256ae8d5b80,611e722f07a02cbd14e5a3c8,
,,,,space,0.4392,,0,276,276,79,1,P, , , , ,space,2000,2,611bec7e3695aa64916100ce,001,2021-08-19_16h01.30.176,natb3,2021.2.3,MacIntel,60.0024001,611bec7e3695aa64916100ce,611e07ecdcc96256ae8d5b80,611e722f07a02cbd14e5a3c8,
,,,,,,,0,277,277,89,1,X,3, , , ,,2000,2,611bec7e3695aa64916100ce,001,2021-08-19_16h01.30.176,natb3,2021.2.3,MacIntel,60.0024001,611bec7e3695aa64916100ce,611e07ecdcc96256ae8d5b80,611e722f07a02cbd14e5a3c8,
,,,,space,0.4112,,0,278,278,264,1,U, , , , ,space,2000,2,611bec7e3695aa64916100ce,001,2021-08-19_16h01.30.176,natb3,2021.2.3,MacIntel,60.0024001,611bec7e3695aa64916100ce,611e07ecdcc96256ae8d5b80,611e722f07a02cbd14e5a3c8,
,,,,space,0.4025,,0,279,279,249,1,C, , , , ,space,2000,2,611bec7e3695aa64916100ce,001,2021-08-19_16h01.30.176,natb3,2021.2.3,MacIntel,60.0024001,611bec7e3695aa64916100ce,611e07ecdcc96256ae8d5b80,611e722f07a02cbd14e5a3c8,
,,,,,,,0,280,280,187,1,X, ,3,7,4,,1500,1.5,611bec7e3695aa64916100ce,001,2021-08-19_16h01.30.176,natb3,2021.2.3,MacIntel,60.0024001,611bec7e3695aa64916100ce,611e07ecdcc96256ae8d5b80,611e722f07a02cbd14e5a3c8,
,,,,,,,0,281,281,313,1,X, , , , ,,2500,2.5,611bec7e3695aa64916100ce,001,2021-08-19_16h01.30.176,natb3,2021.2.3,MacIntel,60.0024001,611bec7e3695aa64916100ce,611e07ecdcc96256ae8d5b80,611e722f07a02cbd14e5a3c8,
,,,,space,0.3902,,0,282,282,177,1,M, , , , ,space,2500,2.5,611bec7e3695aa64916100ce,001,2021-08-19_16h01.30.176,natb3,2021.2.3,MacIntel,60.0024001,611bec7e3695aa64916100ce,611e07ecdcc96256ae8d5b80,611e722f07a02cbd14e5a3c8,
,,,,,,,0,283,283,23,1,X,1, ,5, ,,2000,2,611bec7e3695aa64916100ce,001,2021-08-19_16h01.30.176,natb3,2021.2.3,MacIntel,60.0024001,611bec7e3695aa64916100ce,611e07ecdcc96256ae8d5b80,611e722f07a02cbd14e5a3c8,
,,,,space,0.3502,,0,284,284,236,1,X,3, ,4,7,,2500,2.5,611bec7e3695aa64916100ce,001,2021-08-19_16h01.30.176,natb3,2021.2.3,MacIntel,60.0024001,611bec7e3695aa64916100ce,611e07ecdcc96256ae8d5b80,611e722f07a02cbd14e5a3c8,
,,,,space,0.5191,,0,285,285,228,1,Y, , , , ,space,2000,2,611bec7e3695aa64916100ce,001,2021-08-19_16h01.30.176,natb3,2021.2.3,MacIntel,60.0024001,611bec7e3695aa64916100ce,611e07ecdcc96256ae8d5b80,611e722f07a02cbd14e5a3c8,
,,,,,,,0,286,286,322,1,X, , ,1,6,,2000,2,611bec7e3695aa64916100ce,001,2021-08-19_16h01.30.176,natb3,2021.2.3,MacIntel,60.0024001,611bec7e3695aa64916100ce,611e07ecdcc96256ae8d5b80,611e722f07a02cbd14e5a3c8,
,,,,space,0.5074,,0,287,287,2,1,E, , , , ,space,2500,2.5,611bec7e3695aa64916100ce,001,2021-08-19_16h01.30.176,natb3,2021.2.3,MacIntel,60.0024001,611bec7e3695aa64916100ce,611e07ecdcc96256ae8d5b80,611e722f07a02cbd14e5a3c8,
,,,,,,,0,288,288,158,1,X, , , , ,,1500,1.5,611bec7e3695aa64916100ce,001,2021-08-19_16h01.30.176,natb3,2021.2.3,MacIntel,60.0024001,611bec7e3695aa64916100ce,611e07ecdcc96256ae8d5b80,611e722f07a02cbd14e5a3c8,
,,,,space,0.4023,,0,289,289,285,1,B, , , , ,space,1500,1.5,611bec7e3695aa64916100ce,001,2021-08-19_16h01.30.176,natb3,2021.2.3,MacIntel,60.0024001,611bec7e3695aa64916100ce,611e07ecdcc96256ae8d5b80,611e722f07a02cbd14e5a3c8,
,,,,,,,0,290,290,213,1,X, , , , ,,2500,2.5,611bec7e3695aa64916100ce,001,2021-08-19_16h01.30.176,natb3,2021.2.3,MacIntel,60.0024001,611bec7e3695aa64916100ce,611e07ecdcc96256ae8d5b80,611e722f07a02cbd14e5a3c8,
,,,,space,0.4738,,0,291,291,192,1,A, , , , ,space,2000,2,611bec7e3695aa64916100ce,001,2021-08-19_16h01.30.176,natb3,2021.2.3,MacIntel,60.0024001,611bec7e3695aa64916100ce,611e07ecdcc96256ae8d5b80,611e722f07a02cbd14e5a3c8,
,,,,space,0.4561,,0,292,292,269,1,A, , , , ,space,2500,2.5,611bec7e3695aa64916100ce,001,2021-08-19_16h01.30.176,natb3,2021.2.3,MacIntel,60.0024001,611bec7e3695aa64916100ce,611e07ecdcc96256ae8d5b80,611e722f07a02cbd14e5a3c8,
,,,,space,0.5505,,0,293,293,113,1,W, , , , ,space,2500,2.5,611bec7e3695aa64916100ce,001,2021-08-19_16h01.30.176,natb3,2021.2.3,MacIntel,60.0024001,611bec7e3695aa64916100ce,611e07ecdcc96256ae8d5b80,611e722f07a02cbd14e5a3c8,
,,,,space,0.4589,,0,294,294,208,1,B, , , , ,space,1500,1.5,611bec7e3695aa64916100ce,001,2021-08-19_16h01.30.176,natb3,2021.2.3,MacIntel,60.0024001,611bec7e3695aa64916100ce,611e07ecdcc96256ae8d5b80,611e722f07a02cbd14e5a3c8,
,,,,space,0.4909,,0,295,295,48,1,A, , , , ,space,2500,2.5,611bec7e3695aa64916100ce,001,2021-08-19_16h01.30.176,natb3,2021.2.3,MacIntel,60.0024001,611bec7e3695aa64916100ce,611e07ecdcc96256ae8d5b80,611e722f07a02cbd14e5a3c8,
,,,,space,0.4427,,0,296,296,24,1,L, , , , ,space,2500,2.5,611bec7e3695aa64916100ce,001,2021-08-19_16h01.30.176,natb3,2021.2.3,MacIntel,60.0024001,611bec7e3695aa64916100ce,611e07ecdcc96256ae8d5b80,611e722f07a02cbd14e5a3c8,
,,,,space,0.4326,,0,297,297,160,1,D, , , , ,space,1500,1.5,611bec7e3695aa64916100ce,001,2021-08-19_16h01.30.176,natb3,2021.2.3,MacIntel,60.0024001,611bec7e3695aa64916100ce,611e07ecdcc96256ae8d5b80,611e722f07a02cbd14e5a3c8,
,,,,space,0.4795,,0,298,298,178,1,Q, , , , ,space,1500,1.5,611bec7e3695aa64916100ce,001,2021-08-19_16h01.30.176,natb3,2021.2.3,MacIntel,60.0024001,611bec7e3695aa64916100ce,611e07ecdcc96256ae8d5b80,611e722f07a02cbd14e5a3c8,
,,,,,,,0,299,299,175,1,X,7, ,4,2,,1500,1.5,611bec7e3695aa64916100ce,001,2021-08-19_16h01.30.176,natb3,2021.2.3,MacIntel,60.0024001,611bec7e3695aa64916100ce,611e07ecdcc96256ae8d5b80,611e722f07a02cbd14e5a3c8,
,,,,space,0.4692,,0,300,300,152,1,U, , , , ,space,2000,2,611bec7e3695aa64916100ce,001,2021-08-19_16h01.30.176,natb3,2021.2.3,MacIntel,60.0024001,611bec7e3695aa64916100ce,611e07ecdcc96256ae8d5b80,611e722f07a02cbd14e5a3c8,
,,,,,,,0,301,301,12,1,X, , , , ,,1500,1.5,611bec7e3695aa64916100ce,001,2021-08-19_16h01.30.176,natb3,2021.2.3,MacIntel,60.0024001,611bec7e3695aa64916100ce,611e07ecdcc96256ae8d5b80,611e722f07a02cbd14e5a3c8,
,,,,space,0.5653,,0,302,302,91,1,L, , , , ,space,2000,2,611bec7e3695aa64916100ce,001,2021-08-19_16h01.30.176,natb3,2021.2.3,MacIntel,60.0024001,611bec7e3695aa64916100ce,611e07ecdcc96256ae8d5b80,611e722f07a02cbd14e5a3c8,
,,,,space,0.4994,,0,303,303,112,1,Q, , , , ,space,2500,2.5,611bec7e3695aa64916100ce,001,2021-08-19_16h01.30.176,natb3,2021.2.3,MacIntel,60.0024001,611bec7e3695aa64916100ce,611e07ecdcc96256ae8d5b80,611e722f07a02cbd14e5a3c8,
,,,,,,,0,304,304,218,1,X,1,3, ,8,,1500,1.5,611bec7e3695aa64916100ce,001,2021-08-19_16h01.30.176,natb3,2021.2.3,MacIntel,60.0024001,611bec7e3695aa64916100ce,611e07ecdcc96256ae8d5b80,611e722f07a02cbd14e5a3c8,
,,,,space,0.4628,,0,305,305,108,1,Y, , , , ,space,2500,2.5,611bec7e3695aa64916100ce,001,2021-08-19_16h01.30.176,natb3,2021.2.3,MacIntel,60.0024001,611bec7e3695aa64916100ce,611e07ecdcc96256ae8d5b80,611e722f07a02cbd14e5a3c8,
,,,,space,0.4746,,0,306,306,333,1,I, , , , ,space,1500,1.5,611bec7e3695aa64916100ce,001,2021-08-19_16h01.30.176,natb3,2021.2.3,MacIntel,60.0024001,611bec7e3695aa64916100ce,611e07ecdcc96256ae8d5b80,611e722f07a02cbd14e5a3c8,
,,,,,,,0,307,307,200,1,X,7, ,5,3,,1500,1.5,611bec7e3695aa64916100ce,001,2021-08-19_16h01.30.176,natb3,2021.2.3,MacIntel,60.0024001,611bec7e3695aa64916100ce,611e07ecdcc96256ae8d5b80,611e722f07a02cbd14e5a3c8,
,,,,,,,0,308,308,166,1,X, , , , ,,2000,2,611bec7e3695aa64916100ce,001,2021-08-19_16h01.30.176,natb3,2021.2.3,MacIntel,60.0024001,611bec7e3695aa64916100ce,611e07ecdcc96256ae8d5b80,611e722f07a02cbd14e5a3c8,
,,,,space,0.6653,,0,309,309,56,1,J, , , , ,space,1500,1.5,611bec7e3695aa64916100ce,001,2021-08-19_16h01.30.176,natb3,2021.2.3,MacIntel,60.0024001,611bec7e3695aa64916100ce,611e07ecdcc96256ae8d5b80,611e722f07a02cbd14e5a3c8,
,,,,space,0.4496,,0,310,310,321,1,N, , , , ,space,2000,2,611bec7e3695aa64916100ce,001,2021-08-19_16h01.30.176,natb3,2021.2.3,MacIntel,60.0024001,611bec7e3695aa64916100ce,611e07ecdcc96256ae8d5b80,611e722f07a02cbd14e5a3c8,
,,,,space,0.5516,,0,311,311,231,1,I, , , , ,space,2500,2.5,611bec7e3695aa64916100ce,001,2021-08-19_16h01.30.176,natb3,2021.2.3,MacIntel,60.0024001,611bec7e3695aa64916100ce,611e07ecdcc96256ae8d5b80,611e722f07a02cbd14e5a3c8,
,,,,,,,0,312,312,282,1,X, , , , ,,2500,2.5,611bec7e3695aa64916100ce,001,2021-08-19_16h01.30.176,natb3,2021.2.3,MacIntel,60.0024001,611bec7e3695aa64916100ce,611e07ecdcc96256ae8d5b80,611e722f07a02cbd14e5a3c8,
,,,,space,0.5267,,0,313,313,45,1,O, , , , ,space,2000,2,611bec7e3695aa64916100ce,001,2021-08-19_16h01.30.176,natb3,2021.2.3,MacIntel,60.0024001,611bec7e3695aa64916100ce,611e07ecdcc96256ae8d5b80,611e722f07a02cbd14e5a3c8,
,,,,space,0.6407,,0,314,314,238,1,D, , , , ,space,1500,1.5,611bec7e3695aa64916100ce,001,2021-08-19_16h01.30.176,natb3,2021.2.3,MacIntel,60.0024001,611bec7e3695aa64916100ce,611e07ecdcc96256ae8d5b80,611e722f07a02cbd14e5a3c8,
,,,,space,0.5616,,0,315,315,237,1,S, , , , ,space,1500,1.5,611bec7e3695aa64916100ce,001,2021-08-19_16h01.30.176,natb3,2021.2.3,MacIntel,60.0024001,611bec7e3695aa64916100ce,611e07ecdcc96256ae8d5b80,611e722f07a02cbd14e5a3c8,
,,,,space,0.4991,,0,316,316,222,1,O, , , , ,space,2000,2,611bec7e3695aa64916100ce,001,2021-08-19_16h01.30.176,natb3,2021.2.3,MacIntel,60.0024001,611bec7e3695aa64916100ce,611e07ecdcc96256ae8d5b80,611e722f07a02cbd14e5a3c8,
,,,,space,0.4724,,0,317,317,103,1,W, , , , ,space,2000,2,611bec7e3695aa64916100ce,001,2021-08-19_16h01.30.176,natb3,2021.2.3,MacIntel,60.0024001,611bec7e3695aa64916100ce,611e07ecdcc96256ae8d5b80,611e722f07a02cbd14e5a3c8,
,,,,,,,0,318,318,129,1,X,2,3,5, ,,1500,1.5,611bec7e3695aa64916100ce,001,2021-08-19_16h01.30.176,natb3,2021.2.3,MacIntel,60.0024001,611bec7e3695aa64916100ce,611e07ecdcc96256ae8d5b80,611e722f07a02cbd14e5a3c8,
,,,,space,0.4802,,0,319,319,41,1,Y, , , , ,space,2500,2.5,611bec7e3695aa64916100ce,001,2021-08-19_16h01.30.176,natb3,2021.2.3,MacIntel,60.0024001,611bec7e3695aa64916100ce,611e07ecdcc96256ae8d5b80,611e722f07a02cbd14e5a3c8,
,,,,space,0.4822,,0,320,320,267,1,P, , , , ,space,2000,2,611bec7e3695aa64916100ce,001,2021-08-19_16h01.30.176,natb3,2021.2.3,MacIntel,60.0024001,611bec7e3695aa64916100ce,611e07ecdcc96256ae8d5b80,611e722f07a02cbd14e5a3c8,
,,,,space,0.4091,,0,321,321,20,1,H, , , , ,space,1500,1.5,611bec7e3695aa64916100ce,001,2021-08-19_16h01.30.176,natb3,2021.2.3,MacIntel,60.0024001,611bec7e3695aa64916100ce,611e07ecdcc96256ae8d5b80,611e722f07a02cbd14e5a3c8,
,,,,,,,0,322,322,51,1,X,7,5,8, ,,1500,1.5,611bec7e3695aa64916100ce,001,2021-08-19_16h01.30.176,natb3,2021.2.3,MacIntel,60.0024001,611bec7e3695aa64916100ce,611e07ecdcc96256ae8d5b80,611e722f07a02cbd14e5a3c8,
,,,,space,0.5045,,0,323,323,310,1,J, , , , ,space,2500,2.5,611bec7e3695aa64916100ce,001,2021-08-19_16h01.30.176,natb3,2021.2.3,MacIntel,60.0024001,611bec7e3695aa64916100ce,611e07ecdcc96256ae8d5b80,611e722f07a02cbd14e5a3c8,
,,,,space,0.5805,,0,324,324,331,1,Y, , , , ,space,2500,2.5,611bec7e3695aa64916100ce,001,2021-08-19_16h01.30.176,natb3,2021.2.3,MacIntel,60.0024001,611bec7e3695aa64916100ce,611e07ecdcc96256ae8d5b80,611e722f07a02cbd14e5a3c8,
,,,,space,0.6583,,0,325,325,136,1,Z, , , , ,space,2500,2.5,611bec7e3695aa64916100ce,001,2021-08-19_16h01.30.176,natb3,2021.2.3,MacIntel,60.0024001,611bec7e3695aa64916100ce,611e07ecdcc96256ae8d5b80,611e722f07a02cbd14e5a3c8,
,,,,space,0.4909,,0,326,326,219,1,Y, , , , ,space,2000,2,611bec7e3695aa64916100ce,001,2021-08-19_16h01.30.176,natb3,2021.2.3,MacIntel,60.0024001,611bec7e3695aa64916100ce,611e07ecdcc96256ae8d5b80,611e722f07a02cbd14e5a3c8,
,,,,space,0.5313,,0,327,327,40,1,T, , , , ,space,1500,1.5,611bec7e3695aa64916100ce,001,2021-08-19_16h01.30.176,natb3,2021.2.3,MacIntel,60.0024001,611bec7e3695aa64916100ce,611e07ecdcc96256ae8d5b80,611e722f07a02cbd14e5a3c8,
,,,,,,,0,328,328,27,1,X,5, ,1,3,,1500,1.5,611bec7e3695aa64916100ce,001,2021-08-19_16h01.30.176,natb3,2021.2.3,MacIntel,60.0024001,611bec7e3695aa64916100ce,611e07ecdcc96256ae8d5b80,611e722f07a02cbd14e5a3c8,
,,,,space,0.5547,,0,329,329,280,1,L, , , , ,space,1500,1.5,611bec7e3695aa64916100ce,001,2021-08-19_16h01.30.176,natb3,2021.2.3,MacIntel,60.0024001,611bec7e3695aa64916100ce,611e07ecdcc96256ae8d5b80,611e722f07a02cbd14e5a3c8,
,,,,,,,0,330,330,248,1,X, ,1,5, ,,1500,1.5,611bec7e3695aa64916100ce,001,2021-08-19_16h01.30.176,natb3,2021.2.3,MacIntel,60.0024001,611bec7e3695aa64916100ce,611e07ecdcc96256ae8d5b80,611e722f07a02cbd14e5a3c8,
,,,,space,0.5486,,0,331,331,104,1,E, , , , ,space,2000,2,611bec7e3695aa64916100ce,001,2021-08-19_16h01.30.176,natb3,2021.2.3,MacIntel,60.0024001,611bec7e3695aa64916100ce,611e07ecdcc96256ae8d5b80,611e722f07a02cbd14e5a3c8,
,,,,space,0.5582,,0,332,332,80,1,A, , , , ,space,2000,2,611bec7e3695aa64916100ce,001,2021-08-19_16h01.30.176,natb3,2021.2.3,MacIntel,60.0024001,611bec7e3695aa64916100ce,611e07ecdcc96256ae8d5b80,611e722f07a02cbd14e5a3c8,
,,,,space,0.4658,,0,333,333,168,1,X, , , , ,,2500,2.5,611bec7e3695aa64916100ce,001,2021-08-19_16h01.30.176,natb3,2021.2.3,MacIntel,60.0024001,611bec7e3695aa64916100ce,611e07ecdcc96256ae8d5b80,611e722f07a02cbd14e5a3c8,
,,,,,,,0,334,334,82,1,X,4,6,1,7,,2000,2,611bec7e3695aa64916100ce,001,2021-08-19_16h01.30.176,natb3,2021.2.3,MacIntel,60.0024001,611bec7e3695aa64916100ce,611e07ecdcc96256ae8d5b80,611e722f07a02cbd14e5a3c8,
,,,,,,,0,335,335,31,1,X, , , , ,,1500,1.5,611bec7e3695aa64916100ce,001,2021-08-19_16h01.30.176,natb3,2021.2.3,MacIntel,60.0024001,611bec7e3695aa64916100ce,611e07ecdcc96256ae8d5b80,611e722f07a02cbd14e5a3c8,
