key_resp_2.keys,key_resp_2.rt,key_resp_3.keys,key_resp_3.rt,key_resp.keys,key_resp.rt,key_resp_4.keys,trials.thisRepN,trials.thisTrialN,trials.thisN,trials.thisIndex,trials.ran,stimulus,distractor1,distractor2,distractor3,distractor4,CorrAns,isi_duration,isi_dur_in_seconds,participant,session,date,expName,psychopyVersion,OS,frameRate,PROLIFIC_PID,STUDY_ID,SESSION_ID,key_resp_4.rt
return,18.408,space,42.15,space,0.66,,0,0,0,176,1,N, , , , ,space,1500,1.5,611bf52a1ded2b9f340813e4,001,2021-08-19_15h50.42.001,natb3,2021.2.3,MacIntel,58.82352941,611bf52a1ded2b9f340813e4,611e07ecdcc96256ae8d5b80,611e6fb0196aebbdb9c969a7,
,,,,,,,0,1,1,178,1,Q, , , , ,space,1500,1.5,611bf52a1ded2b9f340813e4,001,2021-08-19_15h50.42.001,natb3,2021.2.3,MacIntel,58.82352941,611bf52a1ded2b9f340813e4,611e07ecdcc96256ae8d5b80,611e6fb0196aebbdb9c969a7,
,,,,space,0.37,,0,2,2,228,1,Y, , , , ,space,2000,2,611bf52a1ded2b9f340813e4,001,2021-08-19_15h50.42.001,natb3,2021.2.3,MacIntel,58.82352941,611bf52a1ded2b9f340813e4,611e07ecdcc96256ae8d5b80,611e6fb0196aebbdb9c969a7,
,,,,space,0.338,,0,3,3,192,1,A, , , , ,space,2000,2,611bf52a1ded2b9f340813e4,001,2021-08-19_15h50.42.001,natb3,2021.2.3,MacIntel,58.82352941,611bf52a1ded2b9f340813e4,611e07ecdcc96256ae8d5b80,611e6fb0196aebbdb9c969a7,
,,,,space,0.413,,0,4,4,289,1,Q, , , , ,space,2000,2,611bf52a1ded2b9f340813e4,001,2021-08-19_15h50.42.001,natb3,2021.2.3,MacIntel,58.82352941,611bf52a1ded2b9f340813e4,611e07ecdcc96256ae8d5b80,611e6fb0196aebbdb9c969a7,
,,,,,,,0,5,5,295,1,X,8,7,5, ,,2500,2.5,611bf52a1ded2b9f340813e4,001,2021-08-19_15h50.42.001,natb3,2021.2.3,MacIntel,58.82352941,611bf52a1ded2b9f340813e4,611e07ecdcc96256ae8d5b80,611e6fb0196aebbdb9c969a7,
,,,,,,,0,6,6,153,1,X,4,7, ,6,,2000,2,611bf52a1ded2b9f340813e4,001,2021-08-19_15h50.42.001,natb3,2021.2.3,MacIntel,58.82352941,611bf52a1ded2b9f340813e4,611e07ecdcc96256ae8d5b80,611e6fb0196aebbdb9c969a7,
,,,,space,0.406,,0,7,7,230,1,U, , , , ,space,1500,1.5,611bf52a1ded2b9f340813e4,001,2021-08-19_15h50.42.001,natb3,2021.2.3,MacIntel,58.82352941,611bf52a1ded2b9f340813e4,611e07ecdcc96256ae8d5b80,611e6fb0196aebbdb9c969a7,
,,,,space,0.398,,0,8,8,250,1,V, , , , ,space,2000,2,611bf52a1ded2b9f340813e4,001,2021-08-19_15h50.42.001,natb3,2021.2.3,MacIntel,58.82352941,611bf52a1ded2b9f340813e4,611e07ecdcc96256ae8d5b80,611e6fb0196aebbdb9c969a7,
,,,,space,0.275,,0,9,9,77,1,O, , , , ,space,2000,2,611bf52a1ded2b9f340813e4,001,2021-08-19_15h50.42.001,natb3,2021.2.3,MacIntel,58.82352941,611bf52a1ded2b9f340813e4,611e07ecdcc96256ae8d5b80,611e6fb0196aebbdb9c969a7,
,,,,space,0.325,,0,10,10,301,1,P, , , , ,space,1500,1.5,611bf52a1ded2b9f340813e4,001,2021-08-19_15h50.42.001,natb3,2021.2.3,MacIntel,58.82352941,611bf52a1ded2b9f340813e4,611e07ecdcc96256ae8d5b80,611e6fb0196aebbdb9c969a7,
,,,,space,0.394,,0,11,11,108,1,Y, , , , ,space,2500,2.5,611bf52a1ded2b9f340813e4,001,2021-08-19_15h50.42.001,natb3,2021.2.3,MacIntel,58.82352941,611bf52a1ded2b9f340813e4,611e07ecdcc96256ae8d5b80,611e6fb0196aebbdb9c969a7,
,,,,space,0.322,,0,12,12,317,1,C, , , , ,space,2000,2,611bf52a1ded2b9f340813e4,001,2021-08-19_15h50.42.001,natb3,2021.2.3,MacIntel,58.82352941,611bf52a1ded2b9f340813e4,611e07ecdcc96256ae8d5b80,611e6fb0196aebbdb9c969a7,
,,,,space,0.322,,0,13,13,310,1,J, , , , ,space,2500,2.5,611bf52a1ded2b9f340813e4,001,2021-08-19_15h50.42.001,natb3,2021.2.3,MacIntel,58.82352941,611bf52a1ded2b9f340813e4,611e07ecdcc96256ae8d5b80,611e6fb0196aebbdb9c969a7,
,,,,space,0.373,,0,14,14,37,1,E, , , , ,space,2500,2.5,611bf52a1ded2b9f340813e4,001,2021-08-19_15h50.42.001,natb3,2021.2.3,MacIntel,58.82352941,611bf52a1ded2b9f340813e4,611e07ecdcc96256ae8d5b80,611e6fb0196aebbdb9c969a7,
,,,,space,0.504,,0,15,15,294,1,T, , , , ,space,2000,2,611bf52a1ded2b9f340813e4,001,2021-08-19_15h50.42.001,natb3,2021.2.3,MacIntel,58.82352941,611bf52a1ded2b9f340813e4,611e07ecdcc96256ae8d5b80,611e6fb0196aebbdb9c969a7,
,,,,space,0.344,,0,16,16,17,1,F, , , , ,space,2500,2.5,611bf52a1ded2b9f340813e4,001,2021-08-19_15h50.42.001,natb3,2021.2.3,MacIntel,58.82352941,611bf52a1ded2b9f340813e4,611e07ecdcc96256ae8d5b80,611e6fb0196aebbdb9c969a7,
,,,,space,0.359,,0,17,17,260,1,R, , , , ,space,2000,2,611bf52a1ded2b9f340813e4,001,2021-08-19_15h50.42.001,natb3,2021.2.3,MacIntel,58.82352941,611bf52a1ded2b9f340813e4,611e07ecdcc96256ae8d5b80,611e6fb0196aebbdb9c969a7,
,,,,,,,0,18,18,141,1,X,1, ,4,6,,1500,1.5,611bf52a1ded2b9f340813e4,001,2021-08-19_15h50.42.001,natb3,2021.2.3,MacIntel,58.82352941,611bf52a1ded2b9f340813e4,611e07ecdcc96256ae8d5b80,611e6fb0196aebbdb9c969a7,
,,,,,,,0,19,19,175,1,X,7, ,4,2,,1500,1.5,611bf52a1ded2b9f340813e4,001,2021-08-19_15h50.42.001,natb3,2021.2.3,MacIntel,58.82352941,611bf52a1ded2b9f340813e4,611e07ecdcc96256ae8d5b80,611e6fb0196aebbdb9c969a7,
,,,,space,0.387,,0,20,20,269,1,A, , , , ,space,2500,2.5,611bf52a1ded2b9f340813e4,001,2021-08-19_15h50.42.001,natb3,2021.2.3,MacIntel,58.82352941,611bf52a1ded2b9f340813e4,611e07ecdcc96256ae8d5b80,611e6fb0196aebbdb9c969a7,
,,,,,,,0,21,21,51,1,X,7,5,8, ,,1500,1.5,611bf52a1ded2b9f340813e4,001,2021-08-19_15h50.42.001,natb3,2021.2.3,MacIntel,58.82352941,611bf52a1ded2b9f340813e4,611e07ecdcc96256ae8d5b80,611e6fb0196aebbdb9c969a7,
,,,,space,0.424,,0,22,22,45,1,O, , , , ,space,2000,2,611bf52a1ded2b9f340813e4,001,2021-08-19_15h50.42.001,natb3,2021.2.3,MacIntel,58.82352941,611bf52a1ded2b9f340813e4,611e07ecdcc96256ae8d5b80,611e6fb0196aebbdb9c969a7,
,,,,space,0.442,,0,23,23,225,1,E, , , , ,space,2000,2,611bf52a1ded2b9f340813e4,001,2021-08-19_15h50.42.001,natb3,2021.2.3,MacIntel,58.82352941,611bf52a1ded2b9f340813e4,611e07ecdcc96256ae8d5b80,611e6fb0196aebbdb9c969a7,
,,,,space,0.287,,0,24,24,199,1,J, , , , ,space,2500,2.5,611bf52a1ded2b9f340813e4,001,2021-08-19_15h50.42.001,natb3,2021.2.3,MacIntel,58.82352941,611bf52a1ded2b9f340813e4,611e07ecdcc96256ae8d5b80,611e6fb0196aebbdb9c969a7,
,,,,space,0.355,,0,25,25,49,1,S, , , , ,space,1500,1.5,611bf52a1ded2b9f340813e4,001,2021-08-19_15h50.42.001,natb3,2021.2.3,MacIntel,58.82352941,611bf52a1ded2b9f340813e4,611e07ecdcc96256ae8d5b80,611e6fb0196aebbdb9c969a7,
,,,,space,0.304,,0,26,26,253,1,N, , , , ,space,2500,2.5,611bf52a1ded2b9f340813e4,001,2021-08-19_15h50.42.001,natb3,2021.2.3,MacIntel,58.82352941,611bf52a1ded2b9f340813e4,611e07ecdcc96256ae8d5b80,611e6fb0196aebbdb9c969a7,
,,,,space,0.345,,0,27,27,298,1,I, , , , ,space,2000,2,611bf52a1ded2b9f340813e4,001,2021-08-19_15h50.42.001,natb3,2021.2.3,MacIntel,58.82352941,611bf52a1ded2b9f340813e4,611e07ecdcc96256ae8d5b80,611e6fb0196aebbdb9c969a7,
,,,,space,0.297,,0,28,28,274,1,F, , , , ,space,2000,2,611bf52a1ded2b9f340813e4,001,2021-08-19_15h50.42.001,natb3,2021.2.3,MacIntel,58.82352941,611bf52a1ded2b9f340813e4,611e07ecdcc96256ae8d5b80,611e6fb0196aebbdb9c969a7,
,,,,space,0.295,,0,29,29,321,1,N, , , , ,space,2000,2,611bf52a1ded2b9f340813e4,001,2021-08-19_15h50.42.001,natb3,2021.2.3,MacIntel,58.82352941,611bf52a1ded2b9f340813e4,611e07ecdcc96256ae8d5b80,611e6fb0196aebbdb9c969a7,
,,,,space,0.329,,0,30,30,327,1,E, , , , ,space,1500,1.5,611bf52a1ded2b9f340813e4,001,2021-08-19_15h50.42.001,natb3,2021.2.3,MacIntel,58.82352941,611bf52a1ded2b9f340813e4,611e07ecdcc96256ae8d5b80,611e6fb0196aebbdb9c969a7,
,,,,space,0.321,,0,31,31,265,1,I, , , , ,space,2000,2,611bf52a1ded2b9f340813e4,001,2021-08-19_15h50.42.001,natb3,2021.2.3,MacIntel,58.82352941,611bf52a1ded2b9f340813e4,611e07ecdcc96256ae8d5b80,611e6fb0196aebbdb9c969a7,
,,,,space,0.355,,0,32,32,136,1,Z, , , , ,space,2500,2.5,611bf52a1ded2b9f340813e4,001,2021-08-19_15h50.42.001,natb3,2021.2.3,MacIntel,58.82352941,611bf52a1ded2b9f340813e4,611e07ecdcc96256ae8d5b80,611e6fb0196aebbdb9c969a7,
,,,,space,0.344,,0,33,33,76,1,I, , , , ,space,2000,2,611bf52a1ded2b9f340813e4,001,2021-08-19_15h50.42.001,natb3,2021.2.3,MacIntel,58.82352941,611bf52a1ded2b9f340813e4,611e07ecdcc96256ae8d5b80,611e6fb0196aebbdb9c969a7,
,,,,space,0.358,,0,34,34,74,1,X, ,4,3,2,,1500,1.5,611bf52a1ded2b9f340813e4,001,2021-08-19_15h50.42.001,natb3,2021.2.3,MacIntel,58.82352941,611bf52a1ded2b9f340813e4,611e07ecdcc96256ae8d5b80,611e6fb0196aebbdb9c969a7,
,,,,space,0.426,,0,35,35,151,1,Y, , , , ,space,2500,2.5,611bf52a1ded2b9f340813e4,001,2021-08-19_15h50.42.001,natb3,2021.2.3,MacIntel,58.82352941,611bf52a1ded2b9f340813e4,611e07ecdcc96256ae8d5b80,611e6fb0196aebbdb9c969a7,
,,,,,,,0,36,36,84,1,X, , , , ,,2000,2,611bf52a1ded2b9f340813e4,001,2021-08-19_15h50.42.001,natb3,2021.2.3,MacIntel,58.82352941,611bf52a1ded2b9f340813e4,611e07ecdcc96256ae8d5b80,611e6fb0196aebbdb9c969a7,
,,,,space,0.381,,0,37,37,80,1,A, , , , ,space,2000,2,611bf52a1ded2b9f340813e4,001,2021-08-19_15h50.42.001,natb3,2021.2.3,MacIntel,58.82352941,611bf52a1ded2b9f340813e4,611e07ecdcc96256ae8d5b80,611e6fb0196aebbdb9c969a7,
,,,,space,0.42,,0,38,38,186,1,U, , , , ,space,2500,2.5,611bf52a1ded2b9f340813e4,001,2021-08-19_15h50.42.001,natb3,2021.2.3,MacIntel,58.82352941,611bf52a1ded2b9f340813e4,611e07ecdcc96256ae8d5b80,611e6fb0196aebbdb9c969a7,
,,,,space,0.413,,0,39,39,237,1,S, , , , ,space,1500,1.5,611bf52a1ded2b9f340813e4,001,2021-08-19_15h50.42.001,natb3,2021.2.3,MacIntel,58.82352941,611bf52a1ded2b9f340813e4,611e07ecdcc96256ae8d5b80,611e6fb0196aebbdb9c969a7,
,,,,space,0.355,,0,40,40,130,1,F, , , , ,space,2000,2,611bf52a1ded2b9f340813e4,001,2021-08-19_15h50.42.001,natb3,2021.2.3,MacIntel,58.82352941,611bf52a1ded2b9f340813e4,611e07ecdcc96256ae8d5b80,611e6fb0196aebbdb9c969a7,
,,,,space,0.424,,0,41,41,57,1,K, , , , ,space,2500,2.5,611bf52a1ded2b9f340813e4,001,2021-08-19_15h50.42.001,natb3,2021.2.3,MacIntel,58.82352941,611bf52a1ded2b9f340813e4,611e07ecdcc96256ae8d5b80,611e6fb0196aebbdb9c969a7,
,,,,space,0.342,,0,42,42,119,1,Y, , , , ,space,2500,2.5,611bf52a1ded2b9f340813e4,001,2021-08-19_15h50.42.001,natb3,2021.2.3,MacIntel,58.82352941,611bf52a1ded2b9f340813e4,611e07ecdcc96256ae8d5b80,611e6fb0196aebbdb9c969a7,
,,,,space,0.348,,0,43,43,127,1,S, , , , ,space,2500,2.5,611bf52a1ded2b9f340813e4,001,2021-08-19_15h50.42.001,natb3,2021.2.3,MacIntel,58.82352941,611bf52a1ded2b9f340813e4,611e07ecdcc96256ae8d5b80,611e6fb0196aebbdb9c969a7,
,,,,,,,0,44,44,60,1,X,7,3,5, ,,1500,1.5,611bf52a1ded2b9f340813e4,001,2021-08-19_15h50.42.001,natb3,2021.2.3,MacIntel,58.82352941,611bf52a1ded2b9f340813e4,611e07ecdcc96256ae8d5b80,611e6fb0196aebbdb9c969a7,
,,,,,,,0,45,45,122,1,X,1, , ,8,,1500,1.5,611bf52a1ded2b9f340813e4,001,2021-08-19_15h50.42.001,natb3,2021.2.3,MacIntel,58.82352941,611bf52a1ded2b9f340813e4,611e07ecdcc96256ae8d5b80,611e6fb0196aebbdb9c969a7,
,,,,space,0.445,,0,46,46,222,1,O, , , , ,space,2000,2,611bf52a1ded2b9f340813e4,001,2021-08-19_15h50.42.001,natb3,2021.2.3,MacIntel,58.82352941,611bf52a1ded2b9f340813e4,611e07ecdcc96256ae8d5b80,611e6fb0196aebbdb9c969a7,
,,,,space,0.447,,0,47,47,319,1,V, , , , ,space,2000,2,611bf52a1ded2b9f340813e4,001,2021-08-19_15h50.42.001,natb3,2021.2.3,MacIntel,58.82352941,611bf52a1ded2b9f340813e4,611e07ecdcc96256ae8d5b80,611e6fb0196aebbdb9c969a7,
,,,,space,0.745,,0,48,48,216,1,R, , , , ,space,1500,1.5,611bf52a1ded2b9f340813e4,001,2021-08-19_15h50.42.001,natb3,2021.2.3,MacIntel,58.82352941,611bf52a1ded2b9f340813e4,611e07ecdcc96256ae8d5b80,611e6fb0196aebbdb9c969a7,
,,,,,,,0,49,49,318,1,X, , , , ,,1500,1.5,611bf52a1ded2b9f340813e4,001,2021-08-19_15h50.42.001,natb3,2021.2.3,MacIntel,58.82352941,611bf52a1ded2b9f340813e4,611e07ecdcc96256ae8d5b80,611e6fb0196aebbdb9c969a7,
,,,,,,,0,50,50,218,1,X,1,3, ,8,,1500,1.5,611bf52a1ded2b9f340813e4,001,2021-08-19_15h50.42.001,natb3,2021.2.3,MacIntel,58.82352941,611bf52a1ded2b9f340813e4,611e07ecdcc96256ae8d5b80,611e6fb0196aebbdb9c969a7,
,,,,space,0.575,,0,51,51,144,1,Q, , , , ,space,2500,2.5,611bf52a1ded2b9f340813e4,001,2021-08-19_15h50.42.001,natb3,2021.2.3,MacIntel,58.82352941,611bf52a1ded2b9f340813e4,611e07ecdcc96256ae8d5b80,611e6fb0196aebbdb9c969a7,
,,,,,,,0,52,52,328,1,R, , , , ,space,1500,1.5,611bf52a1ded2b9f340813e4,001,2021-08-19_15h50.42.001,natb3,2021.2.3,MacIntel,58.82352941,611bf52a1ded2b9f340813e4,611e07ecdcc96256ae8d5b80,611e6fb0196aebbdb9c969a7,
,,,,space,0.423,,0,53,53,219,1,Y, , , , ,space,2000,2,611bf52a1ded2b9f340813e4,001,2021-08-19_15h50.42.001,natb3,2021.2.3,MacIntel,58.82352941,611bf52a1ded2b9f340813e4,611e07ecdcc96256ae8d5b80,611e6fb0196aebbdb9c969a7,
,,,,,,,0,54,54,89,1,X,3, , , ,,2000,2,611bf52a1ded2b9f340813e4,001,2021-08-19_15h50.42.001,natb3,2021.2.3,MacIntel,58.82352941,611bf52a1ded2b9f340813e4,611e07ecdcc96256ae8d5b80,611e6fb0196aebbdb9c969a7,
,,,,space,0.508,,0,55,55,249,1,C, , , , ,space,2000,2,611bf52a1ded2b9f340813e4,001,2021-08-19_15h50.42.001,natb3,2021.2.3,MacIntel,58.82352941,611bf52a1ded2b9f340813e4,611e07ecdcc96256ae8d5b80,611e6fb0196aebbdb9c969a7,
,,,,,,,0,56,56,15,1,X, , , , ,,1500,1.5,611bf52a1ded2b9f340813e4,001,2021-08-19_15h50.42.001,natb3,2021.2.3,MacIntel,58.82352941,611bf52a1ded2b9f340813e4,611e07ecdcc96256ae8d5b80,611e6fb0196aebbdb9c969a7,
,,,,space,0.581,,0,57,57,113,1,W, , , , ,space,2500,2.5,611bf52a1ded2b9f340813e4,001,2021-08-19_15h50.42.001,natb3,2021.2.3,MacIntel,58.82352941,611bf52a1ded2b9f340813e4,611e07ecdcc96256ae8d5b80,611e6fb0196aebbdb9c969a7,
,,,,space,0.52,,0,58,58,306,1,D, , , , ,space,2000,2,611bf52a1ded2b9f340813e4,001,2021-08-19_15h50.42.001,natb3,2021.2.3,MacIntel,58.82352941,611bf52a1ded2b9f340813e4,611e07ecdcc96256ae8d5b80,611e6fb0196aebbdb9c969a7,
,,,,,,,0,59,59,145,1,X, , , , ,,2000,2,611bf52a1ded2b9f340813e4,001,2021-08-19_15h50.42.001,natb3,2021.2.3,MacIntel,58.82352941,611bf52a1ded2b9f340813e4,611e07ecdcc96256ae8d5b80,611e6fb0196aebbdb9c969a7,
,,,,space,0.638,,0,60,60,165,1,J, , , , ,space,2500,2.5,611bf52a1ded2b9f340813e4,001,2021-08-19_15h50.42.001,natb3,2021.2.3,MacIntel,58.82352941,611bf52a1ded2b9f340813e4,611e07ecdcc96256ae8d5b80,611e6fb0196aebbdb9c969a7,
,,,,space,0.428,,0,61,61,297,1,U, , , , ,space,2000,2,611bf52a1ded2b9f340813e4,001,2021-08-19_15h50.42.001,natb3,2021.2.3,MacIntel,58.82352941,611bf52a1ded2b9f340813e4,611e07ecdcc96256ae8d5b80,611e6fb0196aebbdb9c969a7,
,,,,,,,0,62,62,23,1,X,1, ,5, ,,2000,2,611bf52a1ded2b9f340813e4,001,2021-08-19_15h50.42.001,natb3,2021.2.3,MacIntel,58.82352941,611bf52a1ded2b9f340813e4,611e07ecdcc96256ae8d5b80,611e6fb0196aebbdb9c969a7,
,,,,space,0.386,,0,63,63,65,1,M, , , , ,space,1500,1.5,611bf52a1ded2b9f340813e4,001,2021-08-19_15h50.42.001,natb3,2021.2.3,MacIntel,58.82352941,611bf52a1ded2b9f340813e4,611e07ecdcc96256ae8d5b80,611e6fb0196aebbdb9c969a7,
,,,,space,0.463,,0,64,64,24,1,L, , , , ,space,2500,2.5,611bf52a1ded2b9f340813e4,001,2021-08-19_15h50.42.001,natb3,2021.2.3,MacIntel,58.82352941,611bf52a1ded2b9f340813e4,611e07ecdcc96256ae8d5b80,611e6fb0196aebbdb9c969a7,
,,,,space,0.392,,0,65,65,169,1,L, , , , ,space,2500,2.5,611bf52a1ded2b9f340813e4,001,2021-08-19_15h50.42.001,natb3,2021.2.3,MacIntel,58.82352941,611bf52a1ded2b9f340813e4,611e07ecdcc96256ae8d5b80,611e6fb0196aebbdb9c969a7,
,,,,space,0.363,,0,66,66,160,1,D, , , , ,space,1500,1.5,611bf52a1ded2b9f340813e4,001,2021-08-19_15h50.42.001,natb3,2021.2.3,MacIntel,58.82352941,611bf52a1ded2b9f340813e4,611e07ecdcc96256ae8d5b80,611e6fb0196aebbdb9c969a7,
,,,,space,0.362,,0,67,67,61,1,C, , , , ,space,2000,2,611bf52a1ded2b9f340813e4,001,2021-08-19_15h50.42.001,natb3,2021.2.3,MacIntel,58.82352941,611bf52a1ded2b9f340813e4,611e07ecdcc96256ae8d5b80,611e6fb0196aebbdb9c969a7,
,,,,space,0.477,,0,68,68,20,1,H, , , , ,space,1500,1.5,611bf52a1ded2b9f340813e4,001,2021-08-19_15h50.42.001,natb3,2021.2.3,MacIntel,58.82352941,611bf52a1ded2b9f340813e4,611e07ecdcc96256ae8d5b80,611e6fb0196aebbdb9c969a7,
,,,,space,0.476,,0,69,69,331,1,Y, , , , ,space,2500,2.5,611bf52a1ded2b9f340813e4,001,2021-08-19_15h50.42.001,natb3,2021.2.3,MacIntel,58.82352941,611bf52a1ded2b9f340813e4,611e07ecdcc96256ae8d5b80,611e6fb0196aebbdb9c969a7,
,,,,,,,0,70,70,187,1,X, ,3,7,4,,1500,1.5,611bf52a1ded2b9f340813e4,001,2021-08-19_15h50.42.001,natb3,2021.2.3,MacIntel,58.82352941,611bf52a1ded2b9f340813e4,611e07ecdcc96256ae8d5b80,611e6fb0196aebbdb9c969a7,
,,,,,,,0,71,71,213,1,X, , , , ,,2500,2.5,611bf52a1ded2b9f340813e4,001,2021-08-19_15h50.42.001,natb3,2021.2.3,MacIntel,58.82352941,611bf52a1ded2b9f340813e4,611e07ecdcc96256ae8d5b80,611e6fb0196aebbdb9c969a7,
,,,,,,,0,72,72,236,1,X,3, ,4,7,,2500,2.5,611bf52a1ded2b9f340813e4,001,2021-08-19_15h50.42.001,natb3,2021.2.3,MacIntel,58.82352941,611bf52a1ded2b9f340813e4,611e07ecdcc96256ae8d5b80,611e6fb0196aebbdb9c969a7,
,,,,space,0.474,,0,73,73,21,1,J, , , , ,space,1500,1.5,611bf52a1ded2b9f340813e4,001,2021-08-19_15h50.42.001,natb3,2021.2.3,MacIntel,58.82352941,611bf52a1ded2b9f340813e4,611e07ecdcc96256ae8d5b80,611e6fb0196aebbdb9c969a7,
,,,,space,0.736,,0,74,74,6,1,Y, , , , ,space,2500,2.5,611bf52a1ded2b9f340813e4,001,2021-08-19_15h50.42.001,natb3,2021.2.3,MacIntel,58.82352941,611bf52a1ded2b9f340813e4,611e07ecdcc96256ae8d5b80,611e6fb0196aebbdb9c969a7,
,,,,space,0.34,,0,75,75,281,1,Z, , , , ,space,1500,1.5,611bf52a1ded2b9f340813e4,001,2021-08-19_15h50.42.001,natb3,2021.2.3,MacIntel,58.82352941,611bf52a1ded2b9f340813e4,611e07ecdcc96256ae8d5b80,611e6fb0196aebbdb9c969a7,
,,,,space,0.538,,0,76,76,117,1,T, , , , ,space,2500,2.5,611bf52a1ded2b9f340813e4,001,2021-08-19_15h50.42.001,natb3,2021.2.3,MacIntel,58.82352941,611bf52a1ded2b9f340813e4,611e07ecdcc96256ae8d5b80,611e6fb0196aebbdb9c969a7,
,,,,space,0.478,,0,77,77,86,1,G, , , , ,space,2000,2,611bf52a1ded2b9f340813e4,001,2021-08-19_15h50.42.001,natb3,2021.2.3,MacIntel,58.82352941,611bf52a1ded2b9f340813e4,611e07ecdcc96256ae8d5b80,611e6fb0196aebbdb9c969a7,
,,,,space,0.365,,0,78,78,64,1,N, , , , ,space,2000,2,611bf52a1ded2b9f340813e4,001,2021-08-19_15h50.42.001,natb3,2021.2.3,MacIntel,58.82352941,611bf52a1ded2b9f340813e4,611e07ecdcc96256ae8d5b80,611e6fb0196aebbdb9c969a7,
,,,,space,0.372,,0,79,79,2,1,E, , , , ,space,2500,2.5,611bf52a1ded2b9f340813e4,001,2021-08-19_15h50.42.001,natb3,2021.2.3,MacIntel,58.82352941,611bf52a1ded2b9f340813e4,611e07ecdcc96256ae8d5b80,611e6fb0196aebbdb9c969a7,
,,,,,,,0,80,80,277,1,X,8,5, ,2,,2000,2,611bf52a1ded2b9f340813e4,001,2021-08-19_15h50.42.001,natb3,2021.2.3,MacIntel,58.82352941,611bf52a1ded2b9f340813e4,611e07ecdcc96256ae8d5b80,611e6fb0196aebbdb9c969a7,
,,,,space,0.418,,0,81,81,157,1,A, , , , ,space,2500,2.5,611bf52a1ded2b9f340813e4,001,2021-08-19_15h50.42.001,natb3,2021.2.3,MacIntel,58.82352941,611bf52a1ded2b9f340813e4,611e07ecdcc96256ae8d5b80,611e6fb0196aebbdb9c969a7,
,,,,space,0.811,,0,82,82,264,1,U, , , , ,space,2000,2,611bf52a1ded2b9f340813e4,001,2021-08-19_15h50.42.001,natb3,2021.2.3,MacIntel,58.82352941,611bf52a1ded2b9f340813e4,611e07ecdcc96256ae8d5b80,611e6fb0196aebbdb9c969a7,
,,,,space,0.553,,0,83,83,42,1,U, , , , ,space,1500,1.5,611bf52a1ded2b9f340813e4,001,2021-08-19_15h50.42.001,natb3,2021.2.3,MacIntel,58.82352941,611bf52a1ded2b9f340813e4,611e07ecdcc96256ae8d5b80,611e6fb0196aebbdb9c969a7,
,,,,space,0.588,,0,84,84,132,1,H, , , , ,space,2500,2.5,611bf52a1ded2b9f340813e4,001,2021-08-19_15h50.42.001,natb3,2021.2.3,MacIntel,58.82352941,611bf52a1ded2b9f340813e4,611e07ecdcc96256ae8d5b80,611e6fb0196aebbdb9c969a7,
,,,,,,,0,85,85,107,1,X,9,3, ,2,,2000,2,611bf52a1ded2b9f340813e4,001,2021-08-19_15h50.42.001,natb3,2021.2.3,MacIntel,58.82352941,611bf52a1ded2b9f340813e4,611e07ecdcc96256ae8d5b80,611e6fb0196aebbdb9c969a7,
,,,,,,,0,86,86,69,1,X, , , , ,,1500,1.5,611bf52a1ded2b9f340813e4,001,2021-08-19_15h50.42.001,natb3,2021.2.3,MacIntel,58.82352941,611bf52a1ded2b9f340813e4,611e07ecdcc96256ae8d5b80,611e6fb0196aebbdb9c969a7,
,,,,,,,0,87,87,66,1,X, ,4,7, ,,2000,2,611bf52a1ded2b9f340813e4,001,2021-08-19_15h50.42.001,natb3,2021.2.3,MacIntel,58.82352941,611bf52a1ded2b9f340813e4,611e07ecdcc96256ae8d5b80,611e6fb0196aebbdb9c969a7,
,,,,space,0.605,,0,88,88,316,1,Z, , , , ,space,1500,1.5,611bf52a1ded2b9f340813e4,001,2021-08-19_15h50.42.001,natb3,2021.2.3,MacIntel,58.82352941,611bf52a1ded2b9f340813e4,611e07ecdcc96256ae8d5b80,611e6fb0196aebbdb9c969a7,
,,,,space,0.797,,0,89,89,189,1,O, , , , ,space,1500,1.5,611bf52a1ded2b9f340813e4,001,2021-08-19_15h50.42.001,natb3,2021.2.3,MacIntel,58.82352941,611bf52a1ded2b9f340813e4,611e07ecdcc96256ae8d5b80,611e6fb0196aebbdb9c969a7,
,,,,,,,0,90,90,229,1,X,8, ,2,6,,2500,2.5,611bf52a1ded2b9f340813e4,001,2021-08-19_15h50.42.001,natb3,2021.2.3,MacIntel,58.82352941,611bf52a1ded2b9f340813e4,611e07ecdcc96256ae8d5b80,611e6fb0196aebbdb9c969a7,
,,,,space,0.61,,0,91,91,135,1,K, , , , ,space,1500,1.5,611bf52a1ded2b9f340813e4,001,2021-08-19_15h50.42.001,natb3,2021.2.3,MacIntel,58.82352941,611bf52a1ded2b9f340813e4,611e07ecdcc96256ae8d5b80,611e6fb0196aebbdb9c969a7,
,,,,space,0.637,,0,92,92,170,1,Z, , , , ,space,2000,2,611bf52a1ded2b9f340813e4,001,2021-08-19_15h50.42.001,natb3,2021.2.3,MacIntel,58.82352941,611bf52a1ded2b9f340813e4,611e07ecdcc96256ae8d5b80,611e6fb0196aebbdb9c969a7,
,,,,space,0.663,,0,93,93,81,1,S, , , , ,space,2000,2,611bf52a1ded2b9f340813e4,001,2021-08-19_15h50.42.001,natb3,2021.2.3,MacIntel,58.82352941,611bf52a1ded2b9f340813e4,611e07ecdcc96256ae8d5b80,611e6fb0196aebbdb9c969a7,
,,,,space,0.693,,0,94,94,123,1,O, , , , ,space,1500,1.5,611bf52a1ded2b9f340813e4,001,2021-08-19_15h50.42.001,natb3,2021.2.3,MacIntel,58.82352941,611bf52a1ded2b9f340813e4,611e07ecdcc96256ae8d5b80,611e6fb0196aebbdb9c969a7,
,,,,space,0.809,,0,95,95,314,1,L, , , , ,space,1500,1.5,611bf52a1ded2b9f340813e4,001,2021-08-19_15h50.42.001,natb3,2021.2.3,MacIntel,58.82352941,611bf52a1ded2b9f340813e4,611e07ecdcc96256ae8d5b80,611e6fb0196aebbdb9c969a7,
,,,,space,0.461,,0,96,96,149,1,R, , , , ,space,2000,2,611bf52a1ded2b9f340813e4,001,2021-08-19_15h50.42.001,natb3,2021.2.3,MacIntel,58.82352941,611bf52a1ded2b9f340813e4,611e07ecdcc96256ae8d5b80,611e6fb0196aebbdb9c969a7,
,,,,space,0.414,,0,97,97,188,1,I, , , , ,space,2500,2.5,611bf52a1ded2b9f340813e4,001,2021-08-19_15h50.42.001,natb3,2021.2.3,MacIntel,58.82352941,611bf52a1ded2b9f340813e4,611e07ecdcc96256ae8d5b80,611e6fb0196aebbdb9c969a7,
,,,,space,0.42,,0,98,98,110,1,I, , , , ,space,1500,1.5,611bf52a1ded2b9f340813e4,001,2021-08-19_15h50.42.001,natb3,2021.2.3,MacIntel,58.82352941,611bf52a1ded2b9f340813e4,611e07ecdcc96256ae8d5b80,611e6fb0196aebbdb9c969a7,
,,,,space,0.431,,0,99,99,8,1,U, , , , ,space,1500,1.5,611bf52a1ded2b9f340813e4,001,2021-08-19_15h50.42.001,natb3,2021.2.3,MacIntel,58.82352941,611bf52a1ded2b9f340813e4,611e07ecdcc96256ae8d5b80,611e6fb0196aebbdb9c969a7,
,,,,,,,0,100,100,315,1,X, , , , ,,2500,2.5,611bf52a1ded2b9f340813e4,001,2021-08-19_15h50.42.001,natb3,2021.2.3,MacIntel,58.82352941,611bf52a1ded2b9f340813e4,611e07ecdcc96256ae8d5b80,611e6fb0196aebbdb9c969a7,
,,,,space,0.415,,0,101,101,16,1,D, , , , ,space,1500,1.5,611bf52a1ded2b9f340813e4,001,2021-08-19_15h50.42.001,natb3,2021.2.3,MacIntel,58.82352941,611bf52a1ded2b9f340813e4,611e07ecdcc96256ae8d5b80,611e6fb0196aebbdb9c969a7,
,,,,space,0.398,,0,102,102,227,1,T, , , , ,space,1500,1.5,611bf52a1ded2b9f340813e4,001,2021-08-19_15h50.42.001,natb3,2021.2.3,MacIntel,58.82352941,611bf52a1ded2b9f340813e4,611e07ecdcc96256ae8d5b80,611e6fb0196aebbdb9c969a7,
,,,,space,0.404,,0,103,103,115,1,R, , , , ,space,1500,1.5,611bf52a1ded2b9f340813e4,001,2021-08-19_15h50.42.001,natb3,2021.2.3,MacIntel,58.82352941,611bf52a1ded2b9f340813e4,611e07ecdcc96256ae8d5b80,611e6fb0196aebbdb9c969a7,
,,,,space,0.387,,0,104,104,210,1,M, , , , ,space,1500,1.5,611bf52a1ded2b9f340813e4,001,2021-08-19_15h50.42.001,natb3,2021.2.3,MacIntel,58.82352941,611bf52a1ded2b9f340813e4,611e07ecdcc96256ae8d5b80,611e6fb0196aebbdb9c969a7,
,,,,space,0.394,,0,105,105,146,1,W, , , , ,space,1500,1.5,611bf52a1ded2b9f340813e4,001,2021-08-19_15h50.42.001,natb3,2021.2.3,MacIntel,58.82352941,611bf52a1ded2b9f340813e4,611e07ecdcc96256ae8d5b80,611e6fb0196aebbdb9c969a7,
,,,,space,0.396,,0,106,106,11,1,P, , , , ,space,2500,2.5,611bf52a1ded2b9f340813e4,001,2021-08-19_15h50.42.001,natb3,2021.2.3,MacIntel,58.82352941,611bf52a1ded2b9f340813e4,611e07ecdcc96256ae8d5b80,611e6fb0196aebbdb9c969a7,
,,,,space,0.381,,0,107,107,234,1,P, , , , ,space,2000,2,611bf52a1ded2b9f340813e4,001,2021-08-19_15h50.42.001,natb3,2021.2.3,MacIntel,58.82352941,611bf52a1ded2b9f340813e4,611e07ecdcc96256ae8d5b80,611e6fb0196aebbdb9c969a7,
,,,,space,0.519,,0,108,108,126,1,A, , , , ,space,2500,2.5,611bf52a1ded2b9f340813e4,001,2021-08-19_15h50.42.001,natb3,2021.2.3,MacIntel,58.82352941,611bf52a1ded2b9f340813e4,611e07ecdcc96256ae8d5b80,611e6fb0196aebbdb9c969a7,
,,,,space,0.455,,0,109,109,62,1,V, , , , ,space,1500,1.5,611bf52a1ded2b9f340813e4,001,2021-08-19_15h50.42.001,natb3,2021.2.3,MacIntel,58.82352941,611bf52a1ded2b9f340813e4,611e07ecdcc96256ae8d5b80,611e6fb0196aebbdb9c969a7,
,,,,space,0.314,,0,110,110,226,1,R, , , , ,space,2000,2,611bf52a1ded2b9f340813e4,001,2021-08-19_15h50.42.001,natb3,2021.2.3,MacIntel,58.82352941,611bf52a1ded2b9f340813e4,611e07ecdcc96256ae8d5b80,611e6fb0196aebbdb9c969a7,
,,,,space,0.424,,0,111,111,299,1,X, , , , ,,2500,2.5,611bf52a1ded2b9f340813e4,001,2021-08-19_15h50.42.001,natb3,2021.2.3,MacIntel,58.82352941,611bf52a1ded2b9f340813e4,611e07ecdcc96256ae8d5b80,611e6fb0196aebbdb9c969a7,
,,,,,,,0,112,112,322,1,X, , ,1,6,,2000,2,611bf52a1ded2b9f340813e4,001,2021-08-19_15h50.42.001,natb3,2021.2.3,MacIntel,58.82352941,611bf52a1ded2b9f340813e4,611e07ecdcc96256ae8d5b80,611e6fb0196aebbdb9c969a7,
,,,,space,0.47,,0,113,113,147,1,E, , , , ,space,2000,2,611bf52a1ded2b9f340813e4,001,2021-08-19_15h50.42.001,natb3,2021.2.3,MacIntel,58.82352941,611bf52a1ded2b9f340813e4,611e07ecdcc96256ae8d5b80,611e6fb0196aebbdb9c969a7,
,,,,space,0.389,,0,114,114,202,1,L, , , , ,space,2500,2.5,611bf52a1ded2b9f340813e4,001,2021-08-19_15h50.42.001,natb3,2021.2.3,MacIntel,58.82352941,611bf52a1ded2b9f340813e4,611e07ecdcc96256ae8d5b80,611e6fb0196aebbdb9c969a7,
,,,,,,,0,115,115,243,1,X, , , , ,,2500,2.5,611bf52a1ded2b9f340813e4,001,2021-08-19_15h50.42.001,natb3,2021.2.3,MacIntel,58.82352941,611bf52a1ded2b9f340813e4,611e07ecdcc96256ae8d5b80,611e6fb0196aebbdb9c969a7,
,,,,,,,0,116,116,259,1,X,8, , ,3,,2500,2.5,611bf52a1ded2b9f340813e4,001,2021-08-19_15h50.42.001,natb3,2021.2.3,MacIntel,58.82352941,611bf52a1ded2b9f340813e4,611e07ecdcc96256ae8d5b80,611e6fb0196aebbdb9c969a7,
,,,,space,0.454,,0,117,117,85,1,F, , , , ,space,2500,2.5,611bf52a1ded2b9f340813e4,001,2021-08-19_15h50.42.001,natb3,2021.2.3,MacIntel,58.82352941,611bf52a1ded2b9f340813e4,611e07ecdcc96256ae8d5b80,611e6fb0196aebbdb9c969a7,
,,,,space,0.519,,0,118,118,292,1,E, , , , ,space,2000,2,611bf52a1ded2b9f340813e4,001,2021-08-19_15h50.42.001,natb3,2021.2.3,MacIntel,58.82352941,611bf52a1ded2b9f340813e4,611e07ecdcc96256ae8d5b80,611e6fb0196aebbdb9c969a7,
,,,,,,,0,119,119,125,1,X, , , , ,,2000,2,611bf52a1ded2b9f340813e4,001,2021-08-19_15h50.42.001,natb3,2021.2.3,MacIntel,58.82352941,611bf52a1ded2b9f340813e4,611e07ecdcc96256ae8d5b80,611e6fb0196aebbdb9c969a7,
,,,,space,0.539,,0,120,120,1,1,W, , , , ,space,2000,2,611bf52a1ded2b9f340813e4,001,2021-08-19_15h50.42.001,natb3,2021.2.3,MacIntel,58.82352941,611bf52a1ded2b9f340813e4,611e07ecdcc96256ae8d5b80,611e6fb0196aebbdb9c969a7,
,,,,,,,0,121,121,171,1,X, , , , ,,1500,1.5,611bf52a1ded2b9f340813e4,001,2021-08-19_15h50.42.001,natb3,2021.2.3,MacIntel,58.82352941,611bf52a1ded2b9f340813e4,611e07ecdcc96256ae8d5b80,611e6fb0196aebbdb9c969a7,
,,,,,,,0,122,122,335,1,P,,,,,space,1500,1.5,611bf52a1ded2b9f340813e4,001,2021-08-19_15h50.42.001,natb3,2021.2.3,MacIntel,58.82352941,611bf52a1ded2b9f340813e4,611e07ecdcc96256ae8d5b80,611e6fb0196aebbdb9c969a7,
,,,,space,0.444,,0,123,123,241,1,G, , , , ,space,2500,2.5,611bf52a1ded2b9f340813e4,001,2021-08-19_15h50.42.001,natb3,2021.2.3,MacIntel,58.82352941,611bf52a1ded2b9f340813e4,611e07ecdcc96256ae8d5b80,611e6fb0196aebbdb9c969a7,
,,,,space,0.461,,0,124,124,40,1,T, , , , ,space,1500,1.5,611bf52a1ded2b9f340813e4,001,2021-08-19_15h50.42.001,natb3,2021.2.3,MacIntel,58.82352941,611bf52a1ded2b9f340813e4,611e07ecdcc96256ae8d5b80,611e6fb0196aebbdb9c969a7,
,,,,space,0.347,,0,125,125,52,1,F, , , , ,space,1500,1.5,611bf52a1ded2b9f340813e4,001,2021-08-19_15h50.42.001,natb3,2021.2.3,MacIntel,58.82352941,611bf52a1ded2b9f340813e4,611e07ecdcc96256ae8d5b80,611e6fb0196aebbdb9c969a7,
,,,,space,0.306,,0,126,126,247,1,Z, , , , ,space,1500,1.5,611bf52a1ded2b9f340813e4,001,2021-08-19_15h50.42.001,natb3,2021.2.3,MacIntel,58.82352941,611bf52a1ded2b9f340813e4,611e07ecdcc96256ae8d5b80,611e6fb0196aebbdb9c969a7,
,,,,space,0.447,,0,127,127,13,1,A, , , , ,space,2000,2,611bf52a1ded2b9f340813e4,001,2021-08-19_15h50.42.001,natb3,2021.2.3,MacIntel,58.82352941,611bf52a1ded2b9f340813e4,611e07ecdcc96256ae8d5b80,611e6fb0196aebbdb9c969a7,
,,,,space,0.541,,0,128,128,106,1,T, , , , ,space,1500,1.5,611bf52a1ded2b9f340813e4,001,2021-08-19_15h50.42.001,natb3,2021.2.3,MacIntel,58.82352941,611bf52a1ded2b9f340813e4,611e07ecdcc96256ae8d5b80,611e6fb0196aebbdb9c969a7,
,,,,space,0.571,,0,129,129,256,1,Q, , , , ,space,2000,2,611bf52a1ded2b9f340813e4,001,2021-08-19_15h50.42.001,natb3,2021.2.3,MacIntel,58.82352941,611bf52a1ded2b9f340813e4,611e07ecdcc96256ae8d5b80,611e6fb0196aebbdb9c969a7,
,,,,,,,0,130,130,287,1,X, ,2, ,9,,2000,2,611bf52a1ded2b9f340813e4,001,2021-08-19_15h50.42.001,natb3,2021.2.3,MacIntel,58.82352941,611bf52a1ded2b9f340813e4,611e07ecdcc96256ae8d5b80,611e6fb0196aebbdb9c969a7,
,,,,space,0.396,,0,131,131,71,1,R, , , , ,space,2500,2.5,611bf52a1ded2b9f340813e4,001,2021-08-19_15h50.42.001,natb3,2021.2.3,MacIntel,58.82352941,611bf52a1ded2b9f340813e4,611e07ecdcc96256ae8d5b80,611e6fb0196aebbdb9c969a7,
,,,,space,0.529,,0,132,132,312,1,K, , , , ,space,2000,2,611bf52a1ded2b9f340813e4,001,2021-08-19_15h50.42.001,natb3,2021.2.3,MacIntel,58.82352941,611bf52a1ded2b9f340813e4,611e07ecdcc96256ae8d5b80,611e6fb0196aebbdb9c969a7,
,,,,space,0.371,,0,133,133,58,1,L, , , , ,space,2000,2,611bf52a1ded2b9f340813e4,001,2021-08-19_15h50.42.001,natb3,2021.2.3,MacIntel,58.82352941,611bf52a1ded2b9f340813e4,611e07ecdcc96256ae8d5b80,611e6fb0196aebbdb9c969a7,
,,,,space,0.57,,0,134,134,36,1,W, , , , ,space,2000,2,611bf52a1ded2b9f340813e4,001,2021-08-19_15h50.42.001,natb3,2021.2.3,MacIntel,58.82352941,611bf52a1ded2b9f340813e4,611e07ecdcc96256ae8d5b80,611e6fb0196aebbdb9c969a7,
,,,,space,0.605,,0,135,135,94,1,C, , , , ,space,2000,2,611bf52a1ded2b9f340813e4,001,2021-08-19_15h50.42.001,natb3,2021.2.3,MacIntel,58.82352941,611bf52a1ded2b9f340813e4,611e07ecdcc96256ae8d5b80,611e6fb0196aebbdb9c969a7,
,,,,space,0.461,,0,136,136,235,1,A, , , , ,space,1500,1.5,611bf52a1ded2b9f340813e4,001,2021-08-19_15h50.42.001,natb3,2021.2.3,MacIntel,58.82352941,611bf52a1ded2b9f340813e4,611e07ecdcc96256ae8d5b80,611e6fb0196aebbdb9c969a7,
,,,,space,0.367,,0,137,137,278,1,J, , , , ,space,2000,2,611bf52a1ded2b9f340813e4,001,2021-08-19_15h50.42.001,natb3,2021.2.3,MacIntel,58.82352941,611bf52a1ded2b9f340813e4,611e07ecdcc96256ae8d5b80,611e6fb0196aebbdb9c969a7,
,,,,space,0.332,,0,138,138,206,1,V, , , , ,space,2000,2,611bf52a1ded2b9f340813e4,001,2021-08-19_15h50.42.001,natb3,2021.2.3,MacIntel,58.82352941,611bf52a1ded2b9f340813e4,611e07ecdcc96256ae8d5b80,611e6fb0196aebbdb9c969a7,
,,,,,,,0,139,139,200,1,X,7, ,5,3,,1500,1.5,611bf52a1ded2b9f340813e4,001,2021-08-19_15h50.42.001,natb3,2021.2.3,MacIntel,58.82352941,611bf52a1ded2b9f340813e4,611e07ecdcc96256ae8d5b80,611e6fb0196aebbdb9c969a7,
,,,,space,0.46,,0,140,140,283,1,C, , , , ,space,1500,1.5,611bf52a1ded2b9f340813e4,001,2021-08-19_15h50.42.001,natb3,2021.2.3,MacIntel,58.82352941,611bf52a1ded2b9f340813e4,611e07ecdcc96256ae8d5b80,611e6fb0196aebbdb9c969a7,
,,,,space,0.422,,0,141,141,32,1,M, , , , ,space,1500,1.5,611bf52a1ded2b9f340813e4,001,2021-08-19_15h50.42.001,natb3,2021.2.3,MacIntel,58.82352941,611bf52a1ded2b9f340813e4,611e07ecdcc96256ae8d5b80,611e6fb0196aebbdb9c969a7,
,,,,,,,0,142,142,271,1,X, , , , ,,2500,2.5,611bf52a1ded2b9f340813e4,001,2021-08-19_15h50.42.001,natb3,2021.2.3,MacIntel,58.82352941,611bf52a1ded2b9f340813e4,611e07ecdcc96256ae8d5b80,611e6fb0196aebbdb9c969a7,
,,,,,,,0,143,143,46,1,X, , , , ,,2000,2,611bf52a1ded2b9f340813e4,001,2021-08-19_15h50.42.001,natb3,2021.2.3,MacIntel,58.82352941,611bf52a1ded2b9f340813e4,611e07ecdcc96256ae8d5b80,611e6fb0196aebbdb9c969a7,
,,,,space,0.513,,0,144,144,72,1,T, , , , ,space,1500,1.5,611bf52a1ded2b9f340813e4,001,2021-08-19_15h50.42.001,natb3,2021.2.3,MacIntel,58.82352941,611bf52a1ded2b9f340813e4,611e07ecdcc96256ae8d5b80,611e6fb0196aebbdb9c969a7,
,,,,space,0.581,,0,145,145,99,1,N, , , , ,space,2500,2.5,611bf52a1ded2b9f340813e4,001,2021-08-19_15h50.42.001,natb3,2021.2.3,MacIntel,58.82352941,611bf52a1ded2b9f340813e4,611e07ecdcc96256ae8d5b80,611e6fb0196aebbdb9c969a7,
,,,,,,,0,146,146,116,1,X, , , , ,,2000,2,611bf52a1ded2b9f340813e4,001,2021-08-19_15h50.42.001,natb3,2021.2.3,MacIntel,58.82352941,611bf52a1ded2b9f340813e4,611e07ecdcc96256ae8d5b80,611e6fb0196aebbdb9c969a7,
,,,,space,0.47,,0,147,147,214,1,W, , , , ,space,2000,2,611bf52a1ded2b9f340813e4,001,2021-08-19_15h50.42.001,natb3,2021.2.3,MacIntel,58.82352941,611bf52a1ded2b9f340813e4,611e07ecdcc96256ae8d5b80,611e6fb0196aebbdb9c969a7,
,,,,space,0.47,,0,148,148,183,1,R, , , , ,space,1500,1.5,611bf52a1ded2b9f340813e4,001,2021-08-19_15h50.42.001,natb3,2021.2.3,MacIntel,58.82352941,611bf52a1ded2b9f340813e4,611e07ecdcc96256ae8d5b80,611e6fb0196aebbdb9c969a7,
,,,,space,0.627,,0,149,149,0,1,Q, , , , ,space,1500,1.5,611bf52a1ded2b9f340813e4,001,2021-08-19_15h50.42.001,natb3,2021.2.3,MacIntel,58.82352941,611bf52a1ded2b9f340813e4,611e07ecdcc96256ae8d5b80,611e6fb0196aebbdb9c969a7,
,,,,space,0.36,,0,150,150,163,1,G, , , , ,space,2500,2.5,611bf52a1ded2b9f340813e4,001,2021-08-19_15h50.42.001,natb3,2021.2.3,MacIntel,58.82352941,611bf52a1ded2b9f340813e4,611e07ecdcc96256ae8d5b80,611e6fb0196aebbdb9c969a7,
,,,,,,,0,151,151,191,1,X,1, ,3,4,,2500,2.5,611bf52a1ded2b9f340813e4,001,2021-08-19_15h50.42.001,natb3,2021.2.3,MacIntel,58.82352941,611bf52a1ded2b9f340813e4,611e07ecdcc96256ae8d5b80,611e6fb0196aebbdb9c969a7,
,,,,space,0.735,,0,152,152,95,1,V, , , , ,space,1500,1.5,611bf52a1ded2b9f340813e4,001,2021-08-19_15h50.42.001,natb3,2021.2.3,MacIntel,58.82352941,611bf52a1ded2b9f340813e4,611e07ecdcc96256ae8d5b80,611e6fb0196aebbdb9c969a7,
,,,,space,0.79,,0,153,153,275,1,G, , , , ,space,1500,1.5,611bf52a1ded2b9f340813e4,001,2021-08-19_15h50.42.001,natb3,2021.2.3,MacIntel,58.82352941,611bf52a1ded2b9f340813e4,611e07ecdcc96256ae8d5b80,611e6fb0196aebbdb9c969a7,
,,,,,,,0,154,154,195,1,X, , , , ,,1500,1.5,611bf52a1ded2b9f340813e4,001,2021-08-19_15h50.42.001,natb3,2021.2.3,MacIntel,58.82352941,611bf52a1ded2b9f340813e4,611e07ecdcc96256ae8d5b80,611e6fb0196aebbdb9c969a7,
,,,,space,0.395,,0,155,155,284,1,V, , , , ,space,2500,2.5,611bf52a1ded2b9f340813e4,001,2021-08-19_15h50.42.001,natb3,2021.2.3,MacIntel,58.82352941,611bf52a1ded2b9f340813e4,611e07ecdcc96256ae8d5b80,611e6fb0196aebbdb9c969a7,
,,,,space,0.474,,0,156,156,68,1,W, , , , ,space,2500,2.5,611bf52a1ded2b9f340813e4,001,2021-08-19_15h50.42.001,natb3,2021.2.3,MacIntel,58.82352941,611bf52a1ded2b9f340813e4,611e07ecdcc96256ae8d5b80,611e6fb0196aebbdb9c969a7,
,,,,space,0.772,,0,157,157,300,1,O, , , , ,space,2500,2.5,611bf52a1ded2b9f340813e4,001,2021-08-19_15h50.42.001,natb3,2021.2.3,MacIntel,58.82352941,611bf52a1ded2b9f340813e4,611e07ecdcc96256ae8d5b80,611e6fb0196aebbdb9c969a7,
,,,,space,0.562,,0,158,158,41,1,Y, , , , ,space,2500,2.5,611bf52a1ded2b9f340813e4,001,2021-08-19_15h50.42.001,natb3,2021.2.3,MacIntel,58.82352941,611bf52a1ded2b9f340813e4,611e07ecdcc96256ae8d5b80,611e6fb0196aebbdb9c969a7,
,,,,,,,0,159,159,118,1,X, , , , ,,2000,2,611bf52a1ded2b9f340813e4,001,2021-08-19_15h50.42.001,natb3,2021.2.3,MacIntel,58.82352941,611bf52a1ded2b9f340813e4,611e07ecdcc96256ae8d5b80,611e6fb0196aebbdb9c969a7,
,,,,,,,0,160,160,78,1,X, , , , ,,2000,2,611bf52a1ded2b9f340813e4,001,2021-08-19_15h50.42.001,natb3,2021.2.3,MacIntel,58.82352941,611bf52a1ded2b9f340813e4,611e07ecdcc96256ae8d5b80,611e6fb0196aebbdb9c969a7,
,,,,space,0.456,,0,161,161,124,1,P, , , , ,space,2000,2,611bf52a1ded2b9f340813e4,001,2021-08-19_15h50.42.001,natb3,2021.2.3,MacIntel,58.82352941,611bf52a1ded2b9f340813e4,611e07ecdcc96256ae8d5b80,611e6fb0196aebbdb9c969a7,
,,,,space,0.572,,0,162,162,88,1,J, , , , ,space,2500,2.5,611bf52a1ded2b9f340813e4,001,2021-08-19_15h50.42.001,natb3,2021.2.3,MacIntel,58.82352941,611bf52a1ded2b9f340813e4,611e07ecdcc96256ae8d5b80,611e6fb0196aebbdb9c969a7,
,,,,,,,0,163,163,82,1,X,4,6,1,7,,2000,2,611bf52a1ded2b9f340813e4,001,2021-08-19_15h50.42.001,natb3,2021.2.3,MacIntel,58.82352941,611bf52a1ded2b9f340813e4,611e07ecdcc96256ae8d5b80,611e6fb0196aebbdb9c969a7,
,,,,,,,0,164,164,255,1,X, , , , ,,1500,1.5,611bf52a1ded2b9f340813e4,001,2021-08-19_15h50.42.001,natb3,2021.2.3,MacIntel,58.82352941,611bf52a1ded2b9f340813e4,611e07ecdcc96256ae8d5b80,611e6fb0196aebbdb9c969a7,
,,,,,,,0,165,165,166,1,X, , , , ,,2000,2,611bf52a1ded2b9f340813e4,001,2021-08-19_15h50.42.001,natb3,2021.2.3,MacIntel,58.82352941,611bf52a1ded2b9f340813e4,611e07ecdcc96256ae8d5b80,611e6fb0196aebbdb9c969a7,
,,,,,,,0,166,166,248,1,X, ,1,5, ,,1500,1.5,611bf52a1ded2b9f340813e4,001,2021-08-19_15h50.42.001,natb3,2021.2.3,MacIntel,58.82352941,611bf52a1ded2b9f340813e4,611e07ecdcc96256ae8d5b80,611e6fb0196aebbdb9c969a7,
,,,,space,0.375,space,0,167,167,164,1,H, , , , ,space,2500,2.5,611bf52a1ded2b9f340813e4,001,2021-08-19_15h50.42.001,natb3,2021.2.3,MacIntel,58.82352941,611bf52a1ded2b9f340813e4,611e07ecdcc96256ae8d5b80,611e6fb0196aebbdb9c969a7,317.484
,,,,,,,0,168,168,98,1,X, , , , ,,2500,2.5,611bf52a1ded2b9f340813e4,001,2021-08-19_15h50.42.001,natb3,2021.2.3,MacIntel,58.82352941,611bf52a1ded2b9f340813e4,611e07ecdcc96256ae8d5b80,611e6fb0196aebbdb9c969a7,
,,,,space,0.478,,0,169,169,28,1,V, , , , ,space,1500,1.5,611bf52a1ded2b9f340813e4,001,2021-08-19_15h50.42.001,natb3,2021.2.3,MacIntel,58.82352941,611bf52a1ded2b9f340813e4,611e07ecdcc96256ae8d5b80,611e6fb0196aebbdb9c969a7,
,,,,space,0.437,,0,170,170,288,1,M, , , , ,space,1500,1.5,611bf52a1ded2b9f340813e4,001,2021-08-19_15h50.42.001,natb3,2021.2.3,MacIntel,58.82352941,611bf52a1ded2b9f340813e4,611e07ecdcc96256ae8d5b80,611e6fb0196aebbdb9c969a7,
,,,,,,,0,171,171,179,1,X, ,9, ,2,,1500,1.5,611bf52a1ded2b9f340813e4,001,2021-08-19_15h50.42.001,natb3,2021.2.3,MacIntel,58.82352941,611bf52a1ded2b9f340813e4,611e07ecdcc96256ae8d5b80,611e6fb0196aebbdb9c969a7,
,,,,space,0.37,,0,172,172,152,1,U, , , , ,space,2000,2,611bf52a1ded2b9f340813e4,001,2021-08-19_15h50.42.001,natb3,2021.2.3,MacIntel,58.82352941,611bf52a1ded2b9f340813e4,611e07ecdcc96256ae8d5b80,611e6fb0196aebbdb9c969a7,
,,,,space,0.337,,0,173,173,30,1,N, , , , ,space,2500,2.5,611bf52a1ded2b9f340813e4,001,2021-08-19_15h50.42.001,natb3,2021.2.3,MacIntel,58.82352941,611bf52a1ded2b9f340813e4,611e07ecdcc96256ae8d5b80,611e6fb0196aebbdb9c969a7,
,,,,space,0.396,,0,174,174,254,1,M, , , , ,space,1500,1.5,611bf52a1ded2b9f340813e4,001,2021-08-19_15h50.42.001,natb3,2021.2.3,MacIntel,58.82352941,611bf52a1ded2b9f340813e4,611e07ecdcc96256ae8d5b80,611e6fb0196aebbdb9c969a7,
,,,,,,,0,175,175,168,1,X, , , , ,,2500,2.5,611bf52a1ded2b9f340813e4,001,2021-08-19_15h50.42.001,natb3,2021.2.3,MacIntel,58.82352941,611bf52a1ded2b9f340813e4,611e07ecdcc96256ae8d5b80,611e6fb0196aebbdb9c969a7,
,,,,space,0.43,,0,176,176,150,1,T, , , , ,space,2500,2.5,611bf52a1ded2b9f340813e4,001,2021-08-19_15h50.42.001,natb3,2021.2.3,MacIntel,58.82352941,611bf52a1ded2b9f340813e4,611e07ecdcc96256ae8d5b80,611e6fb0196aebbdb9c969a7,
,,,,,,,0,177,177,182,1,X, , , , ,,1500,1.5,611bf52a1ded2b9f340813e4,001,2021-08-19_15h50.42.001,natb3,2021.2.3,MacIntel,58.82352941,611bf52a1ded2b9f340813e4,611e07ecdcc96256ae8d5b80,611e6fb0196aebbdb9c969a7,
,,,,space,0.497,,0,178,178,209,1,N, , , , ,space,2000,2,611bf52a1ded2b9f340813e4,001,2021-08-19_15h50.42.001,natb3,2021.2.3,MacIntel,58.82352941,611bf52a1ded2b9f340813e4,611e07ecdcc96256ae8d5b80,611e6fb0196aebbdb9c969a7,
,,,,space,0.774,,0,179,179,326,1,W, , , , ,space,2000,2,611bf52a1ded2b9f340813e4,001,2021-08-19_15h50.42.001,natb3,2021.2.3,MacIntel,58.82352941,611bf52a1ded2b9f340813e4,611e07ecdcc96256ae8d5b80,611e6fb0196aebbdb9c969a7,
,,,,,,,0,180,180,217,1,T, , , , ,space,2500,2.5,611bf52a1ded2b9f340813e4,001,2021-08-19_15h50.42.001,natb3,2021.2.3,MacIntel,58.82352941,611bf52a1ded2b9f340813e4,611e07ecdcc96256ae8d5b80,611e6fb0196aebbdb9c969a7,
,,,,,,,0,181,181,273,1,X, , , , ,,2000,2,611bf52a1ded2b9f340813e4,001,2021-08-19_15h50.42.001,natb3,2021.2.3,MacIntel,58.82352941,611bf52a1ded2b9f340813e4,611e07ecdcc96256ae8d5b80,611e6fb0196aebbdb9c969a7,
,,,,space,0.394,,0,182,182,3,1,R, , , , ,space,2000,2,611bf52a1ded2b9f340813e4,001,2021-08-19_15h50.42.001,natb3,2021.2.3,MacIntel,58.82352941,611bf52a1ded2b9f340813e4,611e07ecdcc96256ae8d5b80,611e6fb0196aebbdb9c969a7,
,,,,,,,0,183,183,7,1,X, , , , ,,1500,1.5,611bf52a1ded2b9f340813e4,001,2021-08-19_15h50.42.001,natb3,2021.2.3,MacIntel,58.82352941,611bf52a1ded2b9f340813e4,611e07ecdcc96256ae8d5b80,611e6fb0196aebbdb9c969a7,
,,,,space,0.395,,0,184,184,272,1,D, , , , ,space,2000,2,611bf52a1ded2b9f340813e4,001,2021-08-19_15h50.42.001,natb3,2021.2.3,MacIntel,58.82352941,611bf52a1ded2b9f340813e4,611e07ecdcc96256ae8d5b80,611e6fb0196aebbdb9c969a7,
,,,,,,,0,185,185,252,1,X,3, ,6,9,,2000,2,611bf52a1ded2b9f340813e4,001,2021-08-19_15h50.42.001,natb3,2021.2.3,MacIntel,58.82352941,611bf52a1ded2b9f340813e4,611e07ecdcc96256ae8d5b80,611e6fb0196aebbdb9c969a7,
,,,,space,0.403,,0,186,186,262,1,Y, , , , ,space,2500,2.5,611bf52a1ded2b9f340813e4,001,2021-08-19_15h50.42.001,natb3,2021.2.3,MacIntel,58.82352941,611bf52a1ded2b9f340813e4,611e07ecdcc96256ae8d5b80,611e6fb0196aebbdb9c969a7,
,,,,,,,0,187,187,158,1,X, , , , ,,1500,1.5,611bf52a1ded2b9f340813e4,001,2021-08-19_15h50.42.001,natb3,2021.2.3,MacIntel,58.82352941,611bf52a1ded2b9f340813e4,611e07ecdcc96256ae8d5b80,611e6fb0196aebbdb9c969a7,
,,,,space,0.33,,0,188,188,121,1,I, , , , ,space,2000,2,611bf52a1ded2b9f340813e4,001,2021-08-19_15h50.42.001,natb3,2021.2.3,MacIntel,58.82352941,611bf52a1ded2b9f340813e4,611e07ecdcc96256ae8d5b80,611e6fb0196aebbdb9c969a7,
,,,,space,0.954,,0,189,189,140,1,B, , , , ,space,2500,2.5,611bf52a1ded2b9f340813e4,001,2021-08-19_15h50.42.001,natb3,2021.2.3,MacIntel,58.82352941,611bf52a1ded2b9f340813e4,611e07ecdcc96256ae8d5b80,611e6fb0196aebbdb9c969a7,
,,,,space,0.54,,0,190,190,128,1,D, , , , ,space,2500,2.5,611bf52a1ded2b9f340813e4,001,2021-08-19_15h50.42.001,natb3,2021.2.3,MacIntel,58.82352941,611bf52a1ded2b9f340813e4,611e07ecdcc96256ae8d5b80,611e6fb0196aebbdb9c969a7,
,,,,,,,0,191,191,282,1,X, , , , ,,2500,2.5,611bf52a1ded2b9f340813e4,001,2021-08-19_15h50.42.001,natb3,2021.2.3,MacIntel,58.82352941,611bf52a1ded2b9f340813e4,611e07ecdcc96256ae8d5b80,611e6fb0196aebbdb9c969a7,
,,,,,,,0,192,192,33,1,X, , , , ,,1500,1.5,611bf52a1ded2b9f340813e4,001,2021-08-19_15h50.42.001,natb3,2021.2.3,MacIntel,58.82352941,611bf52a1ded2b9f340813e4,611e07ecdcc96256ae8d5b80,611e6fb0196aebbdb9c969a7,
,,,,space,0.52,,0,193,193,73,1,Y, , , , ,space,2000,2,611bf52a1ded2b9f340813e4,001,2021-08-19_15h50.42.001,natb3,2021.2.3,MacIntel,58.82352941,611bf52a1ded2b9f340813e4,611e07ecdcc96256ae8d5b80,611e6fb0196aebbdb9c969a7,
,,,,space,0.512,,0,194,194,70,1,E, , , , ,space,2500,2.5,611bf52a1ded2b9f340813e4,001,2021-08-19_15h50.42.001,natb3,2021.2.3,MacIntel,58.82352941,611bf52a1ded2b9f340813e4,611e07ecdcc96256ae8d5b80,611e6fb0196aebbdb9c969a7,
,,,,,,,0,195,195,308,1,G, , , , ,space,1500,1.5,611bf52a1ded2b9f340813e4,001,2021-08-19_15h50.42.001,natb3,2021.2.3,MacIntel,58.82352941,611bf52a1ded2b9f340813e4,611e07ecdcc96256ae8d5b80,611e6fb0196aebbdb9c969a7,
,,,,space,0.389,,0,196,196,79,1,P, , , , ,space,2000,2,611bf52a1ded2b9f340813e4,001,2021-08-19_15h50.42.001,natb3,2021.2.3,MacIntel,58.82352941,611bf52a1ded2b9f340813e4,611e07ecdcc96256ae8d5b80,611e6fb0196aebbdb9c969a7,
,,,,space,0.475,,0,197,197,177,1,M, , , , ,space,2500,2.5,611bf52a1ded2b9f340813e4,001,2021-08-19_15h50.42.001,natb3,2021.2.3,MacIntel,58.82352941,611bf52a1ded2b9f340813e4,611e07ecdcc96256ae8d5b80,611e6fb0196aebbdb9c969a7,
,,,,space,0.466,,0,198,198,100,1,M, , , , ,space,2000,2,611bf52a1ded2b9f340813e4,001,2021-08-19_15h50.42.001,natb3,2021.2.3,MacIntel,58.82352941,611bf52a1ded2b9f340813e4,611e07ecdcc96256ae8d5b80,611e6fb0196aebbdb9c969a7,
,,,,space,0.439,,0,199,199,67,1,Q, , , , ,space,2000,2,611bf52a1ded2b9f340813e4,001,2021-08-19_15h50.42.001,natb3,2021.2.3,MacIntel,58.82352941,611bf52a1ded2b9f340813e4,611e07ecdcc96256ae8d5b80,611e6fb0196aebbdb9c969a7,
,,,,space,0.463,,0,200,200,111,1,O, , , , ,space,2000,2,611bf52a1ded2b9f340813e4,001,2021-08-19_15h50.42.001,natb3,2021.2.3,MacIntel,58.82352941,611bf52a1ded2b9f340813e4,611e07ecdcc96256ae8d5b80,611e6fb0196aebbdb9c969a7,
,,,,space,0.607,,0,201,201,245,1,K, , , , ,space,2000,2,611bf52a1ded2b9f340813e4,001,2021-08-19_15h50.42.001,natb3,2021.2.3,MacIntel,58.82352941,611bf52a1ded2b9f340813e4,611e07ecdcc96256ae8d5b80,611e6fb0196aebbdb9c969a7,
,,,,,,,0,202,202,138,1,X,8,5, ,3,,2000,2,611bf52a1ded2b9f340813e4,001,2021-08-19_15h50.42.001,natb3,2021.2.3,MacIntel,58.82352941,611bf52a1ded2b9f340813e4,611e07ecdcc96256ae8d5b80,611e6fb0196aebbdb9c969a7,
,,,,space,0.32,,0,203,203,10,1,O, , , , ,space,2000,2,611bf52a1ded2b9f340813e4,001,2021-08-19_15h50.42.001,natb3,2021.2.3,MacIntel,58.82352941,611bf52a1ded2b9f340813e4,611e07ecdcc96256ae8d5b80,611e6fb0196aebbdb9c969a7,
,,,,,,,0,204,204,313,1,X, , , , ,,2500,2.5,611bf52a1ded2b9f340813e4,001,2021-08-19_15h50.42.001,natb3,2021.2.3,MacIntel,58.82352941,611bf52a1ded2b9f340813e4,611e07ecdcc96256ae8d5b80,611e6fb0196aebbdb9c969a7,
,,,,,,,0,205,205,239,1,X, , , , ,,2000,2,611bf52a1ded2b9f340813e4,001,2021-08-19_15h50.42.001,natb3,2021.2.3,MacIntel,58.82352941,611bf52a1ded2b9f340813e4,611e07ecdcc96256ae8d5b80,611e6fb0196aebbdb9c969a7,
,,,,space,0.572,,0,206,206,270,1,S, , , , ,space,1500,1.5,611bf52a1ded2b9f340813e4,001,2021-08-19_15h50.42.001,natb3,2021.2.3,MacIntel,58.82352941,611bf52a1ded2b9f340813e4,611e07ecdcc96256ae8d5b80,611e6fb0196aebbdb9c969a7,
,,,,space,0.828,,0,207,207,205,1,C, , , , ,space,2000,2,611bf52a1ded2b9f340813e4,001,2021-08-19_15h50.42.001,natb3,2021.2.3,MacIntel,58.82352941,611bf52a1ded2b9f340813e4,611e07ecdcc96256ae8d5b80,611e6fb0196aebbdb9c969a7,
,,,,space,0.373,,0,208,208,53,1,G, , , , ,space,2500,2.5,611bf52a1ded2b9f340813e4,001,2021-08-19_15h50.42.001,natb3,2021.2.3,MacIntel,58.82352941,611bf52a1ded2b9f340813e4,611e07ecdcc96256ae8d5b80,611e6fb0196aebbdb9c969a7,
,,,,space,0.539,,0,209,209,201,1,K, , , , ,space,1500,1.5,611bf52a1ded2b9f340813e4,001,2021-08-19_15h50.42.001,natb3,2021.2.3,MacIntel,58.82352941,611bf52a1ded2b9f340813e4,611e07ecdcc96256ae8d5b80,611e6fb0196aebbdb9c969a7,
,,,,space,0.386,,0,210,210,194,1,D, , , , ,space,2000,2,611bf52a1ded2b9f340813e4,001,2021-08-19_15h50.42.001,natb3,2021.2.3,MacIntel,58.82352941,611bf52a1ded2b9f340813e4,611e07ecdcc96256ae8d5b80,611e6fb0196aebbdb9c969a7,
,,,,,,,0,211,211,39,1,X,6,2, , ,,1500,1.5,611bf52a1ded2b9f340813e4,001,2021-08-19_15h50.42.001,natb3,2021.2.3,MacIntel,58.82352941,611bf52a1ded2b9f340813e4,611e07ecdcc96256ae8d5b80,611e6fb0196aebbdb9c969a7,
,,,,,,,0,212,212,35,1,X, , , , ,,2500,2.5,611bf52a1ded2b9f340813e4,001,2021-08-19_15h50.42.001,natb3,2021.2.3,MacIntel,58.82352941,611bf52a1ded2b9f340813e4,611e07ecdcc96256ae8d5b80,611e6fb0196aebbdb9c969a7,
,,,,space,0.595,,0,213,213,97,1,B, , , , ,space,2500,2.5,611bf52a1ded2b9f340813e4,001,2021-08-19_15h50.42.001,natb3,2021.2.3,MacIntel,58.82352941,611bf52a1ded2b9f340813e4,611e07ecdcc96256ae8d5b80,611e6fb0196aebbdb9c969a7,
,,,,space,0.546,,0,214,214,257,1,W, , , , ,space,2000,2,611bf52a1ded2b9f340813e4,001,2021-08-19_15h50.42.001,natb3,2021.2.3,MacIntel,58.82352941,611bf52a1ded2b9f340813e4,611e07ecdcc96256ae8d5b80,611e6fb0196aebbdb9c969a7,
,,,,space,0.644,,0,215,215,197,1,G, , , , ,space,2500,2.5,611bf52a1ded2b9f340813e4,001,2021-08-19_15h50.42.001,natb3,2021.2.3,MacIntel,58.82352941,611bf52a1ded2b9f340813e4,611e07ecdcc96256ae8d5b80,611e6fb0196aebbdb9c969a7,
,,,,space,0.506,,0,216,216,181,1,E, , , , ,space,1500,1.5,611bf52a1ded2b9f340813e4,001,2021-08-19_15h50.42.001,natb3,2021.2.3,MacIntel,58.82352941,611bf52a1ded2b9f340813e4,611e07ecdcc96256ae8d5b80,611e6fb0196aebbdb9c969a7,
,,,,space,0.493,,0,217,217,220,1,U, , , , ,space,2500,2.5,611bf52a1ded2b9f340813e4,001,2021-08-19_15h50.42.001,natb3,2021.2.3,MacIntel,58.82352941,611bf52a1ded2b9f340813e4,611e07ecdcc96256ae8d5b80,611e6fb0196aebbdb9c969a7,
,,,,,,,0,218,218,93,1,X,5, ,7, ,,2500,2.5,611bf52a1ded2b9f340813e4,001,2021-08-19_15h50.42.001,natb3,2021.2.3,MacIntel,58.82352941,611bf52a1ded2b9f340813e4,611e07ecdcc96256ae8d5b80,611e6fb0196aebbdb9c969a7,
,,,,space,0.637,,0,219,219,267,1,P, , , , ,space,2000,2,611bf52a1ded2b9f340813e4,001,2021-08-19_15h50.42.001,natb3,2021.2.3,MacIntel,58.82352941,611bf52a1ded2b9f340813e4,611e07ecdcc96256ae8d5b80,611e6fb0196aebbdb9c969a7,
,,,,space,0.366,,0,220,220,143,1,M, , , , ,space,2500,2.5,611bf52a1ded2b9f340813e4,001,2021-08-19_15h50.42.001,natb3,2021.2.3,MacIntel,58.82352941,611bf52a1ded2b9f340813e4,611e07ecdcc96256ae8d5b80,611e6fb0196aebbdb9c969a7,
,,,,,,,0,221,221,27,1,X,5, ,1,3,,1500,1.5,611bf52a1ded2b9f340813e4,001,2021-08-19_15h50.42.001,natb3,2021.2.3,MacIntel,58.82352941,611bf52a1ded2b9f340813e4,611e07ecdcc96256ae8d5b80,611e6fb0196aebbdb9c969a7,
,,,,space,0.468,,0,222,222,173,1,V, , , , ,space,1500,1.5,611bf52a1ded2b9f340813e4,001,2021-08-19_15h50.42.001,natb3,2021.2.3,MacIntel,58.82352941,611bf52a1ded2b9f340813e4,611e07ecdcc96256ae8d5b80,611e6fb0196aebbdb9c969a7,
,,,,space,0.539,,0,223,223,155,1,O, , , , ,space,1500,1.5,611bf52a1ded2b9f340813e4,001,2021-08-19_15h50.42.001,natb3,2021.2.3,MacIntel,58.82352941,611bf52a1ded2b9f340813e4,611e07ecdcc96256ae8d5b80,611e6fb0196aebbdb9c969a7,
,,,,space,0.438,,0,224,224,90,1,K, , , , ,space,2000,2,611bf52a1ded2b9f340813e4,001,2021-08-19_15h50.42.001,natb3,2021.2.3,MacIntel,58.82352941,611bf52a1ded2b9f340813e4,611e07ecdcc96256ae8d5b80,611e6fb0196aebbdb9c969a7,
,,,,space,0.546,,0,225,225,285,1,B, , , , ,space,1500,1.5,611bf52a1ded2b9f340813e4,001,2021-08-19_15h50.42.001,natb3,2021.2.3,MacIntel,58.82352941,611bf52a1ded2b9f340813e4,611e07ecdcc96256ae8d5b80,611e6fb0196aebbdb9c969a7,
,,,,space,0.395,,0,226,226,112,1,Q, , , , ,space,2500,2.5,611bf52a1ded2b9f340813e4,001,2021-08-19_15h50.42.001,natb3,2021.2.3,MacIntel,58.82352941,611bf52a1ded2b9f340813e4,611e07ecdcc96256ae8d5b80,611e6fb0196aebbdb9c969a7,
,,,,space,0.375,,0,227,227,48,1,A, , , , ,space,2500,2.5,611bf52a1ded2b9f340813e4,001,2021-08-19_15h50.42.001,natb3,2021.2.3,MacIntel,58.82352941,611bf52a1ded2b9f340813e4,611e07ecdcc96256ae8d5b80,611e6fb0196aebbdb9c969a7,
,,,,space,0.388,,0,228,228,258,1,E, , , , ,space,1500,1.5,611bf52a1ded2b9f340813e4,001,2021-08-19_15h50.42.001,natb3,2021.2.3,MacIntel,58.82352941,611bf52a1ded2b9f340813e4,611e07ecdcc96256ae8d5b80,611e6fb0196aebbdb9c969a7,
,,,,space,0.371,,0,229,229,330,1,T, , , , ,space,2500,2.5,611bf52a1ded2b9f340813e4,001,2021-08-19_15h50.42.001,natb3,2021.2.3,MacIntel,58.82352941,611bf52a1ded2b9f340813e4,611e07ecdcc96256ae8d5b80,611e6fb0196aebbdb9c969a7,
,,,,space,0.335,,0,230,230,9,1,I, , , , ,space,1500,1.5,611bf52a1ded2b9f340813e4,001,2021-08-19_15h50.42.001,natb3,2021.2.3,MacIntel,58.82352941,611bf52a1ded2b9f340813e4,611e07ecdcc96256ae8d5b80,611e6fb0196aebbdb9c969a7,
,,,,space,0.361,,0,231,231,91,1,L, , , , ,space,2000,2,611bf52a1ded2b9f340813e4,001,2021-08-19_15h50.42.001,natb3,2021.2.3,MacIntel,58.82352941,611bf52a1ded2b9f340813e4,611e07ecdcc96256ae8d5b80,611e6fb0196aebbdb9c969a7,
,,,,space,0.378,,0,232,232,159,1,S, , , , ,space,2500,2.5,611bf52a1ded2b9f340813e4,001,2021-08-19_15h50.42.001,natb3,2021.2.3,MacIntel,58.82352941,611bf52a1ded2b9f340813e4,611e07ecdcc96256ae8d5b80,611e6fb0196aebbdb9c969a7,
,,,,space,0.522,,0,233,233,333,1,I, , , , ,space,1500,1.5,611bf52a1ded2b9f340813e4,001,2021-08-19_15h50.42.001,natb3,2021.2.3,MacIntel,58.82352941,611bf52a1ded2b9f340813e4,611e07ecdcc96256ae8d5b80,611e6fb0196aebbdb9c969a7,
,,,,,,,0,234,234,31,1,X, , , , ,,1500,1.5,611bf52a1ded2b9f340813e4,001,2021-08-19_15h50.42.001,natb3,2021.2.3,MacIntel,58.82352941,611bf52a1ded2b9f340813e4,611e07ecdcc96256ae8d5b80,611e6fb0196aebbdb9c969a7,
,,,,space,0.363,,0,235,235,212,1,Q, , , , ,space,2500,2.5,611bf52a1ded2b9f340813e4,001,2021-08-19_15h50.42.001,natb3,2021.2.3,MacIntel,58.82352941,611bf52a1ded2b9f340813e4,611e07ecdcc96256ae8d5b80,611e6fb0196aebbdb9c969a7,
,,,,,,,0,236,236,18,1,X, ,2,5,8,,2500,2.5,611bf52a1ded2b9f340813e4,001,2021-08-19_15h50.42.001,natb3,2021.2.3,MacIntel,58.82352941,611bf52a1ded2b9f340813e4,611e07ecdcc96256ae8d5b80,611e6fb0196aebbdb9c969a7,
,,,,,,,0,237,237,129,1,X,2,3,5, ,,1500,1.5,611bf52a1ded2b9f340813e4,001,2021-08-19_15h50.42.001,natb3,2021.2.3,MacIntel,58.82352941,611bf52a1ded2b9f340813e4,611e07ecdcc96256ae8d5b80,611e6fb0196aebbdb9c969a7,
,,,,,,,0,238,238,102,1,X, ,6, , ,,1500,1.5,611bf52a1ded2b9f340813e4,001,2021-08-19_15h50.42.001,natb3,2021.2.3,MacIntel,58.82352941,611bf52a1ded2b9f340813e4,611e07ecdcc96256ae8d5b80,611e6fb0196aebbdb9c969a7,
,,,,space,0.464,,0,239,239,44,1,I, , , , ,space,2500,2.5,611bf52a1ded2b9f340813e4,001,2021-08-19_15h50.42.001,natb3,2021.2.3,MacIntel,58.82352941,611bf52a1ded2b9f340813e4,611e07ecdcc96256ae8d5b80,611e6fb0196aebbdb9c969a7,
,,,,space,0.43,,0,240,240,120,1,U, , , , ,space,1500,1.5,611bf52a1ded2b9f340813e4,001,2021-08-19_15h50.42.001,natb3,2021.2.3,MacIntel,58.82352941,611bf52a1ded2b9f340813e4,611e07ecdcc96256ae8d5b80,611e6fb0196aebbdb9c969a7,
,,,,space,0.405,,0,241,241,139,1,V, , , , ,space,2000,2,611bf52a1ded2b9f340813e4,001,2021-08-19_15h50.42.001,natb3,2021.2.3,MacIntel,58.82352941,611bf52a1ded2b9f340813e4,611e07ecdcc96256ae8d5b80,611e6fb0196aebbdb9c969a7,
,,,,space,0.381,,0,242,242,232,1,O, , , , ,space,2500,2.5,611bf52a1ded2b9f340813e4,001,2021-08-19_15h50.42.001,natb3,2021.2.3,MacIntel,58.82352941,611bf52a1ded2b9f340813e4,611e07ecdcc96256ae8d5b80,611e6fb0196aebbdb9c969a7,
,,,,,,,0,243,243,96,1,X, , , , ,,1500,1.5,611bf52a1ded2b9f340813e4,001,2021-08-19_15h50.42.001,natb3,2021.2.3,MacIntel,58.82352941,611bf52a1ded2b9f340813e4,611e07ecdcc96256ae8d5b80,611e6fb0196aebbdb9c969a7,
,,,,space,0.459,,0,244,244,105,1,R, , , , ,space,2500,2.5,611bf52a1ded2b9f340813e4,001,2021-08-19_15h50.42.001,natb3,2021.2.3,MacIntel,58.82352941,611bf52a1ded2b9f340813e4,611e07ecdcc96256ae8d5b80,611e6fb0196aebbdb9c969a7,
,,,,space,0.522,,0,245,245,172,1,C, , , , ,space,1500,1.5,611bf52a1ded2b9f340813e4,001,2021-08-19_15h50.42.001,natb3,2021.2.3,MacIntel,58.82352941,611bf52a1ded2b9f340813e4,611e07ecdcc96256ae8d5b80,611e6fb0196aebbdb9c969a7,
,,,,space,0.361,,0,246,246,290,1,W, , , , ,space,1500,1.5,611bf52a1ded2b9f340813e4,001,2021-08-19_15h50.42.001,natb3,2021.2.3,MacIntel,58.82352941,611bf52a1ded2b9f340813e4,611e07ecdcc96256ae8d5b80,611e6fb0196aebbdb9c969a7,
,,,,space,0.537,,0,247,247,19,1,G, , , , ,space,1500,1.5,611bf52a1ded2b9f340813e4,001,2021-08-19_15h50.42.001,natb3,2021.2.3,MacIntel,58.82352941,611bf52a1ded2b9f340813e4,611e07ecdcc96256ae8d5b80,611e6fb0196aebbdb9c969a7,
,,,,space,0.422,,0,248,248,114,1,E, , , , ,space,2000,2,611bf52a1ded2b9f340813e4,001,2021-08-19_15h50.42.001,natb3,2021.2.3,MacIntel,58.82352941,611bf52a1ded2b9f340813e4,611e07ecdcc96256ae8d5b80,611e6fb0196aebbdb9c969a7,
,,,,space,0.385,,0,249,249,196,1,F, , , , ,space,1500,1.5,611bf52a1ded2b9f340813e4,001,2021-08-19_15h50.42.001,natb3,2021.2.3,MacIntel,58.82352941,611bf52a1ded2b9f340813e4,611e07ecdcc96256ae8d5b80,611e6fb0196aebbdb9c969a7,
,,,,,,,0,250,250,207,1,X,9, ,2, ,,2500,2.5,611bf52a1ded2b9f340813e4,001,2021-08-19_15h50.42.001,natb3,2021.2.3,MacIntel,58.82352941,611bf52a1ded2b9f340813e4,611e07ecdcc96256ae8d5b80,611e6fb0196aebbdb9c969a7,
,,,,space,0.41,,0,251,251,75,1,U, , , , ,space,1500,1.5,611bf52a1ded2b9f340813e4,001,2021-08-19_15h50.42.001,natb3,2021.2.3,MacIntel,58.82352941,611bf52a1ded2b9f340813e4,611e07ecdcc96256ae8d5b80,611e6fb0196aebbdb9c969a7,
,,,,space,0.666,,0,252,252,198,1,H, , , , ,space,2500,2.5,611bf52a1ded2b9f340813e4,001,2021-08-19_15h50.42.001,natb3,2021.2.3,MacIntel,58.82352941,611bf52a1ded2b9f340813e4,611e07ecdcc96256ae8d5b80,611e6fb0196aebbdb9c969a7,
,,,,space,0.405,,0,253,253,193,1,S, , , , ,space,2500,2.5,611bf52a1ded2b9f340813e4,001,2021-08-19_15h50.42.001,natb3,2021.2.3,MacIntel,58.82352941,611bf52a1ded2b9f340813e4,611e07ecdcc96256ae8d5b80,611e6fb0196aebbdb9c969a7,
,,,,,,,0,254,254,268,1,X,6, ,3, ,,2500,2.5,611bf52a1ded2b9f340813e4,001,2021-08-19_15h50.42.001,natb3,2021.2.3,MacIntel,58.82352941,611bf52a1ded2b9f340813e4,611e07ecdcc96256ae8d5b80,611e6fb0196aebbdb9c969a7,
,,,,space,0.485,,0,255,255,276,1,H, , , , ,space,2000,2,611bf52a1ded2b9f340813e4,001,2021-08-19_15h50.42.001,natb3,2021.2.3,MacIntel,58.82352941,611bf52a1ded2b9f340813e4,611e07ecdcc96256ae8d5b80,611e6fb0196aebbdb9c969a7,
,,,,space,0.477,,0,256,256,26,1,C, , , , ,space,2000,2,611bf52a1ded2b9f340813e4,001,2021-08-19_15h50.42.001,natb3,2021.2.3,MacIntel,58.82352941,611bf52a1ded2b9f340813e4,611e07ecdcc96256ae8d5b80,611e6fb0196aebbdb9c969a7,
,,,,space,0.571,,0,257,257,324,1,Q, , , , ,space,2000,2,611bf52a1ded2b9f340813e4,001,2021-08-19_15h50.42.001,natb3,2021.2.3,MacIntel,58.82352941,611bf52a1ded2b9f340813e4,611e07ecdcc96256ae8d5b80,611e6fb0196aebbdb9c969a7,
,,,,space,0.528,,0,258,258,261,1,T, , , , ,space,2000,2,611bf52a1ded2b9f340813e4,001,2021-08-19_15h50.42.001,natb3,2021.2.3,MacIntel,58.82352941,611bf52a1ded2b9f340813e4,611e07ecdcc96256ae8d5b80,611e6fb0196aebbdb9c969a7,
,,,,space,0.462,,0,259,259,92,1,Z, , , , ,space,1500,1.5,611bf52a1ded2b9f340813e4,001,2021-08-19_15h50.42.001,natb3,2021.2.3,MacIntel,58.82352941,611bf52a1ded2b9f340813e4,611e07ecdcc96256ae8d5b80,611e6fb0196aebbdb9c969a7,
,,,,,,,0,260,260,211,1,X, , , , ,,2500,2.5,611bf52a1ded2b9f340813e4,001,2021-08-19_15h50.42.001,natb3,2021.2.3,MacIntel,58.82352941,611bf52a1ded2b9f340813e4,611e07ecdcc96256ae8d5b80,611e6fb0196aebbdb9c969a7,
,,,,space,0.39,,0,261,261,167,1,K, , , , ,space,1500,1.5,611bf52a1ded2b9f340813e4,001,2021-08-19_15h50.42.001,natb3,2021.2.3,MacIntel,58.82352941,611bf52a1ded2b9f340813e4,611e07ecdcc96256ae8d5b80,611e6fb0196aebbdb9c969a7,
,,,,,,,0,262,262,263,1,X,4, ,6, ,,1500,1.5,611bf52a1ded2b9f340813e4,001,2021-08-19_15h50.42.001,natb3,2021.2.3,MacIntel,58.82352941,611bf52a1ded2b9f340813e4,611e07ecdcc96256ae8d5b80,611e6fb0196aebbdb9c969a7,
,,,,,,,0,263,263,325,1,X, , , , ,,2500,2.5,611bf52a1ded2b9f340813e4,001,2021-08-19_15h50.42.001,natb3,2021.2.3,MacIntel,58.82352941,611bf52a1ded2b9f340813e4,611e07ecdcc96256ae8d5b80,611e6fb0196aebbdb9c969a7,
,,,,,,,0,264,264,148,1,X, , , , ,,2000,2,611bf52a1ded2b9f340813e4,001,2021-08-19_15h50.42.001,natb3,2021.2.3,MacIntel,58.82352941,611bf52a1ded2b9f340813e4,611e07ecdcc96256ae8d5b80,611e6fb0196aebbdb9c969a7,
,,,,space,0.462,,0,265,265,83,1,D, , , , ,space,2000,2,611bf52a1ded2b9f340813e4,001,2021-08-19_15h50.42.001,natb3,2021.2.3,MacIntel,58.82352941,611bf52a1ded2b9f340813e4,611e07ecdcc96256ae8d5b80,611e6fb0196aebbdb9c969a7,
,,,,space,0.509,,0,266,266,87,1,H, , , , ,space,1500,1.5,611bf52a1ded2b9f340813e4,001,2021-08-19_15h50.42.001,natb3,2021.2.3,MacIntel,58.82352941,611bf52a1ded2b9f340813e4,611e07ecdcc96256ae8d5b80,611e6fb0196aebbdb9c969a7,
,,,,space,0.5,,0,267,267,25,1,Z, , , , ,space,2500,2.5,611bf52a1ded2b9f340813e4,001,2021-08-19_15h50.42.001,natb3,2021.2.3,MacIntel,58.82352941,611bf52a1ded2b9f340813e4,611e07ecdcc96256ae8d5b80,611e6fb0196aebbdb9c969a7,
,,,,space,0.78,,0,268,268,109,1,U, , , , ,space,1500,1.5,611bf52a1ded2b9f340813e4,001,2021-08-19_15h50.42.001,natb3,2021.2.3,MacIntel,58.82352941,611bf52a1ded2b9f340813e4,611e07ecdcc96256ae8d5b80,611e6fb0196aebbdb9c969a7,
,,,,space,0.564,,0,269,269,309,1,H, , , , ,space,2500,2.5,611bf52a1ded2b9f340813e4,001,2021-08-19_15h50.42.001,natb3,2021.2.3,MacIntel,58.82352941,611bf52a1ded2b9f340813e4,611e07ecdcc96256ae8d5b80,611e6fb0196aebbdb9c969a7,
,,,,space,0.508,,0,270,270,238,1,D, , , , ,space,1500,1.5,611bf52a1ded2b9f340813e4,001,2021-08-19_15h50.42.001,natb3,2021.2.3,MacIntel,58.82352941,611bf52a1ded2b9f340813e4,611e07ecdcc96256ae8d5b80,611e6fb0196aebbdb9c969a7,
,,,,space,0.327,,0,271,271,131,1,G, , , , ,space,1500,1.5,611bf52a1ded2b9f340813e4,001,2021-08-19_15h50.42.001,natb3,2021.2.3,MacIntel,58.82352941,611bf52a1ded2b9f340813e4,611e07ecdcc96256ae8d5b80,611e6fb0196aebbdb9c969a7,
,,,,space,0.371,,0,272,272,184,1,T, , , , ,space,2000,2,611bf52a1ded2b9f340813e4,001,2021-08-19_15h50.42.001,natb3,2021.2.3,MacIntel,58.82352941,611bf52a1ded2b9f340813e4,611e07ecdcc96256ae8d5b80,611e6fb0196aebbdb9c969a7,
,,,,space,0.387,,0,273,273,174,1,B, , , , ,space,2500,2.5,611bf52a1ded2b9f340813e4,001,2021-08-19_15h50.42.001,natb3,2021.2.3,MacIntel,58.82352941,611bf52a1ded2b9f340813e4,611e07ecdcc96256ae8d5b80,611e6fb0196aebbdb9c969a7,
,,,,space,0.421,,0,274,274,334,1,O, , , , ,space,1500,1.5,611bf52a1ded2b9f340813e4,001,2021-08-19_15h50.42.001,natb3,2021.2.3,MacIntel,58.82352941,611bf52a1ded2b9f340813e4,611e07ecdcc96256ae8d5b80,611e6fb0196aebbdb9c969a7,
,,,,space,0.393,,0,275,275,215,1,E, , , , ,space,2500,2.5,611bf52a1ded2b9f340813e4,001,2021-08-19_15h50.42.001,natb3,2021.2.3,MacIntel,58.82352941,611bf52a1ded2b9f340813e4,611e07ecdcc96256ae8d5b80,611e6fb0196aebbdb9c969a7,
,,,,space,0.547,,0,276,276,323,1,M, , , , ,space,2500,2.5,611bf52a1ded2b9f340813e4,001,2021-08-19_15h50.42.001,natb3,2021.2.3,MacIntel,58.82352941,611bf52a1ded2b9f340813e4,611e07ecdcc96256ae8d5b80,611e6fb0196aebbdb9c969a7,
,,,,space,0.513,,0,277,277,154,1,I, , , , ,space,2500,2.5,611bf52a1ded2b9f340813e4,001,2021-08-19_15h50.42.001,natb3,2021.2.3,MacIntel,58.82352941,611bf52a1ded2b9f340813e4,611e07ecdcc96256ae8d5b80,611e6fb0196aebbdb9c969a7,
,,,,space,0.459,,0,278,278,4,1,X, , , , ,,2000,2,611bf52a1ded2b9f340813e4,001,2021-08-19_15h50.42.001,natb3,2021.2.3,MacIntel,58.82352941,611bf52a1ded2b9f340813e4,611e07ecdcc96256ae8d5b80,611e6fb0196aebbdb9c969a7,
,,,,space,0.392,,0,279,279,204,1,Z, , , , ,space,2000,2,611bf52a1ded2b9f340813e4,001,2021-08-19_15h50.42.001,natb3,2021.2.3,MacIntel,58.82352941,611bf52a1ded2b9f340813e4,611e07ecdcc96256ae8d5b80,611e6fb0196aebbdb9c969a7,
,,,,space,0.695,,0,280,280,208,1,B, , , , ,space,1500,1.5,611bf52a1ded2b9f340813e4,001,2021-08-19_15h50.42.001,natb3,2021.2.3,MacIntel,58.82352941,611bf52a1ded2b9f340813e4,611e07ecdcc96256ae8d5b80,611e6fb0196aebbdb9c969a7,
,,,,space,0.355,,0,281,281,246,1,L, , , , ,space,2500,2.5,611bf52a1ded2b9f340813e4,001,2021-08-19_15h50.42.001,natb3,2021.2.3,MacIntel,58.82352941,611bf52a1ded2b9f340813e4,611e07ecdcc96256ae8d5b80,611e6fb0196aebbdb9c969a7,
,,,,,,,0,282,282,133,1,X, ,4, ,6,,2500,2.5,611bf52a1ded2b9f340813e4,001,2021-08-19_15h50.42.001,natb3,2021.2.3,MacIntel,58.82352941,611bf52a1ded2b9f340813e4,611e07ecdcc96256ae8d5b80,611e6fb0196aebbdb9c969a7,
,,,,space,0.488,,0,283,283,221,1,I, , , , ,space,2500,2.5,611bf52a1ded2b9f340813e4,001,2021-08-19_15h50.42.001,natb3,2021.2.3,MacIntel,58.82352941,611bf52a1ded2b9f340813e4,611e07ecdcc96256ae8d5b80,611e6fb0196aebbdb9c969a7,
,,,,space,0.381,,0,284,284,303,1,A, , , , ,space,2000,2,611bf52a1ded2b9f340813e4,001,2021-08-19_15h50.42.001,natb3,2021.2.3,MacIntel,58.82352941,611bf52a1ded2b9f340813e4,611e07ecdcc96256ae8d5b80,611e6fb0196aebbdb9c969a7,
,,,,,,,0,285,285,162,1,X,1,6, ,2,,1500,1.5,611bf52a1ded2b9f340813e4,001,2021-08-19_15h50.42.001,natb3,2021.2.3,MacIntel,58.82352941,611bf52a1ded2b9f340813e4,611e07ecdcc96256ae8d5b80,611e6fb0196aebbdb9c969a7,
,,,,space,0.575,,0,286,286,180,1,W, , , , ,space,2000,2,611bf52a1ded2b9f340813e4,001,2021-08-19_15h50.42.001,natb3,2021.2.3,MacIntel,58.82352941,611bf52a1ded2b9f340813e4,611e07ecdcc96256ae8d5b80,611e6fb0196aebbdb9c969a7,
,,,,space,0.408,,0,287,287,251,1,B, , , , ,space,1500,1.5,611bf52a1ded2b9f340813e4,001,2021-08-19_15h50.42.001,natb3,2021.2.3,MacIntel,58.82352941,611bf52a1ded2b9f340813e4,611e07ecdcc96256ae8d5b80,611e6fb0196aebbdb9c969a7,
,,,,,,,0,288,288,12,1,X, , , , ,,1500,1.5,611bf52a1ded2b9f340813e4,001,2021-08-19_15h50.42.001,natb3,2021.2.3,MacIntel,58.82352941,611bf52a1ded2b9f340813e4,611e07ecdcc96256ae8d5b80,611e6fb0196aebbdb9c969a7,
,,,,space,0.475,,0,289,289,279,1,K, , , , ,space,2500,2.5,611bf52a1ded2b9f340813e4,001,2021-08-19_15h50.42.001,natb3,2021.2.3,MacIntel,58.82352941,611bf52a1ded2b9f340813e4,611e07ecdcc96256ae8d5b80,611e6fb0196aebbdb9c969a7,
,,,,space,0.459,,0,290,290,59,1,Z, , , , ,space,2000,2,611bf52a1ded2b9f340813e4,001,2021-08-19_15h50.42.001,natb3,2021.2.3,MacIntel,58.82352941,611bf52a1ded2b9f340813e4,611e07ecdcc96256ae8d5b80,611e6fb0196aebbdb9c969a7,
,,,,space,0.396,,0,291,291,307,1,F, , , , ,space,2500,2.5,611bf52a1ded2b9f340813e4,001,2021-08-19_15h50.42.001,natb3,2021.2.3,MacIntel,58.82352941,611bf52a1ded2b9f340813e4,611e07ecdcc96256ae8d5b80,611e6fb0196aebbdb9c969a7,
,,,,space,0.417,,0,292,292,38,1,R, , , , ,space,2500,2.5,611bf52a1ded2b9f340813e4,001,2021-08-19_15h50.42.001,natb3,2021.2.3,MacIntel,58.82352941,611bf52a1ded2b9f340813e4,611e07ecdcc96256ae8d5b80,611e6fb0196aebbdb9c969a7,
,,,,space,0.463,,0,293,293,29,1,B, , , , ,space,1500,1.5,611bf52a1ded2b9f340813e4,001,2021-08-19_15h50.42.001,natb3,2021.2.3,MacIntel,58.82352941,611bf52a1ded2b9f340813e4,611e07ecdcc96256ae8d5b80,611e6fb0196aebbdb9c969a7,
,,,,space,0.583,,0,294,294,63,1,B, , , , ,space,2000,2,611bf52a1ded2b9f340813e4,001,2021-08-19_15h50.42.001,natb3,2021.2.3,MacIntel,58.82352941,611bf52a1ded2b9f340813e4,611e07ecdcc96256ae8d5b80,611e6fb0196aebbdb9c969a7,
,,,,space,0.415,,0,295,295,137,1,C, , , , ,space,2500,2.5,611bf52a1ded2b9f340813e4,001,2021-08-19_15h50.42.001,natb3,2021.2.3,MacIntel,58.82352941,611bf52a1ded2b9f340813e4,611e07ecdcc96256ae8d5b80,611e6fb0196aebbdb9c969a7,
,,,,space,0.422,,0,296,296,244,1,J, , , , ,space,1500,1.5,611bf52a1ded2b9f340813e4,001,2021-08-19_15h50.42.001,natb3,2021.2.3,MacIntel,58.82352941,611bf52a1ded2b9f340813e4,611e07ecdcc96256ae8d5b80,611e6fb0196aebbdb9c969a7,
,,,,space,0.583,,0,297,297,266,1,O, , , , ,space,1500,1.5,611bf52a1ded2b9f340813e4,001,2021-08-19_15h50.42.001,natb3,2021.2.3,MacIntel,58.82352941,611bf52a1ded2b9f340813e4,611e07ecdcc96256ae8d5b80,611e6fb0196aebbdb9c969a7,
,,,,space,0.441,,0,298,298,104,1,E, , , , ,space,2000,2,611bf52a1ded2b9f340813e4,001,2021-08-19_15h50.42.001,natb3,2021.2.3,MacIntel,58.82352941,611bf52a1ded2b9f340813e4,611e07ecdcc96256ae8d5b80,611e6fb0196aebbdb9c969a7,
,,,,space,0.528,,0,299,299,240,1,F, , , , ,space,2500,2.5,611bf52a1ded2b9f340813e4,001,2021-08-19_15h50.42.001,natb3,2021.2.3,MacIntel,58.82352941,611bf52a1ded2b9f340813e4,611e07ecdcc96256ae8d5b80,611e6fb0196aebbdb9c969a7,
,,,,space,0.523,,0,300,300,101,1,Q, , , , ,space,2500,2.5,611bf52a1ded2b9f340813e4,001,2021-08-19_15h50.42.001,natb3,2021.2.3,MacIntel,58.82352941,611bf52a1ded2b9f340813e4,611e07ecdcc96256ae8d5b80,611e6fb0196aebbdb9c969a7,
,,,,space,0.897,,0,301,301,55,1,H, , , , ,space,2500,2.5,611bf52a1ded2b9f340813e4,001,2021-08-19_15h50.42.001,natb3,2021.2.3,MacIntel,58.82352941,611bf52a1ded2b9f340813e4,611e07ecdcc96256ae8d5b80,611e6fb0196aebbdb9c969a7,
,,,,space,0.588,,0,302,302,185,1,Y, , , , ,space,2500,2.5,611bf52a1ded2b9f340813e4,001,2021-08-19_15h50.42.001,natb3,2021.2.3,MacIntel,58.82352941,611bf52a1ded2b9f340813e4,611e07ecdcc96256ae8d5b80,611e6fb0196aebbdb9c969a7,
,,,,space,0.655,,0,303,303,224,1,W, , , , ,space,1500,1.5,611bf52a1ded2b9f340813e4,001,2021-08-19_15h50.42.001,natb3,2021.2.3,MacIntel,58.82352941,611bf52a1ded2b9f340813e4,611e07ecdcc96256ae8d5b80,611e6fb0196aebbdb9c969a7,
,,,,space,0.96,,0,304,304,34,1,Q, , , , ,space,2500,2.5,611bf52a1ded2b9f340813e4,001,2021-08-19_15h50.42.001,natb3,2021.2.3,MacIntel,58.82352941,611bf52a1ded2b9f340813e4,611e07ecdcc96256ae8d5b80,611e6fb0196aebbdb9c969a7,
,,,,space,0.439,,0,305,305,190,1,P, , , , ,space,2000,2,611bf52a1ded2b9f340813e4,001,2021-08-19_15h50.42.001,natb3,2021.2.3,MacIntel,58.82352941,611bf52a1ded2b9f340813e4,611e07ecdcc96256ae8d5b80,611e6fb0196aebbdb9c969a7,
,,,,,,,0,306,306,305,1,X, , , , ,,1500,1.5,611bf52a1ded2b9f340813e4,001,2021-08-19_15h50.42.001,natb3,2021.2.3,MacIntel,58.82352941,611bf52a1ded2b9f340813e4,611e07ecdcc96256ae8d5b80,611e6fb0196aebbdb9c969a7,
,,,,space,0.355,,0,307,307,293,1,R, , , , ,space,2500,2.5,611bf52a1ded2b9f340813e4,001,2021-08-19_15h50.42.001,natb3,2021.2.3,MacIntel,58.82352941,611bf52a1ded2b9f340813e4,611e07ecdcc96256ae8d5b80,611e6fb0196aebbdb9c969a7,
,,,,space,0.444,,0,308,308,161,1,F, , , , ,space,1500,1.5,611bf52a1ded2b9f340813e4,001,2021-08-19_15h50.42.001,natb3,2021.2.3,MacIntel,58.82352941,611bf52a1ded2b9f340813e4,611e07ecdcc96256ae8d5b80,611e6fb0196aebbdb9c969a7,
,,,,space,0.363,,0,309,309,14,1,S, , , , ,space,2500,2.5,611bf52a1ded2b9f340813e4,001,2021-08-19_15h50.42.001,natb3,2021.2.3,MacIntel,58.82352941,611bf52a1ded2b9f340813e4,611e07ecdcc96256ae8d5b80,611e6fb0196aebbdb9c969a7,
,,,,,,,0,310,310,291,1,X, , , , ,,2000,2,611bf52a1ded2b9f340813e4,001,2021-08-19_15h50.42.001,natb3,2021.2.3,MacIntel,58.82352941,611bf52a1ded2b9f340813e4,611e07ecdcc96256ae8d5b80,611e6fb0196aebbdb9c969a7,
,,,,space,0.467,,0,311,311,296,1,Y, , , , ,space,2500,2.5,611bf52a1ded2b9f340813e4,001,2021-08-19_15h50.42.001,natb3,2021.2.3,MacIntel,58.82352941,611bf52a1ded2b9f340813e4,611e07ecdcc96256ae8d5b80,611e6fb0196aebbdb9c969a7,
,,,,,,,0,312,312,43,1,X, ,6, ,2,,2500,2.5,611bf52a1ded2b9f340813e4,001,2021-08-19_15h50.42.001,natb3,2021.2.3,MacIntel,58.82352941,611bf52a1ded2b9f340813e4,611e07ecdcc96256ae8d5b80,611e6fb0196aebbdb9c969a7,
,,,,space,0.513,,0,313,313,50,1,D, , , , ,space,1500,1.5,611bf52a1ded2b9f340813e4,001,2021-08-19_15h50.42.001,natb3,2021.2.3,MacIntel,58.82352941,611bf52a1ded2b9f340813e4,611e07ecdcc96256ae8d5b80,611e6fb0196aebbdb9c969a7,
,,,,,,,0,314,314,233,1,X, ,2, ,5,,1500,1.5,611bf52a1ded2b9f340813e4,001,2021-08-19_15h50.42.001,natb3,2021.2.3,MacIntel,58.82352941,611bf52a1ded2b9f340813e4,611e07ecdcc96256ae8d5b80,611e6fb0196aebbdb9c969a7,
,,,,space,0.571,,0,315,315,332,1,U, , , , ,space,2000,2,611bf52a1ded2b9f340813e4,001,2021-08-19_15h50.42.001,natb3,2021.2.3,MacIntel,58.82352941,611bf52a1ded2b9f340813e4,611e07ecdcc96256ae8d5b80,611e6fb0196aebbdb9c969a7,
,,,,space,0.778,,0,316,316,156,1,P, , , , ,space,1500,1.5,611bf52a1ded2b9f340813e4,001,2021-08-19_15h50.42.001,natb3,2021.2.3,MacIntel,58.82352941,611bf52a1ded2b9f340813e4,611e07ecdcc96256ae8d5b80,611e6fb0196aebbdb9c969a7,
,,,,space,0.387,,0,317,317,56,1,J, , , , ,space,1500,1.5,611bf52a1ded2b9f340813e4,001,2021-08-19_15h50.42.001,natb3,2021.2.3,MacIntel,58.82352941,611bf52a1ded2b9f340813e4,611e07ecdcc96256ae8d5b80,611e6fb0196aebbdb9c969a7,
,,,,space,0.411,,0,318,318,302,1,X, , , , ,,2000,2,611bf52a1ded2b9f340813e4,001,2021-08-19_15h50.42.001,natb3,2021.2.3,MacIntel,58.82352941,611bf52a1ded2b9f340813e4,611e07ecdcc96256ae8d5b80,611e6fb0196aebbdb9c969a7,
,,,,,,,0,319,319,311,1,X,1,2,7,3,,2500,2.5,611bf52a1ded2b9f340813e4,001,2021-08-19_15h50.42.001,natb3,2021.2.3,MacIntel,58.82352941,611bf52a1ded2b9f340813e4,611e07ecdcc96256ae8d5b80,611e6fb0196aebbdb9c969a7,
,,,,space,0.402,,0,320,320,47,1,P, , , , ,space,2000,2,611bf52a1ded2b9f340813e4,001,2021-08-19_15h50.42.001,natb3,2021.2.3,MacIntel,58.82352941,611bf52a1ded2b9f340813e4,611e07ecdcc96256ae8d5b80,611e6fb0196aebbdb9c969a7,
,,,,,,,0,321,321,203,1,X, , , , ,,2500,2.5,611bf52a1ded2b9f340813e4,001,2021-08-19_15h50.42.001,natb3,2021.2.3,MacIntel,58.82352941,611bf52a1ded2b9f340813e4,611e07ecdcc96256ae8d5b80,611e6fb0196aebbdb9c969a7,
,,,,space,0.516,,0,322,322,103,1,W, , , , ,space,2000,2,611bf52a1ded2b9f340813e4,001,2021-08-19_15h50.42.001,natb3,2021.2.3,MacIntel,58.82352941,611bf52a1ded2b9f340813e4,611e07ecdcc96256ae8d5b80,611e6fb0196aebbdb9c969a7,
,,,,space,0.34,,0,323,323,22,1,K, , , , ,space,2000,2,611bf52a1ded2b9f340813e4,001,2021-08-19_15h50.42.001,natb3,2021.2.3,MacIntel,58.82352941,611bf52a1ded2b9f340813e4,611e07ecdcc96256ae8d5b80,611e6fb0196aebbdb9c969a7,
,,,,space,0.538,,0,324,324,5,1,T, , , , ,space,2000,2,611bf52a1ded2b9f340813e4,001,2021-08-19_15h50.42.001,natb3,2021.2.3,MacIntel,58.82352941,611bf52a1ded2b9f340813e4,611e07ecdcc96256ae8d5b80,611e6fb0196aebbdb9c969a7,
,,,,space,0.379,,0,325,325,54,1,X, , , , ,,2000,2,611bf52a1ded2b9f340813e4,001,2021-08-19_15h50.42.001,natb3,2021.2.3,MacIntel,58.82352941,611bf52a1ded2b9f340813e4,611e07ecdcc96256ae8d5b80,611e6fb0196aebbdb9c969a7,
,,,,space,0.35,,0,326,326,231,1,I, , , , ,space,2500,2.5,611bf52a1ded2b9f340813e4,001,2021-08-19_15h50.42.001,natb3,2021.2.3,MacIntel,58.82352941,611bf52a1ded2b9f340813e4,611e07ecdcc96256ae8d5b80,611e6fb0196aebbdb9c969a7,
,,,,space,0.397,,0,327,327,142,1,N, , , , ,space,2500,2.5,611bf52a1ded2b9f340813e4,001,2021-08-19_15h50.42.001,natb3,2021.2.3,MacIntel,58.82352941,611bf52a1ded2b9f340813e4,611e07ecdcc96256ae8d5b80,611e6fb0196aebbdb9c969a7,
,,,,space,0.455,,0,328,328,280,1,L, , , , ,space,1500,1.5,611bf52a1ded2b9f340813e4,001,2021-08-19_15h50.42.001,natb3,2021.2.3,MacIntel,58.82352941,611bf52a1ded2b9f340813e4,611e07ecdcc96256ae8d5b80,611e6fb0196aebbdb9c969a7,
,,,,space,0.337,,0,329,329,304,1,S, , , , ,space,2000,2,611bf52a1ded2b9f340813e4,001,2021-08-19_15h50.42.001,natb3,2021.2.3,MacIntel,58.82352941,611bf52a1ded2b9f340813e4,611e07ecdcc96256ae8d5b80,611e6fb0196aebbdb9c969a7,
,,,,space,0.442,,0,330,330,242,1,H, , , , ,space,2500,2.5,611bf52a1ded2b9f340813e4,001,2021-08-19_15h50.42.001,natb3,2021.2.3,MacIntel,58.82352941,611bf52a1ded2b9f340813e4,611e07ecdcc96256ae8d5b80,611e6fb0196aebbdb9c969a7,
,,,,space,0.379,,0,331,331,286,1,N, , , , ,space,1500,1.5,611bf52a1ded2b9f340813e4,001,2021-08-19_15h50.42.001,natb3,2021.2.3,MacIntel,58.82352941,611bf52a1ded2b9f340813e4,611e07ecdcc96256ae8d5b80,611e6fb0196aebbdb9c969a7,
,,,,space,0.422,,0,332,332,134,1,J, , , , ,space,2000,2,611bf52a1ded2b9f340813e4,001,2021-08-19_15h50.42.001,natb3,2021.2.3,MacIntel,58.82352941,611bf52a1ded2b9f340813e4,611e07ecdcc96256ae8d5b80,611e6fb0196aebbdb9c969a7,
,,,,,,,0,333,333,329,1,X,3,4, ,2,,2500,2.5,611bf52a1ded2b9f340813e4,001,2021-08-19_15h50.42.001,natb3,2021.2.3,MacIntel,58.82352941,611bf52a1ded2b9f340813e4,611e07ecdcc96256ae8d5b80,611e6fb0196aebbdb9c969a7,
,,,,space,0.471,,0,334,334,320,1,B, , , , ,space,1500,1.5,611bf52a1ded2b9f340813e4,001,2021-08-19_15h50.42.001,natb3,2021.2.3,MacIntel,58.82352941,611bf52a1ded2b9f340813e4,611e07ecdcc96256ae8d5b80,611e6fb0196aebbdb9c969a7,
,,,,space,0.764,,0,335,335,223,1,Q, , , , ,space,2000,2,611bf52a1ded2b9f340813e4,001,2021-08-19_15h50.42.001,natb3,2021.2.3,MacIntel,58.82352941,611bf52a1ded2b9f340813e4,611e07ecdcc96256ae8d5b80,611e6fb0196aebbdb9c969a7,
