key_resp_2.keys,key_resp_2.rt,key_resp_3.keys,key_resp_3.rt,key_resp.keys,key_resp_4.keys,trials.thisRepN,trials.thisTrialN,trials.thisN,trials.thisIndex,trials.ran,stimulus,distractor1,distractor2,distractor3,distractor4,CorrAns,isi_duration,isi_dur_in_seconds,participant,session,date,expName,psychopyVersion,OS,frameRate,PROLIFIC_PID,STUDY_ID,SESSION_ID,key_resp.rt,key_resp_4.rt
return,11.7176,space,16.8187,,,0,0,0,268,1,X,6, ,3, ,,2500,2.5,611bcaccd3e681f51ad322a1,001,2021-08-19_16h38.37.893,natb3,2021.2.3,Win32,60.08532116,611bcaccd3e681f51ad322a1,611e07ecdcc96256ae8d5b80,611e7ae9519eb4b3bee5e1ce,,
,,,,,,0,1,1,302,1,X, , , , ,,2000,2,611bcaccd3e681f51ad322a1,001,2021-08-19_16h38.37.893,natb3,2021.2.3,Win32,60.08532116,611bcaccd3e681f51ad322a1,611e07ecdcc96256ae8d5b80,611e7ae9519eb4b3bee5e1ce,,
,,,,space,,0,2,2,41,1,Y, , , , ,space,2500,2.5,611bcaccd3e681f51ad322a1,001,2021-08-19_16h38.37.893,natb3,2021.2.3,Win32,60.08532116,611bcaccd3e681f51ad322a1,611e07ecdcc96256ae8d5b80,611e7ae9519eb4b3bee5e1ce,0.4759,
,,,,space,,0,3,3,224,1,W, , , , ,space,1500,1.5,611bcaccd3e681f51ad322a1,001,2021-08-19_16h38.37.893,natb3,2021.2.3,Win32,60.08532116,611bcaccd3e681f51ad322a1,611e07ecdcc96256ae8d5b80,611e7ae9519eb4b3bee5e1ce,0.4355,
,,,,space,,0,4,4,81,1,S, , , , ,space,2000,2,611bcaccd3e681f51ad322a1,001,2021-08-19_16h38.37.893,natb3,2021.2.3,Win32,60.08532116,611bcaccd3e681f51ad322a1,611e07ecdcc96256ae8d5b80,611e7ae9519eb4b3bee5e1ce,0.4146,
,,,,space,,0,5,5,77,1,O, , , , ,space,2000,2,611bcaccd3e681f51ad322a1,001,2021-08-19_16h38.37.893,natb3,2021.2.3,Win32,60.08532116,611bcaccd3e681f51ad322a1,611e07ecdcc96256ae8d5b80,611e7ae9519eb4b3bee5e1ce,0.4681,
,,,,space,,0,6,6,157,1,A, , , , ,space,2500,2.5,611bcaccd3e681f51ad322a1,001,2021-08-19_16h38.37.893,natb3,2021.2.3,Win32,60.08532116,611bcaccd3e681f51ad322a1,611e07ecdcc96256ae8d5b80,611e7ae9519eb4b3bee5e1ce,0.442,
,,,,space,,0,7,7,248,1,X, ,1,5, ,,1500,1.5,611bcaccd3e681f51ad322a1,001,2021-08-19_16h38.37.893,natb3,2021.2.3,Win32,60.08532116,611bcaccd3e681f51ad322a1,611e07ecdcc96256ae8d5b80,611e7ae9519eb4b3bee5e1ce,0.5705,
,,,,space,,0,8,8,97,1,B, , , , ,space,2500,2.5,611bcaccd3e681f51ad322a1,001,2021-08-19_16h38.37.893,natb3,2021.2.3,Win32,60.08532116,611bcaccd3e681f51ad322a1,611e07ecdcc96256ae8d5b80,611e7ae9519eb4b3bee5e1ce,0.5717,
,,,,space,,0,9,9,235,1,A, , , , ,space,1500,1.5,611bcaccd3e681f51ad322a1,001,2021-08-19_16h38.37.893,natb3,2021.2.3,Win32,60.08532116,611bcaccd3e681f51ad322a1,611e07ecdcc96256ae8d5b80,611e7ae9519eb4b3bee5e1ce,0.4944,
,,,,,,0,10,10,125,1,X, , , , ,,2000,2,611bcaccd3e681f51ad322a1,001,2021-08-19_16h38.37.893,natb3,2021.2.3,Win32,60.08532116,611bcaccd3e681f51ad322a1,611e07ecdcc96256ae8d5b80,611e7ae9519eb4b3bee5e1ce,,
,,,,space,,0,11,11,61,1,C, , , , ,space,2000,2,611bcaccd3e681f51ad322a1,001,2021-08-19_16h38.37.893,natb3,2021.2.3,Win32,60.08532116,611bcaccd3e681f51ad322a1,611e07ecdcc96256ae8d5b80,611e7ae9519eb4b3bee5e1ce,0.4233,
,,,,space,,0,12,12,215,1,E, , , , ,space,2500,2.5,611bcaccd3e681f51ad322a1,001,2021-08-19_16h38.37.893,natb3,2021.2.3,Win32,60.08532116,611bcaccd3e681f51ad322a1,611e07ecdcc96256ae8d5b80,611e7ae9519eb4b3bee5e1ce,0.4144,
,,,,space,,0,13,13,294,1,T, , , , ,space,2000,2,611bcaccd3e681f51ad322a1,001,2021-08-19_16h38.37.893,natb3,2021.2.3,Win32,60.08532116,611bcaccd3e681f51ad322a1,611e07ecdcc96256ae8d5b80,611e7ae9519eb4b3bee5e1ce,0.4514,
,,,,space,,0,14,14,281,1,Z, , , , ,space,1500,1.5,611bcaccd3e681f51ad322a1,001,2021-08-19_16h38.37.893,natb3,2021.2.3,Win32,60.08532116,611bcaccd3e681f51ad322a1,611e07ecdcc96256ae8d5b80,611e7ae9519eb4b3bee5e1ce,0.6355,
,,,,,,0,15,15,273,1,X, , , , ,,2000,2,611bcaccd3e681f51ad322a1,001,2021-08-19_16h38.37.893,natb3,2021.2.3,Win32,60.08532116,611bcaccd3e681f51ad322a1,611e07ecdcc96256ae8d5b80,611e7ae9519eb4b3bee5e1ce,,
,,,,space,,0,16,16,17,1,F, , , , ,space,2500,2.5,611bcaccd3e681f51ad322a1,001,2021-08-19_16h38.37.893,natb3,2021.2.3,Win32,60.08532116,611bcaccd3e681f51ad322a1,611e07ecdcc96256ae8d5b80,611e7ae9519eb4b3bee5e1ce,0.4248,
,,,,space,,0,17,17,232,1,O, , , , ,space,2500,2.5,611bcaccd3e681f51ad322a1,001,2021-08-19_16h38.37.893,natb3,2021.2.3,Win32,60.08532116,611bcaccd3e681f51ad322a1,611e07ecdcc96256ae8d5b80,611e7ae9519eb4b3bee5e1ce,0.4565,
,,,,space,,0,18,18,170,1,Z, , , , ,space,2000,2,611bcaccd3e681f51ad322a1,001,2021-08-19_16h38.37.893,natb3,2021.2.3,Win32,60.08532116,611bcaccd3e681f51ad322a1,611e07ecdcc96256ae8d5b80,611e7ae9519eb4b3bee5e1ce,0.4678,
,,,,,,0,19,19,46,1,X, , , , ,,2000,2,611bcaccd3e681f51ad322a1,001,2021-08-19_16h38.37.893,natb3,2021.2.3,Win32,60.08532116,611bcaccd3e681f51ad322a1,611e07ecdcc96256ae8d5b80,611e7ae9519eb4b3bee5e1ce,,
,,,,space,,0,20,20,204,1,Z, , , , ,space,2000,2,611bcaccd3e681f51ad322a1,001,2021-08-19_16h38.37.893,natb3,2021.2.3,Win32,60.08532116,611bcaccd3e681f51ad322a1,611e07ecdcc96256ae8d5b80,611e7ae9519eb4b3bee5e1ce,0.3572,
,,,,,,0,21,21,138,1,X,8,5, ,3,,2000,2,611bcaccd3e681f51ad322a1,001,2021-08-19_16h38.37.893,natb3,2021.2.3,Win32,60.08532116,611bcaccd3e681f51ad322a1,611e07ecdcc96256ae8d5b80,611e7ae9519eb4b3bee5e1ce,,
,,,,space,,0,22,22,251,1,B, , , , ,space,1500,1.5,611bcaccd3e681f51ad322a1,001,2021-08-19_16h38.37.893,natb3,2021.2.3,Win32,60.08532116,611bcaccd3e681f51ad322a1,611e07ecdcc96256ae8d5b80,611e7ae9519eb4b3bee5e1ce,0.5256,
,,,,space,,0,23,23,111,1,O, , , , ,space,2000,2,611bcaccd3e681f51ad322a1,001,2021-08-19_16h38.37.893,natb3,2021.2.3,Win32,60.08532116,611bcaccd3e681f51ad322a1,611e07ecdcc96256ae8d5b80,611e7ae9519eb4b3bee5e1ce,0.5021,
,,,,,,0,24,24,15,1,X, , , , ,,1500,1.5,611bcaccd3e681f51ad322a1,001,2021-08-19_16h38.37.893,natb3,2021.2.3,Win32,60.08532116,611bcaccd3e681f51ad322a1,611e07ecdcc96256ae8d5b80,611e7ae9519eb4b3bee5e1ce,,
,,,,space,,0,25,25,106,1,T, , , , ,space,1500,1.5,611bcaccd3e681f51ad322a1,001,2021-08-19_16h38.37.893,natb3,2021.2.3,Win32,60.08532116,611bcaccd3e681f51ad322a1,611e07ecdcc96256ae8d5b80,611e7ae9519eb4b3bee5e1ce,0.4624,
,,,,space,,0,26,26,323,1,M, , , , ,space,2500,2.5,611bcaccd3e681f51ad322a1,001,2021-08-19_16h38.37.893,natb3,2021.2.3,Win32,60.08532116,611bcaccd3e681f51ad322a1,611e07ecdcc96256ae8d5b80,611e7ae9519eb4b3bee5e1ce,0.4043,
,,,,space,,0,27,27,124,1,P, , , , ,space,2000,2,611bcaccd3e681f51ad322a1,001,2021-08-19_16h38.37.893,natb3,2021.2.3,Win32,60.08532116,611bcaccd3e681f51ad322a1,611e07ecdcc96256ae8d5b80,611e7ae9519eb4b3bee5e1ce,0.4175,
,,,,space,,0,28,28,120,1,U, , , , ,space,1500,1.5,611bcaccd3e681f51ad322a1,001,2021-08-19_16h38.37.893,natb3,2021.2.3,Win32,60.08532116,611bcaccd3e681f51ad322a1,611e07ecdcc96256ae8d5b80,611e7ae9519eb4b3bee5e1ce,0.3383,
,,,,space,,0,29,29,47,1,P, , , , ,space,2000,2,611bcaccd3e681f51ad322a1,001,2021-08-19_16h38.37.893,natb3,2021.2.3,Win32,60.08532116,611bcaccd3e681f51ad322a1,611e07ecdcc96256ae8d5b80,611e7ae9519eb4b3bee5e1ce,0.3541,
,,,,space,,0,30,30,152,1,U, , , , ,space,2000,2,611bcaccd3e681f51ad322a1,001,2021-08-19_16h38.37.893,natb3,2021.2.3,Win32,60.08532116,611bcaccd3e681f51ad322a1,611e07ecdcc96256ae8d5b80,611e7ae9519eb4b3bee5e1ce,0.4022,
,,,,space,,0,31,31,217,1,T, , , , ,space,2500,2.5,611bcaccd3e681f51ad322a1,001,2021-08-19_16h38.37.893,natb3,2021.2.3,Win32,60.08532116,611bcaccd3e681f51ad322a1,611e07ecdcc96256ae8d5b80,611e7ae9519eb4b3bee5e1ce,0.3221,
,,,,space,,0,32,32,253,1,N, , , , ,space,2500,2.5,611bcaccd3e681f51ad322a1,001,2021-08-19_16h38.37.893,natb3,2021.2.3,Win32,60.08532116,611bcaccd3e681f51ad322a1,611e07ecdcc96256ae8d5b80,611e7ae9519eb4b3bee5e1ce,0.2943,
,,,,space,,0,33,33,334,1,O, , , , ,space,1500,1.5,611bcaccd3e681f51ad322a1,001,2021-08-19_16h38.37.893,natb3,2021.2.3,Win32,60.08532116,611bcaccd3e681f51ad322a1,611e07ecdcc96256ae8d5b80,611e7ae9519eb4b3bee5e1ce,0.4125,
,,,,space,,0,34,34,198,1,H, , , , ,space,2500,2.5,611bcaccd3e681f51ad322a1,001,2021-08-19_16h38.37.893,natb3,2021.2.3,Win32,60.08532116,611bcaccd3e681f51ad322a1,611e07ecdcc96256ae8d5b80,611e7ae9519eb4b3bee5e1ce,0.3105,
,,,,space,,0,35,35,189,1,O, , , , ,space,1500,1.5,611bcaccd3e681f51ad322a1,001,2021-08-19_16h38.37.893,natb3,2021.2.3,Win32,60.08532116,611bcaccd3e681f51ad322a1,611e07ecdcc96256ae8d5b80,611e7ae9519eb4b3bee5e1ce,0.3552,
,,,,space,,0,36,36,53,1,G, , , , ,space,2500,2.5,611bcaccd3e681f51ad322a1,001,2021-08-19_16h38.37.893,natb3,2021.2.3,Win32,60.08532116,611bcaccd3e681f51ad322a1,611e07ecdcc96256ae8d5b80,611e7ae9519eb4b3bee5e1ce,0.294,
,,,,space,,0,37,37,172,1,C, , , , ,space,1500,1.5,611bcaccd3e681f51ad322a1,001,2021-08-19_16h38.37.893,natb3,2021.2.3,Win32,60.08532116,611bcaccd3e681f51ad322a1,611e07ecdcc96256ae8d5b80,611e7ae9519eb4b3bee5e1ce,0.3008,
,,,,space,,0,38,38,192,1,A, , , , ,space,2000,2,611bcaccd3e681f51ad322a1,001,2021-08-19_16h38.37.893,natb3,2021.2.3,Win32,60.08532116,611bcaccd3e681f51ad322a1,611e07ecdcc96256ae8d5b80,611e7ae9519eb4b3bee5e1ce,0.325,
,,,,space,,0,39,39,298,1,I, , , , ,space,2000,2,611bcaccd3e681f51ad322a1,001,2021-08-19_16h38.37.893,natb3,2021.2.3,Win32,60.08532116,611bcaccd3e681f51ad322a1,611e07ecdcc96256ae8d5b80,611e7ae9519eb4b3bee5e1ce,0.4068,
,,,,space,,0,40,40,159,1,S, , , , ,space,2500,2.5,611bcaccd3e681f51ad322a1,001,2021-08-19_16h38.37.893,natb3,2021.2.3,Win32,60.08532116,611bcaccd3e681f51ad322a1,611e07ecdcc96256ae8d5b80,611e7ae9519eb4b3bee5e1ce,0.3511,
,,,,space,,0,41,41,89,1,X,3, , , ,,2000,2,611bcaccd3e681f51ad322a1,001,2021-08-19_16h38.37.893,natb3,2021.2.3,Win32,60.08532116,611bcaccd3e681f51ad322a1,611e07ecdcc96256ae8d5b80,611e7ae9519eb4b3bee5e1ce,0.2935,
,,,,space,,0,42,42,171,1,X, , , , ,,1500,1.5,611bcaccd3e681f51ad322a1,001,2021-08-19_16h38.37.893,natb3,2021.2.3,Win32,60.08532116,611bcaccd3e681f51ad322a1,611e07ecdcc96256ae8d5b80,611e7ae9519eb4b3bee5e1ce,0.3482,
,,,,space,,0,43,43,101,1,Q, , , , ,space,2500,2.5,611bcaccd3e681f51ad322a1,001,2021-08-19_16h38.37.893,natb3,2021.2.3,Win32,60.08532116,611bcaccd3e681f51ad322a1,611e07ecdcc96256ae8d5b80,611e7ae9519eb4b3bee5e1ce,0.3029,
,,,,,,0,44,44,12,1,X, , , , ,,1500,1.5,611bcaccd3e681f51ad322a1,001,2021-08-19_16h38.37.893,natb3,2021.2.3,Win32,60.08532116,611bcaccd3e681f51ad322a1,611e07ecdcc96256ae8d5b80,611e7ae9519eb4b3bee5e1ce,,
,,,,space,,0,45,45,275,1,G, , , , ,space,1500,1.5,611bcaccd3e681f51ad322a1,001,2021-08-19_16h38.37.893,natb3,2021.2.3,Win32,60.08532116,611bcaccd3e681f51ad322a1,611e07ecdcc96256ae8d5b80,611e7ae9519eb4b3bee5e1ce,0.4176,
,,,,space,,0,46,46,142,1,N, , , , ,space,2500,2.5,611bcaccd3e681f51ad322a1,001,2021-08-19_16h38.37.893,natb3,2021.2.3,Win32,60.08532116,611bcaccd3e681f51ad322a1,611e07ecdcc96256ae8d5b80,611e7ae9519eb4b3bee5e1ce,0.4552,
,,,,space,,0,47,47,283,1,C, , , , ,space,1500,1.5,611bcaccd3e681f51ad322a1,001,2021-08-19_16h38.37.893,natb3,2021.2.3,Win32,60.08532116,611bcaccd3e681f51ad322a1,611e07ecdcc96256ae8d5b80,611e7ae9519eb4b3bee5e1ce,0.5904,
,,,,,,0,48,48,195,1,X, , , , ,,1500,1.5,611bcaccd3e681f51ad322a1,001,2021-08-19_16h38.37.893,natb3,2021.2.3,Win32,60.08532116,611bcaccd3e681f51ad322a1,611e07ecdcc96256ae8d5b80,611e7ae9519eb4b3bee5e1ce,,
,,,,,,0,49,49,203,1,X, , , , ,,2500,2.5,611bcaccd3e681f51ad322a1,001,2021-08-19_16h38.37.893,natb3,2021.2.3,Win32,60.08532116,611bcaccd3e681f51ad322a1,611e07ecdcc96256ae8d5b80,611e7ae9519eb4b3bee5e1ce,,
,,,,,,0,50,50,98,1,X, , , , ,,2500,2.5,611bcaccd3e681f51ad322a1,001,2021-08-19_16h38.37.893,natb3,2021.2.3,Win32,60.08532116,611bcaccd3e681f51ad322a1,611e07ecdcc96256ae8d5b80,611e7ae9519eb4b3bee5e1ce,,
,,,,space,,0,51,51,128,1,D, , , , ,space,2500,2.5,611bcaccd3e681f51ad322a1,001,2021-08-19_16h38.37.893,natb3,2021.2.3,Win32,60.08532116,611bcaccd3e681f51ad322a1,611e07ecdcc96256ae8d5b80,611e7ae9519eb4b3bee5e1ce,0.3841,
,,,,,,0,52,52,213,1,X, , , , ,,2500,2.5,611bcaccd3e681f51ad322a1,001,2021-08-19_16h38.37.893,natb3,2021.2.3,Win32,60.08532116,611bcaccd3e681f51ad322a1,611e07ecdcc96256ae8d5b80,611e7ae9519eb4b3bee5e1ce,,
,,,,space,,0,53,53,309,1,H, , , , ,space,2500,2.5,611bcaccd3e681f51ad322a1,001,2021-08-19_16h38.37.893,natb3,2021.2.3,Win32,60.08532116,611bcaccd3e681f51ad322a1,611e07ecdcc96256ae8d5b80,611e7ae9519eb4b3bee5e1ce,0.553,
,,,,space,,0,54,54,63,1,B, , , , ,space,2000,2,611bcaccd3e681f51ad322a1,001,2021-08-19_16h38.37.893,natb3,2021.2.3,Win32,60.08532116,611bcaccd3e681f51ad322a1,611e07ecdcc96256ae8d5b80,611e7ae9519eb4b3bee5e1ce,0.4962,
,,,,space,,0,55,55,108,1,Y, , , , ,space,2500,2.5,611bcaccd3e681f51ad322a1,001,2021-08-19_16h38.37.893,natb3,2021.2.3,Win32,60.08532116,611bcaccd3e681f51ad322a1,611e07ecdcc96256ae8d5b80,611e7ae9519eb4b3bee5e1ce,0.4544,
,,,,space,,0,56,56,30,1,N, , , , ,space,2500,2.5,611bcaccd3e681f51ad322a1,001,2021-08-19_16h38.37.893,natb3,2021.2.3,Win32,60.08532116,611bcaccd3e681f51ad322a1,611e07ecdcc96256ae8d5b80,611e7ae9519eb4b3bee5e1ce,0.3506,
,,,,space,,0,57,57,290,1,W, , , , ,space,1500,1.5,611bcaccd3e681f51ad322a1,001,2021-08-19_16h38.37.893,natb3,2021.2.3,Win32,60.08532116,611bcaccd3e681f51ad322a1,611e07ecdcc96256ae8d5b80,611e7ae9519eb4b3bee5e1ce,0.3846,
,,,,space,,0,58,58,132,1,H, , , , ,space,2500,2.5,611bcaccd3e681f51ad322a1,001,2021-08-19_16h38.37.893,natb3,2021.2.3,Win32,60.08532116,611bcaccd3e681f51ad322a1,611e07ecdcc96256ae8d5b80,611e7ae9519eb4b3bee5e1ce,0.3139,
,,,,space,,0,59,59,134,1,J, , , , ,space,2000,2,611bcaccd3e681f51ad322a1,001,2021-08-19_16h38.37.893,natb3,2021.2.3,Win32,60.08532116,611bcaccd3e681f51ad322a1,611e07ecdcc96256ae8d5b80,611e7ae9519eb4b3bee5e1ce,0.3474,
,,,,space,,0,60,60,265,1,I, , , , ,space,2000,2,611bcaccd3e681f51ad322a1,001,2021-08-19_16h38.37.893,natb3,2021.2.3,Win32,60.08532116,611bcaccd3e681f51ad322a1,611e07ecdcc96256ae8d5b80,611e7ae9519eb4b3bee5e1ce,0.3959,
,,,,space,,0,61,61,160,1,D, , , , ,space,1500,1.5,611bcaccd3e681f51ad322a1,001,2021-08-19_16h38.37.893,natb3,2021.2.3,Win32,60.08532116,611bcaccd3e681f51ad322a1,611e07ecdcc96256ae8d5b80,611e7ae9519eb4b3bee5e1ce,0.357,
,,,,space,,0,62,62,289,1,Q, , , , ,space,2000,2,611bcaccd3e681f51ad322a1,001,2021-08-19_16h38.37.893,natb3,2021.2.3,Win32,60.08532116,611bcaccd3e681f51ad322a1,611e07ecdcc96256ae8d5b80,611e7ae9519eb4b3bee5e1ce,0.3802,
,,,,space,,0,63,63,6,1,Y, , , , ,space,2500,2.5,611bcaccd3e681f51ad322a1,001,2021-08-19_16h38.37.893,natb3,2021.2.3,Win32,60.08532116,611bcaccd3e681f51ad322a1,611e07ecdcc96256ae8d5b80,611e7ae9519eb4b3bee5e1ce,0.3844,
,,,,space,,0,64,64,83,1,D, , , , ,space,2000,2,611bcaccd3e681f51ad322a1,001,2021-08-19_16h38.37.893,natb3,2021.2.3,Win32,60.08532116,611bcaccd3e681f51ad322a1,611e07ecdcc96256ae8d5b80,611e7ae9519eb4b3bee5e1ce,0.3962,
,,,,space,,0,65,65,260,1,R, , , , ,space,2000,2,611bcaccd3e681f51ad322a1,001,2021-08-19_16h38.37.893,natb3,2021.2.3,Win32,60.08532116,611bcaccd3e681f51ad322a1,611e07ecdcc96256ae8d5b80,611e7ae9519eb4b3bee5e1ce,0.3788,
,,,,,,0,66,66,325,1,X, , , , ,,2500,2.5,611bcaccd3e681f51ad322a1,001,2021-08-19_16h38.37.893,natb3,2021.2.3,Win32,60.08532116,611bcaccd3e681f51ad322a1,611e07ecdcc96256ae8d5b80,611e7ae9519eb4b3bee5e1ce,,
,,,,space,,0,67,67,274,1,F, , , , ,space,2000,2,611bcaccd3e681f51ad322a1,001,2021-08-19_16h38.37.893,natb3,2021.2.3,Win32,60.08532116,611bcaccd3e681f51ad322a1,611e07ecdcc96256ae8d5b80,611e7ae9519eb4b3bee5e1ce,0.4182,
,,,,space,,0,68,68,244,1,J, , , , ,space,1500,1.5,611bcaccd3e681f51ad322a1,001,2021-08-19_16h38.37.893,natb3,2021.2.3,Win32,60.08532116,611bcaccd3e681f51ad322a1,611e07ecdcc96256ae8d5b80,611e7ae9519eb4b3bee5e1ce,0.395,
,,,,space,,0,69,69,2,1,E, , , , ,space,2500,2.5,611bcaccd3e681f51ad322a1,001,2021-08-19_16h38.37.893,natb3,2021.2.3,Win32,60.08532116,611bcaccd3e681f51ad322a1,611e07ecdcc96256ae8d5b80,611e7ae9519eb4b3bee5e1ce,0.6211,
,,,,space,,0,70,70,103,1,W, , , , ,space,2000,2,611bcaccd3e681f51ad322a1,001,2021-08-19_16h38.37.893,natb3,2021.2.3,Win32,60.08532116,611bcaccd3e681f51ad322a1,611e07ecdcc96256ae8d5b80,611e7ae9519eb4b3bee5e1ce,0.3687,
,,,,space,,0,71,71,186,1,U, , , , ,space,2500,2.5,611bcaccd3e681f51ad322a1,001,2021-08-19_16h38.37.893,natb3,2021.2.3,Win32,60.08532116,611bcaccd3e681f51ad322a1,611e07ecdcc96256ae8d5b80,611e7ae9519eb4b3bee5e1ce,0.5066,
,,,,space,,0,72,72,49,1,S, , , , ,space,1500,1.5,611bcaccd3e681f51ad322a1,001,2021-08-19_16h38.37.893,natb3,2021.2.3,Win32,60.08532116,611bcaccd3e681f51ad322a1,611e07ecdcc96256ae8d5b80,611e7ae9519eb4b3bee5e1ce,0.3924,
,,,,,,0,73,73,82,1,X,4,6,1,7,,2000,2,611bcaccd3e681f51ad322a1,001,2021-08-19_16h38.37.893,natb3,2021.2.3,Win32,60.08532116,611bcaccd3e681f51ad322a1,611e07ecdcc96256ae8d5b80,611e7ae9519eb4b3bee5e1ce,,
,,,,space,,0,74,74,65,1,M, , , , ,space,1500,1.5,611bcaccd3e681f51ad322a1,001,2021-08-19_16h38.37.893,natb3,2021.2.3,Win32,60.08532116,611bcaccd3e681f51ad322a1,611e07ecdcc96256ae8d5b80,611e7ae9519eb4b3bee5e1ce,0.4094,
,,,,space,,0,75,75,126,1,A, , , , ,space,2500,2.5,611bcaccd3e681f51ad322a1,001,2021-08-19_16h38.37.893,natb3,2021.2.3,Win32,60.08532116,611bcaccd3e681f51ad322a1,611e07ecdcc96256ae8d5b80,611e7ae9519eb4b3bee5e1ce,0.3612,
,,,,space,,0,76,76,269,1,A, , , , ,space,2500,2.5,611bcaccd3e681f51ad322a1,001,2021-08-19_16h38.37.893,natb3,2021.2.3,Win32,60.08532116,611bcaccd3e681f51ad322a1,611e07ecdcc96256ae8d5b80,611e7ae9519eb4b3bee5e1ce,0.3506,
,,,,space,,0,77,77,216,1,R, , , , ,space,1500,1.5,611bcaccd3e681f51ad322a1,001,2021-08-19_16h38.37.893,natb3,2021.2.3,Win32,60.08532116,611bcaccd3e681f51ad322a1,611e07ecdcc96256ae8d5b80,611e7ae9519eb4b3bee5e1ce,0.4173,
,,,,space,,0,78,78,75,1,U, , , , ,space,1500,1.5,611bcaccd3e681f51ad322a1,001,2021-08-19_16h38.37.893,natb3,2021.2.3,Win32,60.08532116,611bcaccd3e681f51ad322a1,611e07ecdcc96256ae8d5b80,611e7ae9519eb4b3bee5e1ce,0.3769,
,,,,,,0,79,79,33,1,X, , , , ,,1500,1.5,611bcaccd3e681f51ad322a1,001,2021-08-19_16h38.37.893,natb3,2021.2.3,Win32,60.08532116,611bcaccd3e681f51ad322a1,611e07ecdcc96256ae8d5b80,611e7ae9519eb4b3bee5e1ce,,
,,,,space,,0,80,80,95,1,V, , , , ,space,1500,1.5,611bcaccd3e681f51ad322a1,001,2021-08-19_16h38.37.893,natb3,2021.2.3,Win32,60.08532116,611bcaccd3e681f51ad322a1,611e07ecdcc96256ae8d5b80,611e7ae9519eb4b3bee5e1ce,0.4072,
,,,,space,,0,81,81,50,1,D, , , , ,space,1500,1.5,611bcaccd3e681f51ad322a1,001,2021-08-19_16h38.37.893,natb3,2021.2.3,Win32,60.08532116,611bcaccd3e681f51ad322a1,611e07ecdcc96256ae8d5b80,611e7ae9519eb4b3bee5e1ce,0.4721,
,,,,,,0,82,82,118,1,X, , , , ,,2000,2,611bcaccd3e681f51ad322a1,001,2021-08-19_16h38.37.893,natb3,2021.2.3,Win32,60.08532116,611bcaccd3e681f51ad322a1,611e07ecdcc96256ae8d5b80,611e7ae9519eb4b3bee5e1ce,,
,,,,,,0,83,83,153,1,X,4,7, ,6,,2000,2,611bcaccd3e681f51ad322a1,001,2021-08-19_16h38.37.893,natb3,2021.2.3,Win32,60.08532116,611bcaccd3e681f51ad322a1,611e07ecdcc96256ae8d5b80,611e7ae9519eb4b3bee5e1ce,,
,,,,space,,0,84,84,117,1,T, , , , ,space,2500,2.5,611bcaccd3e681f51ad322a1,001,2021-08-19_16h38.37.893,natb3,2021.2.3,Win32,60.08532116,611bcaccd3e681f51ad322a1,611e07ecdcc96256ae8d5b80,611e7ae9519eb4b3bee5e1ce,0.3384,
,,,,space,,0,85,85,137,1,C, , , , ,space,2500,2.5,611bcaccd3e681f51ad322a1,001,2021-08-19_16h38.37.893,natb3,2021.2.3,Win32,60.08532116,611bcaccd3e681f51ad322a1,611e07ecdcc96256ae8d5b80,611e7ae9519eb4b3bee5e1ce,0.4932,
,,,,space,,0,86,86,32,1,M, , , , ,space,1500,1.5,611bcaccd3e681f51ad322a1,001,2021-08-19_16h38.37.893,natb3,2021.2.3,Win32,60.08532116,611bcaccd3e681f51ad322a1,611e07ecdcc96256ae8d5b80,611e7ae9519eb4b3bee5e1ce,0.5008,
,,,,space,,0,87,87,227,1,T, , , , ,space,1500,1.5,611bcaccd3e681f51ad322a1,001,2021-08-19_16h38.37.893,natb3,2021.2.3,Win32,60.08532116,611bcaccd3e681f51ad322a1,611e07ecdcc96256ae8d5b80,611e7ae9519eb4b3bee5e1ce,0.5767,
,,,,space,,0,88,88,272,1,D, , , , ,space,2000,2,611bcaccd3e681f51ad322a1,001,2021-08-19_16h38.37.893,natb3,2021.2.3,Win32,60.08532116,611bcaccd3e681f51ad322a1,611e07ecdcc96256ae8d5b80,611e7ae9519eb4b3bee5e1ce,0.4011,
,,,,space,,0,89,89,16,1,D, , , , ,space,1500,1.5,611bcaccd3e681f51ad322a1,001,2021-08-19_16h38.37.893,natb3,2021.2.3,Win32,60.08532116,611bcaccd3e681f51ad322a1,611e07ecdcc96256ae8d5b80,611e7ae9519eb4b3bee5e1ce,0.4017,
,,,,space,,0,90,90,127,1,S, , , , ,space,2500,2.5,611bcaccd3e681f51ad322a1,001,2021-08-19_16h38.37.893,natb3,2021.2.3,Win32,60.08532116,611bcaccd3e681f51ad322a1,611e07ecdcc96256ae8d5b80,611e7ae9519eb4b3bee5e1ce,0.3851,
,,,,space,,0,91,91,36,1,W, , , , ,space,2000,2,611bcaccd3e681f51ad322a1,001,2021-08-19_16h38.37.893,natb3,2021.2.3,Win32,60.08532116,611bcaccd3e681f51ad322a1,611e07ecdcc96256ae8d5b80,611e7ae9519eb4b3bee5e1ce,0.3591,
,,,,,,0,92,92,18,1,X, ,2,5,8,,2500,2.5,611bcaccd3e681f51ad322a1,001,2021-08-19_16h38.37.893,natb3,2021.2.3,Win32,60.08532116,611bcaccd3e681f51ad322a1,611e07ecdcc96256ae8d5b80,611e7ae9519eb4b3bee5e1ce,,
,,,,space,,0,93,93,25,1,Z, , , , ,space,2500,2.5,611bcaccd3e681f51ad322a1,001,2021-08-19_16h38.37.893,natb3,2021.2.3,Win32,60.08532116,611bcaccd3e681f51ad322a1,611e07ecdcc96256ae8d5b80,611e7ae9519eb4b3bee5e1ce,0.4687,
,,,,space,,0,94,94,86,1,G, , , , ,space,2000,2,611bcaccd3e681f51ad322a1,001,2021-08-19_16h38.37.893,natb3,2021.2.3,Win32,60.08532116,611bcaccd3e681f51ad322a1,611e07ecdcc96256ae8d5b80,611e7ae9519eb4b3bee5e1ce,0.4009,
,,,,space,,0,95,95,56,1,J, , , , ,space,1500,1.5,611bcaccd3e681f51ad322a1,001,2021-08-19_16h38.37.893,natb3,2021.2.3,Win32,60.08532116,611bcaccd3e681f51ad322a1,611e07ecdcc96256ae8d5b80,611e7ae9519eb4b3bee5e1ce,0.4397,
,,,,,,0,96,96,27,1,X,5, ,1,3,,1500,1.5,611bcaccd3e681f51ad322a1,001,2021-08-19_16h38.37.893,natb3,2021.2.3,Win32,60.08532116,611bcaccd3e681f51ad322a1,611e07ecdcc96256ae8d5b80,611e7ae9519eb4b3bee5e1ce,,
,,,,,,0,97,97,102,1,X, ,6, , ,,1500,1.5,611bcaccd3e681f51ad322a1,001,2021-08-19_16h38.37.893,natb3,2021.2.3,Win32,60.08532116,611bcaccd3e681f51ad322a1,611e07ecdcc96256ae8d5b80,611e7ae9519eb4b3bee5e1ce,,
,,,,,,0,98,98,277,1,X,8,5, ,2,,2000,2,611bcaccd3e681f51ad322a1,001,2021-08-19_16h38.37.893,natb3,2021.2.3,Win32,60.08532116,611bcaccd3e681f51ad322a1,611e07ecdcc96256ae8d5b80,611e7ae9519eb4b3bee5e1ce,,
,,,,space,,0,99,99,139,1,V, , , , ,space,2000,2,611bcaccd3e681f51ad322a1,001,2021-08-19_16h38.37.893,natb3,2021.2.3,Win32,60.08532116,611bcaccd3e681f51ad322a1,611e07ecdcc96256ae8d5b80,611e7ae9519eb4b3bee5e1ce,0.4795,
,,,,space,,0,100,100,292,1,E, , , , ,space,2000,2,611bcaccd3e681f51ad322a1,001,2021-08-19_16h38.37.893,natb3,2021.2.3,Win32,60.08532116,611bcaccd3e681f51ad322a1,611e07ecdcc96256ae8d5b80,611e7ae9519eb4b3bee5e1ce,0.4727,
,,,,space,,0,101,101,52,1,F, , , , ,space,1500,1.5,611bcaccd3e681f51ad322a1,001,2021-08-19_16h38.37.893,natb3,2021.2.3,Win32,60.08532116,611bcaccd3e681f51ad322a1,611e07ecdcc96256ae8d5b80,611e7ae9519eb4b3bee5e1ce,0.6552,
,,,,,,0,102,102,322,1,X, , ,1,6,,2000,2,611bcaccd3e681f51ad322a1,001,2021-08-19_16h38.37.893,natb3,2021.2.3,Win32,60.08532116,611bcaccd3e681f51ad322a1,611e07ecdcc96256ae8d5b80,611e7ae9519eb4b3bee5e1ce,,
,,,,space,,0,103,103,104,1,E, , , , ,space,2000,2,611bcaccd3e681f51ad322a1,001,2021-08-19_16h38.37.893,natb3,2021.2.3,Win32,60.08532116,611bcaccd3e681f51ad322a1,611e07ecdcc96256ae8d5b80,611e7ae9519eb4b3bee5e1ce,0.3937,
,,,,space,,0,104,104,261,1,T, , , , ,space,2000,2,611bcaccd3e681f51ad322a1,001,2021-08-19_16h38.37.893,natb3,2021.2.3,Win32,60.08532116,611bcaccd3e681f51ad322a1,611e07ecdcc96256ae8d5b80,611e7ae9519eb4b3bee5e1ce,0.3841,
,,,,space,,0,105,105,304,1,S, , , , ,space,2000,2,611bcaccd3e681f51ad322a1,001,2021-08-19_16h38.37.893,natb3,2021.2.3,Win32,60.08532116,611bcaccd3e681f51ad322a1,611e07ecdcc96256ae8d5b80,611e7ae9519eb4b3bee5e1ce,0.4199,
,,,,space,,0,106,106,328,1,R, , , , ,space,1500,1.5,611bcaccd3e681f51ad322a1,001,2021-08-19_16h38.37.893,natb3,2021.2.3,Win32,60.08532116,611bcaccd3e681f51ad322a1,611e07ecdcc96256ae8d5b80,611e7ae9519eb4b3bee5e1ce,0.3967,
,,,,space,,0,107,107,221,1,I, , , , ,space,2500,2.5,611bcaccd3e681f51ad322a1,001,2021-08-19_16h38.37.893,natb3,2021.2.3,Win32,60.08532116,611bcaccd3e681f51ad322a1,611e07ecdcc96256ae8d5b80,611e7ae9519eb4b3bee5e1ce,0.4542,
,,,,space,,0,108,108,42,1,U, , , , ,space,1500,1.5,611bcaccd3e681f51ad322a1,001,2021-08-19_16h38.37.893,natb3,2021.2.3,Win32,60.08532116,611bcaccd3e681f51ad322a1,611e07ecdcc96256ae8d5b80,611e7ae9519eb4b3bee5e1ce,0.4787,
,,,,,,0,109,109,313,1,X, , , , ,,2500,2.5,611bcaccd3e681f51ad322a1,001,2021-08-19_16h38.37.893,natb3,2021.2.3,Win32,60.08532116,611bcaccd3e681f51ad322a1,611e07ecdcc96256ae8d5b80,611e7ae9519eb4b3bee5e1ce,,
,,,,space,,0,110,110,245,1,K, , , , ,space,2000,2,611bcaccd3e681f51ad322a1,001,2021-08-19_16h38.37.893,natb3,2021.2.3,Win32,60.08532116,611bcaccd3e681f51ad322a1,611e07ecdcc96256ae8d5b80,611e7ae9519eb4b3bee5e1ce,0.4979,
,,,,space,,0,111,111,317,1,C, , , , ,space,2000,2,611bcaccd3e681f51ad322a1,001,2021-08-19_16h38.37.893,natb3,2021.2.3,Win32,60.08532116,611bcaccd3e681f51ad322a1,611e07ecdcc96256ae8d5b80,611e7ae9519eb4b3bee5e1ce,0.4034,
,,,,space,,0,112,112,34,1,Q, , , , ,space,2500,2.5,611bcaccd3e681f51ad322a1,001,2021-08-19_16h38.37.893,natb3,2021.2.3,Win32,60.08532116,611bcaccd3e681f51ad322a1,611e07ecdcc96256ae8d5b80,611e7ae9519eb4b3bee5e1ce,0.4376,
,,,,space,,0,113,113,79,1,P, , , , ,space,2000,2,611bcaccd3e681f51ad322a1,001,2021-08-19_16h38.37.893,natb3,2021.2.3,Win32,60.08532116,611bcaccd3e681f51ad322a1,611e07ecdcc96256ae8d5b80,611e7ae9519eb4b3bee5e1ce,0.4081,
,,,,,,0,114,114,162,1,X,1,6, ,2,,1500,1.5,611bcaccd3e681f51ad322a1,001,2021-08-19_16h38.37.893,natb3,2021.2.3,Win32,60.08532116,611bcaccd3e681f51ad322a1,611e07ecdcc96256ae8d5b80,611e7ae9519eb4b3bee5e1ce,,
,,,,space,,0,115,115,266,1,O, , , , ,space,1500,1.5,611bcaccd3e681f51ad322a1,001,2021-08-19_16h38.37.893,natb3,2021.2.3,Win32,60.08532116,611bcaccd3e681f51ad322a1,611e07ecdcc96256ae8d5b80,611e7ae9519eb4b3bee5e1ce,0.3876,
,,,,space,,0,116,116,173,1,V, , , , ,space,1500,1.5,611bcaccd3e681f51ad322a1,001,2021-08-19_16h38.37.893,natb3,2021.2.3,Win32,60.08532116,611bcaccd3e681f51ad322a1,611e07ecdcc96256ae8d5b80,611e7ae9519eb4b3bee5e1ce,0.5581,
,,,,space,,0,117,117,219,1,Y, , , , ,space,2000,2,611bcaccd3e681f51ad322a1,001,2021-08-19_16h38.37.893,natb3,2021.2.3,Win32,60.08532116,611bcaccd3e681f51ad322a1,611e07ecdcc96256ae8d5b80,611e7ae9519eb4b3bee5e1ce,0.4459,
,,,,space,,0,118,118,188,1,I, , , , ,space,2500,2.5,611bcaccd3e681f51ad322a1,001,2021-08-19_16h38.37.893,natb3,2021.2.3,Win32,60.08532116,611bcaccd3e681f51ad322a1,611e07ecdcc96256ae8d5b80,611e7ae9519eb4b3bee5e1ce,0.4367,
,,,,space,,0,119,119,136,1,Z, , , , ,space,2500,2.5,611bcaccd3e681f51ad322a1,001,2021-08-19_16h38.37.893,natb3,2021.2.3,Win32,60.08532116,611bcaccd3e681f51ad322a1,611e07ecdcc96256ae8d5b80,611e7ae9519eb4b3bee5e1ce,0.4358,
,,,,,,0,120,120,179,1,X, ,9, ,2,,1500,1.5,611bcaccd3e681f51ad322a1,001,2021-08-19_16h38.37.893,natb3,2021.2.3,Win32,60.08532116,611bcaccd3e681f51ad322a1,611e07ecdcc96256ae8d5b80,611e7ae9519eb4b3bee5e1ce,,
,,,,space,,0,121,121,201,1,K, , , , ,space,1500,1.5,611bcaccd3e681f51ad322a1,001,2021-08-19_16h38.37.893,natb3,2021.2.3,Win32,60.08532116,611bcaccd3e681f51ad322a1,611e07ecdcc96256ae8d5b80,611e7ae9519eb4b3bee5e1ce,0.6177,
,,,,space,,0,122,122,326,1,W, , , , ,space,2000,2,611bcaccd3e681f51ad322a1,001,2021-08-19_16h38.37.893,natb3,2021.2.3,Win32,60.08532116,611bcaccd3e681f51ad322a1,611e07ecdcc96256ae8d5b80,611e7ae9519eb4b3bee5e1ce,0.475,
,,,,space,,0,123,123,257,1,W, , , , ,space,2000,2,611bcaccd3e681f51ad322a1,001,2021-08-19_16h38.37.893,natb3,2021.2.3,Win32,60.08532116,611bcaccd3e681f51ad322a1,611e07ecdcc96256ae8d5b80,611e7ae9519eb4b3bee5e1ce,0.3575,
,,,,space,,0,124,124,123,1,O, , , , ,space,1500,1.5,611bcaccd3e681f51ad322a1,001,2021-08-19_16h38.37.893,natb3,2021.2.3,Win32,60.08532116,611bcaccd3e681f51ad322a1,611e07ecdcc96256ae8d5b80,611e7ae9519eb4b3bee5e1ce,0.5046,
,,,,space,,0,125,125,28,1,V, , , , ,space,1500,1.5,611bcaccd3e681f51ad322a1,001,2021-08-19_16h38.37.893,natb3,2021.2.3,Win32,60.08532116,611bcaccd3e681f51ad322a1,611e07ecdcc96256ae8d5b80,611e7ae9519eb4b3bee5e1ce,0.6006,
,,,,space,,0,126,126,20,1,H, , , , ,space,1500,1.5,611bcaccd3e681f51ad322a1,001,2021-08-19_16h38.37.893,natb3,2021.2.3,Win32,60.08532116,611bcaccd3e681f51ad322a1,611e07ecdcc96256ae8d5b80,611e7ae9519eb4b3bee5e1ce,0.52,
,,,,,,0,127,127,96,1,X, , , , ,,1500,1.5,611bcaccd3e681f51ad322a1,001,2021-08-19_16h38.37.893,natb3,2021.2.3,Win32,60.08532116,611bcaccd3e681f51ad322a1,611e07ecdcc96256ae8d5b80,611e7ae9519eb4b3bee5e1ce,,
,,,,space,,0,128,128,37,1,E, , , , ,space,2500,2.5,611bcaccd3e681f51ad322a1,001,2021-08-19_16h38.37.893,natb3,2021.2.3,Win32,60.08532116,611bcaccd3e681f51ad322a1,611e07ecdcc96256ae8d5b80,611e7ae9519eb4b3bee5e1ce,0.3736,
,,,,space,,0,129,129,71,1,R, , , , ,space,2500,2.5,611bcaccd3e681f51ad322a1,001,2021-08-19_16h38.37.893,natb3,2021.2.3,Win32,60.08532116,611bcaccd3e681f51ad322a1,611e07ecdcc96256ae8d5b80,611e7ae9519eb4b3bee5e1ce,0.4079,
,,,,space,,0,130,130,76,1,I, , , , ,space,2000,2,611bcaccd3e681f51ad322a1,001,2021-08-19_16h38.37.893,natb3,2021.2.3,Win32,60.08532116,611bcaccd3e681f51ad322a1,611e07ecdcc96256ae8d5b80,611e7ae9519eb4b3bee5e1ce,0.43,
,,,,,,0,131,131,255,1,X, , , , ,,1500,1.5,611bcaccd3e681f51ad322a1,001,2021-08-19_16h38.37.893,natb3,2021.2.3,Win32,60.08532116,611bcaccd3e681f51ad322a1,611e07ecdcc96256ae8d5b80,611e7ae9519eb4b3bee5e1ce,,
,,,,space,,0,132,132,209,1,N, , , , ,space,2000,2,611bcaccd3e681f51ad322a1,001,2021-08-19_16h38.37.893,natb3,2021.2.3,Win32,60.08532116,611bcaccd3e681f51ad322a1,611e07ecdcc96256ae8d5b80,611e7ae9519eb4b3bee5e1ce,0.7639,
,,,,space,,0,133,133,210,1,M, , , , ,space,1500,1.5,611bcaccd3e681f51ad322a1,001,2021-08-19_16h38.37.893,natb3,2021.2.3,Win32,60.08532116,611bcaccd3e681f51ad322a1,611e07ecdcc96256ae8d5b80,611e7ae9519eb4b3bee5e1ce,0.4471,
,,,,space,,0,134,134,70,1,E, , , , ,space,2500,2.5,611bcaccd3e681f51ad322a1,001,2021-08-19_16h38.37.893,natb3,2021.2.3,Win32,60.08532116,611bcaccd3e681f51ad322a1,611e07ecdcc96256ae8d5b80,611e7ae9519eb4b3bee5e1ce,0.3434,
,,,,,,0,135,135,168,1,X, , , , ,,2500,2.5,611bcaccd3e681f51ad322a1,001,2021-08-19_16h38.37.893,natb3,2021.2.3,Win32,60.08532116,611bcaccd3e681f51ad322a1,611e07ecdcc96256ae8d5b80,611e7ae9519eb4b3bee5e1ce,,
,,,,,,0,136,136,239,1,X, , , , ,,2000,2,611bcaccd3e681f51ad322a1,001,2021-08-19_16h38.37.893,natb3,2021.2.3,Win32,60.08532116,611bcaccd3e681f51ad322a1,611e07ecdcc96256ae8d5b80,611e7ae9519eb4b3bee5e1ce,,
,,,,space,,0,137,137,308,1,G, , , , ,space,1500,1.5,611bcaccd3e681f51ad322a1,001,2021-08-19_16h38.37.893,natb3,2021.2.3,Win32,60.08532116,611bcaccd3e681f51ad322a1,611e07ecdcc96256ae8d5b80,611e7ae9519eb4b3bee5e1ce,0.4347,
,,,,space,,0,138,138,284,1,V, , , , ,space,2500,2.5,611bcaccd3e681f51ad322a1,001,2021-08-19_16h38.37.893,natb3,2021.2.3,Win32,60.08532116,611bcaccd3e681f51ad322a1,611e07ecdcc96256ae8d5b80,611e7ae9519eb4b3bee5e1ce,0.3872,
,,,,,,0,139,139,35,1,X, , , , ,,2500,2.5,611bcaccd3e681f51ad322a1,001,2021-08-19_16h38.37.893,natb3,2021.2.3,Win32,60.08532116,611bcaccd3e681f51ad322a1,611e07ecdcc96256ae8d5b80,611e7ae9519eb4b3bee5e1ce,,
,,,,space,,0,140,140,140,1,B, , , , ,space,2500,2.5,611bcaccd3e681f51ad322a1,001,2021-08-19_16h38.37.893,natb3,2021.2.3,Win32,60.08532116,611bcaccd3e681f51ad322a1,611e07ecdcc96256ae8d5b80,611e7ae9519eb4b3bee5e1ce,0.5736,
,,,,space,,0,141,141,21,1,J, , , , ,space,1500,1.5,611bcaccd3e681f51ad322a1,001,2021-08-19_16h38.37.893,natb3,2021.2.3,Win32,60.08532116,611bcaccd3e681f51ad322a1,611e07ecdcc96256ae8d5b80,611e7ae9519eb4b3bee5e1ce,0.401,
,,,,space,,0,142,142,169,1,L, , , , ,space,2500,2.5,611bcaccd3e681f51ad322a1,001,2021-08-19_16h38.37.893,natb3,2021.2.3,Win32,60.08532116,611bcaccd3e681f51ad322a1,611e07ecdcc96256ae8d5b80,611e7ae9519eb4b3bee5e1ce,0.4574,
,,,,space,,0,143,143,112,1,Q, , , , ,space,2500,2.5,611bcaccd3e681f51ad322a1,001,2021-08-19_16h38.37.893,natb3,2021.2.3,Win32,60.08532116,611bcaccd3e681f51ad322a1,611e07ecdcc96256ae8d5b80,611e7ae9519eb4b3bee5e1ce,0.4232,
,,,,,,0,144,144,84,1,X, , , , ,,2000,2,611bcaccd3e681f51ad322a1,001,2021-08-19_16h38.37.893,natb3,2021.2.3,Win32,60.08532116,611bcaccd3e681f51ad322a1,611e07ecdcc96256ae8d5b80,611e7ae9519eb4b3bee5e1ce,,
,,,,,,0,145,145,311,1,X,1,2,7,3,,2500,2.5,611bcaccd3e681f51ad322a1,001,2021-08-19_16h38.37.893,natb3,2021.2.3,Win32,60.08532116,611bcaccd3e681f51ad322a1,611e07ecdcc96256ae8d5b80,611e7ae9519eb4b3bee5e1ce,,
,,,,space,,0,146,146,80,1,A, , , , ,space,2000,2,611bcaccd3e681f51ad322a1,001,2021-08-19_16h38.37.893,natb3,2021.2.3,Win32,60.08532116,611bcaccd3e681f51ad322a1,611e07ecdcc96256ae8d5b80,611e7ae9519eb4b3bee5e1ce,0.4447,
,,,,,,0,147,147,259,1,X,8, , ,3,,2500,2.5,611bcaccd3e681f51ad322a1,001,2021-08-19_16h38.37.893,natb3,2021.2.3,Win32,60.08532116,611bcaccd3e681f51ad322a1,611e07ecdcc96256ae8d5b80,611e7ae9519eb4b3bee5e1ce,,
,,,,space,,0,148,148,324,1,Q, , , , ,space,2000,2,611bcaccd3e681f51ad322a1,001,2021-08-19_16h38.37.893,natb3,2021.2.3,Win32,60.08532116,611bcaccd3e681f51ad322a1,611e07ecdcc96256ae8d5b80,611e7ae9519eb4b3bee5e1ce,0.5294,
,,,,space,,0,149,149,262,1,Y, , , , ,space,2500,2.5,611bcaccd3e681f51ad322a1,001,2021-08-19_16h38.37.893,natb3,2021.2.3,Win32,60.08532116,611bcaccd3e681f51ad322a1,611e07ecdcc96256ae8d5b80,611e7ae9519eb4b3bee5e1ce,0.5176,
,,,,space,,0,150,150,105,1,R, , , , ,space,2500,2.5,611bcaccd3e681f51ad322a1,001,2021-08-19_16h38.37.893,natb3,2021.2.3,Win32,60.08532116,611bcaccd3e681f51ad322a1,611e07ecdcc96256ae8d5b80,611e7ae9519eb4b3bee5e1ce,0.6102,
,,,,space,,0,151,151,8,1,U, , , , ,space,1500,1.5,611bcaccd3e681f51ad322a1,001,2021-08-19_16h38.37.893,natb3,2021.2.3,Win32,60.08532116,611bcaccd3e681f51ad322a1,611e07ecdcc96256ae8d5b80,611e7ae9519eb4b3bee5e1ce,0.395,
,,,,space,,0,152,152,62,1,V, , , , ,space,1500,1.5,611bcaccd3e681f51ad322a1,001,2021-08-19_16h38.37.893,natb3,2021.2.3,Win32,60.08532116,611bcaccd3e681f51ad322a1,611e07ecdcc96256ae8d5b80,611e7ae9519eb4b3bee5e1ce,0.3809,
,,,,,,0,153,153,291,1,X, , , , ,,2000,2,611bcaccd3e681f51ad322a1,001,2021-08-19_16h38.37.893,natb3,2021.2.3,Win32,60.08532116,611bcaccd3e681f51ad322a1,611e07ecdcc96256ae8d5b80,611e7ae9519eb4b3bee5e1ce,,
,,,,space,,0,154,154,238,1,D, , , , ,space,1500,1.5,611bcaccd3e681f51ad322a1,001,2021-08-19_16h38.37.893,natb3,2021.2.3,Win32,60.08532116,611bcaccd3e681f51ad322a1,611e07ecdcc96256ae8d5b80,611e7ae9519eb4b3bee5e1ce,0.4296,
,,,,space,,0,155,155,130,1,F, , , , ,space,2000,2,611bcaccd3e681f51ad322a1,001,2021-08-19_16h38.37.893,natb3,2021.2.3,Win32,60.08532116,611bcaccd3e681f51ad322a1,611e07ecdcc96256ae8d5b80,611e7ae9519eb4b3bee5e1ce,0.443,
,,,,space,,0,156,156,288,1,M, , , , ,space,1500,1.5,611bcaccd3e681f51ad322a1,001,2021-08-19_16h38.37.893,natb3,2021.2.3,Win32,60.08532116,611bcaccd3e681f51ad322a1,611e07ecdcc96256ae8d5b80,611e7ae9519eb4b3bee5e1ce,0.3941,
,,,,,,0,157,157,218,1,X,1,3, ,8,,1500,1.5,611bcaccd3e681f51ad322a1,001,2021-08-19_16h38.37.893,natb3,2021.2.3,Win32,60.08532116,611bcaccd3e681f51ad322a1,611e07ecdcc96256ae8d5b80,611e7ae9519eb4b3bee5e1ce,,
,,,,space,,0,158,158,182,1,X, , , , ,,1500,1.5,611bcaccd3e681f51ad322a1,001,2021-08-19_16h38.37.893,natb3,2021.2.3,Win32,60.08532116,611bcaccd3e681f51ad322a1,611e07ecdcc96256ae8d5b80,611e7ae9519eb4b3bee5e1ce,0.3676,
,,,,space,,0,159,159,143,1,M, , , , ,space,2500,2.5,611bcaccd3e681f51ad322a1,001,2021-08-19_16h38.37.893,natb3,2021.2.3,Win32,60.08532116,611bcaccd3e681f51ad322a1,611e07ecdcc96256ae8d5b80,611e7ae9519eb4b3bee5e1ce,0.4729,
,,,,space,,0,160,160,321,1,N, , , , ,space,2000,2,611bcaccd3e681f51ad322a1,001,2021-08-19_16h38.37.893,natb3,2021.2.3,Win32,60.08532116,611bcaccd3e681f51ad322a1,611e07ecdcc96256ae8d5b80,611e7ae9519eb4b3bee5e1ce,0.5177,
,,,,space,,0,161,161,11,1,P, , , , ,space,2500,2.5,611bcaccd3e681f51ad322a1,001,2021-08-19_16h38.37.893,natb3,2021.2.3,Win32,60.08532116,611bcaccd3e681f51ad322a1,611e07ecdcc96256ae8d5b80,611e7ae9519eb4b3bee5e1ce,0.4637,
,,,,space,,0,162,162,183,1,R, , , , ,space,1500,1.5,611bcaccd3e681f51ad322a1,001,2021-08-19_16h38.37.893,natb3,2021.2.3,Win32,60.08532116,611bcaccd3e681f51ad322a1,611e07ecdcc96256ae8d5b80,611e7ae9519eb4b3bee5e1ce,0.4788,
,,,,,,0,163,163,51,1,X,7,5,8, ,,1500,1.5,611bcaccd3e681f51ad322a1,001,2021-08-19_16h38.37.893,natb3,2021.2.3,Win32,60.08532116,611bcaccd3e681f51ad322a1,611e07ecdcc96256ae8d5b80,611e7ae9519eb4b3bee5e1ce,,
,,,,space,,0,164,164,161,1,F, , , , ,space,1500,1.5,611bcaccd3e681f51ad322a1,001,2021-08-19_16h38.37.893,natb3,2021.2.3,Win32,60.08532116,611bcaccd3e681f51ad322a1,611e07ecdcc96256ae8d5b80,611e7ae9519eb4b3bee5e1ce,0.5039,
,,,,space,,0,165,165,190,1,P, , , , ,space,2000,2,611bcaccd3e681f51ad322a1,001,2021-08-19_16h38.37.893,natb3,2021.2.3,Win32,60.08532116,611bcaccd3e681f51ad322a1,611e07ecdcc96256ae8d5b80,611e7ae9519eb4b3bee5e1ce,0.5698,
,,,,space,,0,166,166,297,1,U, , , , ,space,2000,2,611bcaccd3e681f51ad322a1,001,2021-08-19_16h38.37.893,natb3,2021.2.3,Win32,60.08532116,611bcaccd3e681f51ad322a1,611e07ecdcc96256ae8d5b80,611e7ae9519eb4b3bee5e1ce,0.3753,
,,,,,space,0,167,167,43,1,X, ,6, ,2,,2500,2.5,611bcaccd3e681f51ad322a1,001,2021-08-19_16h38.37.893,natb3,2021.2.3,Win32,60.08532116,611bcaccd3e681f51ad322a1,611e07ecdcc96256ae8d5b80,611e7ae9519eb4b3bee5e1ce,,26.1885
,,,,,,0,168,168,39,1,X,6,2, , ,,1500,1.5,611bcaccd3e681f51ad322a1,001,2021-08-19_16h38.37.893,natb3,2021.2.3,Win32,60.08532116,611bcaccd3e681f51ad322a1,611e07ecdcc96256ae8d5b80,611e7ae9519eb4b3bee5e1ce,,
,,,,space,,0,169,169,330,1,T, , , , ,space,2500,2.5,611bcaccd3e681f51ad322a1,001,2021-08-19_16h38.37.893,natb3,2021.2.3,Win32,60.08532116,611bcaccd3e681f51ad322a1,611e07ecdcc96256ae8d5b80,611e7ae9519eb4b3bee5e1ce,0.4288,
,,,,,,0,170,170,305,1,X, , , , ,,1500,1.5,611bcaccd3e681f51ad322a1,001,2021-08-19_16h38.37.893,natb3,2021.2.3,Win32,60.08532116,611bcaccd3e681f51ad322a1,611e07ecdcc96256ae8d5b80,611e7ae9519eb4b3bee5e1ce,,
,,,,,,0,171,171,133,1,X, ,4, ,6,,2500,2.5,611bcaccd3e681f51ad322a1,001,2021-08-19_16h38.37.893,natb3,2021.2.3,Win32,60.08532116,611bcaccd3e681f51ad322a1,611e07ecdcc96256ae8d5b80,611e7ae9519eb4b3bee5e1ce,,
,,,,space,,0,172,172,9,1,I, , , , ,space,1500,1.5,611bcaccd3e681f51ad322a1,001,2021-08-19_16h38.37.893,natb3,2021.2.3,Win32,60.08532116,611bcaccd3e681f51ad322a1,611e07ecdcc96256ae8d5b80,611e7ae9519eb4b3bee5e1ce,0.4745,
,,,,space,,0,173,173,149,1,R, , , , ,space,2000,2,611bcaccd3e681f51ad322a1,001,2021-08-19_16h38.37.893,natb3,2021.2.3,Win32,60.08532116,611bcaccd3e681f51ad322a1,611e07ecdcc96256ae8d5b80,611e7ae9519eb4b3bee5e1ce,0.5241,
,,,,,,0,174,174,329,1,X,3,4, ,2,,2500,2.5,611bcaccd3e681f51ad322a1,001,2021-08-19_16h38.37.893,natb3,2021.2.3,Win32,60.08532116,611bcaccd3e681f51ad322a1,611e07ecdcc96256ae8d5b80,611e7ae9519eb4b3bee5e1ce,,
,,,,,,0,175,175,295,1,X,8,7,5, ,,2500,2.5,611bcaccd3e681f51ad322a1,001,2021-08-19_16h38.37.893,natb3,2021.2.3,Win32,60.08532116,611bcaccd3e681f51ad322a1,611e07ecdcc96256ae8d5b80,611e7ae9519eb4b3bee5e1ce,,
,,,,space,,0,176,176,180,1,W, , , , ,space,2000,2,611bcaccd3e681f51ad322a1,001,2021-08-19_16h38.37.893,natb3,2021.2.3,Win32,60.08532116,611bcaccd3e681f51ad322a1,611e07ecdcc96256ae8d5b80,611e7ae9519eb4b3bee5e1ce,0.4811,
,,,,,,0,177,177,252,1,X,3, ,6,9,,2000,2,611bcaccd3e681f51ad322a1,001,2021-08-19_16h38.37.893,natb3,2021.2.3,Win32,60.08532116,611bcaccd3e681f51ad322a1,611e07ecdcc96256ae8d5b80,611e7ae9519eb4b3bee5e1ce,,
,,,,space,,0,178,178,250,1,V, , , , ,space,2000,2,611bcaccd3e681f51ad322a1,001,2021-08-19_16h38.37.893,natb3,2021.2.3,Win32,60.08532116,611bcaccd3e681f51ad322a1,611e07ecdcc96256ae8d5b80,611e7ae9519eb4b3bee5e1ce,0.5286,
,,,,space,,0,179,179,109,1,U, , , , ,space,1500,1.5,611bcaccd3e681f51ad322a1,001,2021-08-19_16h38.37.893,natb3,2021.2.3,Win32,60.08532116,611bcaccd3e681f51ad322a1,611e07ecdcc96256ae8d5b80,611e7ae9519eb4b3bee5e1ce,0.6054,
,,,,space,,0,180,180,0,1,Q, , , , ,space,1500,1.5,611bcaccd3e681f51ad322a1,001,2021-08-19_16h38.37.893,natb3,2021.2.3,Win32,60.08532116,611bcaccd3e681f51ad322a1,611e07ecdcc96256ae8d5b80,611e7ae9519eb4b3bee5e1ce,0.4869,
,,,,,,0,181,181,229,1,X,8, ,2,6,,2500,2.5,611bcaccd3e681f51ad322a1,001,2021-08-19_16h38.37.893,natb3,2021.2.3,Win32,60.08532116,611bcaccd3e681f51ad322a1,611e07ecdcc96256ae8d5b80,611e7ae9519eb4b3bee5e1ce,,
,,,,,,0,182,182,243,1,X, , , , ,,2500,2.5,611bcaccd3e681f51ad322a1,001,2021-08-19_16h38.37.893,natb3,2021.2.3,Win32,60.08532116,611bcaccd3e681f51ad322a1,611e07ecdcc96256ae8d5b80,611e7ae9519eb4b3bee5e1ce,,
,,,,space,,0,183,183,225,1,E, , , , ,space,2000,2,611bcaccd3e681f51ad322a1,001,2021-08-19_16h38.37.893,natb3,2021.2.3,Win32,60.08532116,611bcaccd3e681f51ad322a1,611e07ecdcc96256ae8d5b80,611e7ae9519eb4b3bee5e1ce,0.4851,
,,,,space,,0,184,184,254,1,M, , , , ,space,1500,1.5,611bcaccd3e681f51ad322a1,001,2021-08-19_16h38.37.893,natb3,2021.2.3,Win32,60.08532116,611bcaccd3e681f51ad322a1,611e07ecdcc96256ae8d5b80,611e7ae9519eb4b3bee5e1ce,0.506,
,,,,space,,0,185,185,151,1,Y, , , , ,space,2500,2.5,611bcaccd3e681f51ad322a1,001,2021-08-19_16h38.37.893,natb3,2021.2.3,Win32,60.08532116,611bcaccd3e681f51ad322a1,611e07ecdcc96256ae8d5b80,611e7ae9519eb4b3bee5e1ce,0.4709,
,,,,space,,0,186,186,94,1,C, , , , ,space,2000,2,611bcaccd3e681f51ad322a1,001,2021-08-19_16h38.37.893,natb3,2021.2.3,Win32,60.08532116,611bcaccd3e681f51ad322a1,611e07ecdcc96256ae8d5b80,611e7ae9519eb4b3bee5e1ce,0.4012,
,,,,space,,0,187,187,1,1,W, , , , ,space,2000,2,611bcaccd3e681f51ad322a1,001,2021-08-19_16h38.37.893,natb3,2021.2.3,Win32,60.08532116,611bcaccd3e681f51ad322a1,611e07ecdcc96256ae8d5b80,611e7ae9519eb4b3bee5e1ce,0.4542,
,,,,space,,0,188,188,193,1,S, , , , ,space,2500,2.5,611bcaccd3e681f51ad322a1,001,2021-08-19_16h38.37.893,natb3,2021.2.3,Win32,60.08532116,611bcaccd3e681f51ad322a1,611e07ecdcc96256ae8d5b80,611e7ae9519eb4b3bee5e1ce,0.4379,
,,,,space,,0,189,189,57,1,K, , , , ,space,2500,2.5,611bcaccd3e681f51ad322a1,001,2021-08-19_16h38.37.893,natb3,2021.2.3,Win32,60.08532116,611bcaccd3e681f51ad322a1,611e07ecdcc96256ae8d5b80,611e7ae9519eb4b3bee5e1ce,0.4761,
,,,,space,,0,190,190,115,1,R, , , , ,space,1500,1.5,611bcaccd3e681f51ad322a1,001,2021-08-19_16h38.37.893,natb3,2021.2.3,Win32,60.08532116,611bcaccd3e681f51ad322a1,611e07ecdcc96256ae8d5b80,611e7ae9519eb4b3bee5e1ce,0.3872,
,,,,,,0,191,191,4,1,X, , , , ,,2000,2,611bcaccd3e681f51ad322a1,001,2021-08-19_16h38.37.893,natb3,2021.2.3,Win32,60.08532116,611bcaccd3e681f51ad322a1,611e07ecdcc96256ae8d5b80,611e7ae9519eb4b3bee5e1ce,,
,,,,space,,0,192,192,72,1,T, , , , ,space,1500,1.5,611bcaccd3e681f51ad322a1,001,2021-08-19_16h38.37.893,natb3,2021.2.3,Win32,60.08532116,611bcaccd3e681f51ad322a1,611e07ecdcc96256ae8d5b80,611e7ae9519eb4b3bee5e1ce,0.4595,
,,,,space,,0,193,193,310,1,J, , , , ,space,2500,2.5,611bcaccd3e681f51ad322a1,001,2021-08-19_16h38.37.893,natb3,2021.2.3,Win32,60.08532116,611bcaccd3e681f51ad322a1,611e07ecdcc96256ae8d5b80,611e7ae9519eb4b3bee5e1ce,0.347,
,,,,space,,0,194,194,5,1,T, , , , ,space,2000,2,611bcaccd3e681f51ad322a1,001,2021-08-19_16h38.37.893,natb3,2021.2.3,Win32,60.08532116,611bcaccd3e681f51ad322a1,611e07ecdcc96256ae8d5b80,611e7ae9519eb4b3bee5e1ce,0.3459,
,,,,space,,0,195,195,197,1,G, , , , ,space,2500,2.5,611bcaccd3e681f51ad322a1,001,2021-08-19_16h38.37.893,natb3,2021.2.3,Win32,60.08532116,611bcaccd3e681f51ad322a1,611e07ecdcc96256ae8d5b80,611e7ae9519eb4b3bee5e1ce,0.462,
,,,,,,0,196,196,141,1,X,1, ,4,6,,1500,1.5,611bcaccd3e681f51ad322a1,001,2021-08-19_16h38.37.893,natb3,2021.2.3,Win32,60.08532116,611bcaccd3e681f51ad322a1,611e07ecdcc96256ae8d5b80,611e7ae9519eb4b3bee5e1ce,,
,,,,,,0,197,197,166,1,X, , , , ,,2000,2,611bcaccd3e681f51ad322a1,001,2021-08-19_16h38.37.893,natb3,2021.2.3,Win32,60.08532116,611bcaccd3e681f51ad322a1,611e07ecdcc96256ae8d5b80,611e7ae9519eb4b3bee5e1ce,,
,,,,space,,0,198,198,178,1,Q, , , , ,space,1500,1.5,611bcaccd3e681f51ad322a1,001,2021-08-19_16h38.37.893,natb3,2021.2.3,Win32,60.08532116,611bcaccd3e681f51ad322a1,611e07ecdcc96256ae8d5b80,611e7ae9519eb4b3bee5e1ce,0.4302,
,,,,space,,0,199,199,226,1,R, , , , ,space,2000,2,611bcaccd3e681f51ad322a1,001,2021-08-19_16h38.37.893,natb3,2021.2.3,Win32,60.08532116,611bcaccd3e681f51ad322a1,611e07ecdcc96256ae8d5b80,611e7ae9519eb4b3bee5e1ce,0.4416,
,,,,space,,0,200,200,10,1,O, , , , ,space,2000,2,611bcaccd3e681f51ad322a1,001,2021-08-19_16h38.37.893,natb3,2021.2.3,Win32,60.08532116,611bcaccd3e681f51ad322a1,611e07ecdcc96256ae8d5b80,611e7ae9519eb4b3bee5e1ce,0.3843,
,,,,space,,0,201,201,241,1,G, , , , ,space,2500,2.5,611bcaccd3e681f51ad322a1,001,2021-08-19_16h38.37.893,natb3,2021.2.3,Win32,60.08532116,611bcaccd3e681f51ad322a1,611e07ecdcc96256ae8d5b80,611e7ae9519eb4b3bee5e1ce,0.4008,
,,,,space,,0,202,202,116,1,X, , , , ,,2000,2,611bcaccd3e681f51ad322a1,001,2021-08-19_16h38.37.893,natb3,2021.2.3,Win32,60.08532116,611bcaccd3e681f51ad322a1,611e07ecdcc96256ae8d5b80,611e7ae9519eb4b3bee5e1ce,0.3978,
,,,,space,,0,203,203,14,1,S, , , , ,space,2500,2.5,611bcaccd3e681f51ad322a1,001,2021-08-19_16h38.37.893,natb3,2021.2.3,Win32,60.08532116,611bcaccd3e681f51ad322a1,611e07ecdcc96256ae8d5b80,611e7ae9519eb4b3bee5e1ce,0.4056,
,,,,space,,0,204,204,177,1,M, , , , ,space,2500,2.5,611bcaccd3e681f51ad322a1,001,2021-08-19_16h38.37.893,natb3,2021.2.3,Win32,60.08532116,611bcaccd3e681f51ad322a1,611e07ecdcc96256ae8d5b80,611e7ae9519eb4b3bee5e1ce,0.4627,
,,,,space,,0,205,205,100,1,M, , , , ,space,2000,2,611bcaccd3e681f51ad322a1,001,2021-08-19_16h38.37.893,natb3,2021.2.3,Win32,60.08532116,611bcaccd3e681f51ad322a1,611e07ecdcc96256ae8d5b80,611e7ae9519eb4b3bee5e1ce,0.4416,
,,,,space,,0,206,206,165,1,J, , , , ,space,2500,2.5,611bcaccd3e681f51ad322a1,001,2021-08-19_16h38.37.893,natb3,2021.2.3,Win32,60.08532116,611bcaccd3e681f51ad322a1,611e07ecdcc96256ae8d5b80,611e7ae9519eb4b3bee5e1ce,0.4417,
,,,,,,0,207,207,318,1,X, , , , ,,1500,1.5,611bcaccd3e681f51ad322a1,001,2021-08-19_16h38.37.893,natb3,2021.2.3,Win32,60.08532116,611bcaccd3e681f51ad322a1,611e07ecdcc96256ae8d5b80,611e7ae9519eb4b3bee5e1ce,,
,,,,space,,0,208,208,237,1,S, , , , ,space,1500,1.5,611bcaccd3e681f51ad322a1,001,2021-08-19_16h38.37.893,natb3,2021.2.3,Win32,60.08532116,611bcaccd3e681f51ad322a1,611e07ecdcc96256ae8d5b80,611e7ae9519eb4b3bee5e1ce,0.4274,
,,,,space,,0,209,209,99,1,N, , , , ,space,2500,2.5,611bcaccd3e681f51ad322a1,001,2021-08-19_16h38.37.893,natb3,2021.2.3,Win32,60.08532116,611bcaccd3e681f51ad322a1,611e07ecdcc96256ae8d5b80,611e7ae9519eb4b3bee5e1ce,0.5398,
,,,,,,0,210,210,271,1,X, , , , ,,2500,2.5,611bcaccd3e681f51ad322a1,001,2021-08-19_16h38.37.893,natb3,2021.2.3,Win32,60.08532116,611bcaccd3e681f51ad322a1,611e07ecdcc96256ae8d5b80,611e7ae9519eb4b3bee5e1ce,,
,,,,space,,0,211,211,24,1,L, , , , ,space,2500,2.5,611bcaccd3e681f51ad322a1,001,2021-08-19_16h38.37.893,natb3,2021.2.3,Win32,60.08532116,611bcaccd3e681f51ad322a1,611e07ecdcc96256ae8d5b80,611e7ae9519eb4b3bee5e1ce,0.7054,
,,,,space,,0,212,212,114,1,E, , , , ,space,2000,2,611bcaccd3e681f51ad322a1,001,2021-08-19_16h38.37.893,natb3,2021.2.3,Win32,60.08532116,611bcaccd3e681f51ad322a1,611e07ecdcc96256ae8d5b80,611e7ae9519eb4b3bee5e1ce,0.4842,
,,,,space,,0,213,213,293,1,R, , , , ,space,2500,2.5,611bcaccd3e681f51ad322a1,001,2021-08-19_16h38.37.893,natb3,2021.2.3,Win32,60.08532116,611bcaccd3e681f51ad322a1,611e07ecdcc96256ae8d5b80,611e7ae9519eb4b3bee5e1ce,0.4711,
,,,,space,,0,214,214,331,1,Y, , , , ,space,2500,2.5,611bcaccd3e681f51ad322a1,001,2021-08-19_16h38.37.893,natb3,2021.2.3,Win32,60.08532116,611bcaccd3e681f51ad322a1,611e07ecdcc96256ae8d5b80,611e7ae9519eb4b3bee5e1ce,0.469,
,,,,,,0,215,215,233,1,X, ,2, ,5,,1500,1.5,611bcaccd3e681f51ad322a1,001,2021-08-19_16h38.37.893,natb3,2021.2.3,Win32,60.08532116,611bcaccd3e681f51ad322a1,611e07ecdcc96256ae8d5b80,611e7ae9519eb4b3bee5e1ce,,
,,,,space,,0,216,216,185,1,Y, , , , ,space,2500,2.5,611bcaccd3e681f51ad322a1,001,2021-08-19_16h38.37.893,natb3,2021.2.3,Win32,60.08532116,611bcaccd3e681f51ad322a1,611e07ecdcc96256ae8d5b80,611e7ae9519eb4b3bee5e1ce,0.3839,
,,,,space,,0,217,217,110,1,I, , , , ,space,1500,1.5,611bcaccd3e681f51ad322a1,001,2021-08-19_16h38.37.893,natb3,2021.2.3,Win32,60.08532116,611bcaccd3e681f51ad322a1,611e07ecdcc96256ae8d5b80,611e7ae9519eb4b3bee5e1ce,0.5118,
,,,,space,,0,218,218,181,1,E, , , , ,space,1500,1.5,611bcaccd3e681f51ad322a1,001,2021-08-19_16h38.37.893,natb3,2021.2.3,Win32,60.08532116,611bcaccd3e681f51ad322a1,611e07ecdcc96256ae8d5b80,611e7ae9519eb4b3bee5e1ce,0.5343,
,,,,,,0,219,219,7,1,X, , , , ,,1500,1.5,611bcaccd3e681f51ad322a1,001,2021-08-19_16h38.37.893,natb3,2021.2.3,Win32,60.08532116,611bcaccd3e681f51ad322a1,611e07ecdcc96256ae8d5b80,611e7ae9519eb4b3bee5e1ce,,
,,,,space,,0,220,220,279,1,K, , , , ,space,2500,2.5,611bcaccd3e681f51ad322a1,001,2021-08-19_16h38.37.893,natb3,2021.2.3,Win32,60.08532116,611bcaccd3e681f51ad322a1,611e07ecdcc96256ae8d5b80,611e7ae9519eb4b3bee5e1ce,0.4594,
,,,,space,,0,221,221,59,1,Z, , , , ,space,2000,2,611bcaccd3e681f51ad322a1,001,2021-08-19_16h38.37.893,natb3,2021.2.3,Win32,60.08532116,611bcaccd3e681f51ad322a1,611e07ecdcc96256ae8d5b80,611e7ae9519eb4b3bee5e1ce,0.4302,
,,,,space,,0,222,222,240,1,F, , , , ,space,2500,2.5,611bcaccd3e681f51ad322a1,001,2021-08-19_16h38.37.893,natb3,2021.2.3,Win32,60.08532116,611bcaccd3e681f51ad322a1,611e07ecdcc96256ae8d5b80,611e7ae9519eb4b3bee5e1ce,0.4292,
,,,,space,,0,223,223,135,1,K, , , , ,space,1500,1.5,611bcaccd3e681f51ad322a1,001,2021-08-19_16h38.37.893,natb3,2021.2.3,Win32,60.08532116,611bcaccd3e681f51ad322a1,611e07ecdcc96256ae8d5b80,611e7ae9519eb4b3bee5e1ce,0.4541,
,,,,space,,0,224,224,306,1,D, , , , ,space,2000,2,611bcaccd3e681f51ad322a1,001,2021-08-19_16h38.37.893,natb3,2021.2.3,Win32,60.08532116,611bcaccd3e681f51ad322a1,611e07ecdcc96256ae8d5b80,611e7ae9519eb4b3bee5e1ce,0.3693,
,,,,space,,0,225,225,88,1,J, , , , ,space,2500,2.5,611bcaccd3e681f51ad322a1,001,2021-08-19_16h38.37.893,natb3,2021.2.3,Win32,60.08532116,611bcaccd3e681f51ad322a1,611e07ecdcc96256ae8d5b80,611e7ae9519eb4b3bee5e1ce,0.413,
,,,,space,,0,226,226,249,1,C, , , , ,space,2000,2,611bcaccd3e681f51ad322a1,001,2021-08-19_16h38.37.893,natb3,2021.2.3,Win32,60.08532116,611bcaccd3e681f51ad322a1,611e07ecdcc96256ae8d5b80,611e7ae9519eb4b3bee5e1ce,0.4342,
,,,,space,,0,227,227,69,1,X, , , , ,,1500,1.5,611bcaccd3e681f51ad322a1,001,2021-08-19_16h38.37.893,natb3,2021.2.3,Win32,60.08532116,611bcaccd3e681f51ad322a1,611e07ecdcc96256ae8d5b80,611e7ae9519eb4b3bee5e1ce,0.6176,
,,,,space,,0,228,228,22,1,K, , , , ,space,2000,2,611bcaccd3e681f51ad322a1,001,2021-08-19_16h38.37.893,natb3,2021.2.3,Win32,60.08532116,611bcaccd3e681f51ad322a1,611e07ecdcc96256ae8d5b80,611e7ae9519eb4b3bee5e1ce,0.3969,
,,,,space,,0,229,229,64,1,N, , , , ,space,2000,2,611bcaccd3e681f51ad322a1,001,2021-08-19_16h38.37.893,natb3,2021.2.3,Win32,60.08532116,611bcaccd3e681f51ad322a1,611e07ecdcc96256ae8d5b80,611e7ae9519eb4b3bee5e1ce,0.4022,
,,,,,,0,230,230,158,1,X, , , , ,,1500,1.5,611bcaccd3e681f51ad322a1,001,2021-08-19_16h38.37.893,natb3,2021.2.3,Win32,60.08532116,611bcaccd3e681f51ad322a1,611e07ecdcc96256ae8d5b80,611e7ae9519eb4b3bee5e1ce,,
,,,,space,,0,231,231,146,1,W, , , , ,space,1500,1.5,611bcaccd3e681f51ad322a1,001,2021-08-19_16h38.37.893,natb3,2021.2.3,Win32,60.08532116,611bcaccd3e681f51ad322a1,611e07ecdcc96256ae8d5b80,611e7ae9519eb4b3bee5e1ce,0.4944,
,,,,space,,0,232,232,155,1,O, , , , ,space,1500,1.5,611bcaccd3e681f51ad322a1,001,2021-08-19_16h38.37.893,natb3,2021.2.3,Win32,60.08532116,611bcaccd3e681f51ad322a1,611e07ecdcc96256ae8d5b80,611e7ae9519eb4b3bee5e1ce,0.6682,
,,,,,,0,233,233,287,1,X, ,2, ,9,,2000,2,611bcaccd3e681f51ad322a1,001,2021-08-19_16h38.37.893,natb3,2021.2.3,Win32,60.08532116,611bcaccd3e681f51ad322a1,611e07ecdcc96256ae8d5b80,611e7ae9519eb4b3bee5e1ce,,
,,,,space,,0,234,234,85,1,F, , , , ,space,2500,2.5,611bcaccd3e681f51ad322a1,001,2021-08-19_16h38.37.893,natb3,2021.2.3,Win32,60.08532116,611bcaccd3e681f51ad322a1,611e07ecdcc96256ae8d5b80,611e7ae9519eb4b3bee5e1ce,0.4342,
,,,,space,,0,235,235,29,1,B, , , , ,space,1500,1.5,611bcaccd3e681f51ad322a1,001,2021-08-19_16h38.37.893,natb3,2021.2.3,Win32,60.08532116,611bcaccd3e681f51ad322a1,611e07ecdcc96256ae8d5b80,611e7ae9519eb4b3bee5e1ce,0.4509,
,,,,space,,0,236,236,234,1,P, , , , ,space,2000,2,611bcaccd3e681f51ad322a1,001,2021-08-19_16h38.37.893,natb3,2021.2.3,Win32,60.08532116,611bcaccd3e681f51ad322a1,611e07ecdcc96256ae8d5b80,611e7ae9519eb4b3bee5e1ce,0.4756,
,,,,,,0,237,237,23,1,X,1, ,5, ,,2000,2,611bcaccd3e681f51ad322a1,001,2021-08-19_16h38.37.893,natb3,2021.2.3,Win32,60.08532116,611bcaccd3e681f51ad322a1,611e07ecdcc96256ae8d5b80,611e7ae9519eb4b3bee5e1ce,,
,,,,,,0,238,238,200,1,X,7, ,5,3,,1500,1.5,611bcaccd3e681f51ad322a1,001,2021-08-19_16h38.37.893,natb3,2021.2.3,Win32,60.08532116,611bcaccd3e681f51ad322a1,611e07ecdcc96256ae8d5b80,611e7ae9519eb4b3bee5e1ce,,
,,,,space,,0,239,239,144,1,Q, , , , ,space,2500,2.5,611bcaccd3e681f51ad322a1,001,2021-08-19_16h38.37.893,natb3,2021.2.3,Win32,60.08532116,611bcaccd3e681f51ad322a1,611e07ecdcc96256ae8d5b80,611e7ae9519eb4b3bee5e1ce,0.5226,
,,,,space,,0,240,240,167,1,K, , , , ,space,1500,1.5,611bcaccd3e681f51ad322a1,001,2021-08-19_16h38.37.893,natb3,2021.2.3,Win32,60.08532116,611bcaccd3e681f51ad322a1,611e07ecdcc96256ae8d5b80,611e7ae9519eb4b3bee5e1ce,0.8622,
,,,,space,,0,241,241,280,1,L, , , , ,space,1500,1.5,611bcaccd3e681f51ad322a1,001,2021-08-19_16h38.37.893,natb3,2021.2.3,Win32,60.08532116,611bcaccd3e681f51ad322a1,611e07ecdcc96256ae8d5b80,611e7ae9519eb4b3bee5e1ce,0.5097,
,,,,,,0,242,242,187,1,X, ,3,7,4,,1500,1.5,611bcaccd3e681f51ad322a1,001,2021-08-19_16h38.37.893,natb3,2021.2.3,Win32,60.08532116,611bcaccd3e681f51ad322a1,611e07ecdcc96256ae8d5b80,611e7ae9519eb4b3bee5e1ce,,
,,,,,,0,243,243,207,1,X,9, ,2, ,,2500,2.5,611bcaccd3e681f51ad322a1,001,2021-08-19_16h38.37.893,natb3,2021.2.3,Win32,60.08532116,611bcaccd3e681f51ad322a1,611e07ecdcc96256ae8d5b80,611e7ae9519eb4b3bee5e1ce,,
,,,,space,,0,244,244,327,1,E, , , , ,space,1500,1.5,611bcaccd3e681f51ad322a1,001,2021-08-19_16h38.37.893,natb3,2021.2.3,Win32,60.08532116,611bcaccd3e681f51ad322a1,611e07ecdcc96256ae8d5b80,611e7ae9519eb4b3bee5e1ce,0.4009,
,,,,space,,0,245,245,214,1,W, , , , ,space,2000,2,611bcaccd3e681f51ad322a1,001,2021-08-19_16h38.37.893,natb3,2021.2.3,Win32,60.08532116,611bcaccd3e681f51ad322a1,611e07ecdcc96256ae8d5b80,611e7ae9519eb4b3bee5e1ce,0.5722,
,,,,space,,0,246,246,194,1,D, , , , ,space,2000,2,611bcaccd3e681f51ad322a1,001,2021-08-19_16h38.37.893,natb3,2021.2.3,Win32,60.08532116,611bcaccd3e681f51ad322a1,611e07ecdcc96256ae8d5b80,611e7ae9519eb4b3bee5e1ce,0.4187,
,,,,,,0,247,247,148,1,X, , , , ,,2000,2,611bcaccd3e681f51ad322a1,001,2021-08-19_16h38.37.893,natb3,2021.2.3,Win32,60.08532116,611bcaccd3e681f51ad322a1,611e07ecdcc96256ae8d5b80,611e7ae9519eb4b3bee5e1ce,,
,,,,,,0,248,248,129,1,X,2,3,5, ,,1500,1.5,611bcaccd3e681f51ad322a1,001,2021-08-19_16h38.37.893,natb3,2021.2.3,Win32,60.08532116,611bcaccd3e681f51ad322a1,611e07ecdcc96256ae8d5b80,611e7ae9519eb4b3bee5e1ce,,
,,,,space,,0,249,249,230,1,U, , , , ,space,1500,1.5,611bcaccd3e681f51ad322a1,001,2021-08-19_16h38.37.893,natb3,2021.2.3,Win32,60.08532116,611bcaccd3e681f51ad322a1,611e07ecdcc96256ae8d5b80,611e7ae9519eb4b3bee5e1ce,0.4448,
,,,,space,,0,250,250,258,1,E, , , , ,space,1500,1.5,611bcaccd3e681f51ad322a1,001,2021-08-19_16h38.37.893,natb3,2021.2.3,Win32,60.08532116,611bcaccd3e681f51ad322a1,611e07ecdcc96256ae8d5b80,611e7ae9519eb4b3bee5e1ce,0.596,
,,,,,,0,251,251,66,1,X, ,4,7, ,,2000,2,611bcaccd3e681f51ad322a1,001,2021-08-19_16h38.37.893,natb3,2021.2.3,Win32,60.08532116,611bcaccd3e681f51ad322a1,611e07ecdcc96256ae8d5b80,611e7ae9519eb4b3bee5e1ce,,
,,,,space,,0,252,252,121,1,I, , , , ,space,2000,2,611bcaccd3e681f51ad322a1,001,2021-08-19_16h38.37.893,natb3,2021.2.3,Win32,60.08532116,611bcaccd3e681f51ad322a1,611e07ecdcc96256ae8d5b80,611e7ae9519eb4b3bee5e1ce,0.4801,
,,,,,,0,253,253,175,1,X,7, ,4,2,,1500,1.5,611bcaccd3e681f51ad322a1,001,2021-08-19_16h38.37.893,natb3,2021.2.3,Win32,60.08532116,611bcaccd3e681f51ad322a1,611e07ecdcc96256ae8d5b80,611e7ae9519eb4b3bee5e1ce,,
,,,,space,,0,254,254,154,1,I, , , , ,space,2500,2.5,611bcaccd3e681f51ad322a1,001,2021-08-19_16h38.37.893,natb3,2021.2.3,Win32,60.08532116,611bcaccd3e681f51ad322a1,611e07ecdcc96256ae8d5b80,611e7ae9519eb4b3bee5e1ce,0.4971,
,,,,space,,0,255,255,26,1,C, , , , ,space,2000,2,611bcaccd3e681f51ad322a1,001,2021-08-19_16h38.37.893,natb3,2021.2.3,Win32,60.08532116,611bcaccd3e681f51ad322a1,611e07ecdcc96256ae8d5b80,611e7ae9519eb4b3bee5e1ce,0.4342,
,,,,space,,0,256,256,48,1,A, , , , ,space,2500,2.5,611bcaccd3e681f51ad322a1,001,2021-08-19_16h38.37.893,natb3,2021.2.3,Win32,60.08532116,611bcaccd3e681f51ad322a1,611e07ecdcc96256ae8d5b80,611e7ae9519eb4b3bee5e1ce,0.451,
,,,,,,0,257,257,315,1,X, , , , ,,2500,2.5,611bcaccd3e681f51ad322a1,001,2021-08-19_16h38.37.893,natb3,2021.2.3,Win32,60.08532116,611bcaccd3e681f51ad322a1,611e07ecdcc96256ae8d5b80,611e7ae9519eb4b3bee5e1ce,,
,,,,space,,0,258,258,164,1,H, , , , ,space,2500,2.5,611bcaccd3e681f51ad322a1,001,2021-08-19_16h38.37.893,natb3,2021.2.3,Win32,60.08532116,611bcaccd3e681f51ad322a1,611e07ecdcc96256ae8d5b80,611e7ae9519eb4b3bee5e1ce,0.4673,
,,,,space,,0,259,259,296,1,Y, , , , ,space,2500,2.5,611bcaccd3e681f51ad322a1,001,2021-08-19_16h38.37.893,natb3,2021.2.3,Win32,60.08532116,611bcaccd3e681f51ad322a1,611e07ecdcc96256ae8d5b80,611e7ae9519eb4b3bee5e1ce,0.5359,
,,,,,,0,260,260,31,1,X, , , , ,,1500,1.5,611bcaccd3e681f51ad322a1,001,2021-08-19_16h38.37.893,natb3,2021.2.3,Win32,60.08532116,611bcaccd3e681f51ad322a1,611e07ecdcc96256ae8d5b80,611e7ae9519eb4b3bee5e1ce,,
,,,,,,0,261,261,60,1,X,7,3,5, ,,1500,1.5,611bcaccd3e681f51ad322a1,001,2021-08-19_16h38.37.893,natb3,2021.2.3,Win32,60.08532116,611bcaccd3e681f51ad322a1,611e07ecdcc96256ae8d5b80,611e7ae9519eb4b3bee5e1ce,,
,,,,,,0,262,262,107,1,X,9,3, ,2,,2000,2,611bcaccd3e681f51ad322a1,001,2021-08-19_16h38.37.893,natb3,2021.2.3,Win32,60.08532116,611bcaccd3e681f51ad322a1,611e07ecdcc96256ae8d5b80,611e7ae9519eb4b3bee5e1ce,,
,,,,space,,0,263,263,228,1,Y, , , , ,space,2000,2,611bcaccd3e681f51ad322a1,001,2021-08-19_16h38.37.893,natb3,2021.2.3,Win32,60.08532116,611bcaccd3e681f51ad322a1,611e07ecdcc96256ae8d5b80,611e7ae9519eb4b3bee5e1ce,0.492,
,,,,space,,0,264,264,312,1,K, , , , ,space,2000,2,611bcaccd3e681f51ad322a1,001,2021-08-19_16h38.37.893,natb3,2021.2.3,Win32,60.08532116,611bcaccd3e681f51ad322a1,611e07ecdcc96256ae8d5b80,611e7ae9519eb4b3bee5e1ce,0.5561,
,,,,space,,0,265,265,87,1,H, , , , ,space,1500,1.5,611bcaccd3e681f51ad322a1,001,2021-08-19_16h38.37.893,natb3,2021.2.3,Win32,60.08532116,611bcaccd3e681f51ad322a1,611e07ecdcc96256ae8d5b80,611e7ae9519eb4b3bee5e1ce,0.3434,
,,,,space,,0,266,266,68,1,W, , , , ,space,2500,2.5,611bcaccd3e681f51ad322a1,001,2021-08-19_16h38.37.893,natb3,2021.2.3,Win32,60.08532116,611bcaccd3e681f51ad322a1,611e07ecdcc96256ae8d5b80,611e7ae9519eb4b3bee5e1ce,0.3871,
,,,,space,,0,267,267,303,1,A, , , , ,space,2000,2,611bcaccd3e681f51ad322a1,001,2021-08-19_16h38.37.893,natb3,2021.2.3,Win32,60.08532116,611bcaccd3e681f51ad322a1,611e07ecdcc96256ae8d5b80,611e7ae9519eb4b3bee5e1ce,0.3612,
,,,,,,0,268,268,263,1,X,4, ,6, ,,1500,1.5,611bcaccd3e681f51ad322a1,001,2021-08-19_16h38.37.893,natb3,2021.2.3,Win32,60.08532116,611bcaccd3e681f51ad322a1,611e07ecdcc96256ae8d5b80,611e7ae9519eb4b3bee5e1ce,,
,,,,space,,0,269,269,332,1,U, , , , ,space,2000,2,611bcaccd3e681f51ad322a1,001,2021-08-19_16h38.37.893,natb3,2021.2.3,Win32,60.08532116,611bcaccd3e681f51ad322a1,611e07ecdcc96256ae8d5b80,611e7ae9519eb4b3bee5e1ce,0.4679,
,,,,space,,0,270,270,206,1,V, , , , ,space,2000,2,611bcaccd3e681f51ad322a1,001,2021-08-19_16h38.37.893,natb3,2021.2.3,Win32,60.08532116,611bcaccd3e681f51ad322a1,611e07ecdcc96256ae8d5b80,611e7ae9519eb4b3bee5e1ce,0.5974,
,,,,space,,0,271,271,282,1,X, , , , ,,2500,2.5,611bcaccd3e681f51ad322a1,001,2021-08-19_16h38.37.893,natb3,2021.2.3,Win32,60.08532116,611bcaccd3e681f51ad322a1,611e07ecdcc96256ae8d5b80,611e7ae9519eb4b3bee5e1ce,0.401,
,,,,space,,0,272,272,3,1,R, , , , ,space,2000,2,611bcaccd3e681f51ad322a1,001,2021-08-19_16h38.37.893,natb3,2021.2.3,Win32,60.08532116,611bcaccd3e681f51ad322a1,611e07ecdcc96256ae8d5b80,611e7ae9519eb4b3bee5e1ce,0.5392,
,,,,space,,0,273,273,205,1,C, , , , ,space,2000,2,611bcaccd3e681f51ad322a1,001,2021-08-19_16h38.37.893,natb3,2021.2.3,Win32,60.08532116,611bcaccd3e681f51ad322a1,611e07ecdcc96256ae8d5b80,611e7ae9519eb4b3bee5e1ce,0.4683,
,,,,space,,0,274,274,184,1,T, , , , ,space,2000,2,611bcaccd3e681f51ad322a1,001,2021-08-19_16h38.37.893,natb3,2021.2.3,Win32,60.08532116,611bcaccd3e681f51ad322a1,611e07ecdcc96256ae8d5b80,611e7ae9519eb4b3bee5e1ce,0.4372,
,,,,space,,0,275,275,45,1,O, , , , ,space,2000,2,611bcaccd3e681f51ad322a1,001,2021-08-19_16h38.37.893,natb3,2021.2.3,Win32,60.08532116,611bcaccd3e681f51ad322a1,611e07ecdcc96256ae8d5b80,611e7ae9519eb4b3bee5e1ce,0.4094,
,,,,space,,0,276,276,58,1,L, , , , ,space,2000,2,611bcaccd3e681f51ad322a1,001,2021-08-19_16h38.37.893,natb3,2021.2.3,Win32,60.08532116,611bcaccd3e681f51ad322a1,611e07ecdcc96256ae8d5b80,611e7ae9519eb4b3bee5e1ce,0.4223,
,,,,space,,0,277,277,150,1,T, , , , ,space,2500,2.5,611bcaccd3e681f51ad322a1,001,2021-08-19_16h38.37.893,natb3,2021.2.3,Win32,60.08532116,611bcaccd3e681f51ad322a1,611e07ecdcc96256ae8d5b80,611e7ae9519eb4b3bee5e1ce,0.4077,
,,,,space,,0,278,278,92,1,Z, , , , ,space,1500,1.5,611bcaccd3e681f51ad322a1,001,2021-08-19_16h38.37.893,natb3,2021.2.3,Win32,60.08532116,611bcaccd3e681f51ad322a1,611e07ecdcc96256ae8d5b80,611e7ae9519eb4b3bee5e1ce,0.4799,
,,,,space,,0,279,279,19,1,G, , , , ,space,1500,1.5,611bcaccd3e681f51ad322a1,001,2021-08-19_16h38.37.893,natb3,2021.2.3,Win32,60.08532116,611bcaccd3e681f51ad322a1,611e07ecdcc96256ae8d5b80,611e7ae9519eb4b3bee5e1ce,0.4304,
,,,,space,,0,280,280,246,1,L, , , , ,space,2500,2.5,611bcaccd3e681f51ad322a1,001,2021-08-19_16h38.37.893,natb3,2021.2.3,Win32,60.08532116,611bcaccd3e681f51ad322a1,611e07ecdcc96256ae8d5b80,611e7ae9519eb4b3bee5e1ce,0.384,
,,,,space,,0,281,281,320,1,B, , , , ,space,1500,1.5,611bcaccd3e681f51ad322a1,001,2021-08-19_16h38.37.893,natb3,2021.2.3,Win32,60.08532116,611bcaccd3e681f51ad322a1,611e07ecdcc96256ae8d5b80,611e7ae9519eb4b3bee5e1ce,0.4249,
,,,,space,,0,282,282,44,1,I, , , , ,space,2500,2.5,611bcaccd3e681f51ad322a1,001,2021-08-19_16h38.37.893,natb3,2021.2.3,Win32,60.08532116,611bcaccd3e681f51ad322a1,611e07ecdcc96256ae8d5b80,611e7ae9519eb4b3bee5e1ce,0.4344,
,,,,,,0,283,283,74,1,X, ,4,3,2,,1500,1.5,611bcaccd3e681f51ad322a1,001,2021-08-19_16h38.37.893,natb3,2021.2.3,Win32,60.08532116,611bcaccd3e681f51ad322a1,611e07ecdcc96256ae8d5b80,611e7ae9519eb4b3bee5e1ce,,
,,,,space,,0,284,284,208,1,B, , , , ,space,1500,1.5,611bcaccd3e681f51ad322a1,001,2021-08-19_16h38.37.893,natb3,2021.2.3,Win32,60.08532116,611bcaccd3e681f51ad322a1,611e07ecdcc96256ae8d5b80,611e7ae9519eb4b3bee5e1ce,0.3634,
,,,,space,,0,285,285,267,1,P, , , , ,space,2000,2,611bcaccd3e681f51ad322a1,001,2021-08-19_16h38.37.893,natb3,2021.2.3,Win32,60.08532116,611bcaccd3e681f51ad322a1,611e07ecdcc96256ae8d5b80,611e7ae9519eb4b3bee5e1ce,0.4265,
,,,,space,,0,286,286,222,1,O, , , , ,space,2000,2,611bcaccd3e681f51ad322a1,001,2021-08-19_16h38.37.893,natb3,2021.2.3,Win32,60.08532116,611bcaccd3e681f51ad322a1,611e07ecdcc96256ae8d5b80,611e7ae9519eb4b3bee5e1ce,0.3842,
,,,,space,,0,287,287,131,1,G, , , , ,space,1500,1.5,611bcaccd3e681f51ad322a1,001,2021-08-19_16h38.37.893,natb3,2021.2.3,Win32,60.08532116,611bcaccd3e681f51ad322a1,611e07ecdcc96256ae8d5b80,611e7ae9519eb4b3bee5e1ce,0.6417,
,,,,space,,0,288,288,163,1,G, , , , ,space,2500,2.5,611bcaccd3e681f51ad322a1,001,2021-08-19_16h38.37.893,natb3,2021.2.3,Win32,60.08532116,611bcaccd3e681f51ad322a1,611e07ecdcc96256ae8d5b80,611e7ae9519eb4b3bee5e1ce,0.3524,
,,,,space,,0,289,289,223,1,Q, , , , ,space,2000,2,611bcaccd3e681f51ad322a1,001,2021-08-19_16h38.37.893,natb3,2021.2.3,Win32,60.08532116,611bcaccd3e681f51ad322a1,611e07ecdcc96256ae8d5b80,611e7ae9519eb4b3bee5e1ce,0.3274,
,,,,space,,0,290,290,147,1,E, , , , ,space,2000,2,611bcaccd3e681f51ad322a1,001,2021-08-19_16h38.37.893,natb3,2021.2.3,Win32,60.08532116,611bcaccd3e681f51ad322a1,611e07ecdcc96256ae8d5b80,611e7ae9519eb4b3bee5e1ce,0.3601,
,,,,space,,0,291,291,212,1,Q, , , , ,space,2500,2.5,611bcaccd3e681f51ad322a1,001,2021-08-19_16h38.37.893,natb3,2021.2.3,Win32,60.08532116,611bcaccd3e681f51ad322a1,611e07ecdcc96256ae8d5b80,611e7ae9519eb4b3bee5e1ce,0.3877,
,,,,space,,0,292,292,90,1,K, , , , ,space,2000,2,611bcaccd3e681f51ad322a1,001,2021-08-19_16h38.37.893,natb3,2021.2.3,Win32,60.08532116,611bcaccd3e681f51ad322a1,611e07ecdcc96256ae8d5b80,611e7ae9519eb4b3bee5e1ce,0.3766,
,,,,space,,0,293,293,91,1,L, , , , ,space,2000,2,611bcaccd3e681f51ad322a1,001,2021-08-19_16h38.37.893,natb3,2021.2.3,Win32,60.08532116,611bcaccd3e681f51ad322a1,611e07ecdcc96256ae8d5b80,611e7ae9519eb4b3bee5e1ce,0.4073,
,,,,space,,0,294,294,67,1,Q, , , , ,space,2000,2,611bcaccd3e681f51ad322a1,001,2021-08-19_16h38.37.893,natb3,2021.2.3,Win32,60.08532116,611bcaccd3e681f51ad322a1,611e07ecdcc96256ae8d5b80,611e7ae9519eb4b3bee5e1ce,0.3642,
,,,,space,,0,295,295,270,1,S, , , , ,space,1500,1.5,611bcaccd3e681f51ad322a1,001,2021-08-19_16h38.37.893,natb3,2021.2.3,Win32,60.08532116,611bcaccd3e681f51ad322a1,611e07ecdcc96256ae8d5b80,611e7ae9519eb4b3bee5e1ce,0.408,
,,,,space,,0,296,296,319,1,V, , , , ,space,2000,2,611bcaccd3e681f51ad322a1,001,2021-08-19_16h38.37.893,natb3,2021.2.3,Win32,60.08532116,611bcaccd3e681f51ad322a1,611e07ecdcc96256ae8d5b80,611e7ae9519eb4b3bee5e1ce,0.3506,
,,,,,,0,297,297,211,1,X, , , , ,,2500,2.5,611bcaccd3e681f51ad322a1,001,2021-08-19_16h38.37.893,natb3,2021.2.3,Win32,60.08532116,611bcaccd3e681f51ad322a1,611e07ecdcc96256ae8d5b80,611e7ae9519eb4b3bee5e1ce,,
,,,,space,,0,298,298,276,1,H, , , , ,space,2000,2,611bcaccd3e681f51ad322a1,001,2021-08-19_16h38.37.893,natb3,2021.2.3,Win32,60.08532116,611bcaccd3e681f51ad322a1,611e07ecdcc96256ae8d5b80,611e7ae9519eb4b3bee5e1ce,0.4137,
,,,,space,,0,299,299,316,1,Z, , , , ,space,1500,1.5,611bcaccd3e681f51ad322a1,001,2021-08-19_16h38.37.893,natb3,2021.2.3,Win32,60.08532116,611bcaccd3e681f51ad322a1,611e07ecdcc96256ae8d5b80,611e7ae9519eb4b3bee5e1ce,0.4233,
,,,,space,,0,300,300,220,1,U, , , , ,space,2500,2.5,611bcaccd3e681f51ad322a1,001,2021-08-19_16h38.37.893,natb3,2021.2.3,Win32,60.08532116,611bcaccd3e681f51ad322a1,611e07ecdcc96256ae8d5b80,611e7ae9519eb4b3bee5e1ce,0.3602,
,,,,,,0,301,301,93,1,X,5, ,7, ,,2500,2.5,611bcaccd3e681f51ad322a1,001,2021-08-19_16h38.37.893,natb3,2021.2.3,Win32,60.08532116,611bcaccd3e681f51ad322a1,611e07ecdcc96256ae8d5b80,611e7ae9519eb4b3bee5e1ce,,
,,,,space,,0,302,302,301,1,P, , , , ,space,1500,1.5,611bcaccd3e681f51ad322a1,001,2021-08-19_16h38.37.893,natb3,2021.2.3,Win32,60.08532116,611bcaccd3e681f51ad322a1,611e07ecdcc96256ae8d5b80,611e7ae9519eb4b3bee5e1ce,0.4365,
,,,,space,,0,303,303,113,1,W, , , , ,space,2500,2.5,611bcaccd3e681f51ad322a1,001,2021-08-19_16h38.37.893,natb3,2021.2.3,Win32,60.08532116,611bcaccd3e681f51ad322a1,611e07ecdcc96256ae8d5b80,611e7ae9519eb4b3bee5e1ce,0.572,
,,,,space,,0,304,304,174,1,B, , , , ,space,2500,2.5,611bcaccd3e681f51ad322a1,001,2021-08-19_16h38.37.893,natb3,2021.2.3,Win32,60.08532116,611bcaccd3e681f51ad322a1,611e07ecdcc96256ae8d5b80,611e7ae9519eb4b3bee5e1ce,0.391,
,,,,space,,0,305,305,199,1,J, , , , ,space,2500,2.5,611bcaccd3e681f51ad322a1,001,2021-08-19_16h38.37.893,natb3,2021.2.3,Win32,60.08532116,611bcaccd3e681f51ad322a1,611e07ecdcc96256ae8d5b80,611e7ae9519eb4b3bee5e1ce,0.4074,
,,,,space,,0,306,306,264,1,U, , , , ,space,2000,2,611bcaccd3e681f51ad322a1,001,2021-08-19_16h38.37.893,natb3,2021.2.3,Win32,60.08532116,611bcaccd3e681f51ad322a1,611e07ecdcc96256ae8d5b80,611e7ae9519eb4b3bee5e1ce,0.3508,
,,,,space,,0,307,307,55,1,H, , , , ,space,2500,2.5,611bcaccd3e681f51ad322a1,001,2021-08-19_16h38.37.893,natb3,2021.2.3,Win32,60.08532116,611bcaccd3e681f51ad322a1,611e07ecdcc96256ae8d5b80,611e7ae9519eb4b3bee5e1ce,0.3917,
,,,,space,,0,308,308,247,1,Z, , , , ,space,1500,1.5,611bcaccd3e681f51ad322a1,001,2021-08-19_16h38.37.893,natb3,2021.2.3,Win32,60.08532116,611bcaccd3e681f51ad322a1,611e07ecdcc96256ae8d5b80,611e7ae9519eb4b3bee5e1ce,0.4845,
,,,,space,,0,309,309,119,1,Y, , , , ,space,2500,2.5,611bcaccd3e681f51ad322a1,001,2021-08-19_16h38.37.893,natb3,2021.2.3,Win32,60.08532116,611bcaccd3e681f51ad322a1,611e07ecdcc96256ae8d5b80,611e7ae9519eb4b3bee5e1ce,0.4311,
,,,,,,0,310,310,78,1,X, , , , ,,2000,2,611bcaccd3e681f51ad322a1,001,2021-08-19_16h38.37.893,natb3,2021.2.3,Win32,60.08532116,611bcaccd3e681f51ad322a1,611e07ecdcc96256ae8d5b80,611e7ae9519eb4b3bee5e1ce,,
,,,,space,,0,311,311,13,1,A, , , , ,space,2000,2,611bcaccd3e681f51ad322a1,001,2021-08-19_16h38.37.893,natb3,2021.2.3,Win32,60.08532116,611bcaccd3e681f51ad322a1,611e07ecdcc96256ae8d5b80,611e7ae9519eb4b3bee5e1ce,0.4178,
,,,,space,,0,312,312,145,1,X, , , , ,,2000,2,611bcaccd3e681f51ad322a1,001,2021-08-19_16h38.37.893,natb3,2021.2.3,Win32,60.08532116,611bcaccd3e681f51ad322a1,611e07ecdcc96256ae8d5b80,611e7ae9519eb4b3bee5e1ce,0.3907,
,,,,space,,0,313,313,286,1,N, , , , ,space,1500,1.5,611bcaccd3e681f51ad322a1,001,2021-08-19_16h38.37.893,natb3,2021.2.3,Win32,60.08532116,611bcaccd3e681f51ad322a1,611e07ecdcc96256ae8d5b80,611e7ae9519eb4b3bee5e1ce,0.651,
,,,,space,,0,314,314,285,1,B, , , , ,space,1500,1.5,611bcaccd3e681f51ad322a1,001,2021-08-19_16h38.37.893,natb3,2021.2.3,Win32,60.08532116,611bcaccd3e681f51ad322a1,611e07ecdcc96256ae8d5b80,611e7ae9519eb4b3bee5e1ce,0.4554,
,,,,space,,0,315,315,300,1,O, , , , ,space,2500,2.5,611bcaccd3e681f51ad322a1,001,2021-08-19_16h38.37.893,natb3,2021.2.3,Win32,60.08532116,611bcaccd3e681f51ad322a1,611e07ecdcc96256ae8d5b80,611e7ae9519eb4b3bee5e1ce,0.4702,
,,,,space,,0,316,316,176,1,N, , , , ,space,1500,1.5,611bcaccd3e681f51ad322a1,001,2021-08-19_16h38.37.893,natb3,2021.2.3,Win32,60.08532116,611bcaccd3e681f51ad322a1,611e07ecdcc96256ae8d5b80,611e7ae9519eb4b3bee5e1ce,0.4608,
,,,,space,,0,317,317,278,1,J, , , , ,space,2000,2,611bcaccd3e681f51ad322a1,001,2021-08-19_16h38.37.893,natb3,2021.2.3,Win32,60.08532116,611bcaccd3e681f51ad322a1,611e07ecdcc96256ae8d5b80,611e7ae9519eb4b3bee5e1ce,0.435,
,,,,space,,0,318,318,202,1,L, , , , ,space,2500,2.5,611bcaccd3e681f51ad322a1,001,2021-08-19_16h38.37.893,natb3,2021.2.3,Win32,60.08532116,611bcaccd3e681f51ad322a1,611e07ecdcc96256ae8d5b80,611e7ae9519eb4b3bee5e1ce,0.4639,
,,,,space,,0,319,319,242,1,H, , , , ,space,2500,2.5,611bcaccd3e681f51ad322a1,001,2021-08-19_16h38.37.893,natb3,2021.2.3,Win32,60.08532116,611bcaccd3e681f51ad322a1,611e07ecdcc96256ae8d5b80,611e7ae9519eb4b3bee5e1ce,0.3741,
,,,,space,,0,320,320,307,1,F, , , , ,space,2500,2.5,611bcaccd3e681f51ad322a1,001,2021-08-19_16h38.37.893,natb3,2021.2.3,Win32,60.08532116,611bcaccd3e681f51ad322a1,611e07ecdcc96256ae8d5b80,611e7ae9519eb4b3bee5e1ce,0.4242,
,,,,space,,0,321,321,314,1,L, , , , ,space,1500,1.5,611bcaccd3e681f51ad322a1,001,2021-08-19_16h38.37.893,natb3,2021.2.3,Win32,60.08532116,611bcaccd3e681f51ad322a1,611e07ecdcc96256ae8d5b80,611e7ae9519eb4b3bee5e1ce,0.4419,
,,,,space,,0,322,322,156,1,P, , , , ,space,1500,1.5,611bcaccd3e681f51ad322a1,001,2021-08-19_16h38.37.893,natb3,2021.2.3,Win32,60.08532116,611bcaccd3e681f51ad322a1,611e07ecdcc96256ae8d5b80,611e7ae9519eb4b3bee5e1ce,0.385,
,,,,space,,0,323,323,73,1,Y, , , , ,space,2000,2,611bcaccd3e681f51ad322a1,001,2021-08-19_16h38.37.893,natb3,2021.2.3,Win32,60.08532116,611bcaccd3e681f51ad322a1,611e07ecdcc96256ae8d5b80,611e7ae9519eb4b3bee5e1ce,0.5109,
,,,,,,0,324,324,54,1,X, , , , ,,2000,2,611bcaccd3e681f51ad322a1,001,2021-08-19_16h38.37.893,natb3,2021.2.3,Win32,60.08532116,611bcaccd3e681f51ad322a1,611e07ecdcc96256ae8d5b80,611e7ae9519eb4b3bee5e1ce,,
,,,,space,,0,325,325,231,1,I, , , , ,space,2500,2.5,611bcaccd3e681f51ad322a1,001,2021-08-19_16h38.37.893,natb3,2021.2.3,Win32,60.08532116,611bcaccd3e681f51ad322a1,611e07ecdcc96256ae8d5b80,611e7ae9519eb4b3bee5e1ce,0.4583,
,,,,space,,0,326,326,196,1,F, , , , ,space,1500,1.5,611bcaccd3e681f51ad322a1,001,2021-08-19_16h38.37.893,natb3,2021.2.3,Win32,60.08532116,611bcaccd3e681f51ad322a1,611e07ecdcc96256ae8d5b80,611e7ae9519eb4b3bee5e1ce,0.4012,
,,,,,,0,327,327,299,1,X, , , , ,,2500,2.5,611bcaccd3e681f51ad322a1,001,2021-08-19_16h38.37.893,natb3,2021.2.3,Win32,60.08532116,611bcaccd3e681f51ad322a1,611e07ecdcc96256ae8d5b80,611e7ae9519eb4b3bee5e1ce,,
,,,,,,0,328,328,335,1,P,,,,,space,1500,1.5,611bcaccd3e681f51ad322a1,001,2021-08-19_16h38.37.893,natb3,2021.2.3,Win32,60.08532116,611bcaccd3e681f51ad322a1,611e07ecdcc96256ae8d5b80,611e7ae9519eb4b3bee5e1ce,,
,,,,space,,0,329,329,333,1,I, , , , ,space,1500,1.5,611bcaccd3e681f51ad322a1,001,2021-08-19_16h38.37.893,natb3,2021.2.3,Win32,60.08532116,611bcaccd3e681f51ad322a1,611e07ecdcc96256ae8d5b80,611e7ae9519eb4b3bee5e1ce,0.5524,
,,,,space,,0,330,330,256,1,Q, , , , ,space,2000,2,611bcaccd3e681f51ad322a1,001,2021-08-19_16h38.37.893,natb3,2021.2.3,Win32,60.08532116,611bcaccd3e681f51ad322a1,611e07ecdcc96256ae8d5b80,611e7ae9519eb4b3bee5e1ce,0.5258,
,,,,,,0,331,331,122,1,X,1, , ,8,,1500,1.5,611bcaccd3e681f51ad322a1,001,2021-08-19_16h38.37.893,natb3,2021.2.3,Win32,60.08532116,611bcaccd3e681f51ad322a1,611e07ecdcc96256ae8d5b80,611e7ae9519eb4b3bee5e1ce,,
,,,,,,0,332,332,191,1,X,1, ,3,4,,2500,2.5,611bcaccd3e681f51ad322a1,001,2021-08-19_16h38.37.893,natb3,2021.2.3,Win32,60.08532116,611bcaccd3e681f51ad322a1,611e07ecdcc96256ae8d5b80,611e7ae9519eb4b3bee5e1ce,,
,,,,space,,0,333,333,38,1,R, , , , ,space,2500,2.5,611bcaccd3e681f51ad322a1,001,2021-08-19_16h38.37.893,natb3,2021.2.3,Win32,60.08532116,611bcaccd3e681f51ad322a1,611e07ecdcc96256ae8d5b80,611e7ae9519eb4b3bee5e1ce,0.4068,
,,,,space,,0,334,334,40,1,T, , , , ,space,1500,1.5,611bcaccd3e681f51ad322a1,001,2021-08-19_16h38.37.893,natb3,2021.2.3,Win32,60.08532116,611bcaccd3e681f51ad322a1,611e07ecdcc96256ae8d5b80,611e7ae9519eb4b3bee5e1ce,0.4876,
,,,,,,0,335,335,236,1,X,3, ,4,7,,2500,2.5,611bcaccd3e681f51ad322a1,001,2021-08-19_16h38.37.893,natb3,2021.2.3,Win32,60.08532116,611bcaccd3e681f51ad322a1,611e07ecdcc96256ae8d5b80,611e7ae9519eb4b3bee5e1ce,,
