key_resp_2.keys,key_resp_2.rt,key_resp_3.keys,key_resp_3.rt,key_resp.keys,key_resp.rt,key_resp_4.keys,trials.thisRepN,trials.thisTrialN,trials.thisN,trials.thisIndex,trials.ran,stimulus,distractor1,distractor2,distractor3,distractor4,CorrAns,isi_duration,isi_dur_in_seconds,participant,session,date,expName,psychopyVersion,OS,frameRate,PROLIFIC_PID,STUDY_ID,SESSION_ID,key_resp_4.rt
return,19.5622,space,12.7887,space,0.7602,,0,0,0,222,1,O, , , , ,space,2000,2,611b8f8477911e3512c6757a,001,2021-08-17_17h19.49.013,natb3,2021.2.3,MacIntel,60.0024001,611b8f8477911e3512c6757a,6107d0959f7c4c3641818b95,611be18e75e63bdb129c6034,
,,,,,,,0,1,1,218,1,X,1,3, ,8,,1500,1.5,611b8f8477911e3512c6757a,001,2021-08-17_17h19.49.013,natb3,2021.2.3,MacIntel,60.0024001,611b8f8477911e3512c6757a,6107d0959f7c4c3641818b95,611be18e75e63bdb129c6034,
,,,,space,0.331,,0,2,2,103,1,W, , , , ,space,2000,2,611b8f8477911e3512c6757a,001,2021-08-17_17h19.49.013,natb3,2021.2.3,MacIntel,60.0024001,611b8f8477911e3512c6757a,6107d0959f7c4c3641818b95,611be18e75e63bdb129c6034,
,,,,space,0.3412,,0,3,3,161,1,F, , , , ,space,1500,1.5,611b8f8477911e3512c6757a,001,2021-08-17_17h19.49.013,natb3,2021.2.3,MacIntel,60.0024001,611b8f8477911e3512c6757a,6107d0959f7c4c3641818b95,611be18e75e63bdb129c6034,
,,,,space,0.3005,,0,4,4,306,1,D, , , , ,space,2000,2,611b8f8477911e3512c6757a,001,2021-08-17_17h19.49.013,natb3,2021.2.3,MacIntel,60.0024001,611b8f8477911e3512c6757a,6107d0959f7c4c3641818b95,611be18e75e63bdb129c6034,
,,,,space,0.4827,,0,5,5,231,1,I, , , , ,space,2500,2.5,611b8f8477911e3512c6757a,001,2021-08-17_17h19.49.013,natb3,2021.2.3,MacIntel,60.0024001,611b8f8477911e3512c6757a,6107d0959f7c4c3641818b95,611be18e75e63bdb129c6034,
,,,,space,0.4501,,0,6,6,75,1,U, , , , ,space,1500,1.5,611b8f8477911e3512c6757a,001,2021-08-17_17h19.49.013,natb3,2021.2.3,MacIntel,60.0024001,611b8f8477911e3512c6757a,6107d0959f7c4c3641818b95,611be18e75e63bdb129c6034,
,,,,space,0.3848,,0,7,7,196,1,F, , , , ,space,1500,1.5,611b8f8477911e3512c6757a,001,2021-08-17_17h19.49.013,natb3,2021.2.3,MacIntel,60.0024001,611b8f8477911e3512c6757a,6107d0959f7c4c3641818b95,611be18e75e63bdb129c6034,
,,,,space,0.3504,,0,8,8,112,1,Q, , , , ,space,2500,2.5,611b8f8477911e3512c6757a,001,2021-08-17_17h19.49.013,natb3,2021.2.3,MacIntel,60.0024001,611b8f8477911e3512c6757a,6107d0959f7c4c3641818b95,611be18e75e63bdb129c6034,
,,,,space,0.4479,,0,9,9,5,1,T, , , , ,space,2000,2,611b8f8477911e3512c6757a,001,2021-08-17_17h19.49.013,natb3,2021.2.3,MacIntel,60.0024001,611b8f8477911e3512c6757a,6107d0959f7c4c3641818b95,611be18e75e63bdb129c6034,
,,,,space,0.4322,,0,10,10,216,1,R, , , , ,space,1500,1.5,611b8f8477911e3512c6757a,001,2021-08-17_17h19.49.013,natb3,2021.2.3,MacIntel,60.0024001,611b8f8477911e3512c6757a,6107d0959f7c4c3641818b95,611be18e75e63bdb129c6034,
,,,,space,0.3568,,0,11,11,315,1,X, , , , ,,2500,2.5,611b8f8477911e3512c6757a,001,2021-08-17_17h19.49.013,natb3,2021.2.3,MacIntel,60.0024001,611b8f8477911e3512c6757a,6107d0959f7c4c3641818b95,611be18e75e63bdb129c6034,
,,,,,,,0,12,12,191,1,X,1, ,3,4,,2500,2.5,611b8f8477911e3512c6757a,001,2021-08-17_17h19.49.013,natb3,2021.2.3,MacIntel,60.0024001,611b8f8477911e3512c6757a,6107d0959f7c4c3641818b95,611be18e75e63bdb129c6034,
,,,,,,,0,13,13,56,1,J, , , , ,space,1500,1.5,611b8f8477911e3512c6757a,001,2021-08-17_17h19.49.013,natb3,2021.2.3,MacIntel,60.0024001,611b8f8477911e3512c6757a,6107d0959f7c4c3641818b95,611be18e75e63bdb129c6034,
,,,,space,0.3085,,0,14,14,242,1,H, , , , ,space,2500,2.5,611b8f8477911e3512c6757a,001,2021-08-17_17h19.49.013,natb3,2021.2.3,MacIntel,60.0024001,611b8f8477911e3512c6757a,6107d0959f7c4c3641818b95,611be18e75e63bdb129c6034,
,,,,,,,0,15,15,267,1,P, , , , ,space,2000,2,611b8f8477911e3512c6757a,001,2021-08-17_17h19.49.013,natb3,2021.2.3,MacIntel,60.0024001,611b8f8477911e3512c6757a,6107d0959f7c4c3641818b95,611be18e75e63bdb129c6034,
,,,,space,0.4503,,0,16,16,296,1,Y, , , , ,space,2500,2.5,611b8f8477911e3512c6757a,001,2021-08-17_17h19.49.013,natb3,2021.2.3,MacIntel,60.0024001,611b8f8477911e3512c6757a,6107d0959f7c4c3641818b95,611be18e75e63bdb129c6034,
,,,,space,0.3676,,0,17,17,264,1,U, , , , ,space,2000,2,611b8f8477911e3512c6757a,001,2021-08-17_17h19.49.013,natb3,2021.2.3,MacIntel,60.0024001,611b8f8477911e3512c6757a,6107d0959f7c4c3641818b95,611be18e75e63bdb129c6034,
,,,,space,0.3174,,0,18,18,136,1,Z, , , , ,space,2500,2.5,611b8f8477911e3512c6757a,001,2021-08-17_17h19.49.013,natb3,2021.2.3,MacIntel,60.0024001,611b8f8477911e3512c6757a,6107d0959f7c4c3641818b95,611be18e75e63bdb129c6034,
,,,,space,0.2989,,0,19,19,70,1,E, , , , ,space,2500,2.5,611b8f8477911e3512c6757a,001,2021-08-17_17h19.49.013,natb3,2021.2.3,MacIntel,60.0024001,611b8f8477911e3512c6757a,6107d0959f7c4c3641818b95,611be18e75e63bdb129c6034,
,,,,space,0.3813,,0,20,20,265,1,I, , , , ,space,2000,2,611b8f8477911e3512c6757a,001,2021-08-17_17h19.49.013,natb3,2021.2.3,MacIntel,60.0024001,611b8f8477911e3512c6757a,6107d0959f7c4c3641818b95,611be18e75e63bdb129c6034,
,,,,space,0.3337,,0,21,21,127,1,S, , , , ,space,2500,2.5,611b8f8477911e3512c6757a,001,2021-08-17_17h19.49.013,natb3,2021.2.3,MacIntel,60.0024001,611b8f8477911e3512c6757a,6107d0959f7c4c3641818b95,611be18e75e63bdb129c6034,
,,,,space,0.2918,,0,22,22,150,1,T, , , , ,space,2500,2.5,611b8f8477911e3512c6757a,001,2021-08-17_17h19.49.013,natb3,2021.2.3,MacIntel,60.0024001,611b8f8477911e3512c6757a,6107d0959f7c4c3641818b95,611be18e75e63bdb129c6034,
,,,,space,0.4975,,0,23,23,80,1,A, , , , ,space,2000,2,611b8f8477911e3512c6757a,001,2021-08-17_17h19.49.013,natb3,2021.2.3,MacIntel,60.0024001,611b8f8477911e3512c6757a,6107d0959f7c4c3641818b95,611be18e75e63bdb129c6034,
,,,,space,0.3396,,0,24,24,209,1,N, , , , ,space,2000,2,611b8f8477911e3512c6757a,001,2021-08-17_17h19.49.013,natb3,2021.2.3,MacIntel,60.0024001,611b8f8477911e3512c6757a,6107d0959f7c4c3641818b95,611be18e75e63bdb129c6034,
,,,,space,0.4334,,0,25,25,255,1,X, , , , ,,1500,1.5,611b8f8477911e3512c6757a,001,2021-08-17_17h19.49.013,natb3,2021.2.3,MacIntel,60.0024001,611b8f8477911e3512c6757a,6107d0959f7c4c3641818b95,611be18e75e63bdb129c6034,
,,,,space,0.7587,,0,26,26,121,1,I, , , , ,space,2000,2,611b8f8477911e3512c6757a,001,2021-08-17_17h19.49.013,natb3,2021.2.3,MacIntel,60.0024001,611b8f8477911e3512c6757a,6107d0959f7c4c3641818b95,611be18e75e63bdb129c6034,
,,,,space,0.35,,0,27,27,24,1,L, , , , ,space,2500,2.5,611b8f8477911e3512c6757a,001,2021-08-17_17h19.49.013,natb3,2021.2.3,MacIntel,60.0024001,611b8f8477911e3512c6757a,6107d0959f7c4c3641818b95,611be18e75e63bdb129c6034,
,,,,,,,0,28,28,98,1,X, , , , ,,2500,2.5,611b8f8477911e3512c6757a,001,2021-08-17_17h19.49.013,natb3,2021.2.3,MacIntel,60.0024001,611b8f8477911e3512c6757a,6107d0959f7c4c3641818b95,611be18e75e63bdb129c6034,
,,,,space,0.4739,,0,29,29,113,1,W, , , , ,space,2500,2.5,611b8f8477911e3512c6757a,001,2021-08-17_17h19.49.013,natb3,2021.2.3,MacIntel,60.0024001,611b8f8477911e3512c6757a,6107d0959f7c4c3641818b95,611be18e75e63bdb129c6034,
,,,,space,0.4662,,0,30,30,64,1,N, , , , ,space,2000,2,611b8f8477911e3512c6757a,001,2021-08-17_17h19.49.013,natb3,2021.2.3,MacIntel,60.0024001,611b8f8477911e3512c6757a,6107d0959f7c4c3641818b95,611be18e75e63bdb129c6034,
,,,,space,0.7325,,0,31,31,187,1,X, ,3,7,4,,1500,1.5,611b8f8477911e3512c6757a,001,2021-08-17_17h19.49.013,natb3,2021.2.3,MacIntel,60.0024001,611b8f8477911e3512c6757a,6107d0959f7c4c3641818b95,611be18e75e63bdb129c6034,
,,,,space,0.633,,0,32,32,25,1,Z, , , , ,space,2500,2.5,611b8f8477911e3512c6757a,001,2021-08-17_17h19.49.013,natb3,2021.2.3,MacIntel,60.0024001,611b8f8477911e3512c6757a,6107d0959f7c4c3641818b95,611be18e75e63bdb129c6034,
,,,,,,,0,33,33,282,1,X, , , , ,,2500,2.5,611b8f8477911e3512c6757a,001,2021-08-17_17h19.49.013,natb3,2021.2.3,MacIntel,60.0024001,611b8f8477911e3512c6757a,6107d0959f7c4c3641818b95,611be18e75e63bdb129c6034,
,,,,space,0.3994,,0,34,34,176,1,N, , , , ,space,1500,1.5,611b8f8477911e3512c6757a,001,2021-08-17_17h19.49.013,natb3,2021.2.3,MacIntel,60.0024001,611b8f8477911e3512c6757a,6107d0959f7c4c3641818b95,611be18e75e63bdb129c6034,
,,,,,,,0,35,35,200,1,X,7, ,5,3,,1500,1.5,611b8f8477911e3512c6757a,001,2021-08-17_17h19.49.013,natb3,2021.2.3,MacIntel,60.0024001,611b8f8477911e3512c6757a,6107d0959f7c4c3641818b95,611be18e75e63bdb129c6034,
,,,,,,,0,36,36,4,1,X, , , , ,,2000,2,611b8f8477911e3512c6757a,001,2021-08-17_17h19.49.013,natb3,2021.2.3,MacIntel,60.0024001,611b8f8477911e3512c6757a,6107d0959f7c4c3641818b95,611be18e75e63bdb129c6034,
,,,,space,0.4171,,0,37,37,116,1,X, , , , ,,2000,2,611b8f8477911e3512c6757a,001,2021-08-17_17h19.49.013,natb3,2021.2.3,MacIntel,60.0024001,611b8f8477911e3512c6757a,6107d0959f7c4c3641818b95,611be18e75e63bdb129c6034,
,,,,space,0.5663,,0,38,38,155,1,O, , , , ,space,1500,1.5,611b8f8477911e3512c6757a,001,2021-08-17_17h19.49.013,natb3,2021.2.3,MacIntel,60.0024001,611b8f8477911e3512c6757a,6107d0959f7c4c3641818b95,611be18e75e63bdb129c6034,
,,,,space,0.5845,,0,39,39,202,1,L, , , , ,space,2500,2.5,611b8f8477911e3512c6757a,001,2021-08-17_17h19.49.013,natb3,2021.2.3,MacIntel,60.0024001,611b8f8477911e3512c6757a,6107d0959f7c4c3641818b95,611be18e75e63bdb129c6034,
,,,,space,0.4521,,0,40,40,172,1,C, , , , ,space,1500,1.5,611b8f8477911e3512c6757a,001,2021-08-17_17h19.49.013,natb3,2021.2.3,MacIntel,60.0024001,611b8f8477911e3512c6757a,6107d0959f7c4c3641818b95,611be18e75e63bdb129c6034,
,,,,,,,0,41,41,46,1,X, , , , ,,2000,2,611b8f8477911e3512c6757a,001,2021-08-17_17h19.49.013,natb3,2021.2.3,MacIntel,60.0024001,611b8f8477911e3512c6757a,6107d0959f7c4c3641818b95,611be18e75e63bdb129c6034,
,,,,space,0.3664,,0,42,42,79,1,P, , , , ,space,2000,2,611b8f8477911e3512c6757a,001,2021-08-17_17h19.49.013,natb3,2021.2.3,MacIntel,60.0024001,611b8f8477911e3512c6757a,6107d0959f7c4c3641818b95,611be18e75e63bdb129c6034,
,,,,space,0.3502,,0,43,43,142,1,N, , , , ,space,2500,2.5,611b8f8477911e3512c6757a,001,2021-08-17_17h19.49.013,natb3,2021.2.3,MacIntel,60.0024001,611b8f8477911e3512c6757a,6107d0959f7c4c3641818b95,611be18e75e63bdb129c6034,
,,,,,,,0,44,44,263,1,X,4, ,6, ,,1500,1.5,611b8f8477911e3512c6757a,001,2021-08-17_17h19.49.013,natb3,2021.2.3,MacIntel,60.0024001,611b8f8477911e3512c6757a,6107d0959f7c4c3641818b95,611be18e75e63bdb129c6034,
,,,,space,0.5065,,0,45,45,41,1,Y, , , , ,space,2500,2.5,611b8f8477911e3512c6757a,001,2021-08-17_17h19.49.013,natb3,2021.2.3,MacIntel,60.0024001,611b8f8477911e3512c6757a,6107d0959f7c4c3641818b95,611be18e75e63bdb129c6034,
,,,,space,0.4422,,0,46,46,147,1,E, , , , ,space,2000,2,611b8f8477911e3512c6757a,001,2021-08-17_17h19.49.013,natb3,2021.2.3,MacIntel,60.0024001,611b8f8477911e3512c6757a,6107d0959f7c4c3641818b95,611be18e75e63bdb129c6034,
,,,,space,0.3491,,0,47,47,40,1,T, , , , ,space,1500,1.5,611b8f8477911e3512c6757a,001,2021-08-17_17h19.49.013,natb3,2021.2.3,MacIntel,60.0024001,611b8f8477911e3512c6757a,6107d0959f7c4c3641818b95,611be18e75e63bdb129c6034,
,,,,space,0.4234,,0,48,48,101,1,Q, , , , ,space,2500,2.5,611b8f8477911e3512c6757a,001,2021-08-17_17h19.49.013,natb3,2021.2.3,MacIntel,60.0024001,611b8f8477911e3512c6757a,6107d0959f7c4c3641818b95,611be18e75e63bdb129c6034,
,,,,space,0.3613,,0,49,49,99,1,N, , , , ,space,2500,2.5,611b8f8477911e3512c6757a,001,2021-08-17_17h19.49.013,natb3,2021.2.3,MacIntel,60.0024001,611b8f8477911e3512c6757a,6107d0959f7c4c3641818b95,611be18e75e63bdb129c6034,
,,,,space,0.5014,,0,50,50,331,1,Y, , , , ,space,2500,2.5,611b8f8477911e3512c6757a,001,2021-08-17_17h19.49.013,natb3,2021.2.3,MacIntel,60.0024001,611b8f8477911e3512c6757a,6107d0959f7c4c3641818b95,611be18e75e63bdb129c6034,
,,,,space,0.3662,,0,51,51,322,1,X, , ,1,6,,2000,2,611b8f8477911e3512c6757a,001,2021-08-17_17h19.49.013,natb3,2021.2.3,MacIntel,60.0024001,611b8f8477911e3512c6757a,6107d0959f7c4c3641818b95,611be18e75e63bdb129c6034,
,,,,,,,0,52,52,166,1,X, , , , ,,2000,2,611b8f8477911e3512c6757a,001,2021-08-17_17h19.49.013,natb3,2021.2.3,MacIntel,60.0024001,611b8f8477911e3512c6757a,6107d0959f7c4c3641818b95,611be18e75e63bdb129c6034,
,,,,,,,0,53,53,145,1,X, , , , ,,2000,2,611b8f8477911e3512c6757a,001,2021-08-17_17h19.49.013,natb3,2021.2.3,MacIntel,60.0024001,611b8f8477911e3512c6757a,6107d0959f7c4c3641818b95,611be18e75e63bdb129c6034,
,,,,space,0.5687,,0,54,54,81,1,S, , , , ,space,2000,2,611b8f8477911e3512c6757a,001,2021-08-17_17h19.49.013,natb3,2021.2.3,MacIntel,60.0024001,611b8f8477911e3512c6757a,6107d0959f7c4c3641818b95,611be18e75e63bdb129c6034,
,,,,space,0.4662,,0,55,55,97,1,B, , , , ,space,2500,2.5,611b8f8477911e3512c6757a,001,2021-08-17_17h19.49.013,natb3,2021.2.3,MacIntel,60.0024001,611b8f8477911e3512c6757a,6107d0959f7c4c3641818b95,611be18e75e63bdb129c6034,
,,,,space,0.3569,,0,56,56,130,1,F, , , , ,space,2000,2,611b8f8477911e3512c6757a,001,2021-08-17_17h19.49.013,natb3,2021.2.3,MacIntel,60.0024001,611b8f8477911e3512c6757a,6107d0959f7c4c3641818b95,611be18e75e63bdb129c6034,
,,,,space,0.3821,,0,57,57,308,1,G, , , , ,space,1500,1.5,611b8f8477911e3512c6757a,001,2021-08-17_17h19.49.013,natb3,2021.2.3,MacIntel,60.0024001,611b8f8477911e3512c6757a,6107d0959f7c4c3641818b95,611be18e75e63bdb129c6034,
,,,,space,0.318,,0,58,58,32,1,M, , , , ,space,1500,1.5,611b8f8477911e3512c6757a,001,2021-08-17_17h19.49.013,natb3,2021.2.3,MacIntel,60.0024001,611b8f8477911e3512c6757a,6107d0959f7c4c3641818b95,611be18e75e63bdb129c6034,
,,,,,,,0,59,59,162,1,X,1,6, ,2,,1500,1.5,611b8f8477911e3512c6757a,001,2021-08-17_17h19.49.013,natb3,2021.2.3,MacIntel,60.0024001,611b8f8477911e3512c6757a,6107d0959f7c4c3641818b95,611be18e75e63bdb129c6034,
,,,,,,,0,60,60,33,1,X, , , , ,,1500,1.5,611b8f8477911e3512c6757a,001,2021-08-17_17h19.49.013,natb3,2021.2.3,MacIntel,60.0024001,611b8f8477911e3512c6757a,6107d0959f7c4c3641818b95,611be18e75e63bdb129c6034,
,,,,space,0.7478,,0,61,61,88,1,J, , , , ,space,2500,2.5,611b8f8477911e3512c6757a,001,2021-08-17_17h19.49.013,natb3,2021.2.3,MacIntel,60.0024001,611b8f8477911e3512c6757a,6107d0959f7c4c3641818b95,611be18e75e63bdb129c6034,
,,,,space,0.4498,,0,62,62,14,1,S, , , , ,space,2500,2.5,611b8f8477911e3512c6757a,001,2021-08-17_17h19.49.013,natb3,2021.2.3,MacIntel,60.0024001,611b8f8477911e3512c6757a,6107d0959f7c4c3641818b95,611be18e75e63bdb129c6034,
,,,,space,0.3667,,0,63,63,21,1,J, , , , ,space,1500,1.5,611b8f8477911e3512c6757a,001,2021-08-17_17h19.49.013,natb3,2021.2.3,MacIntel,60.0024001,611b8f8477911e3512c6757a,6107d0959f7c4c3641818b95,611be18e75e63bdb129c6034,
,,,,space,0.3741,,0,64,64,217,1,T, , , , ,space,2500,2.5,611b8f8477911e3512c6757a,001,2021-08-17_17h19.49.013,natb3,2021.2.3,MacIntel,60.0024001,611b8f8477911e3512c6757a,6107d0959f7c4c3641818b95,611be18e75e63bdb129c6034,
,,,,space,0.4662,,0,65,65,198,1,H, , , , ,space,2500,2.5,611b8f8477911e3512c6757a,001,2021-08-17_17h19.49.013,natb3,2021.2.3,MacIntel,60.0024001,611b8f8477911e3512c6757a,6107d0959f7c4c3641818b95,611be18e75e63bdb129c6034,
,,,,space,0.583,,0,66,66,62,1,V, , , , ,space,1500,1.5,611b8f8477911e3512c6757a,001,2021-08-17_17h19.49.013,natb3,2021.2.3,MacIntel,60.0024001,611b8f8477911e3512c6757a,6107d0959f7c4c3641818b95,611be18e75e63bdb129c6034,
,,,,,,,0,67,67,148,1,X, , , , ,,2000,2,611b8f8477911e3512c6757a,001,2021-08-17_17h19.49.013,natb3,2021.2.3,MacIntel,60.0024001,611b8f8477911e3512c6757a,6107d0959f7c4c3641818b95,611be18e75e63bdb129c6034,
,,,,space,0.4236,,0,68,68,85,1,F, , , , ,space,2500,2.5,611b8f8477911e3512c6757a,001,2021-08-17_17h19.49.013,natb3,2021.2.3,MacIntel,60.0024001,611b8f8477911e3512c6757a,6107d0959f7c4c3641818b95,611be18e75e63bdb129c6034,
,,,,space,0.5939,,0,69,69,52,1,F, , , , ,space,1500,1.5,611b8f8477911e3512c6757a,001,2021-08-17_17h19.49.013,natb3,2021.2.3,MacIntel,60.0024001,611b8f8477911e3512c6757a,6107d0959f7c4c3641818b95,611be18e75e63bdb129c6034,
,,,,,,,0,70,70,107,1,X,9,3, ,2,,2000,2,611b8f8477911e3512c6757a,001,2021-08-17_17h19.49.013,natb3,2021.2.3,MacIntel,60.0024001,611b8f8477911e3512c6757a,6107d0959f7c4c3641818b95,611be18e75e63bdb129c6034,
,,,,space,0.4325,,0,71,71,36,1,W, , , , ,space,2000,2,611b8f8477911e3512c6757a,001,2021-08-17_17h19.49.013,natb3,2021.2.3,MacIntel,60.0024001,611b8f8477911e3512c6757a,6107d0959f7c4c3641818b95,611be18e75e63bdb129c6034,
,,,,,,,0,72,72,175,1,X,7, ,4,2,,1500,1.5,611b8f8477911e3512c6757a,001,2021-08-17_17h19.49.013,natb3,2021.2.3,MacIntel,60.0024001,611b8f8477911e3512c6757a,6107d0959f7c4c3641818b95,611be18e75e63bdb129c6034,
,,,,space,0.4501,,0,73,73,180,1,W, , , , ,space,2000,2,611b8f8477911e3512c6757a,001,2021-08-17_17h19.49.013,natb3,2021.2.3,MacIntel,60.0024001,611b8f8477911e3512c6757a,6107d0959f7c4c3641818b95,611be18e75e63bdb129c6034,
,,,,,,,0,74,74,213,1,X, , , , ,,2500,2.5,611b8f8477911e3512c6757a,001,2021-08-17_17h19.49.013,natb3,2021.2.3,MacIntel,60.0024001,611b8f8477911e3512c6757a,6107d0959f7c4c3641818b95,611be18e75e63bdb129c6034,
,,,,space,0.3968,,0,75,75,28,1,V, , , , ,space,1500,1.5,611b8f8477911e3512c6757a,001,2021-08-17_17h19.49.013,natb3,2021.2.3,MacIntel,60.0024001,611b8f8477911e3512c6757a,6107d0959f7c4c3641818b95,611be18e75e63bdb129c6034,
,,,,space,0.3659,,0,76,76,38,1,R, , , , ,space,2500,2.5,611b8f8477911e3512c6757a,001,2021-08-17_17h19.49.013,natb3,2021.2.3,MacIntel,60.0024001,611b8f8477911e3512c6757a,6107d0959f7c4c3641818b95,611be18e75e63bdb129c6034,
,,,,space,0.5148,,0,77,77,134,1,J, , , , ,space,2000,2,611b8f8477911e3512c6757a,001,2021-08-17_17h19.49.013,natb3,2021.2.3,MacIntel,60.0024001,611b8f8477911e3512c6757a,6107d0959f7c4c3641818b95,611be18e75e63bdb129c6034,
,,,,,,,0,78,78,57,1,K, , , , ,space,2500,2.5,611b8f8477911e3512c6757a,001,2021-08-17_17h19.49.013,natb3,2021.2.3,MacIntel,60.0024001,611b8f8477911e3512c6757a,6107d0959f7c4c3641818b95,611be18e75e63bdb129c6034,
,,,,space,0.4188,,0,79,79,284,1,V, , , , ,space,2500,2.5,611b8f8477911e3512c6757a,001,2021-08-17_17h19.49.013,natb3,2021.2.3,MacIntel,60.0024001,611b8f8477911e3512c6757a,6107d0959f7c4c3641818b95,611be18e75e63bdb129c6034,
,,,,space,0.4601,,0,80,80,165,1,J, , , , ,space,2500,2.5,611b8f8477911e3512c6757a,001,2021-08-17_17h19.49.013,natb3,2021.2.3,MacIntel,60.0024001,611b8f8477911e3512c6757a,6107d0959f7c4c3641818b95,611be18e75e63bdb129c6034,
,,,,space,0.3825,,0,81,81,330,1,T, , , , ,space,2500,2.5,611b8f8477911e3512c6757a,001,2021-08-17_17h19.49.013,natb3,2021.2.3,MacIntel,60.0024001,611b8f8477911e3512c6757a,6107d0959f7c4c3641818b95,611be18e75e63bdb129c6034,
,,,,space,0.6003,,0,82,82,298,1,I, , , , ,space,2000,2,611b8f8477911e3512c6757a,001,2021-08-17_17h19.49.013,natb3,2021.2.3,MacIntel,60.0024001,611b8f8477911e3512c6757a,6107d0959f7c4c3641818b95,611be18e75e63bdb129c6034,
,,,,space,0.4001,,0,83,83,332,1,U, , , , ,space,2000,2,611b8f8477911e3512c6757a,001,2021-08-17_17h19.49.013,natb3,2021.2.3,MacIntel,60.0024001,611b8f8477911e3512c6757a,6107d0959f7c4c3641818b95,611be18e75e63bdb129c6034,
,,,,space,0.3148,,0,84,84,193,1,S, , , , ,space,2500,2.5,611b8f8477911e3512c6757a,001,2021-08-17_17h19.49.013,natb3,2021.2.3,MacIntel,60.0024001,611b8f8477911e3512c6757a,6107d0959f7c4c3641818b95,611be18e75e63bdb129c6034,
,,,,space,0.4669,,0,85,85,235,1,A, , , , ,space,1500,1.5,611b8f8477911e3512c6757a,001,2021-08-17_17h19.49.013,natb3,2021.2.3,MacIntel,60.0024001,611b8f8477911e3512c6757a,6107d0959f7c4c3641818b95,611be18e75e63bdb129c6034,
,,,,space,0.3625,,0,86,86,206,1,V, , , , ,space,2000,2,611b8f8477911e3512c6757a,001,2021-08-17_17h19.49.013,natb3,2021.2.3,MacIntel,60.0024001,611b8f8477911e3512c6757a,6107d0959f7c4c3641818b95,611be18e75e63bdb129c6034,
,,,,,,,0,87,87,158,1,X, , , , ,,1500,1.5,611b8f8477911e3512c6757a,001,2021-08-17_17h19.49.013,natb3,2021.2.3,MacIntel,60.0024001,611b8f8477911e3512c6757a,6107d0959f7c4c3641818b95,611be18e75e63bdb129c6034,
,,,,space,0.4019,,0,88,88,274,1,F, , , , ,space,2000,2,611b8f8477911e3512c6757a,001,2021-08-17_17h19.49.013,natb3,2021.2.3,MacIntel,60.0024001,611b8f8477911e3512c6757a,6107d0959f7c4c3641818b95,611be18e75e63bdb129c6034,
,,,,space,0.6167,,0,89,89,307,1,F, , , , ,space,2500,2.5,611b8f8477911e3512c6757a,001,2021-08-17_17h19.49.013,natb3,2021.2.3,MacIntel,60.0024001,611b8f8477911e3512c6757a,6107d0959f7c4c3641818b95,611be18e75e63bdb129c6034,
,,,,,,,0,90,90,248,1,X, ,1,5, ,,1500,1.5,611b8f8477911e3512c6757a,001,2021-08-17_17h19.49.013,natb3,2021.2.3,MacIntel,60.0024001,611b8f8477911e3512c6757a,6107d0959f7c4c3641818b95,611be18e75e63bdb129c6034,
,,,,,,,0,91,91,140,1,B, , , , ,space,2500,2.5,611b8f8477911e3512c6757a,001,2021-08-17_17h19.49.013,natb3,2021.2.3,MacIntel,60.0024001,611b8f8477911e3512c6757a,6107d0959f7c4c3641818b95,611be18e75e63bdb129c6034,
,,,,space,0.368,,0,92,92,302,1,X, , , , ,,2000,2,611b8f8477911e3512c6757a,001,2021-08-17_17h19.49.013,natb3,2021.2.3,MacIntel,60.0024001,611b8f8477911e3512c6757a,6107d0959f7c4c3641818b95,611be18e75e63bdb129c6034,
,,,,space,0.5169,,0,93,93,178,1,Q, , , , ,space,1500,1.5,611b8f8477911e3512c6757a,001,2021-08-17_17h19.49.013,natb3,2021.2.3,MacIntel,60.0024001,611b8f8477911e3512c6757a,6107d0959f7c4c3641818b95,611be18e75e63bdb129c6034,
,,,,,,,0,94,94,236,1,X,3, ,4,7,,2500,2.5,611b8f8477911e3512c6757a,001,2021-08-17_17h19.49.013,natb3,2021.2.3,MacIntel,60.0024001,611b8f8477911e3512c6757a,6107d0959f7c4c3641818b95,611be18e75e63bdb129c6034,
,,,,,,,0,95,95,268,1,X,6, ,3, ,,2500,2.5,611b8f8477911e3512c6757a,001,2021-08-17_17h19.49.013,natb3,2021.2.3,MacIntel,60.0024001,611b8f8477911e3512c6757a,6107d0959f7c4c3641818b95,611be18e75e63bdb129c6034,
,,,,space,0.5151,,0,96,96,316,1,Z, , , , ,space,1500,1.5,611b8f8477911e3512c6757a,001,2021-08-17_17h19.49.013,natb3,2021.2.3,MacIntel,60.0024001,611b8f8477911e3512c6757a,6107d0959f7c4c3641818b95,611be18e75e63bdb129c6034,
,,,,space,0.5299,,0,97,97,250,1,V, , , , ,space,2000,2,611b8f8477911e3512c6757a,001,2021-08-17_17h19.49.013,natb3,2021.2.3,MacIntel,60.0024001,611b8f8477911e3512c6757a,6107d0959f7c4c3641818b95,611be18e75e63bdb129c6034,
,,,,,,,0,98,98,325,1,X, , , , ,,2500,2.5,611b8f8477911e3512c6757a,001,2021-08-17_17h19.49.013,natb3,2021.2.3,MacIntel,60.0024001,611b8f8477911e3512c6757a,6107d0959f7c4c3641818b95,611be18e75e63bdb129c6034,
,,,,space,0.4157,,0,99,99,324,1,Q, , , , ,space,2000,2,611b8f8477911e3512c6757a,001,2021-08-17_17h19.49.013,natb3,2021.2.3,MacIntel,60.0024001,611b8f8477911e3512c6757a,6107d0959f7c4c3641818b95,611be18e75e63bdb129c6034,
,,,,space,0.8828,,0,100,100,58,1,L, , , , ,space,2000,2,611b8f8477911e3512c6757a,001,2021-08-17_17h19.49.013,natb3,2021.2.3,MacIntel,60.0024001,611b8f8477911e3512c6757a,6107d0959f7c4c3641818b95,611be18e75e63bdb129c6034,
,,,,,,,0,101,101,69,1,X, , , , ,,1500,1.5,611b8f8477911e3512c6757a,001,2021-08-17_17h19.49.013,natb3,2021.2.3,MacIntel,60.0024001,611b8f8477911e3512c6757a,6107d0959f7c4c3641818b95,611be18e75e63bdb129c6034,
,,,,space,0.391,,0,102,102,239,1,X, , , , ,,2000,2,611b8f8477911e3512c6757a,001,2021-08-17_17h19.49.013,natb3,2021.2.3,MacIntel,60.0024001,611b8f8477911e3512c6757a,6107d0959f7c4c3641818b95,611be18e75e63bdb129c6034,
,,,,,,,0,103,103,207,1,X,9, ,2, ,,2500,2.5,611b8f8477911e3512c6757a,001,2021-08-17_17h19.49.013,natb3,2021.2.3,MacIntel,60.0024001,611b8f8477911e3512c6757a,6107d0959f7c4c3641818b95,611be18e75e63bdb129c6034,
,,,,space,0.3613,,0,104,104,104,1,E, , , , ,space,2000,2,611b8f8477911e3512c6757a,001,2021-08-17_17h19.49.013,natb3,2021.2.3,MacIntel,60.0024001,611b8f8477911e3512c6757a,6107d0959f7c4c3641818b95,611be18e75e63bdb129c6034,
,,,,space,0.7492,,0,105,105,132,1,H, , , , ,space,2500,2.5,611b8f8477911e3512c6757a,001,2021-08-17_17h19.49.013,natb3,2021.2.3,MacIntel,60.0024001,611b8f8477911e3512c6757a,6107d0959f7c4c3641818b95,611be18e75e63bdb129c6034,
,,,,,,,0,106,106,277,1,X,8,5, ,2,,2000,2,611b8f8477911e3512c6757a,001,2021-08-17_17h19.49.013,natb3,2021.2.3,MacIntel,60.0024001,611b8f8477911e3512c6757a,6107d0959f7c4c3641818b95,611be18e75e63bdb129c6034,
,,,,,,,0,107,107,12,1,X, , , , ,,1500,1.5,611b8f8477911e3512c6757a,001,2021-08-17_17h19.49.013,natb3,2021.2.3,MacIntel,60.0024001,611b8f8477911e3512c6757a,6107d0959f7c4c3641818b95,611be18e75e63bdb129c6034,
,,,,space,0.4166,,0,108,108,326,1,W, , , , ,space,2000,2,611b8f8477911e3512c6757a,001,2021-08-17_17h19.49.013,natb3,2021.2.3,MacIntel,60.0024001,611b8f8477911e3512c6757a,6107d0959f7c4c3641818b95,611be18e75e63bdb129c6034,
,,,,space,0.5499,,0,109,109,100,1,M, , , , ,space,2000,2,611b8f8477911e3512c6757a,001,2021-08-17_17h19.49.013,natb3,2021.2.3,MacIntel,60.0024001,611b8f8477911e3512c6757a,6107d0959f7c4c3641818b95,611be18e75e63bdb129c6034,
,,,,space,0.8169,,0,110,110,3,1,R, , , , ,space,2000,2,611b8f8477911e3512c6757a,001,2021-08-17_17h19.49.013,natb3,2021.2.3,MacIntel,60.0024001,611b8f8477911e3512c6757a,6107d0959f7c4c3641818b95,611be18e75e63bdb129c6034,
,,,,space,0.7166,,0,111,111,106,1,T, , , , ,space,1500,1.5,611b8f8477911e3512c6757a,001,2021-08-17_17h19.49.013,natb3,2021.2.3,MacIntel,60.0024001,611b8f8477911e3512c6757a,6107d0959f7c4c3641818b95,611be18e75e63bdb129c6034,
,,,,,,,0,112,112,65,1,M, , , , ,space,1500,1.5,611b8f8477911e3512c6757a,001,2021-08-17_17h19.49.013,natb3,2021.2.3,MacIntel,60.0024001,611b8f8477911e3512c6757a,6107d0959f7c4c3641818b95,611be18e75e63bdb129c6034,
,,,,space,0.4157,,0,113,113,124,1,P, , , , ,space,2000,2,611b8f8477911e3512c6757a,001,2021-08-17_17h19.49.013,natb3,2021.2.3,MacIntel,60.0024001,611b8f8477911e3512c6757a,6107d0959f7c4c3641818b95,611be18e75e63bdb129c6034,
,,,,space,0.3846,,0,114,114,146,1,W, , , , ,space,1500,1.5,611b8f8477911e3512c6757a,001,2021-08-17_17h19.49.013,natb3,2021.2.3,MacIntel,60.0024001,611b8f8477911e3512c6757a,6107d0959f7c4c3641818b95,611be18e75e63bdb129c6034,
,,,,space,0.3655,,0,115,115,318,1,X, , , , ,,1500,1.5,611b8f8477911e3512c6757a,001,2021-08-17_17h19.49.013,natb3,2021.2.3,MacIntel,60.0024001,611b8f8477911e3512c6757a,6107d0959f7c4c3641818b95,611be18e75e63bdb129c6034,
,,,,,,,0,116,116,271,1,X, , , , ,,2500,2.5,611b8f8477911e3512c6757a,001,2021-08-17_17h19.49.013,natb3,2021.2.3,MacIntel,60.0024001,611b8f8477911e3512c6757a,6107d0959f7c4c3641818b95,611be18e75e63bdb129c6034,
,,,,,,,0,117,117,8,1,U, , , , ,space,1500,1.5,611b8f8477911e3512c6757a,001,2021-08-17_17h19.49.013,natb3,2021.2.3,MacIntel,60.0024001,611b8f8477911e3512c6757a,6107d0959f7c4c3641818b95,611be18e75e63bdb129c6034,
,,,,,,,0,118,118,60,1,X,7,3,5, ,,1500,1.5,611b8f8477911e3512c6757a,001,2021-08-17_17h19.49.013,natb3,2021.2.3,MacIntel,60.0024001,611b8f8477911e3512c6757a,6107d0959f7c4c3641818b95,611be18e75e63bdb129c6034,
,,,,space,0.3792,,0,119,119,260,1,R, , , , ,space,2000,2,611b8f8477911e3512c6757a,001,2021-08-17_17h19.49.013,natb3,2021.2.3,MacIntel,60.0024001,611b8f8477911e3512c6757a,6107d0959f7c4c3641818b95,611be18e75e63bdb129c6034,
,,,,space,0.5303,,0,120,120,6,1,Y, , , , ,space,2500,2.5,611b8f8477911e3512c6757a,001,2021-08-17_17h19.49.013,natb3,2021.2.3,MacIntel,60.0024001,611b8f8477911e3512c6757a,6107d0959f7c4c3641818b95,611be18e75e63bdb129c6034,
,,,,space,0.4964,,0,121,121,105,1,R, , , , ,space,2500,2.5,611b8f8477911e3512c6757a,001,2021-08-17_17h19.49.013,natb3,2021.2.3,MacIntel,60.0024001,611b8f8477911e3512c6757a,6107d0959f7c4c3641818b95,611be18e75e63bdb129c6034,
,,,,space,0.4505,,0,122,122,238,1,D, , , , ,space,1500,1.5,611b8f8477911e3512c6757a,001,2021-08-17_17h19.49.013,natb3,2021.2.3,MacIntel,60.0024001,611b8f8477911e3512c6757a,6107d0959f7c4c3641818b95,611be18e75e63bdb129c6034,
,,,,space,0.4689,,0,123,123,304,1,S, , , , ,space,2000,2,611b8f8477911e3512c6757a,001,2021-08-17_17h19.49.013,natb3,2021.2.3,MacIntel,60.0024001,611b8f8477911e3512c6757a,6107d0959f7c4c3641818b95,611be18e75e63bdb129c6034,
,,,,space,0.5728,,0,124,124,76,1,I, , , , ,space,2000,2,611b8f8477911e3512c6757a,001,2021-08-17_17h19.49.013,natb3,2021.2.3,MacIntel,60.0024001,611b8f8477911e3512c6757a,6107d0959f7c4c3641818b95,611be18e75e63bdb129c6034,
,,,,space,0.4644,,0,125,125,115,1,R, , , , ,space,1500,1.5,611b8f8477911e3512c6757a,001,2021-08-17_17h19.49.013,natb3,2021.2.3,MacIntel,60.0024001,611b8f8477911e3512c6757a,6107d0959f7c4c3641818b95,611be18e75e63bdb129c6034,
,,,,space,0.3515,,0,126,126,159,1,S, , , , ,space,2500,2.5,611b8f8477911e3512c6757a,001,2021-08-17_17h19.49.013,natb3,2021.2.3,MacIntel,60.0024001,611b8f8477911e3512c6757a,6107d0959f7c4c3641818b95,611be18e75e63bdb129c6034,
,,,,space,0.4671,,0,127,127,91,1,L, , , , ,space,2000,2,611b8f8477911e3512c6757a,001,2021-08-17_17h19.49.013,natb3,2021.2.3,MacIntel,60.0024001,611b8f8477911e3512c6757a,6107d0959f7c4c3641818b95,611be18e75e63bdb129c6034,
,,,,space,0.3339,,0,128,128,9,1,I, , , , ,space,1500,1.5,611b8f8477911e3512c6757a,001,2021-08-17_17h19.49.013,natb3,2021.2.3,MacIntel,60.0024001,611b8f8477911e3512c6757a,6107d0959f7c4c3641818b95,611be18e75e63bdb129c6034,
,,,,space,0.3169,,0,129,129,257,1,W, , , , ,space,2000,2,611b8f8477911e3512c6757a,001,2021-08-17_17h19.49.013,natb3,2021.2.3,MacIntel,60.0024001,611b8f8477911e3512c6757a,6107d0959f7c4c3641818b95,611be18e75e63bdb129c6034,
,,,,space,0.3482,,0,130,130,119,1,Y, , , , ,space,2500,2.5,611b8f8477911e3512c6757a,001,2021-08-17_17h19.49.013,natb3,2021.2.3,MacIntel,60.0024001,611b8f8477911e3512c6757a,6107d0959f7c4c3641818b95,611be18e75e63bdb129c6034,
,,,,space,0.566,,0,131,131,201,1,K, , , , ,space,1500,1.5,611b8f8477911e3512c6757a,001,2021-08-17_17h19.49.013,natb3,2021.2.3,MacIntel,60.0024001,611b8f8477911e3512c6757a,6107d0959f7c4c3641818b95,611be18e75e63bdb129c6034,
,,,,space,0.507,,0,132,132,93,1,X,5, ,7, ,,2500,2.5,611b8f8477911e3512c6757a,001,2021-08-17_17h19.49.013,natb3,2021.2.3,MacIntel,60.0024001,611b8f8477911e3512c6757a,6107d0959f7c4c3641818b95,611be18e75e63bdb129c6034,
,,,,space,0.5836,,0,133,133,95,1,V, , , , ,space,1500,1.5,611b8f8477911e3512c6757a,001,2021-08-17_17h19.49.013,natb3,2021.2.3,MacIntel,60.0024001,611b8f8477911e3512c6757a,6107d0959f7c4c3641818b95,611be18e75e63bdb129c6034,
,,,,space,0.4831,,0,134,134,22,1,K, , , , ,space,2000,2,611b8f8477911e3512c6757a,001,2021-08-17_17h19.49.013,natb3,2021.2.3,MacIntel,60.0024001,611b8f8477911e3512c6757a,6107d0959f7c4c3641818b95,611be18e75e63bdb129c6034,
,,,,,,,0,135,135,54,1,X, , , , ,,2000,2,611b8f8477911e3512c6757a,001,2021-08-17_17h19.49.013,natb3,2021.2.3,MacIntel,60.0024001,611b8f8477911e3512c6757a,6107d0959f7c4c3641818b95,611be18e75e63bdb129c6034,
,,,,space,0.801,,0,136,136,249,1,C, , , , ,space,2000,2,611b8f8477911e3512c6757a,001,2021-08-17_17h19.49.013,natb3,2021.2.3,MacIntel,60.0024001,611b8f8477911e3512c6757a,6107d0959f7c4c3641818b95,611be18e75e63bdb129c6034,
,,,,space,0.3766,,0,137,137,77,1,O, , , , ,space,2000,2,611b8f8477911e3512c6757a,001,2021-08-17_17h19.49.013,natb3,2021.2.3,MacIntel,60.0024001,611b8f8477911e3512c6757a,6107d0959f7c4c3641818b95,611be18e75e63bdb129c6034,
,,,,space,0.6675,,0,138,138,313,1,X, , , , ,,2500,2.5,611b8f8477911e3512c6757a,001,2021-08-17_17h19.49.013,natb3,2021.2.3,MacIntel,60.0024001,611b8f8477911e3512c6757a,6107d0959f7c4c3641818b95,611be18e75e63bdb129c6034,
,,,,space,0.7976,,0,139,139,44,1,I, , , , ,space,2500,2.5,611b8f8477911e3512c6757a,001,2021-08-17_17h19.49.013,natb3,2021.2.3,MacIntel,60.0024001,611b8f8477911e3512c6757a,6107d0959f7c4c3641818b95,611be18e75e63bdb129c6034,
,,,,space,0.5168,,0,140,140,253,1,N, , , , ,space,2500,2.5,611b8f8477911e3512c6757a,001,2021-08-17_17h19.49.013,natb3,2021.2.3,MacIntel,60.0024001,611b8f8477911e3512c6757a,6107d0959f7c4c3641818b95,611be18e75e63bdb129c6034,
,,,,space,0.6988,,0,141,141,139,1,V, , , , ,space,2000,2,611b8f8477911e3512c6757a,001,2021-08-17_17h19.49.013,natb3,2021.2.3,MacIntel,60.0024001,611b8f8477911e3512c6757a,6107d0959f7c4c3641818b95,611be18e75e63bdb129c6034,
,,,,space,0.6489,,0,142,142,314,1,L, , , , ,space,1500,1.5,611b8f8477911e3512c6757a,001,2021-08-17_17h19.49.013,natb3,2021.2.3,MacIntel,60.0024001,611b8f8477911e3512c6757a,6107d0959f7c4c3641818b95,611be18e75e63bdb129c6034,
,,,,space,0.4595,,0,143,143,128,1,D, , , , ,space,2500,2.5,611b8f8477911e3512c6757a,001,2021-08-17_17h19.49.013,natb3,2021.2.3,MacIntel,60.0024001,611b8f8477911e3512c6757a,6107d0959f7c4c3641818b95,611be18e75e63bdb129c6034,
,,,,space,0.4171,,0,144,144,49,1,S, , , , ,space,1500,1.5,611b8f8477911e3512c6757a,001,2021-08-17_17h19.49.013,natb3,2021.2.3,MacIntel,60.0024001,611b8f8477911e3512c6757a,6107d0959f7c4c3641818b95,611be18e75e63bdb129c6034,
,,,,space,0.833,,0,145,145,177,1,M, , , , ,space,2500,2.5,611b8f8477911e3512c6757a,001,2021-08-17_17h19.49.013,natb3,2021.2.3,MacIntel,60.0024001,611b8f8477911e3512c6757a,6107d0959f7c4c3641818b95,611be18e75e63bdb129c6034,
,,,,space,0.7572,,0,146,146,205,1,C, , , , ,space,2000,2,611b8f8477911e3512c6757a,001,2021-08-17_17h19.49.013,natb3,2021.2.3,MacIntel,60.0024001,611b8f8477911e3512c6757a,6107d0959f7c4c3641818b95,611be18e75e63bdb129c6034,
,,,,space,0.4999,,0,147,147,247,1,Z, , , , ,space,1500,1.5,611b8f8477911e3512c6757a,001,2021-08-17_17h19.49.013,natb3,2021.2.3,MacIntel,60.0024001,611b8f8477911e3512c6757a,6107d0959f7c4c3641818b95,611be18e75e63bdb129c6034,
,,,,,,,0,148,148,305,1,X, , , , ,,1500,1.5,611b8f8477911e3512c6757a,001,2021-08-17_17h19.49.013,natb3,2021.2.3,MacIntel,60.0024001,611b8f8477911e3512c6757a,6107d0959f7c4c3641818b95,611be18e75e63bdb129c6034,
,,,,space,0.4016,,0,149,149,192,1,A, , , , ,space,2000,2,611b8f8477911e3512c6757a,001,2021-08-17_17h19.49.013,natb3,2021.2.3,MacIntel,60.0024001,611b8f8477911e3512c6757a,6107d0959f7c4c3641818b95,611be18e75e63bdb129c6034,
,,,,space,0.9014,,0,150,150,45,1,O, , , , ,space,2000,2,611b8f8477911e3512c6757a,001,2021-08-17_17h19.49.013,natb3,2021.2.3,MacIntel,60.0024001,611b8f8477911e3512c6757a,6107d0959f7c4c3641818b95,611be18e75e63bdb129c6034,
,,,,space,0.3755,,0,151,151,37,1,E, , , , ,space,2500,2.5,611b8f8477911e3512c6757a,001,2021-08-17_17h19.49.013,natb3,2021.2.3,MacIntel,60.0024001,611b8f8477911e3512c6757a,6107d0959f7c4c3641818b95,611be18e75e63bdb129c6034,
,,,,space,0.4066,,0,152,152,163,1,G, , , , ,space,2500,2.5,611b8f8477911e3512c6757a,001,2021-08-17_17h19.49.013,natb3,2021.2.3,MacIntel,60.0024001,611b8f8477911e3512c6757a,6107d0959f7c4c3641818b95,611be18e75e63bdb129c6034,
,,,,,,,0,153,153,39,1,X,6,2, , ,,1500,1.5,611b8f8477911e3512c6757a,001,2021-08-17_17h19.49.013,natb3,2021.2.3,MacIntel,60.0024001,611b8f8477911e3512c6757a,6107d0959f7c4c3641818b95,611be18e75e63bdb129c6034,
,,,,space,0.3831,,0,154,154,50,1,D, , , , ,space,1500,1.5,611b8f8477911e3512c6757a,001,2021-08-17_17h19.49.013,natb3,2021.2.3,MacIntel,60.0024001,611b8f8477911e3512c6757a,6107d0959f7c4c3641818b95,611be18e75e63bdb129c6034,
,,,,space,0.3323,,0,155,155,35,1,X, , , , ,,2500,2.5,611b8f8477911e3512c6757a,001,2021-08-17_17h19.49.013,natb3,2021.2.3,MacIntel,60.0024001,611b8f8477911e3512c6757a,6107d0959f7c4c3641818b95,611be18e75e63bdb129c6034,
,,,,space,0.4001,,0,156,156,240,1,F, , , , ,space,2500,2.5,611b8f8477911e3512c6757a,001,2021-08-17_17h19.49.013,natb3,2021.2.3,MacIntel,60.0024001,611b8f8477911e3512c6757a,6107d0959f7c4c3641818b95,611be18e75e63bdb129c6034,
,,,,space,0.3582,,0,157,157,234,1,P, , , , ,space,2000,2,611b8f8477911e3512c6757a,001,2021-08-17_17h19.49.013,natb3,2021.2.3,MacIntel,60.0024001,611b8f8477911e3512c6757a,6107d0959f7c4c3641818b95,611be18e75e63bdb129c6034,
,,,,space,0.3501,,0,158,158,293,1,R, , , , ,space,2500,2.5,611b8f8477911e3512c6757a,001,2021-08-17_17h19.49.013,natb3,2021.2.3,MacIntel,60.0024001,611b8f8477911e3512c6757a,6107d0959f7c4c3641818b95,611be18e75e63bdb129c6034,
,,,,space,0.4185,,0,159,159,266,1,O, , , , ,space,1500,1.5,611b8f8477911e3512c6757a,001,2021-08-17_17h19.49.013,natb3,2021.2.3,MacIntel,60.0024001,611b8f8477911e3512c6757a,6107d0959f7c4c3641818b95,611be18e75e63bdb129c6034,
,,,,,,,0,160,160,311,1,X,1,2,7,3,,2500,2.5,611b8f8477911e3512c6757a,001,2021-08-17_17h19.49.013,natb3,2021.2.3,MacIntel,60.0024001,611b8f8477911e3512c6757a,6107d0959f7c4c3641818b95,611be18e75e63bdb129c6034,
,,,,space,0.4318,,0,161,161,335,1,P,,,,,space,1500,1.5,611b8f8477911e3512c6757a,001,2021-08-17_17h19.49.013,natb3,2021.2.3,MacIntel,60.0024001,611b8f8477911e3512c6757a,6107d0959f7c4c3641818b95,611be18e75e63bdb129c6034,
,,,,,,,0,162,162,27,1,X,5, ,1,3,,1500,1.5,611b8f8477911e3512c6757a,001,2021-08-17_17h19.49.013,natb3,2021.2.3,MacIntel,60.0024001,611b8f8477911e3512c6757a,6107d0959f7c4c3641818b95,611be18e75e63bdb129c6034,
,,,,space,0.3988,,0,163,163,63,1,B, , , , ,space,2000,2,611b8f8477911e3512c6757a,001,2021-08-17_17h19.49.013,natb3,2021.2.3,MacIntel,60.0024001,611b8f8477911e3512c6757a,6107d0959f7c4c3641818b95,611be18e75e63bdb129c6034,
,,,,space,0.4667,,0,164,164,333,1,I, , , , ,space,1500,1.5,611b8f8477911e3512c6757a,001,2021-08-17_17h19.49.013,natb3,2021.2.3,MacIntel,60.0024001,611b8f8477911e3512c6757a,6107d0959f7c4c3641818b95,611be18e75e63bdb129c6034,
,,,,space,0.3823,,0,165,165,96,1,X, , , , ,,1500,1.5,611b8f8477911e3512c6757a,001,2021-08-17_17h19.49.013,natb3,2021.2.3,MacIntel,60.0024001,611b8f8477911e3512c6757a,6107d0959f7c4c3641818b95,611be18e75e63bdb129c6034,
,,,,space,0.434,,0,166,166,197,1,G, , , , ,space,2500,2.5,611b8f8477911e3512c6757a,001,2021-08-17_17h19.49.013,natb3,2021.2.3,MacIntel,60.0024001,611b8f8477911e3512c6757a,6107d0959f7c4c3641818b95,611be18e75e63bdb129c6034,
,,,,space,0.6818,space,0,167,167,184,1,T, , , , ,space,2000,2,611b8f8477911e3512c6757a,001,2021-08-17_17h19.49.013,natb3,2021.2.3,MacIntel,60.0024001,611b8f8477911e3512c6757a,6107d0959f7c4c3641818b95,611be18e75e63bdb129c6034,68.6798
,,,,space,0.9165,,0,168,168,301,1,P, , , , ,space,1500,1.5,611b8f8477911e3512c6757a,001,2021-08-17_17h19.49.013,natb3,2021.2.3,MacIntel,60.0024001,611b8f8477911e3512c6757a,6107d0959f7c4c3641818b95,611be18e75e63bdb129c6034,
,,,,space,0.5175,,0,169,169,47,1,P, , , , ,space,2000,2,611b8f8477911e3512c6757a,001,2021-08-17_17h19.49.013,natb3,2021.2.3,MacIntel,60.0024001,611b8f8477911e3512c6757a,6107d0959f7c4c3641818b95,611be18e75e63bdb129c6034,
,,,,,,,0,170,170,125,1,X, , , , ,,2000,2,611b8f8477911e3512c6757a,001,2021-08-17_17h19.49.013,natb3,2021.2.3,MacIntel,60.0024001,611b8f8477911e3512c6757a,6107d0959f7c4c3641818b95,611be18e75e63bdb129c6034,
,,,,space,0.5004,,0,171,171,258,1,E, , , , ,space,1500,1.5,611b8f8477911e3512c6757a,001,2021-08-17_17h19.49.013,natb3,2021.2.3,MacIntel,60.0024001,611b8f8477911e3512c6757a,6107d0959f7c4c3641818b95,611be18e75e63bdb129c6034,
,,,,space,0.4001,,0,172,172,186,1,U, , , , ,space,2500,2.5,611b8f8477911e3512c6757a,001,2021-08-17_17h19.49.013,natb3,2021.2.3,MacIntel,60.0024001,611b8f8477911e3512c6757a,6107d0959f7c4c3641818b95,611be18e75e63bdb129c6034,
,,,,space,0.3666,,0,173,173,13,1,A, , , , ,space,2000,2,611b8f8477911e3512c6757a,001,2021-08-17_17h19.49.013,natb3,2021.2.3,MacIntel,60.0024001,611b8f8477911e3512c6757a,6107d0959f7c4c3641818b95,611be18e75e63bdb129c6034,
,,,,space,0.3664,,0,174,174,262,1,Y, , , , ,space,2500,2.5,611b8f8477911e3512c6757a,001,2021-08-17_17h19.49.013,natb3,2021.2.3,MacIntel,60.0024001,611b8f8477911e3512c6757a,6107d0959f7c4c3641818b95,611be18e75e63bdb129c6034,
,,,,,,,0,175,175,141,1,X,1, ,4,6,,1500,1.5,611b8f8477911e3512c6757a,001,2021-08-17_17h19.49.013,natb3,2021.2.3,MacIntel,60.0024001,611b8f8477911e3512c6757a,6107d0959f7c4c3641818b95,611be18e75e63bdb129c6034,
,,,,space,0.6159,,0,176,176,131,1,G, , , , ,space,1500,1.5,611b8f8477911e3512c6757a,001,2021-08-17_17h19.49.013,natb3,2021.2.3,MacIntel,60.0024001,611b8f8477911e3512c6757a,6107d0959f7c4c3641818b95,611be18e75e63bdb129c6034,
,,,,space,0.783,,0,177,177,232,1,O, , , , ,space,2500,2.5,611b8f8477911e3512c6757a,001,2021-08-17_17h19.49.013,natb3,2021.2.3,MacIntel,60.0024001,611b8f8477911e3512c6757a,6107d0959f7c4c3641818b95,611be18e75e63bdb129c6034,
,,,,,,,0,178,178,237,1,S, , , , ,space,1500,1.5,611b8f8477911e3512c6757a,001,2021-08-17_17h19.49.013,natb3,2021.2.3,MacIntel,60.0024001,611b8f8477911e3512c6757a,6107d0959f7c4c3641818b95,611be18e75e63bdb129c6034,
,,,,space,0.4836,,0,179,179,280,1,L, , , , ,space,1500,1.5,611b8f8477911e3512c6757a,001,2021-08-17_17h19.49.013,natb3,2021.2.3,MacIntel,60.0024001,611b8f8477911e3512c6757a,6107d0959f7c4c3641818b95,611be18e75e63bdb129c6034,
,,,,,,,0,180,180,320,1,B, , , , ,space,1500,1.5,611b8f8477911e3512c6757a,001,2021-08-17_17h19.49.013,natb3,2021.2.3,MacIntel,60.0024001,611b8f8477911e3512c6757a,6107d0959f7c4c3641818b95,611be18e75e63bdb129c6034,
,,,,space,0.5022,,0,181,181,20,1,H, , , , ,space,1500,1.5,611b8f8477911e3512c6757a,001,2021-08-17_17h19.49.013,natb3,2021.2.3,MacIntel,60.0024001,611b8f8477911e3512c6757a,6107d0959f7c4c3641818b95,611be18e75e63bdb129c6034,
,,,,space,0.6691,,0,182,182,288,1,M, , , , ,space,1500,1.5,611b8f8477911e3512c6757a,001,2021-08-17_17h19.49.013,natb3,2021.2.3,MacIntel,60.0024001,611b8f8477911e3512c6757a,6107d0959f7c4c3641818b95,611be18e75e63bdb129c6034,
,,,,space,0.4336,,0,183,183,67,1,Q, , , , ,space,2000,2,611b8f8477911e3512c6757a,001,2021-08-17_17h19.49.013,natb3,2021.2.3,MacIntel,60.0024001,611b8f8477911e3512c6757a,6107d0959f7c4c3641818b95,611be18e75e63bdb129c6034,
,,,,space,0.317,,0,184,184,212,1,Q, , , , ,space,2500,2.5,611b8f8477911e3512c6757a,001,2021-08-17_17h19.49.013,natb3,2021.2.3,MacIntel,60.0024001,611b8f8477911e3512c6757a,6107d0959f7c4c3641818b95,611be18e75e63bdb129c6034,
,,,,space,0.6835,,0,185,185,167,1,K, , , , ,space,1500,1.5,611b8f8477911e3512c6757a,001,2021-08-17_17h19.49.013,natb3,2021.2.3,MacIntel,60.0024001,611b8f8477911e3512c6757a,6107d0959f7c4c3641818b95,611be18e75e63bdb129c6034,
,,,,space,0.6503,,0,186,186,87,1,H, , , , ,space,1500,1.5,611b8f8477911e3512c6757a,001,2021-08-17_17h19.49.013,natb3,2021.2.3,MacIntel,60.0024001,611b8f8477911e3512c6757a,6107d0959f7c4c3641818b95,611be18e75e63bdb129c6034,
,,,,space,0.6154,,0,187,187,321,1,N, , , , ,space,2000,2,611b8f8477911e3512c6757a,001,2021-08-17_17h19.49.013,natb3,2021.2.3,MacIntel,60.0024001,611b8f8477911e3512c6757a,6107d0959f7c4c3641818b95,611be18e75e63bdb129c6034,
,,,,space,0.4156,,0,188,188,297,1,U, , , , ,space,2000,2,611b8f8477911e3512c6757a,001,2021-08-17_17h19.49.013,natb3,2021.2.3,MacIntel,60.0024001,611b8f8477911e3512c6757a,6107d0959f7c4c3641818b95,611be18e75e63bdb129c6034,
,,,,space,0.7836,,0,189,189,228,1,Y, , , , ,space,2000,2,611b8f8477911e3512c6757a,001,2021-08-17_17h19.49.013,natb3,2021.2.3,MacIntel,60.0024001,611b8f8477911e3512c6757a,6107d0959f7c4c3641818b95,611be18e75e63bdb129c6034,
,,,,space,0.6832,,0,190,190,43,1,X, ,6, ,2,,2500,2.5,611b8f8477911e3512c6757a,001,2021-08-17_17h19.49.013,natb3,2021.2.3,MacIntel,60.0024001,611b8f8477911e3512c6757a,6107d0959f7c4c3641818b95,611be18e75e63bdb129c6034,
,,,,space,0.5832,,0,191,191,273,1,X, , , , ,,2000,2,611b8f8477911e3512c6757a,001,2021-08-17_17h19.49.013,natb3,2021.2.3,MacIntel,60.0024001,611b8f8477911e3512c6757a,6107d0959f7c4c3641818b95,611be18e75e63bdb129c6034,
,,,,space,0.5355,,0,192,192,169,1,L, , , , ,space,2500,2.5,611b8f8477911e3512c6757a,001,2021-08-17_17h19.49.013,natb3,2021.2.3,MacIntel,60.0024001,611b8f8477911e3512c6757a,6107d0959f7c4c3641818b95,611be18e75e63bdb129c6034,
,,,,space,0.3688,,0,193,193,117,1,T, , , , ,space,2500,2.5,611b8f8477911e3512c6757a,001,2021-08-17_17h19.49.013,natb3,2021.2.3,MacIntel,60.0024001,611b8f8477911e3512c6757a,6107d0959f7c4c3641818b95,611be18e75e63bdb129c6034,
,,,,space,0.3329,,0,194,194,299,1,X, , , , ,,2500,2.5,611b8f8477911e3512c6757a,001,2021-08-17_17h19.49.013,natb3,2021.2.3,MacIntel,60.0024001,611b8f8477911e3512c6757a,6107d0959f7c4c3641818b95,611be18e75e63bdb129c6034,
,,,,space,0.6499,,0,195,195,279,1,K, , , , ,space,2500,2.5,611b8f8477911e3512c6757a,001,2021-08-17_17h19.49.013,natb3,2021.2.3,MacIntel,60.0024001,611b8f8477911e3512c6757a,6107d0959f7c4c3641818b95,611be18e75e63bdb129c6034,
,,,,space,0.3326,,0,196,196,174,1,B, , , , ,space,2500,2.5,611b8f8477911e3512c6757a,001,2021-08-17_17h19.49.013,natb3,2021.2.3,MacIntel,60.0024001,611b8f8477911e3512c6757a,6107d0959f7c4c3641818b95,611be18e75e63bdb129c6034,
,,,,space,0.3633,,0,197,197,190,1,P, , , , ,space,2000,2,611b8f8477911e3512c6757a,001,2021-08-17_17h19.49.013,natb3,2021.2.3,MacIntel,60.0024001,611b8f8477911e3512c6757a,6107d0959f7c4c3641818b95,611be18e75e63bdb129c6034,
,,,,space,0.3264,,0,198,198,11,1,P, , , , ,space,2500,2.5,611b8f8477911e3512c6757a,001,2021-08-17_17h19.49.013,natb3,2021.2.3,MacIntel,60.0024001,611b8f8477911e3512c6757a,6107d0959f7c4c3641818b95,611be18e75e63bdb129c6034,
,,,,space,0.5331,,0,199,199,227,1,T, , , , ,space,1500,1.5,611b8f8477911e3512c6757a,001,2021-08-17_17h19.49.013,natb3,2021.2.3,MacIntel,60.0024001,611b8f8477911e3512c6757a,6107d0959f7c4c3641818b95,611be18e75e63bdb129c6034,
,,,,space,0.6017,,0,200,200,270,1,S, , , , ,space,1500,1.5,611b8f8477911e3512c6757a,001,2021-08-17_17h19.49.013,natb3,2021.2.3,MacIntel,60.0024001,611b8f8477911e3512c6757a,6107d0959f7c4c3641818b95,611be18e75e63bdb129c6034,
,,,,space,0.3581,,0,201,201,143,1,M, , , , ,space,2500,2.5,611b8f8477911e3512c6757a,001,2021-08-17_17h19.49.013,natb3,2021.2.3,MacIntel,60.0024001,611b8f8477911e3512c6757a,6107d0959f7c4c3641818b95,611be18e75e63bdb129c6034,
,,,,,,,0,202,202,211,1,X, , , , ,,2500,2.5,611b8f8477911e3512c6757a,001,2021-08-17_17h19.49.013,natb3,2021.2.3,MacIntel,60.0024001,611b8f8477911e3512c6757a,6107d0959f7c4c3641818b95,611be18e75e63bdb129c6034,
,,,,space,0.3985,,0,203,203,179,1,X, ,9, ,2,,1500,1.5,611b8f8477911e3512c6757a,001,2021-08-17_17h19.49.013,natb3,2021.2.3,MacIntel,60.0024001,611b8f8477911e3512c6757a,6107d0959f7c4c3641818b95,611be18e75e63bdb129c6034,
,,,,,,,0,204,204,18,1,X, ,2,5,8,,2500,2.5,611b8f8477911e3512c6757a,001,2021-08-17_17h19.49.013,natb3,2021.2.3,MacIntel,60.0024001,611b8f8477911e3512c6757a,6107d0959f7c4c3641818b95,611be18e75e63bdb129c6034,
,,,,,,,0,205,205,153,1,X,4,7, ,6,,2000,2,611b8f8477911e3512c6757a,001,2021-08-17_17h19.49.013,natb3,2021.2.3,MacIntel,60.0024001,611b8f8477911e3512c6757a,6107d0959f7c4c3641818b95,611be18e75e63bdb129c6034,
,,,,space,0.3625,,0,206,206,53,1,G, , , , ,space,2500,2.5,611b8f8477911e3512c6757a,001,2021-08-17_17h19.49.013,natb3,2021.2.3,MacIntel,60.0024001,611b8f8477911e3512c6757a,6107d0959f7c4c3641818b95,611be18e75e63bdb129c6034,
,,,,space,0.4337,,0,207,207,334,1,O, , , , ,space,1500,1.5,611b8f8477911e3512c6757a,001,2021-08-17_17h19.49.013,natb3,2021.2.3,MacIntel,60.0024001,611b8f8477911e3512c6757a,6107d0959f7c4c3641818b95,611be18e75e63bdb129c6034,
,,,,space,0.6673,,0,208,208,173,1,V, , , , ,space,1500,1.5,611b8f8477911e3512c6757a,001,2021-08-17_17h19.49.013,natb3,2021.2.3,MacIntel,60.0024001,611b8f8477911e3512c6757a,6107d0959f7c4c3641818b95,611be18e75e63bdb129c6034,
,,,,space,0.6172,,0,209,209,225,1,E, , , , ,space,2000,2,611b8f8477911e3512c6757a,001,2021-08-17_17h19.49.013,natb3,2021.2.3,MacIntel,60.0024001,611b8f8477911e3512c6757a,6107d0959f7c4c3641818b95,611be18e75e63bdb129c6034,
,,,,,,,0,210,210,7,1,X, , , , ,,1500,1.5,611b8f8477911e3512c6757a,001,2021-08-17_17h19.49.013,natb3,2021.2.3,MacIntel,60.0024001,611b8f8477911e3512c6757a,6107d0959f7c4c3641818b95,611be18e75e63bdb129c6034,
,,,,,,,0,211,211,94,1,C, , , , ,space,2000,2,611b8f8477911e3512c6757a,001,2021-08-17_17h19.49.013,natb3,2021.2.3,MacIntel,60.0024001,611b8f8477911e3512c6757a,6107d0959f7c4c3641818b95,611be18e75e63bdb129c6034,
,,,,,,,0,212,212,203,1,X, , , , ,,2500,2.5,611b8f8477911e3512c6757a,001,2021-08-17_17h19.49.013,natb3,2021.2.3,MacIntel,60.0024001,611b8f8477911e3512c6757a,6107d0959f7c4c3641818b95,611be18e75e63bdb129c6034,
,,,,space,0.6746,,0,213,213,254,1,M, , , , ,space,1500,1.5,611b8f8477911e3512c6757a,001,2021-08-17_17h19.49.013,natb3,2021.2.3,MacIntel,60.0024001,611b8f8477911e3512c6757a,6107d0959f7c4c3641818b95,611be18e75e63bdb129c6034,
,,,,space,0.3726,,0,214,214,170,1,Z, , , , ,space,2000,2,611b8f8477911e3512c6757a,001,2021-08-17_17h19.49.013,natb3,2021.2.3,MacIntel,60.0024001,611b8f8477911e3512c6757a,6107d0959f7c4c3641818b95,611be18e75e63bdb129c6034,
,,,,space,0.4,,0,215,215,241,1,G, , , , ,space,2500,2.5,611b8f8477911e3512c6757a,001,2021-08-17_17h19.49.013,natb3,2021.2.3,MacIntel,60.0024001,611b8f8477911e3512c6757a,6107d0959f7c4c3641818b95,611be18e75e63bdb129c6034,
,,,,space,0.3446,,0,216,216,118,1,X, , , , ,,2000,2,611b8f8477911e3512c6757a,001,2021-08-17_17h19.49.013,natb3,2021.2.3,MacIntel,60.0024001,611b8f8477911e3512c6757a,6107d0959f7c4c3641818b95,611be18e75e63bdb129c6034,
,,,,space,0.6576,,0,217,217,244,1,J, , , , ,space,1500,1.5,611b8f8477911e3512c6757a,001,2021-08-17_17h19.49.013,natb3,2021.2.3,MacIntel,60.0024001,611b8f8477911e3512c6757a,6107d0959f7c4c3641818b95,611be18e75e63bdb129c6034,
,,,,,,,0,218,218,243,1,X, , , , ,,2500,2.5,611b8f8477911e3512c6757a,001,2021-08-17_17h19.49.013,natb3,2021.2.3,MacIntel,60.0024001,611b8f8477911e3512c6757a,6107d0959f7c4c3641818b95,611be18e75e63bdb129c6034,
,,,,space,0.5156,,0,219,219,303,1,A, , , , ,space,2000,2,611b8f8477911e3512c6757a,001,2021-08-17_17h19.49.013,natb3,2021.2.3,MacIntel,60.0024001,611b8f8477911e3512c6757a,6107d0959f7c4c3641818b95,611be18e75e63bdb129c6034,
,,,,space,0.4668,,0,220,220,317,1,C, , , , ,space,2000,2,611b8f8477911e3512c6757a,001,2021-08-17_17h19.49.013,natb3,2021.2.3,MacIntel,60.0024001,611b8f8477911e3512c6757a,6107d0959f7c4c3641818b95,611be18e75e63bdb129c6034,
,,,,space,0.6796,,0,221,221,220,1,U, , , , ,space,2500,2.5,611b8f8477911e3512c6757a,001,2021-08-17_17h19.49.013,natb3,2021.2.3,MacIntel,60.0024001,611b8f8477911e3512c6757a,6107d0959f7c4c3641818b95,611be18e75e63bdb129c6034,
,,,,,,,0,222,222,111,1,O, , , , ,space,2000,2,611b8f8477911e3512c6757a,001,2021-08-17_17h19.49.013,natb3,2021.2.3,MacIntel,60.0024001,611b8f8477911e3512c6757a,6107d0959f7c4c3641818b95,611be18e75e63bdb129c6034,
,,,,space,0.4181,,0,223,223,272,1,D, , , , ,space,2000,2,611b8f8477911e3512c6757a,001,2021-08-17_17h19.49.013,natb3,2021.2.3,MacIntel,60.0024001,611b8f8477911e3512c6757a,6107d0959f7c4c3641818b95,611be18e75e63bdb129c6034,
,,,,space,0.3991,,0,224,224,168,1,X, , , , ,,2500,2.5,611b8f8477911e3512c6757a,001,2021-08-17_17h19.49.013,natb3,2021.2.3,MacIntel,60.0024001,611b8f8477911e3512c6757a,6107d0959f7c4c3641818b95,611be18e75e63bdb129c6034,
,,,,space,0.4849,,0,225,225,108,1,Y, , , , ,space,2500,2.5,611b8f8477911e3512c6757a,001,2021-08-17_17h19.49.013,natb3,2021.2.3,MacIntel,60.0024001,611b8f8477911e3512c6757a,6107d0959f7c4c3641818b95,611be18e75e63bdb129c6034,
,,,,space,0.9329,,0,226,226,281,1,Z, , , , ,space,1500,1.5,611b8f8477911e3512c6757a,001,2021-08-17_17h19.49.013,natb3,2021.2.3,MacIntel,60.0024001,611b8f8477911e3512c6757a,6107d0959f7c4c3641818b95,611be18e75e63bdb129c6034,
,,,,space,0.724,,0,227,227,185,1,Y, , , , ,space,2500,2.5,611b8f8477911e3512c6757a,001,2021-08-17_17h19.49.013,natb3,2021.2.3,MacIntel,60.0024001,611b8f8477911e3512c6757a,6107d0959f7c4c3641818b95,611be18e75e63bdb129c6034,
,,,,space,0.44,,0,228,228,224,1,W, , , , ,space,1500,1.5,611b8f8477911e3512c6757a,001,2021-08-17_17h19.49.013,natb3,2021.2.3,MacIntel,60.0024001,611b8f8477911e3512c6757a,6107d0959f7c4c3641818b95,611be18e75e63bdb129c6034,
,,,,space,0.3689,,0,229,229,276,1,H, , , , ,space,2000,2,611b8f8477911e3512c6757a,001,2021-08-17_17h19.49.013,natb3,2021.2.3,MacIntel,60.0024001,611b8f8477911e3512c6757a,6107d0959f7c4c3641818b95,611be18e75e63bdb129c6034,
,,,,,,,0,230,230,74,1,X, ,4,3,2,,1500,1.5,611b8f8477911e3512c6757a,001,2021-08-17_17h19.49.013,natb3,2021.2.3,MacIntel,60.0024001,611b8f8477911e3512c6757a,6107d0959f7c4c3641818b95,611be18e75e63bdb129c6034,
,,,,,,,0,231,231,133,1,X, ,4, ,6,,2500,2.5,611b8f8477911e3512c6757a,001,2021-08-17_17h19.49.013,natb3,2021.2.3,MacIntel,60.0024001,611b8f8477911e3512c6757a,6107d0959f7c4c3641818b95,611be18e75e63bdb129c6034,
,,,,space,0.4152,,0,232,232,30,1,N, , , , ,space,2500,2.5,611b8f8477911e3512c6757a,001,2021-08-17_17h19.49.013,natb3,2021.2.3,MacIntel,60.0024001,611b8f8477911e3512c6757a,6107d0959f7c4c3641818b95,611be18e75e63bdb129c6034,
,,,,space,0.4658,,0,233,233,164,1,H, , , , ,space,2500,2.5,611b8f8477911e3512c6757a,001,2021-08-17_17h19.49.013,natb3,2021.2.3,MacIntel,60.0024001,611b8f8477911e3512c6757a,6107d0959f7c4c3641818b95,611be18e75e63bdb129c6034,
,,,,space,0.8003,,0,234,234,19,1,G, , , , ,space,1500,1.5,611b8f8477911e3512c6757a,001,2021-08-17_17h19.49.013,natb3,2021.2.3,MacIntel,60.0024001,611b8f8477911e3512c6757a,6107d0959f7c4c3641818b95,611be18e75e63bdb129c6034,
,,,,space,0.3991,,0,235,235,329,1,X,3,4, ,2,,2500,2.5,611b8f8477911e3512c6757a,001,2021-08-17_17h19.49.013,natb3,2021.2.3,MacIntel,60.0024001,611b8f8477911e3512c6757a,6107d0959f7c4c3641818b95,611be18e75e63bdb129c6034,
,,,,space,0.5885,,0,236,236,68,1,W, , , , ,space,2500,2.5,611b8f8477911e3512c6757a,001,2021-08-17_17h19.49.013,natb3,2021.2.3,MacIntel,60.0024001,611b8f8477911e3512c6757a,6107d0959f7c4c3641818b95,611be18e75e63bdb129c6034,
,,,,space,0.7003,,0,237,237,156,1,P, , , , ,space,1500,1.5,611b8f8477911e3512c6757a,001,2021-08-17_17h19.49.013,natb3,2021.2.3,MacIntel,60.0024001,611b8f8477911e3512c6757a,6107d0959f7c4c3641818b95,611be18e75e63bdb129c6034,
,,,,space,0.5574,,0,238,238,42,1,U, , , , ,space,1500,1.5,611b8f8477911e3512c6757a,001,2021-08-17_17h19.49.013,natb3,2021.2.3,MacIntel,60.0024001,611b8f8477911e3512c6757a,6107d0959f7c4c3641818b95,611be18e75e63bdb129c6034,
,,,,,,,0,239,239,295,1,X,8,7,5, ,,2500,2.5,611b8f8477911e3512c6757a,001,2021-08-17_17h19.49.013,natb3,2021.2.3,MacIntel,60.0024001,611b8f8477911e3512c6757a,6107d0959f7c4c3641818b95,611be18e75e63bdb129c6034,
,,,,space,0.383,,0,240,240,219,1,Y, , , , ,space,2000,2,611b8f8477911e3512c6757a,001,2021-08-17_17h19.49.013,natb3,2021.2.3,MacIntel,60.0024001,611b8f8477911e3512c6757a,6107d0959f7c4c3641818b95,611be18e75e63bdb129c6034,
,,,,,,,0,241,241,233,1,X, ,2, ,5,,1500,1.5,611b8f8477911e3512c6757a,001,2021-08-17_17h19.49.013,natb3,2021.2.3,MacIntel,60.0024001,611b8f8477911e3512c6757a,6107d0959f7c4c3641818b95,611be18e75e63bdb129c6034,
,,,,,,,0,242,242,152,1,U, , , , ,space,2000,2,611b8f8477911e3512c6757a,001,2021-08-17_17h19.49.013,natb3,2021.2.3,MacIntel,60.0024001,611b8f8477911e3512c6757a,6107d0959f7c4c3641818b95,611be18e75e63bdb129c6034,
,,,,,,,0,243,243,66,1,X, ,4,7, ,,2000,2,611b8f8477911e3512c6757a,001,2021-08-17_17h19.49.013,natb3,2021.2.3,MacIntel,60.0024001,611b8f8477911e3512c6757a,6107d0959f7c4c3641818b95,611be18e75e63bdb129c6034,
,,,,space,0.4723,,0,244,244,86,1,G, , , , ,space,2000,2,611b8f8477911e3512c6757a,001,2021-08-17_17h19.49.013,natb3,2021.2.3,MacIntel,60.0024001,611b8f8477911e3512c6757a,6107d0959f7c4c3641818b95,611be18e75e63bdb129c6034,
,,,,space,0.6168,,0,245,245,149,1,R, , , , ,space,2000,2,611b8f8477911e3512c6757a,001,2021-08-17_17h19.49.013,natb3,2021.2.3,MacIntel,60.0024001,611b8f8477911e3512c6757a,6107d0959f7c4c3641818b95,611be18e75e63bdb129c6034,
,,,,space,0.8176,,0,246,246,135,1,K, , , , ,space,1500,1.5,611b8f8477911e3512c6757a,001,2021-08-17_17h19.49.013,natb3,2021.2.3,MacIntel,60.0024001,611b8f8477911e3512c6757a,6107d0959f7c4c3641818b95,611be18e75e63bdb129c6034,
,,,,space,0.5347,,0,247,247,16,1,D, , , , ,space,1500,1.5,611b8f8477911e3512c6757a,001,2021-08-17_17h19.49.013,natb3,2021.2.3,MacIntel,60.0024001,611b8f8477911e3512c6757a,6107d0959f7c4c3641818b95,611be18e75e63bdb129c6034,
,,,,space,0.3731,,0,248,248,71,1,R, , , , ,space,2500,2.5,611b8f8477911e3512c6757a,001,2021-08-17_17h19.49.013,natb3,2021.2.3,MacIntel,60.0024001,611b8f8477911e3512c6757a,6107d0959f7c4c3641818b95,611be18e75e63bdb129c6034,
,,,,space,0.9574,,0,249,249,78,1,X, , , , ,,2000,2,611b8f8477911e3512c6757a,001,2021-08-17_17h19.49.013,natb3,2021.2.3,MacIntel,60.0024001,611b8f8477911e3512c6757a,6107d0959f7c4c3641818b95,611be18e75e63bdb129c6034,
,,,,space,0.7739,,0,250,250,194,1,D, , , , ,space,2000,2,611b8f8477911e3512c6757a,001,2021-08-17_17h19.49.013,natb3,2021.2.3,MacIntel,60.0024001,611b8f8477911e3512c6757a,6107d0959f7c4c3641818b95,611be18e75e63bdb129c6034,
,,,,,,,0,251,251,110,1,I, , , , ,space,1500,1.5,611b8f8477911e3512c6757a,001,2021-08-17_17h19.49.013,natb3,2021.2.3,MacIntel,60.0024001,611b8f8477911e3512c6757a,6107d0959f7c4c3641818b95,611be18e75e63bdb129c6034,
,,,,space,0.866,,0,252,252,210,1,M, , , , ,space,1500,1.5,611b8f8477911e3512c6757a,001,2021-08-17_17h19.49.013,natb3,2021.2.3,MacIntel,60.0024001,611b8f8477911e3512c6757a,6107d0959f7c4c3641818b95,611be18e75e63bdb129c6034,
,,,,,,,0,253,253,84,1,X, , , , ,,2000,2,611b8f8477911e3512c6757a,001,2021-08-17_17h19.49.013,natb3,2021.2.3,MacIntel,60.0024001,611b8f8477911e3512c6757a,6107d0959f7c4c3641818b95,611be18e75e63bdb129c6034,
,,,,space,0.9515,,0,254,254,55,1,H, , , , ,space,2500,2.5,611b8f8477911e3512c6757a,001,2021-08-17_17h19.49.013,natb3,2021.2.3,MacIntel,60.0024001,611b8f8477911e3512c6757a,6107d0959f7c4c3641818b95,611be18e75e63bdb129c6034,
,,,,space,0.3673,,0,255,255,312,1,K, , , , ,space,2000,2,611b8f8477911e3512c6757a,001,2021-08-17_17h19.49.013,natb3,2021.2.3,MacIntel,60.0024001,611b8f8477911e3512c6757a,6107d0959f7c4c3641818b95,611be18e75e63bdb129c6034,
,,,,space,0.667,,0,256,256,48,1,A, , , , ,space,2500,2.5,611b8f8477911e3512c6757a,001,2021-08-17_17h19.49.013,natb3,2021.2.3,MacIntel,60.0024001,611b8f8477911e3512c6757a,6107d0959f7c4c3641818b95,611be18e75e63bdb129c6034,
,,,,space,0.4685,,0,257,257,214,1,W, , , , ,space,2000,2,611b8f8477911e3512c6757a,001,2021-08-17_17h19.49.013,natb3,2021.2.3,MacIntel,60.0024001,611b8f8477911e3512c6757a,6107d0959f7c4c3641818b95,611be18e75e63bdb129c6034,
,,,,space,0.3607,,0,258,258,61,1,C, , , , ,space,2000,2,611b8f8477911e3512c6757a,001,2021-08-17_17h19.49.013,natb3,2021.2.3,MacIntel,60.0024001,611b8f8477911e3512c6757a,6107d0959f7c4c3641818b95,611be18e75e63bdb129c6034,
,,,,space,0.4975,,0,259,259,102,1,X, ,6, , ,,1500,1.5,611b8f8477911e3512c6757a,001,2021-08-17_17h19.49.013,natb3,2021.2.3,MacIntel,60.0024001,611b8f8477911e3512c6757a,6107d0959f7c4c3641818b95,611be18e75e63bdb129c6034,
,,,,space,0.4167,,0,260,260,223,1,Q, , , , ,space,2000,2,611b8f8477911e3512c6757a,001,2021-08-17_17h19.49.013,natb3,2021.2.3,MacIntel,60.0024001,611b8f8477911e3512c6757a,6107d0959f7c4c3641818b95,611be18e75e63bdb129c6034,
,,,,space,0.4329,,0,261,261,275,1,G, , , , ,space,1500,1.5,611b8f8477911e3512c6757a,001,2021-08-17_17h19.49.013,natb3,2021.2.3,MacIntel,60.0024001,611b8f8477911e3512c6757a,6107d0959f7c4c3641818b95,611be18e75e63bdb129c6034,
,,,,,,,0,262,262,252,1,X,3, ,6,9,,2000,2,611b8f8477911e3512c6757a,001,2021-08-17_17h19.49.013,natb3,2021.2.3,MacIntel,60.0024001,611b8f8477911e3512c6757a,6107d0959f7c4c3641818b95,611be18e75e63bdb129c6034,
,,,,space,0.4321,,0,263,263,309,1,H, , , , ,space,2500,2.5,611b8f8477911e3512c6757a,001,2021-08-17_17h19.49.013,natb3,2021.2.3,MacIntel,60.0024001,611b8f8477911e3512c6757a,6107d0959f7c4c3641818b95,611be18e75e63bdb129c6034,
,,,,space,0.4241,,0,264,264,278,1,J, , , , ,space,2000,2,611b8f8477911e3512c6757a,001,2021-08-17_17h19.49.013,natb3,2021.2.3,MacIntel,60.0024001,611b8f8477911e3512c6757a,6107d0959f7c4c3641818b95,611be18e75e63bdb129c6034,
,,,,,,,0,265,265,286,1,N, , , , ,space,1500,1.5,611b8f8477911e3512c6757a,001,2021-08-17_17h19.49.013,natb3,2021.2.3,MacIntel,60.0024001,611b8f8477911e3512c6757a,6107d0959f7c4c3641818b95,611be18e75e63bdb129c6034,
,,,,space,0.4494,,0,266,266,138,1,X,8,5, ,3,,2000,2,611b8f8477911e3512c6757a,001,2021-08-17_17h19.49.013,natb3,2021.2.3,MacIntel,60.0024001,611b8f8477911e3512c6757a,6107d0959f7c4c3641818b95,611be18e75e63bdb129c6034,
,,,,,,,0,267,267,245,1,K, , , , ,space,2000,2,611b8f8477911e3512c6757a,001,2021-08-17_17h19.49.013,natb3,2021.2.3,MacIntel,60.0024001,611b8f8477911e3512c6757a,6107d0959f7c4c3641818b95,611be18e75e63bdb129c6034,
,,,,space,0.3593,,0,268,268,31,1,X, , , , ,,1500,1.5,611b8f8477911e3512c6757a,001,2021-08-17_17h19.49.013,natb3,2021.2.3,MacIntel,60.0024001,611b8f8477911e3512c6757a,6107d0959f7c4c3641818b95,611be18e75e63bdb129c6034,
,,,,space,0.5014,,0,269,269,120,1,U, , , , ,space,1500,1.5,611b8f8477911e3512c6757a,001,2021-08-17_17h19.49.013,natb3,2021.2.3,MacIntel,60.0024001,611b8f8477911e3512c6757a,6107d0959f7c4c3641818b95,611be18e75e63bdb129c6034,
,,,,space,0.9171,,0,270,270,204,1,Z, , , , ,space,2000,2,611b8f8477911e3512c6757a,001,2021-08-17_17h19.49.013,natb3,2021.2.3,MacIntel,60.0024001,611b8f8477911e3512c6757a,6107d0959f7c4c3641818b95,611be18e75e63bdb129c6034,
,,,,,,,0,271,271,23,1,X,1, ,5, ,,2000,2,611b8f8477911e3512c6757a,001,2021-08-17_17h19.49.013,natb3,2021.2.3,MacIntel,60.0024001,611b8f8477911e3512c6757a,6107d0959f7c4c3641818b95,611be18e75e63bdb129c6034,
,,,,space,0.6741,,0,272,272,17,1,F, , , , ,space,2500,2.5,611b8f8477911e3512c6757a,001,2021-08-17_17h19.49.013,natb3,2021.2.3,MacIntel,60.0024001,611b8f8477911e3512c6757a,6107d0959f7c4c3641818b95,611be18e75e63bdb129c6034,
,,,,,,,0,273,273,195,1,X, , , , ,,1500,1.5,611b8f8477911e3512c6757a,001,2021-08-17_17h19.49.013,natb3,2021.2.3,MacIntel,60.0024001,611b8f8477911e3512c6757a,6107d0959f7c4c3641818b95,611be18e75e63bdb129c6034,
,,,,space,0.4428,,0,274,274,269,1,A, , , , ,space,2500,2.5,611b8f8477911e3512c6757a,001,2021-08-17_17h19.49.013,natb3,2021.2.3,MacIntel,60.0024001,611b8f8477911e3512c6757a,6107d0959f7c4c3641818b95,611be18e75e63bdb129c6034,
,,,,space,0.3499,,0,275,275,26,1,C, , , , ,space,2000,2,611b8f8477911e3512c6757a,001,2021-08-17_17h19.49.013,natb3,2021.2.3,MacIntel,60.0024001,611b8f8477911e3512c6757a,6107d0959f7c4c3641818b95,611be18e75e63bdb129c6034,
,,,,,,,0,276,276,51,1,X,7,5,8, ,,1500,1.5,611b8f8477911e3512c6757a,001,2021-08-17_17h19.49.013,natb3,2021.2.3,MacIntel,60.0024001,611b8f8477911e3512c6757a,6107d0959f7c4c3641818b95,611be18e75e63bdb129c6034,
,,,,space,0.3489,,0,277,277,154,1,I, , , , ,space,2500,2.5,611b8f8477911e3512c6757a,001,2021-08-17_17h19.49.013,natb3,2021.2.3,MacIntel,60.0024001,611b8f8477911e3512c6757a,6107d0959f7c4c3641818b95,611be18e75e63bdb129c6034,
,,,,,,,0,278,278,82,1,X,4,6,1,7,,2000,2,611b8f8477911e3512c6757a,001,2021-08-17_17h19.49.013,natb3,2021.2.3,MacIntel,60.0024001,611b8f8477911e3512c6757a,6107d0959f7c4c3641818b95,611be18e75e63bdb129c6034,
,,,,,,,0,279,279,137,1,C, , , , ,space,2500,2.5,611b8f8477911e3512c6757a,001,2021-08-17_17h19.49.013,natb3,2021.2.3,MacIntel,60.0024001,611b8f8477911e3512c6757a,6107d0959f7c4c3641818b95,611be18e75e63bdb129c6034,
,,,,space,0.4347,,0,280,280,1,1,W, , , , ,space,2000,2,611b8f8477911e3512c6757a,001,2021-08-17_17h19.49.013,natb3,2021.2.3,MacIntel,60.0024001,611b8f8477911e3512c6757a,6107d0959f7c4c3641818b95,611be18e75e63bdb129c6034,
,,,,space,0.4814,,0,281,281,323,1,M, , , , ,space,2500,2.5,611b8f8477911e3512c6757a,001,2021-08-17_17h19.49.013,natb3,2021.2.3,MacIntel,60.0024001,611b8f8477911e3512c6757a,6107d0959f7c4c3641818b95,611be18e75e63bdb129c6034,
,,,,space,0.4501,,0,282,282,72,1,T, , , , ,space,1500,1.5,611b8f8477911e3512c6757a,001,2021-08-17_17h19.49.013,natb3,2021.2.3,MacIntel,60.0024001,611b8f8477911e3512c6757a,6107d0959f7c4c3641818b95,611be18e75e63bdb129c6034,
,,,,space,0.3742,,0,283,283,73,1,Y, , , , ,space,2000,2,611b8f8477911e3512c6757a,001,2021-08-17_17h19.49.013,natb3,2021.2.3,MacIntel,60.0024001,611b8f8477911e3512c6757a,6107d0959f7c4c3641818b95,611be18e75e63bdb129c6034,
,,,,space,0.4512,,0,284,284,123,1,O, , , , ,space,1500,1.5,611b8f8477911e3512c6757a,001,2021-08-17_17h19.49.013,natb3,2021.2.3,MacIntel,60.0024001,611b8f8477911e3512c6757a,6107d0959f7c4c3641818b95,611be18e75e63bdb129c6034,
,,,,space,0.3829,,0,285,285,246,1,L, , , , ,space,2500,2.5,611b8f8477911e3512c6757a,001,2021-08-17_17h19.49.013,natb3,2021.2.3,MacIntel,60.0024001,611b8f8477911e3512c6757a,6107d0959f7c4c3641818b95,611be18e75e63bdb129c6034,
,,,,space,0.367,,0,286,286,199,1,J, , , , ,space,2500,2.5,611b8f8477911e3512c6757a,001,2021-08-17_17h19.49.013,natb3,2021.2.3,MacIntel,60.0024001,611b8f8477911e3512c6757a,6107d0959f7c4c3641818b95,611be18e75e63bdb129c6034,
,,,,space,0.3769,,0,287,287,126,1,A, , , , ,space,2500,2.5,611b8f8477911e3512c6757a,001,2021-08-17_17h19.49.013,natb3,2021.2.3,MacIntel,60.0024001,611b8f8477911e3512c6757a,6107d0959f7c4c3641818b95,611be18e75e63bdb129c6034,
,,,,space,0.3769,,0,288,288,157,1,A, , , , ,space,2500,2.5,611b8f8477911e3512c6757a,001,2021-08-17_17h19.49.013,natb3,2021.2.3,MacIntel,60.0024001,611b8f8477911e3512c6757a,6107d0959f7c4c3641818b95,611be18e75e63bdb129c6034,
,,,,space,0.6329,,0,289,289,181,1,E, , , , ,space,1500,1.5,611b8f8477911e3512c6757a,001,2021-08-17_17h19.49.013,natb3,2021.2.3,MacIntel,60.0024001,611b8f8477911e3512c6757a,6107d0959f7c4c3641818b95,611be18e75e63bdb129c6034,
,,,,space,0.5396,,0,290,290,59,1,Z, , , , ,space,2000,2,611b8f8477911e3512c6757a,001,2021-08-17_17h19.49.013,natb3,2021.2.3,MacIntel,60.0024001,611b8f8477911e3512c6757a,6107d0959f7c4c3641818b95,611be18e75e63bdb129c6034,
,,,,space,0.6252,,0,291,291,291,1,X, , , , ,,2000,2,611b8f8477911e3512c6757a,001,2021-08-17_17h19.49.013,natb3,2021.2.3,MacIntel,60.0024001,611b8f8477911e3512c6757a,6107d0959f7c4c3641818b95,611be18e75e63bdb129c6034,
,,,,space,0.4441,,0,292,292,34,1,Q, , , , ,space,2500,2.5,611b8f8477911e3512c6757a,001,2021-08-17_17h19.49.013,natb3,2021.2.3,MacIntel,60.0024001,611b8f8477911e3512c6757a,6107d0959f7c4c3641818b95,611be18e75e63bdb129c6034,
,,,,space,0.3739,,0,293,293,171,1,X, , , , ,,1500,1.5,611b8f8477911e3512c6757a,001,2021-08-17_17h19.49.013,natb3,2021.2.3,MacIntel,60.0024001,611b8f8477911e3512c6757a,6107d0959f7c4c3641818b95,611be18e75e63bdb129c6034,
,,,,space,0.4834,,0,294,294,310,1,J, , , , ,space,2500,2.5,611b8f8477911e3512c6757a,001,2021-08-17_17h19.49.013,natb3,2021.2.3,MacIntel,60.0024001,611b8f8477911e3512c6757a,6107d0959f7c4c3641818b95,611be18e75e63bdb129c6034,
,,,,space,0.818,,0,295,295,230,1,U, , , , ,space,1500,1.5,611b8f8477911e3512c6757a,001,2021-08-17_17h19.49.013,natb3,2021.2.3,MacIntel,60.0024001,611b8f8477911e3512c6757a,6107d0959f7c4c3641818b95,611be18e75e63bdb129c6034,
,,,,space,0.4329,,0,296,296,251,1,B, , , , ,space,1500,1.5,611b8f8477911e3512c6757a,001,2021-08-17_17h19.49.013,natb3,2021.2.3,MacIntel,60.0024001,611b8f8477911e3512c6757a,6107d0959f7c4c3641818b95,611be18e75e63bdb129c6034,
,,,,space,0.5018,,0,297,297,90,1,K, , , , ,space,2000,2,611b8f8477911e3512c6757a,001,2021-08-17_17h19.49.013,natb3,2021.2.3,MacIntel,60.0024001,611b8f8477911e3512c6757a,6107d0959f7c4c3641818b95,611be18e75e63bdb129c6034,
,,,,space,0.512,,0,298,298,208,1,B, , , , ,space,1500,1.5,611b8f8477911e3512c6757a,001,2021-08-17_17h19.49.013,natb3,2021.2.3,MacIntel,60.0024001,611b8f8477911e3512c6757a,6107d0959f7c4c3641818b95,611be18e75e63bdb129c6034,
,,,,,,,0,299,299,287,1,X, ,2, ,9,,2000,2,611b8f8477911e3512c6757a,001,2021-08-17_17h19.49.013,natb3,2021.2.3,MacIntel,60.0024001,611b8f8477911e3512c6757a,6107d0959f7c4c3641818b95,611be18e75e63bdb129c6034,
,,,,space,0.3645,,0,300,300,129,1,X,2,3,5, ,,1500,1.5,611b8f8477911e3512c6757a,001,2021-08-17_17h19.49.013,natb3,2021.2.3,MacIntel,60.0024001,611b8f8477911e3512c6757a,6107d0959f7c4c3641818b95,611be18e75e63bdb129c6034,
,,,,space,0.4325,,0,301,301,319,1,V, , , , ,space,2000,2,611b8f8477911e3512c6757a,001,2021-08-17_17h19.49.013,natb3,2021.2.3,MacIntel,60.0024001,611b8f8477911e3512c6757a,6107d0959f7c4c3641818b95,611be18e75e63bdb129c6034,
,,,,,,,0,302,302,183,1,R, , , , ,space,1500,1.5,611b8f8477911e3512c6757a,001,2021-08-17_17h19.49.013,natb3,2021.2.3,MacIntel,60.0024001,611b8f8477911e3512c6757a,6107d0959f7c4c3641818b95,611be18e75e63bdb129c6034,
,,,,space,0.3919,,0,303,303,188,1,I, , , , ,space,2500,2.5,611b8f8477911e3512c6757a,001,2021-08-17_17h19.49.013,natb3,2021.2.3,MacIntel,60.0024001,611b8f8477911e3512c6757a,6107d0959f7c4c3641818b95,611be18e75e63bdb129c6034,
,,,,space,0.8449,,0,304,304,2,1,E, , , , ,space,2500,2.5,611b8f8477911e3512c6757a,001,2021-08-17_17h19.49.013,natb3,2021.2.3,MacIntel,60.0024001,611b8f8477911e3512c6757a,6107d0959f7c4c3641818b95,611be18e75e63bdb129c6034,
,,,,space,0.3798,,0,305,305,83,1,D, , , , ,space,2000,2,611b8f8477911e3512c6757a,001,2021-08-17_17h19.49.013,natb3,2021.2.3,MacIntel,60.0024001,611b8f8477911e3512c6757a,6107d0959f7c4c3641818b95,611be18e75e63bdb129c6034,
,,,,space,0.4169,,0,306,306,0,1,Q, , , , ,space,1500,1.5,611b8f8477911e3512c6757a,001,2021-08-17_17h19.49.013,natb3,2021.2.3,MacIntel,60.0024001,611b8f8477911e3512c6757a,6107d0959f7c4c3641818b95,611be18e75e63bdb129c6034,
,,,,space,0.3835,,0,307,307,189,1,O, , , , ,space,1500,1.5,611b8f8477911e3512c6757a,001,2021-08-17_17h19.49.013,natb3,2021.2.3,MacIntel,60.0024001,611b8f8477911e3512c6757a,6107d0959f7c4c3641818b95,611be18e75e63bdb129c6034,
,,,,,,,0,308,308,259,1,X,8, , ,3,,2500,2.5,611b8f8477911e3512c6757a,001,2021-08-17_17h19.49.013,natb3,2021.2.3,MacIntel,60.0024001,611b8f8477911e3512c6757a,6107d0959f7c4c3641818b95,611be18e75e63bdb129c6034,
,,,,space,0.433,,0,309,309,89,1,X,3, , , ,,2000,2,611b8f8477911e3512c6757a,001,2021-08-17_17h19.49.013,natb3,2021.2.3,MacIntel,60.0024001,611b8f8477911e3512c6757a,6107d0959f7c4c3641818b95,611be18e75e63bdb129c6034,
,,,,,,,0,310,310,285,1,B, , , , ,space,1500,1.5,611b8f8477911e3512c6757a,001,2021-08-17_17h19.49.013,natb3,2021.2.3,MacIntel,60.0024001,611b8f8477911e3512c6757a,6107d0959f7c4c3641818b95,611be18e75e63bdb129c6034,
,,,,space,0.7497,,0,311,311,327,1,E, , , , ,space,1500,1.5,611b8f8477911e3512c6757a,001,2021-08-17_17h19.49.013,natb3,2021.2.3,MacIntel,60.0024001,611b8f8477911e3512c6757a,6107d0959f7c4c3641818b95,611be18e75e63bdb129c6034,
,,,,space,0.4266,,0,312,312,289,1,Q, , , , ,space,2000,2,611b8f8477911e3512c6757a,001,2021-08-17_17h19.49.013,natb3,2021.2.3,MacIntel,60.0024001,611b8f8477911e3512c6757a,6107d0959f7c4c3641818b95,611be18e75e63bdb129c6034,
,,,,,,,0,313,313,15,1,X, , , , ,,1500,1.5,611b8f8477911e3512c6757a,001,2021-08-17_17h19.49.013,natb3,2021.2.3,MacIntel,60.0024001,611b8f8477911e3512c6757a,6107d0959f7c4c3641818b95,611be18e75e63bdb129c6034,
,,,,space,0.4161,,0,314,314,294,1,T, , , , ,space,2000,2,611b8f8477911e3512c6757a,001,2021-08-17_17h19.49.013,natb3,2021.2.3,MacIntel,60.0024001,611b8f8477911e3512c6757a,6107d0959f7c4c3641818b95,611be18e75e63bdb129c6034,
,,,,,,,0,315,315,261,1,T, , , , ,space,2000,2,611b8f8477911e3512c6757a,001,2021-08-17_17h19.49.013,natb3,2021.2.3,MacIntel,60.0024001,611b8f8477911e3512c6757a,6107d0959f7c4c3641818b95,611be18e75e63bdb129c6034,
,,,,,,,0,316,316,182,1,X, , , , ,,1500,1.5,611b8f8477911e3512c6757a,001,2021-08-17_17h19.49.013,natb3,2021.2.3,MacIntel,60.0024001,611b8f8477911e3512c6757a,6107d0959f7c4c3641818b95,611be18e75e63bdb129c6034,
,,,,space,0.3313,,0,317,317,144,1,Q, , , , ,space,2500,2.5,611b8f8477911e3512c6757a,001,2021-08-17_17h19.49.013,natb3,2021.2.3,MacIntel,60.0024001,611b8f8477911e3512c6757a,6107d0959f7c4c3641818b95,611be18e75e63bdb129c6034,
,,,,space,0.3932,,0,318,318,226,1,R, , , , ,space,2000,2,611b8f8477911e3512c6757a,001,2021-08-17_17h19.49.013,natb3,2021.2.3,MacIntel,60.0024001,611b8f8477911e3512c6757a,6107d0959f7c4c3641818b95,611be18e75e63bdb129c6034,
,,,,,,,0,319,319,29,1,B, , , , ,space,1500,1.5,611b8f8477911e3512c6757a,001,2021-08-17_17h19.49.013,natb3,2021.2.3,MacIntel,60.0024001,611b8f8477911e3512c6757a,6107d0959f7c4c3641818b95,611be18e75e63bdb129c6034,
,,,,space,0.3138,,0,320,320,256,1,Q, , , , ,space,2000,2,611b8f8477911e3512c6757a,001,2021-08-17_17h19.49.013,natb3,2021.2.3,MacIntel,60.0024001,611b8f8477911e3512c6757a,6107d0959f7c4c3641818b95,611be18e75e63bdb129c6034,
,,,,,,,0,321,321,122,1,X,1, , ,8,,1500,1.5,611b8f8477911e3512c6757a,001,2021-08-17_17h19.49.013,natb3,2021.2.3,MacIntel,60.0024001,611b8f8477911e3512c6757a,6107d0959f7c4c3641818b95,611be18e75e63bdb129c6034,
,,,,,,,0,322,322,300,1,O, , , , ,space,2500,2.5,611b8f8477911e3512c6757a,001,2021-08-17_17h19.49.013,natb3,2021.2.3,MacIntel,60.0024001,611b8f8477911e3512c6757a,6107d0959f7c4c3641818b95,611be18e75e63bdb129c6034,
,,,,space,0.6579,,0,323,323,114,1,E, , , , ,space,2000,2,611b8f8477911e3512c6757a,001,2021-08-17_17h19.49.013,natb3,2021.2.3,MacIntel,60.0024001,611b8f8477911e3512c6757a,6107d0959f7c4c3641818b95,611be18e75e63bdb129c6034,
,,,,space,0.5295,,0,324,324,160,1,D, , , , ,space,1500,1.5,611b8f8477911e3512c6757a,001,2021-08-17_17h19.49.013,natb3,2021.2.3,MacIntel,60.0024001,611b8f8477911e3512c6757a,6107d0959f7c4c3641818b95,611be18e75e63bdb129c6034,
,,,,space,0.6152,,0,325,325,290,1,W, , , , ,space,1500,1.5,611b8f8477911e3512c6757a,001,2021-08-17_17h19.49.013,natb3,2021.2.3,MacIntel,60.0024001,611b8f8477911e3512c6757a,6107d0959f7c4c3641818b95,611be18e75e63bdb129c6034,
,,,,space,0.9328,,0,326,326,221,1,I, , , , ,space,2500,2.5,611b8f8477911e3512c6757a,001,2021-08-17_17h19.49.013,natb3,2021.2.3,MacIntel,60.0024001,611b8f8477911e3512c6757a,6107d0959f7c4c3641818b95,611be18e75e63bdb129c6034,
,,,,,,,0,327,327,92,1,Z, , , , ,space,1500,1.5,611b8f8477911e3512c6757a,001,2021-08-17_17h19.49.013,natb3,2021.2.3,MacIntel,60.0024001,611b8f8477911e3512c6757a,6107d0959f7c4c3641818b95,611be18e75e63bdb129c6034,
,,,,space,0.5172,,0,328,328,283,1,C, , , , ,space,1500,1.5,611b8f8477911e3512c6757a,001,2021-08-17_17h19.49.013,natb3,2021.2.3,MacIntel,60.0024001,611b8f8477911e3512c6757a,6107d0959f7c4c3641818b95,611be18e75e63bdb129c6034,
,,,,space,0.4505,,0,329,329,328,1,R, , , , ,space,1500,1.5,611b8f8477911e3512c6757a,001,2021-08-17_17h19.49.013,natb3,2021.2.3,MacIntel,60.0024001,611b8f8477911e3512c6757a,6107d0959f7c4c3641818b95,611be18e75e63bdb129c6034,
,,,,space,0.6991,,0,330,330,292,1,E, , , , ,space,2000,2,611b8f8477911e3512c6757a,001,2021-08-17_17h19.49.013,natb3,2021.2.3,MacIntel,60.0024001,611b8f8477911e3512c6757a,6107d0959f7c4c3641818b95,611be18e75e63bdb129c6034,
,,,,space,0.4341,,0,331,331,10,1,O, , , , ,space,2000,2,611b8f8477911e3512c6757a,001,2021-08-17_17h19.49.013,natb3,2021.2.3,MacIntel,60.0024001,611b8f8477911e3512c6757a,6107d0959f7c4c3641818b95,611be18e75e63bdb129c6034,
,,,,,,,0,332,332,229,1,X,8, ,2,6,,2500,2.5,611b8f8477911e3512c6757a,001,2021-08-17_17h19.49.013,natb3,2021.2.3,MacIntel,60.0024001,611b8f8477911e3512c6757a,6107d0959f7c4c3641818b95,611be18e75e63bdb129c6034,
,,,,space,0.782,,0,333,333,109,1,U, , , , ,space,1500,1.5,611b8f8477911e3512c6757a,001,2021-08-17_17h19.49.013,natb3,2021.2.3,MacIntel,60.0024001,611b8f8477911e3512c6757a,6107d0959f7c4c3641818b95,611be18e75e63bdb129c6034,
,,,,space,0.3831,,0,334,334,151,1,Y, , , , ,space,2500,2.5,611b8f8477911e3512c6757a,001,2021-08-17_17h19.49.013,natb3,2021.2.3,MacIntel,60.0024001,611b8f8477911e3512c6757a,6107d0959f7c4c3641818b95,611be18e75e63bdb129c6034,
,,,,space,0.6662,,0,335,335,215,1,E, , , , ,space,2500,2.5,611b8f8477911e3512c6757a,001,2021-08-17_17h19.49.013,natb3,2021.2.3,MacIntel,60.0024001,611b8f8477911e3512c6757a,6107d0959f7c4c3641818b95,611be18e75e63bdb129c6034,
