key_resp_2.keys,key_resp_2.rt,key_resp_3.keys,key_resp_3.rt,key_resp.keys,key_resp.rt,key_resp_4.keys,trials.thisRepN,trials.thisTrialN,trials.thisN,trials.thisIndex,trials.ran,stimulus,distractor1,distractor2,distractor3,distractor4,CorrAns,isi_duration,isi_dur_in_seconds,participant,session,date,expName,psychopyVersion,OS,frameRate,PROLIFIC_PID,STUDY_ID,SESSION_ID,key_resp_4.rt
return,20.6144,space,18.9374,space,0.3204,,0,0,0,31,1,X, , , , ,,1500,1.5,611bf8b09116e2b85a9657eb,001,2021-08-19_15h58.17.710,natb3,2021.2.3,Win32,60.11060351,611bf8b09116e2b85a9657eb,611e07ecdcc96256ae8d5b80,611e71641f6e0a06521d0a49,
,,,,space,0.3133,,0,1,1,217,1,T, , , , ,space,2500,2.5,611bf8b09116e2b85a9657eb,001,2021-08-19_15h58.17.710,natb3,2021.2.3,Win32,60.11060351,611bf8b09116e2b85a9657eb,611e07ecdcc96256ae8d5b80,611e71641f6e0a06521d0a49,
,,,,,,,0,2,2,243,1,X, , , , ,,2500,2.5,611bf8b09116e2b85a9657eb,001,2021-08-19_15h58.17.710,natb3,2021.2.3,Win32,60.11060351,611bf8b09116e2b85a9657eb,611e07ecdcc96256ae8d5b80,611e71641f6e0a06521d0a49,
,,,,space,0.4157,,0,3,3,124,1,P, , , , ,space,2000,2,611bf8b09116e2b85a9657eb,001,2021-08-19_15h58.17.710,natb3,2021.2.3,Win32,60.11060351,611bf8b09116e2b85a9657eb,611e07ecdcc96256ae8d5b80,611e71641f6e0a06521d0a49,
,,,,space,0.3662,,0,4,4,256,1,Q, , , , ,space,2000,2,611bf8b09116e2b85a9657eb,001,2021-08-19_15h58.17.710,natb3,2021.2.3,Win32,60.11060351,611bf8b09116e2b85a9657eb,611e07ecdcc96256ae8d5b80,611e71641f6e0a06521d0a49,
,,,,space,0.4834,,0,5,5,113,1,W, , , , ,space,2500,2.5,611bf8b09116e2b85a9657eb,001,2021-08-19_15h58.17.710,natb3,2021.2.3,Win32,60.11060351,611bf8b09116e2b85a9657eb,611e07ecdcc96256ae8d5b80,611e71641f6e0a06521d0a49,
,,,,space,0.416,,0,6,6,235,1,A, , , , ,space,1500,1.5,611bf8b09116e2b85a9657eb,001,2021-08-19_15h58.17.710,natb3,2021.2.3,Win32,60.11060351,611bf8b09116e2b85a9657eb,611e07ecdcc96256ae8d5b80,611e71641f6e0a06521d0a49,
,,,,space,0.306,,0,7,7,279,1,K, , , , ,space,2500,2.5,611bf8b09116e2b85a9657eb,001,2021-08-19_15h58.17.710,natb3,2021.2.3,Win32,60.11060351,611bf8b09116e2b85a9657eb,611e07ecdcc96256ae8d5b80,611e71641f6e0a06521d0a49,
,,,,space,0.4213,,0,8,8,334,1,O, , , , ,space,1500,1.5,611bf8b09116e2b85a9657eb,001,2021-08-19_15h58.17.710,natb3,2021.2.3,Win32,60.11060351,611bf8b09116e2b85a9657eb,611e07ecdcc96256ae8d5b80,611e71641f6e0a06521d0a49,
,,,,space,0.3161,,0,9,9,147,1,E, , , , ,space,2000,2,611bf8b09116e2b85a9657eb,001,2021-08-19_15h58.17.710,natb3,2021.2.3,Win32,60.11060351,611bf8b09116e2b85a9657eb,611e07ecdcc96256ae8d5b80,611e71641f6e0a06521d0a49,
,,,,space,0.2708,,0,10,10,104,1,E, , , , ,space,2000,2,611bf8b09116e2b85a9657eb,001,2021-08-19_15h58.17.710,natb3,2021.2.3,Win32,60.11060351,611bf8b09116e2b85a9657eb,611e07ecdcc96256ae8d5b80,611e71641f6e0a06521d0a49,
,,,,space,0.2991,,0,11,11,260,1,R, , , , ,space,2000,2,611bf8b09116e2b85a9657eb,001,2021-08-19_15h58.17.710,natb3,2021.2.3,Win32,60.11060351,611bf8b09116e2b85a9657eb,611e07ecdcc96256ae8d5b80,611e71641f6e0a06521d0a49,
,,,,space,0.403,,0,12,12,187,1,X, ,3,7,4,,1500,1.5,611bf8b09116e2b85a9657eb,001,2021-08-19_15h58.17.710,natb3,2021.2.3,Win32,60.11060351,611bf8b09116e2b85a9657eb,611e07ecdcc96256ae8d5b80,611e71641f6e0a06521d0a49,
,,,,space,0.4303,,0,13,13,165,1,J, , , , ,space,2500,2.5,611bf8b09116e2b85a9657eb,001,2021-08-19_15h58.17.710,natb3,2021.2.3,Win32,60.11060351,611bf8b09116e2b85a9657eb,611e07ecdcc96256ae8d5b80,611e71641f6e0a06521d0a49,
,,,,space,0.4994,,0,14,14,29,1,B, , , , ,space,1500,1.5,611bf8b09116e2b85a9657eb,001,2021-08-19_15h58.17.710,natb3,2021.2.3,Win32,60.11060351,611bf8b09116e2b85a9657eb,611e07ecdcc96256ae8d5b80,611e71641f6e0a06521d0a49,
,,,,,,,0,15,15,107,1,X,9,3, ,2,,2000,2,611bf8b09116e2b85a9657eb,001,2021-08-19_15h58.17.710,natb3,2021.2.3,Win32,60.11060351,611bf8b09116e2b85a9657eb,611e07ecdcc96256ae8d5b80,611e71641f6e0a06521d0a49,
,,,,space,0.3805,,0,16,16,178,1,Q, , , , ,space,1500,1.5,611bf8b09116e2b85a9657eb,001,2021-08-19_15h58.17.710,natb3,2021.2.3,Win32,60.11060351,611bf8b09116e2b85a9657eb,611e07ecdcc96256ae8d5b80,611e71641f6e0a06521d0a49,
,,,,space,0.5047,,0,17,17,127,1,S, , , , ,space,2500,2.5,611bf8b09116e2b85a9657eb,001,2021-08-19_15h58.17.710,natb3,2021.2.3,Win32,60.11060351,611bf8b09116e2b85a9657eb,611e07ecdcc96256ae8d5b80,611e71641f6e0a06521d0a49,
,,,,space,0.3206,,0,18,18,245,1,K, , , , ,space,2000,2,611bf8b09116e2b85a9657eb,001,2021-08-19_15h58.17.710,natb3,2021.2.3,Win32,60.11060351,611bf8b09116e2b85a9657eb,611e07ecdcc96256ae8d5b80,611e71641f6e0a06521d0a49,
,,,,space,0.3662,,0,19,19,208,1,B, , , , ,space,1500,1.5,611bf8b09116e2b85a9657eb,001,2021-08-19_15h58.17.710,natb3,2021.2.3,Win32,60.11060351,611bf8b09116e2b85a9657eb,611e07ecdcc96256ae8d5b80,611e71641f6e0a06521d0a49,
,,,,space,0.3664,,0,20,20,211,1,X, , , , ,,2500,2.5,611bf8b09116e2b85a9657eb,001,2021-08-19_15h58.17.710,natb3,2021.2.3,Win32,60.11060351,611bf8b09116e2b85a9657eb,611e07ecdcc96256ae8d5b80,611e71641f6e0a06521d0a49,
,,,,,,,0,21,21,153,1,X,4,7, ,6,,2000,2,611bf8b09116e2b85a9657eb,001,2021-08-19_15h58.17.710,natb3,2021.2.3,Win32,60.11060351,611bf8b09116e2b85a9657eb,611e07ecdcc96256ae8d5b80,611e71641f6e0a06521d0a49,
,,,,space,0.326,,0,22,22,163,1,G, , , , ,space,2500,2.5,611bf8b09116e2b85a9657eb,001,2021-08-19_15h58.17.710,natb3,2021.2.3,Win32,60.11060351,611bf8b09116e2b85a9657eb,611e07ecdcc96256ae8d5b80,611e71641f6e0a06521d0a49,
,,,,space,0.4479,,0,23,23,73,1,Y, , , , ,space,2000,2,611bf8b09116e2b85a9657eb,001,2021-08-19_15h58.17.710,natb3,2021.2.3,Win32,60.11060351,611bf8b09116e2b85a9657eb,611e07ecdcc96256ae8d5b80,611e71641f6e0a06521d0a49,
,,,,space,0.3687,,0,24,24,230,1,U, , , , ,space,1500,1.5,611bf8b09116e2b85a9657eb,001,2021-08-19_15h58.17.710,natb3,2021.2.3,Win32,60.11060351,611bf8b09116e2b85a9657eb,611e07ecdcc96256ae8d5b80,611e71641f6e0a06521d0a49,
,,,,space,0.5424,,0,25,25,62,1,V, , , , ,space,1500,1.5,611bf8b09116e2b85a9657eb,001,2021-08-19_15h58.17.710,natb3,2021.2.3,Win32,60.11060351,611bf8b09116e2b85a9657eb,611e07ecdcc96256ae8d5b80,611e71641f6e0a06521d0a49,
,,,,space,0.3541,,0,26,26,57,1,K, , , , ,space,2500,2.5,611bf8b09116e2b85a9657eb,001,2021-08-19_15h58.17.710,natb3,2021.2.3,Win32,60.11060351,611bf8b09116e2b85a9657eb,611e07ecdcc96256ae8d5b80,611e71641f6e0a06521d0a49,
,,,,space,0.4361,,0,27,27,290,1,W, , , , ,space,1500,1.5,611bf8b09116e2b85a9657eb,001,2021-08-19_15h58.17.710,natb3,2021.2.3,Win32,60.11060351,611bf8b09116e2b85a9657eb,611e07ecdcc96256ae8d5b80,611e71641f6e0a06521d0a49,
,,,,space,0.3729,,0,28,28,310,1,J, , , , ,space,2500,2.5,611bf8b09116e2b85a9657eb,001,2021-08-19_15h58.17.710,natb3,2021.2.3,Win32,60.11060351,611bf8b09116e2b85a9657eb,611e07ecdcc96256ae8d5b80,611e71641f6e0a06521d0a49,
,,,,space,0.3867,,0,29,29,255,1,X, , , , ,,1500,1.5,611bf8b09116e2b85a9657eb,001,2021-08-19_15h58.17.710,natb3,2021.2.3,Win32,60.11060351,611bf8b09116e2b85a9657eb,611e07ecdcc96256ae8d5b80,611e71641f6e0a06521d0a49,
,,,,space,0.3559,,0,30,30,251,1,B, , , , ,space,1500,1.5,611bf8b09116e2b85a9657eb,001,2021-08-19_15h58.17.710,natb3,2021.2.3,Win32,60.11060351,611bf8b09116e2b85a9657eb,611e07ecdcc96256ae8d5b80,611e71641f6e0a06521d0a49,
,,,,space,0.3883,,0,31,31,72,1,T, , , , ,space,1500,1.5,611bf8b09116e2b85a9657eb,001,2021-08-19_15h58.17.710,natb3,2021.2.3,Win32,60.11060351,611bf8b09116e2b85a9657eb,611e07ecdcc96256ae8d5b80,611e71641f6e0a06521d0a49,
,,,,space,0.4415,,0,32,32,246,1,L, , , , ,space,2500,2.5,611bf8b09116e2b85a9657eb,001,2021-08-19_15h58.17.710,natb3,2021.2.3,Win32,60.11060351,611bf8b09116e2b85a9657eb,611e07ecdcc96256ae8d5b80,611e71641f6e0a06521d0a49,
,,,,,,,0,33,33,335,1,P,,,,,space,1500,1.5,611bf8b09116e2b85a9657eb,001,2021-08-19_15h58.17.710,natb3,2021.2.3,Win32,60.11060351,611bf8b09116e2b85a9657eb,611e07ecdcc96256ae8d5b80,611e71641f6e0a06521d0a49,
,,,,,,,0,34,34,145,1,X, , , , ,,2000,2,611bf8b09116e2b85a9657eb,001,2021-08-19_15h58.17.710,natb3,2021.2.3,Win32,60.11060351,611bf8b09116e2b85a9657eb,611e07ecdcc96256ae8d5b80,611e71641f6e0a06521d0a49,
,,,,space,0.4577,,0,35,35,42,1,U, , , , ,space,1500,1.5,611bf8b09116e2b85a9657eb,001,2021-08-19_15h58.17.710,natb3,2021.2.3,Win32,60.11060351,611bf8b09116e2b85a9657eb,611e07ecdcc96256ae8d5b80,611e71641f6e0a06521d0a49,
,,,,space,0.4029,,0,36,36,44,1,I, , , , ,space,2500,2.5,611bf8b09116e2b85a9657eb,001,2021-08-19_15h58.17.710,natb3,2021.2.3,Win32,60.11060351,611bf8b09116e2b85a9657eb,611e07ecdcc96256ae8d5b80,611e71641f6e0a06521d0a49,
,,,,space,0.3789,,0,37,37,231,1,I, , , , ,space,2500,2.5,611bf8b09116e2b85a9657eb,001,2021-08-19_15h58.17.710,natb3,2021.2.3,Win32,60.11060351,611bf8b09116e2b85a9657eb,611e07ecdcc96256ae8d5b80,611e71641f6e0a06521d0a49,
,,,,space,0.324,,0,38,38,271,1,X, , , , ,,2500,2.5,611bf8b09116e2b85a9657eb,001,2021-08-19_15h58.17.710,natb3,2021.2.3,Win32,60.11060351,611bf8b09116e2b85a9657eb,611e07ecdcc96256ae8d5b80,611e71641f6e0a06521d0a49,
,,,,space,0.4091,,0,39,39,172,1,C, , , , ,space,1500,1.5,611bf8b09116e2b85a9657eb,001,2021-08-19_15h58.17.710,natb3,2021.2.3,Win32,60.11060351,611bf8b09116e2b85a9657eb,611e07ecdcc96256ae8d5b80,611e71641f6e0a06521d0a49,
,,,,space,0.3606,,0,40,40,293,1,R, , , , ,space,2500,2.5,611bf8b09116e2b85a9657eb,001,2021-08-19_15h58.17.710,natb3,2021.2.3,Win32,60.11060351,611bf8b09116e2b85a9657eb,611e07ecdcc96256ae8d5b80,611e71641f6e0a06521d0a49,
,,,,space,0.3875,,0,41,41,123,1,O, , , , ,space,1500,1.5,611bf8b09116e2b85a9657eb,001,2021-08-19_15h58.17.710,natb3,2021.2.3,Win32,60.11060351,611bf8b09116e2b85a9657eb,611e07ecdcc96256ae8d5b80,611e71641f6e0a06521d0a49,
,,,,space,0.317,,0,42,42,177,1,M, , , , ,space,2500,2.5,611bf8b09116e2b85a9657eb,001,2021-08-19_15h58.17.710,natb3,2021.2.3,Win32,60.11060351,611bf8b09116e2b85a9657eb,611e07ecdcc96256ae8d5b80,611e71641f6e0a06521d0a49,
,,,,space,0.3884,,0,43,43,307,1,F, , , , ,space,2500,2.5,611bf8b09116e2b85a9657eb,001,2021-08-19_15h58.17.710,natb3,2021.2.3,Win32,60.11060351,611bf8b09116e2b85a9657eb,611e07ecdcc96256ae8d5b80,611e71641f6e0a06521d0a49,
,,,,space,0.4605,,0,44,44,189,1,O, , , , ,space,1500,1.5,611bf8b09116e2b85a9657eb,001,2021-08-19_15h58.17.710,natb3,2021.2.3,Win32,60.11060351,611bf8b09116e2b85a9657eb,611e07ecdcc96256ae8d5b80,611e71641f6e0a06521d0a49,
,,,,space,0.319,,0,45,45,298,1,I, , , , ,space,2000,2,611bf8b09116e2b85a9657eb,001,2021-08-19_15h58.17.710,natb3,2021.2.3,Win32,60.11060351,611bf8b09116e2b85a9657eb,611e07ecdcc96256ae8d5b80,611e71641f6e0a06521d0a49,
,,,,space,0.3585,,0,46,46,3,1,R, , , , ,space,2000,2,611bf8b09116e2b85a9657eb,001,2021-08-19_15h58.17.710,natb3,2021.2.3,Win32,60.11060351,611bf8b09116e2b85a9657eb,611e07ecdcc96256ae8d5b80,611e71641f6e0a06521d0a49,
,,,,space,0.4411,,0,47,47,64,1,N, , , , ,space,2000,2,611bf8b09116e2b85a9657eb,001,2021-08-19_15h58.17.710,natb3,2021.2.3,Win32,60.11060351,611bf8b09116e2b85a9657eb,611e07ecdcc96256ae8d5b80,611e71641f6e0a06521d0a49,
,,,,,,,0,48,48,18,1,X, ,2,5,8,,2500,2.5,611bf8b09116e2b85a9657eb,001,2021-08-19_15h58.17.710,natb3,2021.2.3,Win32,60.11060351,611bf8b09116e2b85a9657eb,611e07ecdcc96256ae8d5b80,611e71641f6e0a06521d0a49,
,,,,space,0.3349,,0,49,49,61,1,C, , , , ,space,2000,2,611bf8b09116e2b85a9657eb,001,2021-08-19_15h58.17.710,natb3,2021.2.3,Win32,60.11060351,611bf8b09116e2b85a9657eb,611e07ecdcc96256ae8d5b80,611e71641f6e0a06521d0a49,
,,,,space,0.3663,,0,50,50,254,1,M, , , , ,space,1500,1.5,611bf8b09116e2b85a9657eb,001,2021-08-19_15h58.17.710,natb3,2021.2.3,Win32,60.11060351,611bf8b09116e2b85a9657eb,611e07ecdcc96256ae8d5b80,611e71641f6e0a06521d0a49,
,,,,space,0.3666,,0,51,51,197,1,G, , , , ,space,2500,2.5,611bf8b09116e2b85a9657eb,001,2021-08-19_15h58.17.710,natb3,2021.2.3,Win32,60.11060351,611bf8b09116e2b85a9657eb,611e07ecdcc96256ae8d5b80,611e71641f6e0a06521d0a49,
,,,,space,0.3656,,0,52,52,214,1,W, , , , ,space,2000,2,611bf8b09116e2b85a9657eb,001,2021-08-19_15h58.17.710,natb3,2021.2.3,Win32,60.11060351,611bf8b09116e2b85a9657eb,611e07ecdcc96256ae8d5b80,611e71641f6e0a06521d0a49,
,,,,,,,0,53,53,322,1,X, , ,1,6,,2000,2,611bf8b09116e2b85a9657eb,001,2021-08-19_15h58.17.710,natb3,2021.2.3,Win32,60.11060351,611bf8b09116e2b85a9657eb,611e07ecdcc96256ae8d5b80,611e71641f6e0a06521d0a49,
,,,,space,0.3876,,0,54,54,51,1,X,7,5,8, ,,1500,1.5,611bf8b09116e2b85a9657eb,001,2021-08-19_15h58.17.710,natb3,2021.2.3,Win32,60.11060351,611bf8b09116e2b85a9657eb,611e07ecdcc96256ae8d5b80,611e71641f6e0a06521d0a49,
,,,,space,0.3794,,0,55,55,48,1,A, , , , ,space,2500,2.5,611bf8b09116e2b85a9657eb,001,2021-08-19_15h58.17.710,natb3,2021.2.3,Win32,60.11060351,611bf8b09116e2b85a9657eb,611e07ecdcc96256ae8d5b80,611e71641f6e0a06521d0a49,
,,,,space,0.3161,,0,56,56,324,1,Q, , , , ,space,2000,2,611bf8b09116e2b85a9657eb,001,2021-08-19_15h58.17.710,natb3,2021.2.3,Win32,60.11060351,611bf8b09116e2b85a9657eb,611e07ecdcc96256ae8d5b80,611e71641f6e0a06521d0a49,
,,,,space,0.3495,,0,57,57,156,1,P, , , , ,space,1500,1.5,611bf8b09116e2b85a9657eb,001,2021-08-19_15h58.17.710,natb3,2021.2.3,Win32,60.11060351,611bf8b09116e2b85a9657eb,611e07ecdcc96256ae8d5b80,611e71641f6e0a06521d0a49,
,,,,space,0.4774,,0,58,58,13,1,A, , , , ,space,2000,2,611bf8b09116e2b85a9657eb,001,2021-08-19_15h58.17.710,natb3,2021.2.3,Win32,60.11060351,611bf8b09116e2b85a9657eb,611e07ecdcc96256ae8d5b80,611e71641f6e0a06521d0a49,
,,,,space,0.3298,,0,59,59,143,1,M, , , , ,space,2500,2.5,611bf8b09116e2b85a9657eb,001,2021-08-19_15h58.17.710,natb3,2021.2.3,Win32,60.11060351,611bf8b09116e2b85a9657eb,611e07ecdcc96256ae8d5b80,611e71641f6e0a06521d0a49,
,,,,space,0.4728,,0,60,60,40,1,T, , , , ,space,1500,1.5,611bf8b09116e2b85a9657eb,001,2021-08-19_15h58.17.710,natb3,2021.2.3,Win32,60.11060351,611bf8b09116e2b85a9657eb,611e07ecdcc96256ae8d5b80,611e71641f6e0a06521d0a49,
,,,,space,0.3907,,0,61,61,58,1,L, , , , ,space,2000,2,611bf8b09116e2b85a9657eb,001,2021-08-19_15h58.17.710,natb3,2021.2.3,Win32,60.11060351,611bf8b09116e2b85a9657eb,611e07ecdcc96256ae8d5b80,611e71641f6e0a06521d0a49,
,,,,space,0.5864,,0,62,62,244,1,J, , , , ,space,1500,1.5,611bf8b09116e2b85a9657eb,001,2021-08-19_15h58.17.710,natb3,2021.2.3,Win32,60.11060351,611bf8b09116e2b85a9657eb,611e07ecdcc96256ae8d5b80,611e71641f6e0a06521d0a49,
,,,,space,0.3424,,0,63,63,24,1,L, , , , ,space,2500,2.5,611bf8b09116e2b85a9657eb,001,2021-08-19_15h58.17.710,natb3,2021.2.3,Win32,60.11060351,611bf8b09116e2b85a9657eb,611e07ecdcc96256ae8d5b80,611e71641f6e0a06521d0a49,
,,,,space,0.7237,,0,64,64,122,1,X,1, , ,8,,1500,1.5,611bf8b09116e2b85a9657eb,001,2021-08-19_15h58.17.710,natb3,2021.2.3,Win32,60.11060351,611bf8b09116e2b85a9657eb,611e07ecdcc96256ae8d5b80,611e71641f6e0a06521d0a49,
,,,,space,0.7971,,0,65,65,316,1,Z, , , , ,space,1500,1.5,611bf8b09116e2b85a9657eb,001,2021-08-19_15h58.17.710,natb3,2021.2.3,Win32,60.11060351,611bf8b09116e2b85a9657eb,611e07ecdcc96256ae8d5b80,611e71641f6e0a06521d0a49,
,,,,space,0.5453,,0,66,66,301,1,P, , , , ,space,1500,1.5,611bf8b09116e2b85a9657eb,001,2021-08-19_15h58.17.710,natb3,2021.2.3,Win32,60.11060351,611bf8b09116e2b85a9657eb,611e07ecdcc96256ae8d5b80,611e71641f6e0a06521d0a49,
,,,,space,0.6391,,0,67,67,202,1,L, , , , ,space,2500,2.5,611bf8b09116e2b85a9657eb,001,2021-08-19_15h58.17.710,natb3,2021.2.3,Win32,60.11060351,611bf8b09116e2b85a9657eb,611e07ecdcc96256ae8d5b80,611e71641f6e0a06521d0a49,
,,,,,,,0,68,68,195,1,X, , , , ,,1500,1.5,611bf8b09116e2b85a9657eb,001,2021-08-19_15h58.17.710,natb3,2021.2.3,Win32,60.11060351,611bf8b09116e2b85a9657eb,611e07ecdcc96256ae8d5b80,611e71641f6e0a06521d0a49,
,,,,space,0.8968,,0,69,69,180,1,W, , , , ,space,2000,2,611bf8b09116e2b85a9657eb,001,2021-08-19_15h58.17.710,natb3,2021.2.3,Win32,60.11060351,611bf8b09116e2b85a9657eb,611e07ecdcc96256ae8d5b80,611e71641f6e0a06521d0a49,
,,,,space,0.5687,,0,70,70,312,1,K, , , , ,space,2000,2,611bf8b09116e2b85a9657eb,001,2021-08-19_15h58.17.710,natb3,2021.2.3,Win32,60.11060351,611bf8b09116e2b85a9657eb,611e07ecdcc96256ae8d5b80,611e71641f6e0a06521d0a49,
,,,,space,0.3859,,0,71,71,174,1,B, , , , ,space,2500,2.5,611bf8b09116e2b85a9657eb,001,2021-08-19_15h58.17.710,natb3,2021.2.3,Win32,60.11060351,611bf8b09116e2b85a9657eb,611e07ecdcc96256ae8d5b80,611e71641f6e0a06521d0a49,
,,,,space,0.6002,,0,72,72,16,1,D, , , , ,space,1500,1.5,611bf8b09116e2b85a9657eb,001,2021-08-19_15h58.17.710,natb3,2021.2.3,Win32,60.11060351,611bf8b09116e2b85a9657eb,611e07ecdcc96256ae8d5b80,611e71641f6e0a06521d0a49,
,,,,,,,0,73,73,66,1,X, ,4,7, ,,2000,2,611bf8b09116e2b85a9657eb,001,2021-08-19_15h58.17.710,natb3,2021.2.3,Win32,60.11060351,611bf8b09116e2b85a9657eb,611e07ecdcc96256ae8d5b80,611e71641f6e0a06521d0a49,
,,,,space,0.351,,0,74,74,242,1,H, , , , ,space,2500,2.5,611bf8b09116e2b85a9657eb,001,2021-08-19_15h58.17.710,natb3,2021.2.3,Win32,60.11060351,611bf8b09116e2b85a9657eb,611e07ecdcc96256ae8d5b80,611e71641f6e0a06521d0a49,
,,,,space,0.5107,,0,75,75,278,1,J, , , , ,space,2000,2,611bf8b09116e2b85a9657eb,001,2021-08-19_15h58.17.710,natb3,2021.2.3,Win32,60.11060351,611bf8b09116e2b85a9657eb,611e07ecdcc96256ae8d5b80,611e71641f6e0a06521d0a49,
,,,,space,0.4692,,0,76,76,106,1,T, , , , ,space,1500,1.5,611bf8b09116e2b85a9657eb,001,2021-08-19_15h58.17.710,natb3,2021.2.3,Win32,60.11060351,611bf8b09116e2b85a9657eb,611e07ecdcc96256ae8d5b80,611e71641f6e0a06521d0a49,
,,,,space,0.4725,,0,77,77,52,1,F, , , , ,space,1500,1.5,611bf8b09116e2b85a9657eb,001,2021-08-19_15h58.17.710,natb3,2021.2.3,Win32,60.11060351,611bf8b09116e2b85a9657eb,611e07ecdcc96256ae8d5b80,611e71641f6e0a06521d0a49,
,,,,space,0.4235,,0,78,78,253,1,N, , , , ,space,2500,2.5,611bf8b09116e2b85a9657eb,001,2021-08-19_15h58.17.710,natb3,2021.2.3,Win32,60.11060351,611bf8b09116e2b85a9657eb,611e07ecdcc96256ae8d5b80,611e71641f6e0a06521d0a49,
,,,,space,0.5239,,0,79,79,90,1,K, , , , ,space,2000,2,611bf8b09116e2b85a9657eb,001,2021-08-19_15h58.17.710,natb3,2021.2.3,Win32,60.11060351,611bf8b09116e2b85a9657eb,611e07ecdcc96256ae8d5b80,611e71641f6e0a06521d0a49,
,,,,,,,0,80,80,133,1,X, ,4, ,6,,2500,2.5,611bf8b09116e2b85a9657eb,001,2021-08-19_15h58.17.710,natb3,2021.2.3,Win32,60.11060351,611bf8b09116e2b85a9657eb,611e07ecdcc96256ae8d5b80,611e71641f6e0a06521d0a49,
,,,,space,0.5082,,0,81,81,332,1,U, , , , ,space,2000,2,611bf8b09116e2b85a9657eb,001,2021-08-19_15h58.17.710,natb3,2021.2.3,Win32,60.11060351,611bf8b09116e2b85a9657eb,611e07ecdcc96256ae8d5b80,611e71641f6e0a06521d0a49,
,,,,,,,0,82,82,313,1,X, , , , ,,2500,2.5,611bf8b09116e2b85a9657eb,001,2021-08-19_15h58.17.710,natb3,2021.2.3,Win32,60.11060351,611bf8b09116e2b85a9657eb,611e07ecdcc96256ae8d5b80,611e71641f6e0a06521d0a49,
,,,,space,0.4174,,0,83,83,142,1,N, , , , ,space,2500,2.5,611bf8b09116e2b85a9657eb,001,2021-08-19_15h58.17.710,natb3,2021.2.3,Win32,60.11060351,611bf8b09116e2b85a9657eb,611e07ecdcc96256ae8d5b80,611e71641f6e0a06521d0a49,
,,,,,,,0,84,84,248,1,X, ,1,5, ,,1500,1.5,611bf8b09116e2b85a9657eb,001,2021-08-19_15h58.17.710,natb3,2021.2.3,Win32,60.11060351,611bf8b09116e2b85a9657eb,611e07ecdcc96256ae8d5b80,611e71641f6e0a06521d0a49,
,,,,space,0.382,,0,85,85,99,1,N, , , , ,space,2500,2.5,611bf8b09116e2b85a9657eb,001,2021-08-19_15h58.17.710,natb3,2021.2.3,Win32,60.11060351,611bf8b09116e2b85a9657eb,611e07ecdcc96256ae8d5b80,611e71641f6e0a06521d0a49,
,,,,space,0.4916,,0,86,86,114,1,E, , , , ,space,2000,2,611bf8b09116e2b85a9657eb,001,2021-08-19_15h58.17.710,natb3,2021.2.3,Win32,60.11060351,611bf8b09116e2b85a9657eb,611e07ecdcc96256ae8d5b80,611e71641f6e0a06521d0a49,
,,,,space,0.5339,,0,87,87,36,1,W, , , , ,space,2000,2,611bf8b09116e2b85a9657eb,001,2021-08-19_15h58.17.710,natb3,2021.2.3,Win32,60.11060351,611bf8b09116e2b85a9657eb,611e07ecdcc96256ae8d5b80,611e71641f6e0a06521d0a49,
,,,,,,,0,88,88,74,1,X, ,4,3,2,,1500,1.5,611bf8b09116e2b85a9657eb,001,2021-08-19_15h58.17.710,natb3,2021.2.3,Win32,60.11060351,611bf8b09116e2b85a9657eb,611e07ecdcc96256ae8d5b80,611e71641f6e0a06521d0a49,
,,,,space,0.4527,,0,89,89,262,1,Y, , , , ,space,2500,2.5,611bf8b09116e2b85a9657eb,001,2021-08-19_15h58.17.710,natb3,2021.2.3,Win32,60.11060351,611bf8b09116e2b85a9657eb,611e07ecdcc96256ae8d5b80,611e71641f6e0a06521d0a49,
,,,,space,0.6953,,0,90,90,264,1,U, , , , ,space,2000,2,611bf8b09116e2b85a9657eb,001,2021-08-19_15h58.17.710,natb3,2021.2.3,Win32,60.11060351,611bf8b09116e2b85a9657eb,611e07ecdcc96256ae8d5b80,611e71641f6e0a06521d0a49,
,,,,space,0.5197,,0,91,91,81,1,S, , , , ,space,2000,2,611bf8b09116e2b85a9657eb,001,2021-08-19_15h58.17.710,natb3,2021.2.3,Win32,60.11060351,611bf8b09116e2b85a9657eb,611e07ecdcc96256ae8d5b80,611e71641f6e0a06521d0a49,
,,,,space,0.6503,,0,92,92,161,1,F, , , , ,space,1500,1.5,611bf8b09116e2b85a9657eb,001,2021-08-19_15h58.17.710,natb3,2021.2.3,Win32,60.11060351,611bf8b09116e2b85a9657eb,611e07ecdcc96256ae8d5b80,611e71641f6e0a06521d0a49,
,,,,space,0.3662,,0,93,93,55,1,H, , , , ,space,2500,2.5,611bf8b09116e2b85a9657eb,001,2021-08-19_15h58.17.710,natb3,2021.2.3,Win32,60.11060351,611bf8b09116e2b85a9657eb,611e07ecdcc96256ae8d5b80,611e71641f6e0a06521d0a49,
,,,,,,,0,94,94,78,1,X, , , , ,,2000,2,611bf8b09116e2b85a9657eb,001,2021-08-19_15h58.17.710,natb3,2021.2.3,Win32,60.11060351,611bf8b09116e2b85a9657eb,611e07ecdcc96256ae8d5b80,611e71641f6e0a06521d0a49,
,,,,space,0.4224,,0,95,95,119,1,Y, , , , ,space,2500,2.5,611bf8b09116e2b85a9657eb,001,2021-08-19_15h58.17.710,natb3,2021.2.3,Win32,60.11060351,611bf8b09116e2b85a9657eb,611e07ecdcc96256ae8d5b80,611e71641f6e0a06521d0a49,
,,,,space,0.5418,,0,96,96,266,1,O, , , , ,space,1500,1.5,611bf8b09116e2b85a9657eb,001,2021-08-19_15h58.17.710,natb3,2021.2.3,Win32,60.11060351,611bf8b09116e2b85a9657eb,611e07ecdcc96256ae8d5b80,611e71641f6e0a06521d0a49,
,,,,space,0.5339,,0,97,97,71,1,R, , , , ,space,2500,2.5,611bf8b09116e2b85a9657eb,001,2021-08-19_15h58.17.710,natb3,2021.2.3,Win32,60.11060351,611bf8b09116e2b85a9657eb,611e07ecdcc96256ae8d5b80,611e71641f6e0a06521d0a49,
,,,,space,0.4004,,0,98,98,112,1,Q, , , , ,space,2500,2.5,611bf8b09116e2b85a9657eb,001,2021-08-19_15h58.17.710,natb3,2021.2.3,Win32,60.11060351,611bf8b09116e2b85a9657eb,611e07ecdcc96256ae8d5b80,611e71641f6e0a06521d0a49,
,,,,space,0.45,,0,99,99,22,1,K, , , , ,space,2000,2,611bf8b09116e2b85a9657eb,001,2021-08-19_15h58.17.710,natb3,2021.2.3,Win32,60.11060351,611bf8b09116e2b85a9657eb,611e07ecdcc96256ae8d5b80,611e71641f6e0a06521d0a49,
,,,,space,0.427,,0,100,100,297,1,U, , , , ,space,2000,2,611bf8b09116e2b85a9657eb,001,2021-08-19_15h58.17.710,natb3,2021.2.3,Win32,60.11060351,611bf8b09116e2b85a9657eb,611e07ecdcc96256ae8d5b80,611e71641f6e0a06521d0a49,
,,,,space,0.5106,,0,101,101,292,1,E, , , , ,space,2000,2,611bf8b09116e2b85a9657eb,001,2021-08-19_15h58.17.710,natb3,2021.2.3,Win32,60.11060351,611bf8b09116e2b85a9657eb,611e07ecdcc96256ae8d5b80,611e71641f6e0a06521d0a49,
,,,,space,0.2895,,0,102,102,23,1,X,1, ,5, ,,2000,2,611bf8b09116e2b85a9657eb,001,2021-08-19_15h58.17.710,natb3,2021.2.3,Win32,60.11060351,611bf8b09116e2b85a9657eb,611e07ecdcc96256ae8d5b80,611e71641f6e0a06521d0a49,
,,,,,,,0,103,103,179,1,X, ,9, ,2,,1500,1.5,611bf8b09116e2b85a9657eb,001,2021-08-19_15h58.17.710,natb3,2021.2.3,Win32,60.11060351,611bf8b09116e2b85a9657eb,611e07ecdcc96256ae8d5b80,611e71641f6e0a06521d0a49,
,,,,space,0.3481,,0,104,104,191,1,X,1, ,3,4,,2500,2.5,611bf8b09116e2b85a9657eb,001,2021-08-19_15h58.17.710,natb3,2021.2.3,Win32,60.11060351,611bf8b09116e2b85a9657eb,611e07ecdcc96256ae8d5b80,611e71641f6e0a06521d0a49,
,,,,space,0.4361,,0,105,105,320,1,B, , , , ,space,1500,1.5,611bf8b09116e2b85a9657eb,001,2021-08-19_15h58.17.710,natb3,2021.2.3,Win32,60.11060351,611bf8b09116e2b85a9657eb,611e07ecdcc96256ae8d5b80,611e71641f6e0a06521d0a49,
,,,,space,0.482,,0,106,106,86,1,G, , , , ,space,2000,2,611bf8b09116e2b85a9657eb,001,2021-08-19_15h58.17.710,natb3,2021.2.3,Win32,60.11060351,611bf8b09116e2b85a9657eb,611e07ecdcc96256ae8d5b80,611e71641f6e0a06521d0a49,
,,,,,,,0,107,107,218,1,X,1,3, ,8,,1500,1.5,611bf8b09116e2b85a9657eb,001,2021-08-19_15h58.17.710,natb3,2021.2.3,Win32,60.11060351,611bf8b09116e2b85a9657eb,611e07ecdcc96256ae8d5b80,611e71641f6e0a06521d0a49,
,,,,space,0.3819,,0,108,108,291,1,X, , , , ,,2000,2,611bf8b09116e2b85a9657eb,001,2021-08-19_15h58.17.710,natb3,2021.2.3,Win32,60.11060351,611bf8b09116e2b85a9657eb,611e07ecdcc96256ae8d5b80,611e71641f6e0a06521d0a49,
,,,,space,0.4933,,0,109,109,193,1,S, , , , ,space,2500,2.5,611bf8b09116e2b85a9657eb,001,2021-08-19_15h58.17.710,natb3,2021.2.3,Win32,60.11060351,611bf8b09116e2b85a9657eb,611e07ecdcc96256ae8d5b80,611e71641f6e0a06521d0a49,
,,,,space,0.4006,,0,110,110,35,1,X, , , , ,,2500,2.5,611bf8b09116e2b85a9657eb,001,2021-08-19_15h58.17.710,natb3,2021.2.3,Win32,60.11060351,611bf8b09116e2b85a9657eb,611e07ecdcc96256ae8d5b80,611e71641f6e0a06521d0a49,
,,,,space,0.458,,0,111,111,237,1,S, , , , ,space,1500,1.5,611bf8b09116e2b85a9657eb,001,2021-08-19_15h58.17.710,natb3,2021.2.3,Win32,60.11060351,611bf8b09116e2b85a9657eb,611e07ecdcc96256ae8d5b80,611e71641f6e0a06521d0a49,
,,,,,,,0,112,112,162,1,X,1,6, ,2,,1500,1.5,611bf8b09116e2b85a9657eb,001,2021-08-19_15h58.17.710,natb3,2021.2.3,Win32,60.11060351,611bf8b09116e2b85a9657eb,611e07ecdcc96256ae8d5b80,611e71641f6e0a06521d0a49,
,,,,space,0.4138,,0,113,113,0,1,Q, , , , ,space,1500,1.5,611bf8b09116e2b85a9657eb,001,2021-08-19_15h58.17.710,natb3,2021.2.3,Win32,60.11060351,611bf8b09116e2b85a9657eb,611e07ecdcc96256ae8d5b80,611e71641f6e0a06521d0a49,
,,,,space,0.8889,,0,114,114,258,1,E, , , , ,space,1500,1.5,611bf8b09116e2b85a9657eb,001,2021-08-19_15h58.17.710,natb3,2021.2.3,Win32,60.11060351,611bf8b09116e2b85a9657eb,611e07ecdcc96256ae8d5b80,611e71641f6e0a06521d0a49,
,,,,space,0.4825,,0,115,115,223,1,Q, , , , ,space,2000,2,611bf8b09116e2b85a9657eb,001,2021-08-19_15h58.17.710,natb3,2021.2.3,Win32,60.11060351,611bf8b09116e2b85a9657eb,611e07ecdcc96256ae8d5b80,611e71641f6e0a06521d0a49,
,,,,space,0.4822,,0,116,116,126,1,A, , , , ,space,2500,2.5,611bf8b09116e2b85a9657eb,001,2021-08-19_15h58.17.710,natb3,2021.2.3,Win32,60.11060351,611bf8b09116e2b85a9657eb,611e07ecdcc96256ae8d5b80,611e71641f6e0a06521d0a49,
,,,,space,0.4695,,0,117,117,132,1,H, , , , ,space,2500,2.5,611bf8b09116e2b85a9657eb,001,2021-08-19_15h58.17.710,natb3,2021.2.3,Win32,60.11060351,611bf8b09116e2b85a9657eb,611e07ecdcc96256ae8d5b80,611e71641f6e0a06521d0a49,
,,,,,,,0,118,118,325,1,X, , , , ,,2500,2.5,611bf8b09116e2b85a9657eb,001,2021-08-19_15h58.17.710,natb3,2021.2.3,Win32,60.11060351,611bf8b09116e2b85a9657eb,611e07ecdcc96256ae8d5b80,611e71641f6e0a06521d0a49,
,,,,,,,0,119,119,82,1,X,4,6,1,7,,2000,2,611bf8b09116e2b85a9657eb,001,2021-08-19_15h58.17.710,natb3,2021.2.3,Win32,60.11060351,611bf8b09116e2b85a9657eb,611e07ecdcc96256ae8d5b80,611e71641f6e0a06521d0a49,
,,,,,,,0,120,120,236,1,X,3, ,4,7,,2500,2.5,611bf8b09116e2b85a9657eb,001,2021-08-19_15h58.17.710,natb3,2021.2.3,Win32,60.11060351,611bf8b09116e2b85a9657eb,611e07ecdcc96256ae8d5b80,611e71641f6e0a06521d0a49,
,,,,space,0.6413,,0,121,121,28,1,V, , , , ,space,1500,1.5,611bf8b09116e2b85a9657eb,001,2021-08-19_15h58.17.710,natb3,2021.2.3,Win32,60.11060351,611bf8b09116e2b85a9657eb,611e07ecdcc96256ae8d5b80,611e71641f6e0a06521d0a49,
,,,,space,0.5523,,0,122,122,238,1,D, , , , ,space,1500,1.5,611bf8b09116e2b85a9657eb,001,2021-08-19_15h58.17.710,natb3,2021.2.3,Win32,60.11060351,611bf8b09116e2b85a9657eb,611e07ecdcc96256ae8d5b80,611e71641f6e0a06521d0a49,
,,,,space,0.4594,,0,123,123,250,1,V, , , , ,space,2000,2,611bf8b09116e2b85a9657eb,001,2021-08-19_15h58.17.710,natb3,2021.2.3,Win32,60.11060351,611bf8b09116e2b85a9657eb,611e07ecdcc96256ae8d5b80,611e71641f6e0a06521d0a49,
,,,,space,0.4057,,0,124,124,268,1,X,6, ,3, ,,2500,2.5,611bf8b09116e2b85a9657eb,001,2021-08-19_15h58.17.710,natb3,2021.2.3,Win32,60.11060351,611bf8b09116e2b85a9657eb,611e07ecdcc96256ae8d5b80,611e71641f6e0a06521d0a49,
,,,,space,0.8049,,0,125,125,136,1,Z, , , , ,space,2500,2.5,611bf8b09116e2b85a9657eb,001,2021-08-19_15h58.17.710,natb3,2021.2.3,Win32,60.11060351,611bf8b09116e2b85a9657eb,611e07ecdcc96256ae8d5b80,611e71641f6e0a06521d0a49,
,,,,space,0.7563,,0,126,126,77,1,O, , , , ,space,2000,2,611bf8b09116e2b85a9657eb,001,2021-08-19_15h58.17.710,natb3,2021.2.3,Win32,60.11060351,611bf8b09116e2b85a9657eb,611e07ecdcc96256ae8d5b80,611e71641f6e0a06521d0a49,
,,,,space,0.799,,0,127,127,265,1,I, , , , ,space,2000,2,611bf8b09116e2b85a9657eb,001,2021-08-19_15h58.17.710,natb3,2021.2.3,Win32,60.11060351,611bf8b09116e2b85a9657eb,611e07ecdcc96256ae8d5b80,611e71641f6e0a06521d0a49,
,,,,,,,0,128,128,295,1,X,8,7,5, ,,2500,2.5,611bf8b09116e2b85a9657eb,001,2021-08-19_15h58.17.710,natb3,2021.2.3,Win32,60.11060351,611bf8b09116e2b85a9657eb,611e07ecdcc96256ae8d5b80,611e71641f6e0a06521d0a49,
,,,,space,0.5362,,0,129,129,184,1,T, , , , ,space,2000,2,611bf8b09116e2b85a9657eb,001,2021-08-19_15h58.17.710,natb3,2021.2.3,Win32,60.11060351,611bf8b09116e2b85a9657eb,611e07ecdcc96256ae8d5b80,611e71641f6e0a06521d0a49,
,,,,space,0.4442,,0,130,130,83,1,D, , , , ,space,2000,2,611bf8b09116e2b85a9657eb,001,2021-08-19_15h58.17.710,natb3,2021.2.3,Win32,60.11060351,611bf8b09116e2b85a9657eb,611e07ecdcc96256ae8d5b80,611e71641f6e0a06521d0a49,
,,,,,,,0,131,131,311,1,X,1,2,7,3,,2500,2.5,611bf8b09116e2b85a9657eb,001,2021-08-19_15h58.17.710,natb3,2021.2.3,Win32,60.11060351,611bf8b09116e2b85a9657eb,611e07ecdcc96256ae8d5b80,611e71641f6e0a06521d0a49,
,,,,space,0.4157,,0,132,132,270,1,S, , , , ,space,1500,1.5,611bf8b09116e2b85a9657eb,001,2021-08-19_15h58.17.710,natb3,2021.2.3,Win32,60.11060351,611bf8b09116e2b85a9657eb,611e07ecdcc96256ae8d5b80,611e71641f6e0a06521d0a49,
,,,,space,0.6709,,0,133,133,6,1,Y, , , , ,space,2500,2.5,611bf8b09116e2b85a9657eb,001,2021-08-19_15h58.17.710,natb3,2021.2.3,Win32,60.11060351,611bf8b09116e2b85a9657eb,611e07ecdcc96256ae8d5b80,611e71641f6e0a06521d0a49,
,,,,,,,0,134,134,129,1,X,2,3,5, ,,1500,1.5,611bf8b09116e2b85a9657eb,001,2021-08-19_15h58.17.710,natb3,2021.2.3,Win32,60.11060351,611bf8b09116e2b85a9657eb,611e07ecdcc96256ae8d5b80,611e71641f6e0a06521d0a49,
,,,,,,,0,135,135,203,1,X, , , , ,,2500,2.5,611bf8b09116e2b85a9657eb,001,2021-08-19_15h58.17.710,natb3,2021.2.3,Win32,60.11060351,611bf8b09116e2b85a9657eb,611e07ecdcc96256ae8d5b80,611e71641f6e0a06521d0a49,
,,,,,,,0,136,136,60,1,X,7,3,5, ,,1500,1.5,611bf8b09116e2b85a9657eb,001,2021-08-19_15h58.17.710,natb3,2021.2.3,Win32,60.11060351,611bf8b09116e2b85a9657eb,611e07ecdcc96256ae8d5b80,611e71641f6e0a06521d0a49,
,,,,,,,0,137,137,168,1,X, , , , ,,2500,2.5,611bf8b09116e2b85a9657eb,001,2021-08-19_15h58.17.710,natb3,2021.2.3,Win32,60.11060351,611bf8b09116e2b85a9657eb,611e07ecdcc96256ae8d5b80,611e71641f6e0a06521d0a49,
,,,,space,0.6712,,0,138,138,103,1,W, , , , ,space,2000,2,611bf8b09116e2b85a9657eb,001,2021-08-19_15h58.17.710,natb3,2021.2.3,Win32,60.11060351,611bf8b09116e2b85a9657eb,611e07ecdcc96256ae8d5b80,611e71641f6e0a06521d0a49,
,,,,space,0.4794,,0,139,139,11,1,P, , , , ,space,2500,2.5,611bf8b09116e2b85a9657eb,001,2021-08-19_15h58.17.710,natb3,2021.2.3,Win32,60.11060351,611bf8b09116e2b85a9657eb,611e07ecdcc96256ae8d5b80,611e71641f6e0a06521d0a49,
,,,,space,0.5026,,0,140,140,68,1,W, , , , ,space,2500,2.5,611bf8b09116e2b85a9657eb,001,2021-08-19_15h58.17.710,natb3,2021.2.3,Win32,60.11060351,611bf8b09116e2b85a9657eb,611e07ecdcc96256ae8d5b80,611e71641f6e0a06521d0a49,
,,,,space,0.6569,,0,141,141,5,1,T, , , , ,space,2000,2,611bf8b09116e2b85a9657eb,001,2021-08-19_15h58.17.710,natb3,2021.2.3,Win32,60.11060351,611bf8b09116e2b85a9657eb,611e07ecdcc96256ae8d5b80,611e71641f6e0a06521d0a49,
,,,,space,0.5881,,0,142,142,59,1,Z, , , , ,space,2000,2,611bf8b09116e2b85a9657eb,001,2021-08-19_15h58.17.710,natb3,2021.2.3,Win32,60.11060351,611bf8b09116e2b85a9657eb,611e07ecdcc96256ae8d5b80,611e71641f6e0a06521d0a49,
,,,,space,0.552,,0,143,143,306,1,D, , , , ,space,2000,2,611bf8b09116e2b85a9657eb,001,2021-08-19_15h58.17.710,natb3,2021.2.3,Win32,60.11060351,611bf8b09116e2b85a9657eb,611e07ecdcc96256ae8d5b80,611e71641f6e0a06521d0a49,
,,,,space,0.5671,,0,144,144,241,1,G, , , , ,space,2500,2.5,611bf8b09116e2b85a9657eb,001,2021-08-19_15h58.17.710,natb3,2021.2.3,Win32,60.11060351,611bf8b09116e2b85a9657eb,611e07ecdcc96256ae8d5b80,611e71641f6e0a06521d0a49,
,,,,space,0.6298,,0,145,145,115,1,R, , , , ,space,1500,1.5,611bf8b09116e2b85a9657eb,001,2021-08-19_15h58.17.710,natb3,2021.2.3,Win32,60.11060351,611bf8b09116e2b85a9657eb,611e07ecdcc96256ae8d5b80,611e71641f6e0a06521d0a49,
,,,,space,0.5801,,0,146,146,150,1,T, , , , ,space,2500,2.5,611bf8b09116e2b85a9657eb,001,2021-08-19_15h58.17.710,natb3,2021.2.3,Win32,60.11060351,611bf8b09116e2b85a9657eb,611e07ecdcc96256ae8d5b80,611e71641f6e0a06521d0a49,
,,,,space,0.7325,,0,147,147,130,1,F, , , , ,space,2000,2,611bf8b09116e2b85a9657eb,001,2021-08-19_15h58.17.710,natb3,2021.2.3,Win32,60.11060351,611bf8b09116e2b85a9657eb,611e07ecdcc96256ae8d5b80,611e71641f6e0a06521d0a49,
,,,,space,0.5963,,0,148,148,257,1,W, , , , ,space,2000,2,611bf8b09116e2b85a9657eb,001,2021-08-19_15h58.17.710,natb3,2021.2.3,Win32,60.11060351,611bf8b09116e2b85a9657eb,611e07ecdcc96256ae8d5b80,611e71641f6e0a06521d0a49,
,,,,space,0.3827,,0,149,149,199,1,J, , , , ,space,2500,2.5,611bf8b09116e2b85a9657eb,001,2021-08-19_15h58.17.710,natb3,2021.2.3,Win32,60.11060351,611bf8b09116e2b85a9657eb,611e07ecdcc96256ae8d5b80,611e71641f6e0a06521d0a49,
,,,,space,0.525,,0,150,150,85,1,F, , , , ,space,2500,2.5,611bf8b09116e2b85a9657eb,001,2021-08-19_15h58.17.710,natb3,2021.2.3,Win32,60.11060351,611bf8b09116e2b85a9657eb,611e07ecdcc96256ae8d5b80,611e71641f6e0a06521d0a49,
,,,,,,,0,151,151,273,1,X, , , , ,,2000,2,611bf8b09116e2b85a9657eb,001,2021-08-19_15h58.17.710,natb3,2021.2.3,Win32,60.11060351,611bf8b09116e2b85a9657eb,611e07ecdcc96256ae8d5b80,611e71641f6e0a06521d0a49,
,,,,,,,0,152,152,200,1,X,7, ,5,3,,1500,1.5,611bf8b09116e2b85a9657eb,001,2021-08-19_15h58.17.710,natb3,2021.2.3,Win32,60.11060351,611bf8b09116e2b85a9657eb,611e07ecdcc96256ae8d5b80,611e71641f6e0a06521d0a49,
,,,,space,0.6638,,0,153,153,101,1,Q, , , , ,space,2500,2.5,611bf8b09116e2b85a9657eb,001,2021-08-19_15h58.17.710,natb3,2021.2.3,Win32,60.11060351,611bf8b09116e2b85a9657eb,611e07ecdcc96256ae8d5b80,611e71641f6e0a06521d0a49,
,,,,,,,0,154,154,148,1,X, , , , ,,2000,2,611bf8b09116e2b85a9657eb,001,2021-08-19_15h58.17.710,natb3,2021.2.3,Win32,60.11060351,611bf8b09116e2b85a9657eb,611e07ecdcc96256ae8d5b80,611e71641f6e0a06521d0a49,
,,,,space,0.6067,,0,155,155,137,1,C, , , , ,space,2500,2.5,611bf8b09116e2b85a9657eb,001,2021-08-19_15h58.17.710,natb3,2021.2.3,Win32,60.11060351,611bf8b09116e2b85a9657eb,611e07ecdcc96256ae8d5b80,611e71641f6e0a06521d0a49,
,,,,space,0.5202,,0,156,156,188,1,I, , , , ,space,2500,2.5,611bf8b09116e2b85a9657eb,001,2021-08-19_15h58.17.710,natb3,2021.2.3,Win32,60.11060351,611bf8b09116e2b85a9657eb,611e07ecdcc96256ae8d5b80,611e71641f6e0a06521d0a49,
,,,,space,0.7048,,0,157,157,140,1,B, , , , ,space,2500,2.5,611bf8b09116e2b85a9657eb,001,2021-08-19_15h58.17.710,natb3,2021.2.3,Win32,60.11060351,611bf8b09116e2b85a9657eb,611e07ecdcc96256ae8d5b80,611e71641f6e0a06521d0a49,
,,,,space,0.367,,0,158,158,315,1,X, , , , ,,2500,2.5,611bf8b09116e2b85a9657eb,001,2021-08-19_15h58.17.710,natb3,2021.2.3,Win32,60.11060351,611bf8b09116e2b85a9657eb,611e07ecdcc96256ae8d5b80,611e71641f6e0a06521d0a49,
,,,,space,0.5383,,0,159,159,308,1,G, , , , ,space,1500,1.5,611bf8b09116e2b85a9657eb,001,2021-08-19_15h58.17.710,natb3,2021.2.3,Win32,60.11060351,611bf8b09116e2b85a9657eb,611e07ecdcc96256ae8d5b80,611e71641f6e0a06521d0a49,
,,,,,,,0,160,160,46,1,X, , , , ,,2000,2,611bf8b09116e2b85a9657eb,001,2021-08-19_15h58.17.710,natb3,2021.2.3,Win32,60.11060351,611bf8b09116e2b85a9657eb,611e07ecdcc96256ae8d5b80,611e71641f6e0a06521d0a49,
,,,,space,0.3405,,0,161,161,91,1,L, , , , ,space,2000,2,611bf8b09116e2b85a9657eb,001,2021-08-19_15h58.17.710,natb3,2021.2.3,Win32,60.11060351,611bf8b09116e2b85a9657eb,611e07ecdcc96256ae8d5b80,611e71641f6e0a06521d0a49,
,,,,space,0.9541,,0,162,162,105,1,R, , , , ,space,2500,2.5,611bf8b09116e2b85a9657eb,001,2021-08-19_15h58.17.710,natb3,2021.2.3,Win32,60.11060351,611bf8b09116e2b85a9657eb,611e07ecdcc96256ae8d5b80,611e71641f6e0a06521d0a49,
,,,,space,0.5495,,0,163,163,212,1,Q, , , , ,space,2500,2.5,611bf8b09116e2b85a9657eb,001,2021-08-19_15h58.17.710,natb3,2021.2.3,Win32,60.11060351,611bf8b09116e2b85a9657eb,611e07ecdcc96256ae8d5b80,611e71641f6e0a06521d0a49,
,,,,space,0.4888,,0,164,164,275,1,G, , , , ,space,1500,1.5,611bf8b09116e2b85a9657eb,001,2021-08-19_15h58.17.710,natb3,2021.2.3,Win32,60.11060351,611bf8b09116e2b85a9657eb,611e07ecdcc96256ae8d5b80,611e71641f6e0a06521d0a49,
,,,,space,0.5154,,0,165,165,25,1,Z, , , , ,space,2500,2.5,611bf8b09116e2b85a9657eb,001,2021-08-19_15h58.17.710,natb3,2021.2.3,Win32,60.11060351,611bf8b09116e2b85a9657eb,611e07ecdcc96256ae8d5b80,611e71641f6e0a06521d0a49,
,,,,,,,0,166,166,96,1,X, , , , ,,1500,1.5,611bf8b09116e2b85a9657eb,001,2021-08-19_15h58.17.710,natb3,2021.2.3,Win32,60.11060351,611bf8b09116e2b85a9657eb,611e07ecdcc96256ae8d5b80,611e71641f6e0a06521d0a49,
,,,,space,0.3665,space,0,167,167,53,1,G, , , , ,space,2500,2.5,611bf8b09116e2b85a9657eb,001,2021-08-19_15h58.17.710,natb3,2021.2.3,Win32,60.11060351,611bf8b09116e2b85a9657eb,611e07ecdcc96256ae8d5b80,611e71641f6e0a06521d0a49,1.7635
,,,,space,0.5054,,0,168,168,283,1,C, , , , ,space,1500,1.5,611bf8b09116e2b85a9657eb,001,2021-08-19_15h58.17.710,natb3,2021.2.3,Win32,60.11060351,611bf8b09116e2b85a9657eb,611e07ecdcc96256ae8d5b80,611e71641f6e0a06521d0a49,
,,,,,,,0,169,169,282,1,X, , , , ,,2500,2.5,611bf8b09116e2b85a9657eb,001,2021-08-19_15h58.17.710,natb3,2021.2.3,Win32,60.11060351,611bf8b09116e2b85a9657eb,611e07ecdcc96256ae8d5b80,611e71641f6e0a06521d0a49,
,,,,,,,0,170,170,239,1,X, , , , ,,2000,2,611bf8b09116e2b85a9657eb,001,2021-08-19_15h58.17.710,natb3,2021.2.3,Win32,60.11060351,611bf8b09116e2b85a9657eb,611e07ecdcc96256ae8d5b80,611e71641f6e0a06521d0a49,
,,,,space,0.4163,,0,171,171,249,1,C, , , , ,space,2000,2,611bf8b09116e2b85a9657eb,001,2021-08-19_15h58.17.710,natb3,2021.2.3,Win32,60.11060351,611bf8b09116e2b85a9657eb,611e07ecdcc96256ae8d5b80,611e71641f6e0a06521d0a49,
,,,,space,0.3662,,0,172,172,14,1,S, , , , ,space,2500,2.5,611bf8b09116e2b85a9657eb,001,2021-08-19_15h58.17.710,natb3,2021.2.3,Win32,60.11060351,611bf8b09116e2b85a9657eb,611e07ecdcc96256ae8d5b80,611e71641f6e0a06521d0a49,
,,,,,,,0,173,173,138,1,X,8,5, ,3,,2000,2,611bf8b09116e2b85a9657eb,001,2021-08-19_15h58.17.710,natb3,2021.2.3,Win32,60.11060351,611bf8b09116e2b85a9657eb,611e07ecdcc96256ae8d5b80,611e71641f6e0a06521d0a49,
,,,,space,0.4093,,0,174,174,135,1,K, , , , ,space,1500,1.5,611bf8b09116e2b85a9657eb,001,2021-08-19_15h58.17.710,natb3,2021.2.3,Win32,60.11060351,611bf8b09116e2b85a9657eb,611e07ecdcc96256ae8d5b80,611e71641f6e0a06521d0a49,
,,,,space,0.3833,,0,175,175,183,1,R, , , , ,space,1500,1.5,611bf8b09116e2b85a9657eb,001,2021-08-19_15h58.17.710,natb3,2021.2.3,Win32,60.11060351,611bf8b09116e2b85a9657eb,611e07ecdcc96256ae8d5b80,611e71641f6e0a06521d0a49,
,,,,space,0.376,,0,176,176,70,1,E, , , , ,space,2500,2.5,611bf8b09116e2b85a9657eb,001,2021-08-19_15h58.17.710,natb3,2021.2.3,Win32,60.11060351,611bf8b09116e2b85a9657eb,611e07ecdcc96256ae8d5b80,611e71641f6e0a06521d0a49,
,,,,space,0.4083,,0,177,177,296,1,Y, , , , ,space,2500,2.5,611bf8b09116e2b85a9657eb,001,2021-08-19_15h58.17.710,natb3,2021.2.3,Win32,60.11060351,611bf8b09116e2b85a9657eb,611e07ecdcc96256ae8d5b80,611e71641f6e0a06521d0a49,
,,,,space,0.3753,,0,178,178,216,1,R, , , , ,space,1500,1.5,611bf8b09116e2b85a9657eb,001,2021-08-19_15h58.17.710,natb3,2021.2.3,Win32,60.11060351,611bf8b09116e2b85a9657eb,611e07ecdcc96256ae8d5b80,611e71641f6e0a06521d0a49,
,,,,space,0.3827,,0,179,179,280,1,L, , , , ,space,1500,1.5,611bf8b09116e2b85a9657eb,001,2021-08-19_15h58.17.710,natb3,2021.2.3,Win32,60.11060351,611bf8b09116e2b85a9657eb,611e07ecdcc96256ae8d5b80,611e71641f6e0a06521d0a49,
,,,,,,,0,180,180,93,1,X,5, ,7, ,,2500,2.5,611bf8b09116e2b85a9657eb,001,2021-08-19_15h58.17.710,natb3,2021.2.3,Win32,60.11060351,611bf8b09116e2b85a9657eb,611e07ecdcc96256ae8d5b80,611e71641f6e0a06521d0a49,
,,,,space,0.3647,,0,181,181,76,1,I, , , , ,space,2000,2,611bf8b09116e2b85a9657eb,001,2021-08-19_15h58.17.710,natb3,2021.2.3,Win32,60.11060351,611bf8b09116e2b85a9657eb,611e07ecdcc96256ae8d5b80,611e71641f6e0a06521d0a49,
,,,,space,0.5105,,0,182,182,155,1,O, , , , ,space,1500,1.5,611bf8b09116e2b85a9657eb,001,2021-08-19_15h58.17.710,natb3,2021.2.3,Win32,60.11060351,611bf8b09116e2b85a9657eb,611e07ecdcc96256ae8d5b80,611e71641f6e0a06521d0a49,
,,,,space,0.3617,,0,183,183,333,1,I, , , , ,space,1500,1.5,611bf8b09116e2b85a9657eb,001,2021-08-19_15h58.17.710,natb3,2021.2.3,Win32,60.11060351,611bf8b09116e2b85a9657eb,611e07ecdcc96256ae8d5b80,611e71641f6e0a06521d0a49,
,,,,space,0.3191,,0,184,184,116,1,X, , , , ,,2000,2,611bf8b09116e2b85a9657eb,001,2021-08-19_15h58.17.710,natb3,2021.2.3,Win32,60.11060351,611bf8b09116e2b85a9657eb,611e07ecdcc96256ae8d5b80,611e71641f6e0a06521d0a49,
,,,,space,0.3662,,0,185,185,109,1,U, , , , ,space,1500,1.5,611bf8b09116e2b85a9657eb,001,2021-08-19_15h58.17.710,natb3,2021.2.3,Win32,60.11060351,611bf8b09116e2b85a9657eb,611e07ecdcc96256ae8d5b80,611e71641f6e0a06521d0a49,
,,,,space,0.4172,,0,186,186,157,1,A, , , , ,space,2500,2.5,611bf8b09116e2b85a9657eb,001,2021-08-19_15h58.17.710,natb3,2021.2.3,Win32,60.11060351,611bf8b09116e2b85a9657eb,611e07ecdcc96256ae8d5b80,611e71641f6e0a06521d0a49,
,,,,,,,0,187,187,98,1,X, , , , ,,2500,2.5,611bf8b09116e2b85a9657eb,001,2021-08-19_15h58.17.710,natb3,2021.2.3,Win32,60.11060351,611bf8b09116e2b85a9657eb,611e07ecdcc96256ae8d5b80,611e71641f6e0a06521d0a49,
,,,,,,,0,188,188,207,1,X,9, ,2, ,,2500,2.5,611bf8b09116e2b85a9657eb,001,2021-08-19_15h58.17.710,natb3,2021.2.3,Win32,60.11060351,611bf8b09116e2b85a9657eb,611e07ecdcc96256ae8d5b80,611e71641f6e0a06521d0a49,
,,,,space,0.6676,,0,189,189,215,1,E, , , , ,space,2500,2.5,611bf8b09116e2b85a9657eb,001,2021-08-19_15h58.17.710,natb3,2021.2.3,Win32,60.11060351,611bf8b09116e2b85a9657eb,611e07ecdcc96256ae8d5b80,611e71641f6e0a06521d0a49,
,,,,space,0.4328,,0,190,190,300,1,O, , , , ,space,2500,2.5,611bf8b09116e2b85a9657eb,001,2021-08-19_15h58.17.710,natb3,2021.2.3,Win32,60.11060351,611bf8b09116e2b85a9657eb,611e07ecdcc96256ae8d5b80,611e71641f6e0a06521d0a49,
,,,,,,,0,191,191,118,1,X, , , , ,,2000,2,611bf8b09116e2b85a9657eb,001,2021-08-19_15h58.17.710,natb3,2021.2.3,Win32,60.11060351,611bf8b09116e2b85a9657eb,611e07ecdcc96256ae8d5b80,611e71641f6e0a06521d0a49,
,,,,space,0.4101,,0,192,192,173,1,V, , , , ,space,1500,1.5,611bf8b09116e2b85a9657eb,001,2021-08-19_15h58.17.710,natb3,2021.2.3,Win32,60.11060351,611bf8b09116e2b85a9657eb,611e07ecdcc96256ae8d5b80,611e71641f6e0a06521d0a49,
,,,,space,0.3837,,0,193,193,294,1,T, , , , ,space,2000,2,611bf8b09116e2b85a9657eb,001,2021-08-19_15h58.17.710,natb3,2021.2.3,Win32,60.11060351,611bf8b09116e2b85a9657eb,611e07ecdcc96256ae8d5b80,611e71641f6e0a06521d0a49,
,,,,space,0.4334,,0,194,194,267,1,P, , , , ,space,2000,2,611bf8b09116e2b85a9657eb,001,2021-08-19_15h58.17.710,natb3,2021.2.3,Win32,60.11060351,611bf8b09116e2b85a9657eb,611e07ecdcc96256ae8d5b80,611e71641f6e0a06521d0a49,
,,,,space,0.632,,0,195,195,319,1,V, , , , ,space,2000,2,611bf8b09116e2b85a9657eb,001,2021-08-19_15h58.17.710,natb3,2021.2.3,Win32,60.11060351,611bf8b09116e2b85a9657eb,611e07ecdcc96256ae8d5b80,611e71641f6e0a06521d0a49,
,,,,space,0.3333,,0,196,196,26,1,C, , , , ,space,2000,2,611bf8b09116e2b85a9657eb,001,2021-08-19_15h58.17.710,natb3,2021.2.3,Win32,60.11060351,611bf8b09116e2b85a9657eb,611e07ecdcc96256ae8d5b80,611e71641f6e0a06521d0a49,
,,,,space,0.3328,,0,197,197,12,1,X, , , , ,,1500,1.5,611bf8b09116e2b85a9657eb,001,2021-08-19_15h58.17.710,natb3,2021.2.3,Win32,60.11060351,611bf8b09116e2b85a9657eb,611e07ecdcc96256ae8d5b80,611e71641f6e0a06521d0a49,
,,,,space,0.4008,,0,198,198,54,1,X, , , , ,,2000,2,611bf8b09116e2b85a9657eb,001,2021-08-19_15h58.17.710,natb3,2021.2.3,Win32,60.11060351,611bf8b09116e2b85a9657eb,611e07ecdcc96256ae8d5b80,611e71641f6e0a06521d0a49,
,,,,space,0.5034,,0,199,199,321,1,N, , , , ,space,2000,2,611bf8b09116e2b85a9657eb,001,2021-08-19_15h58.17.710,natb3,2021.2.3,Win32,60.11060351,611bf8b09116e2b85a9657eb,611e07ecdcc96256ae8d5b80,611e71641f6e0a06521d0a49,
,,,,space,0.5121,,0,200,200,92,1,Z, , , , ,space,1500,1.5,611bf8b09116e2b85a9657eb,001,2021-08-19_15h58.17.710,natb3,2021.2.3,Win32,60.11060351,611bf8b09116e2b85a9657eb,611e07ecdcc96256ae8d5b80,611e71641f6e0a06521d0a49,
,,,,space,0.6052,,0,201,201,49,1,S, , , , ,space,1500,1.5,611bf8b09116e2b85a9657eb,001,2021-08-19_15h58.17.710,natb3,2021.2.3,Win32,60.11060351,611bf8b09116e2b85a9657eb,611e07ecdcc96256ae8d5b80,611e71641f6e0a06521d0a49,
,,,,space,0.4865,,0,202,202,120,1,U, , , , ,space,1500,1.5,611bf8b09116e2b85a9657eb,001,2021-08-19_15h58.17.710,natb3,2021.2.3,Win32,60.11060351,611bf8b09116e2b85a9657eb,611e07ecdcc96256ae8d5b80,611e71641f6e0a06521d0a49,
,,,,space,0.4707,,0,203,203,227,1,T, , , , ,space,1500,1.5,611bf8b09116e2b85a9657eb,001,2021-08-19_15h58.17.710,natb3,2021.2.3,Win32,60.11060351,611bf8b09116e2b85a9657eb,611e07ecdcc96256ae8d5b80,611e71641f6e0a06521d0a49,
,,,,space,0.5,,0,204,204,170,1,Z, , , , ,space,2000,2,611bf8b09116e2b85a9657eb,001,2021-08-19_15h58.17.710,natb3,2021.2.3,Win32,60.11060351,611bf8b09116e2b85a9657eb,611e07ecdcc96256ae8d5b80,611e71641f6e0a06521d0a49,
,,,,space,0.4796,,0,205,205,159,1,S, , , , ,space,2500,2.5,611bf8b09116e2b85a9657eb,001,2021-08-19_15h58.17.710,natb3,2021.2.3,Win32,60.11060351,611bf8b09116e2b85a9657eb,611e07ecdcc96256ae8d5b80,611e71641f6e0a06521d0a49,
,,,,space,0.425,,0,206,206,309,1,H, , , , ,space,2500,2.5,611bf8b09116e2b85a9657eb,001,2021-08-19_15h58.17.710,natb3,2021.2.3,Win32,60.11060351,611bf8b09116e2b85a9657eb,611e07ecdcc96256ae8d5b80,611e71641f6e0a06521d0a49,
,,,,,,,0,207,207,89,1,X,3, , , ,,2000,2,611bf8b09116e2b85a9657eb,001,2021-08-19_15h58.17.710,natb3,2021.2.3,Win32,60.11060351,611bf8b09116e2b85a9657eb,611e07ecdcc96256ae8d5b80,611e71641f6e0a06521d0a49,
,,,,space,0.4287,,0,208,208,2,1,E, , , , ,space,2500,2.5,611bf8b09116e2b85a9657eb,001,2021-08-19_15h58.17.710,natb3,2021.2.3,Win32,60.11060351,611bf8b09116e2b85a9657eb,611e07ecdcc96256ae8d5b80,611e71641f6e0a06521d0a49,
,,,,space,0.4074,,0,209,209,151,1,Y, , , , ,space,2500,2.5,611bf8b09116e2b85a9657eb,001,2021-08-19_15h58.17.710,natb3,2021.2.3,Win32,60.11060351,611bf8b09116e2b85a9657eb,611e07ecdcc96256ae8d5b80,611e71641f6e0a06521d0a49,
,,,,space,0.5171,,0,210,210,94,1,C, , , , ,space,2000,2,611bf8b09116e2b85a9657eb,001,2021-08-19_15h58.17.710,natb3,2021.2.3,Win32,60.11060351,611bf8b09116e2b85a9657eb,611e07ecdcc96256ae8d5b80,611e71641f6e0a06521d0a49,
,,,,space,0.6623,,0,211,211,226,1,R, , , , ,space,2000,2,611bf8b09116e2b85a9657eb,001,2021-08-19_15h58.17.710,natb3,2021.2.3,Win32,60.11060351,611bf8b09116e2b85a9657eb,611e07ecdcc96256ae8d5b80,611e71641f6e0a06521d0a49,
,,,,space,0.3988,,0,212,212,152,1,U, , , , ,space,2000,2,611bf8b09116e2b85a9657eb,001,2021-08-19_15h58.17.710,natb3,2021.2.3,Win32,60.11060351,611bf8b09116e2b85a9657eb,611e07ecdcc96256ae8d5b80,611e71641f6e0a06521d0a49,
,,,,space,0.3555,,0,213,213,34,1,Q, , , , ,space,2500,2.5,611bf8b09116e2b85a9657eb,001,2021-08-19_15h58.17.710,natb3,2021.2.3,Win32,60.11060351,611bf8b09116e2b85a9657eb,611e07ecdcc96256ae8d5b80,611e71641f6e0a06521d0a49,
,,,,space,0.433,,0,214,214,317,1,C, , , , ,space,2000,2,611bf8b09116e2b85a9657eb,001,2021-08-19_15h58.17.710,natb3,2021.2.3,Win32,60.11060351,611bf8b09116e2b85a9657eb,611e07ecdcc96256ae8d5b80,611e71641f6e0a06521d0a49,
,,,,space,0.5953,,0,215,215,269,1,A, , , , ,space,2500,2.5,611bf8b09116e2b85a9657eb,001,2021-08-19_15h58.17.710,natb3,2021.2.3,Win32,60.11060351,611bf8b09116e2b85a9657eb,611e07ecdcc96256ae8d5b80,611e71641f6e0a06521d0a49,
,,,,space,0.4045,,0,216,216,149,1,R, , , , ,space,2000,2,611bf8b09116e2b85a9657eb,001,2021-08-19_15h58.17.710,natb3,2021.2.3,Win32,60.11060351,611bf8b09116e2b85a9657eb,611e07ecdcc96256ae8d5b80,611e71641f6e0a06521d0a49,
,,,,space,0.4497,,0,217,217,7,1,X, , , , ,,1500,1.5,611bf8b09116e2b85a9657eb,001,2021-08-19_15h58.17.710,natb3,2021.2.3,Win32,60.11060351,611bf8b09116e2b85a9657eb,611e07ecdcc96256ae8d5b80,611e71641f6e0a06521d0a49,
,,,,,,,0,218,218,233,1,X, ,2, ,5,,1500,1.5,611bf8b09116e2b85a9657eb,001,2021-08-19_15h58.17.710,natb3,2021.2.3,Win32,60.11060351,611bf8b09116e2b85a9657eb,611e07ecdcc96256ae8d5b80,611e71641f6e0a06521d0a49,
,,,,,,,0,219,219,43,1,X, ,6, ,2,,2500,2.5,611bf8b09116e2b85a9657eb,001,2021-08-19_15h58.17.710,natb3,2021.2.3,Win32,60.11060351,611bf8b09116e2b85a9657eb,611e07ecdcc96256ae8d5b80,611e71641f6e0a06521d0a49,
,,,,,,,0,220,220,289,1,Q, , , , ,space,2000,2,611bf8b09116e2b85a9657eb,001,2021-08-19_15h58.17.710,natb3,2021.2.3,Win32,60.11060351,611bf8b09116e2b85a9657eb,611e07ecdcc96256ae8d5b80,611e71641f6e0a06521d0a49,
,,,,space,0.3629,,0,221,221,219,1,Y, , , , ,space,2000,2,611bf8b09116e2b85a9657eb,001,2021-08-19_15h58.17.710,natb3,2021.2.3,Win32,60.11060351,611bf8b09116e2b85a9657eb,611e07ecdcc96256ae8d5b80,611e71641f6e0a06521d0a49,
,,,,space,0.4038,,0,222,222,192,1,A, , , , ,space,2000,2,611bf8b09116e2b85a9657eb,001,2021-08-19_15h58.17.710,natb3,2021.2.3,Win32,60.11060351,611bf8b09116e2b85a9657eb,611e07ecdcc96256ae8d5b80,611e71641f6e0a06521d0a49,
,,,,space,0.5564,,0,223,223,67,1,Q, , , , ,space,2000,2,611bf8b09116e2b85a9657eb,001,2021-08-19_15h58.17.710,natb3,2021.2.3,Win32,60.11060351,611bf8b09116e2b85a9657eb,611e07ecdcc96256ae8d5b80,611e71641f6e0a06521d0a49,
,,,,,,,0,224,224,277,1,X,8,5, ,2,,2000,2,611bf8b09116e2b85a9657eb,001,2021-08-19_15h58.17.710,natb3,2021.2.3,Win32,60.11060351,611bf8b09116e2b85a9657eb,611e07ecdcc96256ae8d5b80,611e71641f6e0a06521d0a49,
,,,,space,0.5138,,0,225,225,276,1,H, , , , ,space,2000,2,611bf8b09116e2b85a9657eb,001,2021-08-19_15h58.17.710,natb3,2021.2.3,Win32,60.11060351,611bf8b09116e2b85a9657eb,611e07ecdcc96256ae8d5b80,611e71641f6e0a06521d0a49,
,,,,space,0.5988,,0,226,226,95,1,V, , , , ,space,1500,1.5,611bf8b09116e2b85a9657eb,001,2021-08-19_15h58.17.710,natb3,2021.2.3,Win32,60.11060351,611bf8b09116e2b85a9657eb,611e07ecdcc96256ae8d5b80,611e71641f6e0a06521d0a49,
,,,,space,0.4754,,0,227,227,232,1,O, , , , ,space,2500,2.5,611bf8b09116e2b85a9657eb,001,2021-08-19_15h58.17.710,natb3,2021.2.3,Win32,60.11060351,611bf8b09116e2b85a9657eb,611e07ecdcc96256ae8d5b80,611e71641f6e0a06521d0a49,
,,,,space,0.6996,,0,228,228,63,1,B, , , , ,space,2000,2,611bf8b09116e2b85a9657eb,001,2021-08-19_15h58.17.710,natb3,2021.2.3,Win32,60.11060351,611bf8b09116e2b85a9657eb,611e07ecdcc96256ae8d5b80,611e71641f6e0a06521d0a49,
,,,,,,,0,229,229,69,1,X, , , , ,,1500,1.5,611bf8b09116e2b85a9657eb,001,2021-08-19_15h58.17.710,natb3,2021.2.3,Win32,60.11060351,611bf8b09116e2b85a9657eb,611e07ecdcc96256ae8d5b80,611e71641f6e0a06521d0a49,
,,,,,,,0,230,230,175,1,X,7, ,4,2,,1500,1.5,611bf8b09116e2b85a9657eb,001,2021-08-19_15h58.17.710,natb3,2021.2.3,Win32,60.11060351,611bf8b09116e2b85a9657eb,611e07ecdcc96256ae8d5b80,611e71641f6e0a06521d0a49,
,,,,space,0.5248,,0,231,231,204,1,Z, , , , ,space,2000,2,611bf8b09116e2b85a9657eb,001,2021-08-19_15h58.17.710,natb3,2021.2.3,Win32,60.11060351,611bf8b09116e2b85a9657eb,611e07ecdcc96256ae8d5b80,611e71641f6e0a06521d0a49,
,,,,space,0.4908,,0,232,232,209,1,N, , , , ,space,2000,2,611bf8b09116e2b85a9657eb,001,2021-08-19_15h58.17.710,natb3,2021.2.3,Win32,60.11060351,611bf8b09116e2b85a9657eb,611e07ecdcc96256ae8d5b80,611e71641f6e0a06521d0a49,
,,,,space,0.4154,,0,233,233,97,1,B, , , , ,space,2500,2.5,611bf8b09116e2b85a9657eb,001,2021-08-19_15h58.17.710,natb3,2021.2.3,Win32,60.11060351,611bf8b09116e2b85a9657eb,611e07ecdcc96256ae8d5b80,611e71641f6e0a06521d0a49,
,,,,space,0.587,,0,234,234,121,1,I, , , , ,space,2000,2,611bf8b09116e2b85a9657eb,001,2021-08-19_15h58.17.710,natb3,2021.2.3,Win32,60.11060351,611bf8b09116e2b85a9657eb,611e07ecdcc96256ae8d5b80,611e71641f6e0a06521d0a49,
,,,,,,,0,235,235,263,1,X,4, ,6, ,,1500,1.5,611bf8b09116e2b85a9657eb,001,2021-08-19_15h58.17.710,natb3,2021.2.3,Win32,60.11060351,611bf8b09116e2b85a9657eb,611e07ecdcc96256ae8d5b80,611e71641f6e0a06521d0a49,
,,,,space,0.4604,,0,236,236,56,1,J, , , , ,space,1500,1.5,611bf8b09116e2b85a9657eb,001,2021-08-19_15h58.17.710,natb3,2021.2.3,Win32,60.11060351,611bf8b09116e2b85a9657eb,611e07ecdcc96256ae8d5b80,611e71641f6e0a06521d0a49,
,,,,space,0.4759,,0,237,237,139,1,V, , , , ,space,2000,2,611bf8b09116e2b85a9657eb,001,2021-08-19_15h58.17.710,natb3,2021.2.3,Win32,60.11060351,611bf8b09116e2b85a9657eb,611e07ecdcc96256ae8d5b80,611e71641f6e0a06521d0a49,
,,,,space,0.5387,,0,238,238,167,1,K, , , , ,space,1500,1.5,611bf8b09116e2b85a9657eb,001,2021-08-19_15h58.17.710,natb3,2021.2.3,Win32,60.11060351,611bf8b09116e2b85a9657eb,611e07ecdcc96256ae8d5b80,611e71641f6e0a06521d0a49,
,,,,space,0.4999,,0,239,239,190,1,P, , , , ,space,2000,2,611bf8b09116e2b85a9657eb,001,2021-08-19_15h58.17.710,natb3,2021.2.3,Win32,60.11060351,611bf8b09116e2b85a9657eb,611e07ecdcc96256ae8d5b80,611e71641f6e0a06521d0a49,
,,,,,,,0,240,240,39,1,X,6,2, , ,,1500,1.5,611bf8b09116e2b85a9657eb,001,2021-08-19_15h58.17.710,natb3,2021.2.3,Win32,60.11060351,611bf8b09116e2b85a9657eb,611e07ecdcc96256ae8d5b80,611e71641f6e0a06521d0a49,
,,,,space,0.4489,,0,241,241,21,1,J, , , , ,space,1500,1.5,611bf8b09116e2b85a9657eb,001,2021-08-19_15h58.17.710,natb3,2021.2.3,Win32,60.11060351,611bf8b09116e2b85a9657eb,611e07ecdcc96256ae8d5b80,611e71641f6e0a06521d0a49,
,,,,space,0.3084,,0,242,242,10,1,O, , , , ,space,2000,2,611bf8b09116e2b85a9657eb,001,2021-08-19_15h58.17.710,natb3,2021.2.3,Win32,60.11060351,611bf8b09116e2b85a9657eb,611e07ecdcc96256ae8d5b80,611e71641f6e0a06521d0a49,
,,,,space,0.3823,,0,243,243,88,1,J, , , , ,space,2500,2.5,611bf8b09116e2b85a9657eb,001,2021-08-19_15h58.17.710,natb3,2021.2.3,Win32,60.11060351,611bf8b09116e2b85a9657eb,611e07ecdcc96256ae8d5b80,611e71641f6e0a06521d0a49,
,,,,space,0.3454,,0,244,244,158,1,X, , , , ,,1500,1.5,611bf8b09116e2b85a9657eb,001,2021-08-19_15h58.17.710,natb3,2021.2.3,Win32,60.11060351,611bf8b09116e2b85a9657eb,611e07ecdcc96256ae8d5b80,611e71641f6e0a06521d0a49,
,,,,space,0.4376,,0,245,245,285,1,B, , , , ,space,1500,1.5,611bf8b09116e2b85a9657eb,001,2021-08-19_15h58.17.710,natb3,2021.2.3,Win32,60.11060351,611bf8b09116e2b85a9657eb,611e07ecdcc96256ae8d5b80,611e71641f6e0a06521d0a49,
,,,,space,0.6832,,0,246,246,234,1,P, , , , ,space,2000,2,611bf8b09116e2b85a9657eb,001,2021-08-19_15h58.17.710,natb3,2021.2.3,Win32,60.11060351,611bf8b09116e2b85a9657eb,611e07ecdcc96256ae8d5b80,611e71641f6e0a06521d0a49,
,,,,,,,0,247,247,252,1,X,3, ,6,9,,2000,2,611bf8b09116e2b85a9657eb,001,2021-08-19_15h58.17.710,natb3,2021.2.3,Win32,60.11060351,611bf8b09116e2b85a9657eb,611e07ecdcc96256ae8d5b80,611e71641f6e0a06521d0a49,
,,,,,,,0,248,248,229,1,X,8, ,2,6,,2500,2.5,611bf8b09116e2b85a9657eb,001,2021-08-19_15h58.17.710,natb3,2021.2.3,Win32,60.11060351,611bf8b09116e2b85a9657eb,611e07ecdcc96256ae8d5b80,611e71641f6e0a06521d0a49,
,,,,,,,0,249,249,166,1,X, , , , ,,2000,2,611bf8b09116e2b85a9657eb,001,2021-08-19_15h58.17.710,natb3,2021.2.3,Win32,60.11060351,611bf8b09116e2b85a9657eb,611e07ecdcc96256ae8d5b80,611e71641f6e0a06521d0a49,
,,,,space,0.8219,,0,250,250,8,1,U, , , , ,space,1500,1.5,611bf8b09116e2b85a9657eb,001,2021-08-19_15h58.17.710,natb3,2021.2.3,Win32,60.11060351,611bf8b09116e2b85a9657eb,611e07ecdcc96256ae8d5b80,611e71641f6e0a06521d0a49,
,,,,space,0.5505,,0,251,251,331,1,Y, , , , ,space,2500,2.5,611bf8b09116e2b85a9657eb,001,2021-08-19_15h58.17.710,natb3,2021.2.3,Win32,60.11060351,611bf8b09116e2b85a9657eb,611e07ecdcc96256ae8d5b80,611e71641f6e0a06521d0a49,
,,,,space,0.4358,,0,252,252,328,1,R, , , , ,space,1500,1.5,611bf8b09116e2b85a9657eb,001,2021-08-19_15h58.17.710,natb3,2021.2.3,Win32,60.11060351,611bf8b09116e2b85a9657eb,611e07ecdcc96256ae8d5b80,611e71641f6e0a06521d0a49,
,,,,space,0.4943,,0,253,253,206,1,V, , , , ,space,2000,2,611bf8b09116e2b85a9657eb,001,2021-08-19_15h58.17.710,natb3,2021.2.3,Win32,60.11060351,611bf8b09116e2b85a9657eb,611e07ecdcc96256ae8d5b80,611e71641f6e0a06521d0a49,
,,,,,,,0,254,254,4,1,X, , , , ,,2000,2,611bf8b09116e2b85a9657eb,001,2021-08-19_15h58.17.710,natb3,2021.2.3,Win32,60.11060351,611bf8b09116e2b85a9657eb,611e07ecdcc96256ae8d5b80,611e71641f6e0a06521d0a49,
,,,,,,,0,255,255,15,1,X, , , , ,,1500,1.5,611bf8b09116e2b85a9657eb,001,2021-08-19_15h58.17.710,natb3,2021.2.3,Win32,60.11060351,611bf8b09116e2b85a9657eb,611e07ecdcc96256ae8d5b80,611e71641f6e0a06521d0a49,
,,,,space,0.4019,,0,256,256,20,1,H, , , , ,space,1500,1.5,611bf8b09116e2b85a9657eb,001,2021-08-19_15h58.17.710,natb3,2021.2.3,Win32,60.11060351,611bf8b09116e2b85a9657eb,611e07ecdcc96256ae8d5b80,611e71641f6e0a06521d0a49,
,,,,space,0.4493,,0,257,257,144,1,Q, , , , ,space,2500,2.5,611bf8b09116e2b85a9657eb,001,2021-08-19_15h58.17.710,natb3,2021.2.3,Win32,60.11060351,611bf8b09116e2b85a9657eb,611e07ecdcc96256ae8d5b80,611e71641f6e0a06521d0a49,
,,,,space,0.4334,,0,258,258,186,1,U, , , , ,space,2500,2.5,611bf8b09116e2b85a9657eb,001,2021-08-19_15h58.17.710,natb3,2021.2.3,Win32,60.11060351,611bf8b09116e2b85a9657eb,611e07ecdcc96256ae8d5b80,611e71641f6e0a06521d0a49,
,,,,space,0.6428,,0,259,259,87,1,H, , , , ,space,1500,1.5,611bf8b09116e2b85a9657eb,001,2021-08-19_15h58.17.710,natb3,2021.2.3,Win32,60.11060351,611bf8b09116e2b85a9657eb,611e07ecdcc96256ae8d5b80,611e71641f6e0a06521d0a49,
,,,,space,0.6394,,0,260,260,196,1,F, , , , ,space,1500,1.5,611bf8b09116e2b85a9657eb,001,2021-08-19_15h58.17.710,natb3,2021.2.3,Win32,60.11060351,611bf8b09116e2b85a9657eb,611e07ecdcc96256ae8d5b80,611e71641f6e0a06521d0a49,
,,,,space,0.4666,,0,261,261,201,1,K, , , , ,space,1500,1.5,611bf8b09116e2b85a9657eb,001,2021-08-19_15h58.17.710,natb3,2021.2.3,Win32,60.11060351,611bf8b09116e2b85a9657eb,611e07ecdcc96256ae8d5b80,611e71641f6e0a06521d0a49,
,,,,space,0.4052,,0,262,262,131,1,G, , , , ,space,1500,1.5,611bf8b09116e2b85a9657eb,001,2021-08-19_15h58.17.710,natb3,2021.2.3,Win32,60.11060351,611bf8b09116e2b85a9657eb,611e07ecdcc96256ae8d5b80,611e71641f6e0a06521d0a49,
,,,,space,0.5335,,0,263,263,110,1,I, , , , ,space,1500,1.5,611bf8b09116e2b85a9657eb,001,2021-08-19_15h58.17.710,natb3,2021.2.3,Win32,60.11060351,611bf8b09116e2b85a9657eb,611e07ecdcc96256ae8d5b80,611e71641f6e0a06521d0a49,
,,,,space,0.5442,,0,264,264,17,1,F, , , , ,space,2500,2.5,611bf8b09116e2b85a9657eb,001,2021-08-19_15h58.17.710,natb3,2021.2.3,Win32,60.11060351,611bf8b09116e2b85a9657eb,611e07ecdcc96256ae8d5b80,611e71641f6e0a06521d0a49,
,,,,space,0.3751,,0,265,265,50,1,D, , , , ,space,1500,1.5,611bf8b09116e2b85a9657eb,001,2021-08-19_15h58.17.710,natb3,2021.2.3,Win32,60.11060351,611bf8b09116e2b85a9657eb,611e07ecdcc96256ae8d5b80,611e71641f6e0a06521d0a49,
,,,,space,0.6253,,0,266,266,323,1,M, , , , ,space,2500,2.5,611bf8b09116e2b85a9657eb,001,2021-08-19_15h58.17.710,natb3,2021.2.3,Win32,60.11060351,611bf8b09116e2b85a9657eb,611e07ecdcc96256ae8d5b80,611e71641f6e0a06521d0a49,
,,,,,,,0,267,267,27,1,X,5, ,1,3,,1500,1.5,611bf8b09116e2b85a9657eb,001,2021-08-19_15h58.17.710,natb3,2021.2.3,Win32,60.11060351,611bf8b09116e2b85a9657eb,611e07ecdcc96256ae8d5b80,611e71641f6e0a06521d0a49,
,,,,space,0.5373,,0,268,268,146,1,W, , , , ,space,1500,1.5,611bf8b09116e2b85a9657eb,001,2021-08-19_15h58.17.710,natb3,2021.2.3,Win32,60.11060351,611bf8b09116e2b85a9657eb,611e07ecdcc96256ae8d5b80,611e71641f6e0a06521d0a49,
,,,,space,0.5159,,0,269,269,304,1,S, , , , ,space,2000,2,611bf8b09116e2b85a9657eb,001,2021-08-19_15h58.17.710,natb3,2021.2.3,Win32,60.11060351,611bf8b09116e2b85a9657eb,611e07ecdcc96256ae8d5b80,611e71641f6e0a06521d0a49,
,,,,space,0.3697,,0,270,270,330,1,T, , , , ,space,2500,2.5,611bf8b09116e2b85a9657eb,001,2021-08-19_15h58.17.710,natb3,2021.2.3,Win32,60.11060351,611bf8b09116e2b85a9657eb,611e07ecdcc96256ae8d5b80,611e71641f6e0a06521d0a49,
,,,,space,0.3939,,0,271,271,1,1,W, , , , ,space,2000,2,611bf8b09116e2b85a9657eb,001,2021-08-19_15h58.17.710,natb3,2021.2.3,Win32,60.11060351,611bf8b09116e2b85a9657eb,611e07ecdcc96256ae8d5b80,611e71641f6e0a06521d0a49,
,,,,space,0.4285,,0,272,272,240,1,F, , , , ,space,2500,2.5,611bf8b09116e2b85a9657eb,001,2021-08-19_15h58.17.710,natb3,2021.2.3,Win32,60.11060351,611bf8b09116e2b85a9657eb,611e07ecdcc96256ae8d5b80,611e71641f6e0a06521d0a49,
,,,,space,0.46,,0,273,273,222,1,O, , , , ,space,2000,2,611bf8b09116e2b85a9657eb,001,2021-08-19_15h58.17.710,natb3,2021.2.3,Win32,60.11060351,611bf8b09116e2b85a9657eb,611e07ecdcc96256ae8d5b80,611e71641f6e0a06521d0a49,
,,,,space,0.5191,,0,274,274,210,1,M, , , , ,space,1500,1.5,611bf8b09116e2b85a9657eb,001,2021-08-19_15h58.17.710,natb3,2021.2.3,Win32,60.11060351,611bf8b09116e2b85a9657eb,611e07ecdcc96256ae8d5b80,611e71641f6e0a06521d0a49,
,,,,space,0.5063,,0,275,275,37,1,E, , , , ,space,2500,2.5,611bf8b09116e2b85a9657eb,001,2021-08-19_15h58.17.710,natb3,2021.2.3,Win32,60.11060351,611bf8b09116e2b85a9657eb,611e07ecdcc96256ae8d5b80,611e71641f6e0a06521d0a49,
,,,,space,0.1469,,0,276,276,272,1,D, , , , ,space,2000,2,611bf8b09116e2b85a9657eb,001,2021-08-19_15h58.17.710,natb3,2021.2.3,Win32,60.11060351,611bf8b09116e2b85a9657eb,611e07ecdcc96256ae8d5b80,611e71641f6e0a06521d0a49,
,,,,space,0.4146,,0,277,277,128,1,D, , , , ,space,2500,2.5,611bf8b09116e2b85a9657eb,001,2021-08-19_15h58.17.710,natb3,2021.2.3,Win32,60.11060351,611bf8b09116e2b85a9657eb,611e07ecdcc96256ae8d5b80,611e71641f6e0a06521d0a49,
,,,,space,0.4865,,0,278,278,45,1,O, , , , ,space,2000,2,611bf8b09116e2b85a9657eb,001,2021-08-19_15h58.17.710,natb3,2021.2.3,Win32,60.11060351,611bf8b09116e2b85a9657eb,611e07ecdcc96256ae8d5b80,611e71641f6e0a06521d0a49,
,,,,space,0.3378,,0,279,279,181,1,E, , , , ,space,1500,1.5,611bf8b09116e2b85a9657eb,001,2021-08-19_15h58.17.710,natb3,2021.2.3,Win32,60.11060351,611bf8b09116e2b85a9657eb,611e07ecdcc96256ae8d5b80,611e71641f6e0a06521d0a49,
,,,,space,0.5692,,0,280,280,302,1,X, , , , ,,2000,2,611bf8b09116e2b85a9657eb,001,2021-08-19_15h58.17.710,natb3,2021.2.3,Win32,60.11060351,611bf8b09116e2b85a9657eb,611e07ecdcc96256ae8d5b80,611e71641f6e0a06521d0a49,
,,,,space,0.4728,,0,281,281,225,1,E, , , , ,space,2000,2,611bf8b09116e2b85a9657eb,001,2021-08-19_15h58.17.710,natb3,2021.2.3,Win32,60.11060351,611bf8b09116e2b85a9657eb,611e07ecdcc96256ae8d5b80,611e71641f6e0a06521d0a49,
,,,,space,0.4486,,0,282,282,286,1,N, , , , ,space,1500,1.5,611bf8b09116e2b85a9657eb,001,2021-08-19_15h58.17.710,natb3,2021.2.3,Win32,60.11060351,611bf8b09116e2b85a9657eb,611e07ecdcc96256ae8d5b80,611e71641f6e0a06521d0a49,
,,,,space,0.5495,,0,283,283,79,1,P, , , , ,space,2000,2,611bf8b09116e2b85a9657eb,001,2021-08-19_15h58.17.710,natb3,2021.2.3,Win32,60.11060351,611bf8b09116e2b85a9657eb,611e07ecdcc96256ae8d5b80,611e71641f6e0a06521d0a49,
,,,,space,0.3922,,0,284,284,221,1,I, , , , ,space,2500,2.5,611bf8b09116e2b85a9657eb,001,2021-08-19_15h58.17.710,natb3,2021.2.3,Win32,60.11060351,611bf8b09116e2b85a9657eb,611e07ecdcc96256ae8d5b80,611e71641f6e0a06521d0a49,
,,,,space,0.4784,,0,285,285,185,1,Y, , , , ,space,2500,2.5,611bf8b09116e2b85a9657eb,001,2021-08-19_15h58.17.710,natb3,2021.2.3,Win32,60.11060351,611bf8b09116e2b85a9657eb,611e07ecdcc96256ae8d5b80,611e71641f6e0a06521d0a49,
,,,,space,0.682,,0,286,286,326,1,W, , , , ,space,2000,2,611bf8b09116e2b85a9657eb,001,2021-08-19_15h58.17.710,natb3,2021.2.3,Win32,60.11060351,611bf8b09116e2b85a9657eb,611e07ecdcc96256ae8d5b80,611e71641f6e0a06521d0a49,
,,,,space,0.4061,,0,287,287,19,1,G, , , , ,space,1500,1.5,611bf8b09116e2b85a9657eb,001,2021-08-19_15h58.17.710,natb3,2021.2.3,Win32,60.11060351,611bf8b09116e2b85a9657eb,611e07ecdcc96256ae8d5b80,611e71641f6e0a06521d0a49,
,,,,space,0.3876,,0,288,288,220,1,U, , , , ,space,2500,2.5,611bf8b09116e2b85a9657eb,001,2021-08-19_15h58.17.710,natb3,2021.2.3,Win32,60.11060351,611bf8b09116e2b85a9657eb,611e07ecdcc96256ae8d5b80,611e71641f6e0a06521d0a49,
,,,,space,0.4424,,0,289,289,314,1,L, , , , ,space,1500,1.5,611bf8b09116e2b85a9657eb,001,2021-08-19_15h58.17.710,natb3,2021.2.3,Win32,60.11060351,611bf8b09116e2b85a9657eb,611e07ecdcc96256ae8d5b80,611e71641f6e0a06521d0a49,
,,,,space,0.4485,,0,290,290,32,1,M, , , , ,space,1500,1.5,611bf8b09116e2b85a9657eb,001,2021-08-19_15h58.17.710,natb3,2021.2.3,Win32,60.11060351,611bf8b09116e2b85a9657eb,611e07ecdcc96256ae8d5b80,611e71641f6e0a06521d0a49,
,,,,space,0.3459,,0,291,291,65,1,M, , , , ,space,1500,1.5,611bf8b09116e2b85a9657eb,001,2021-08-19_15h58.17.710,natb3,2021.2.3,Win32,60.11060351,611bf8b09116e2b85a9657eb,611e07ecdcc96256ae8d5b80,611e71641f6e0a06521d0a49,
,,,,space,0.3837,,0,292,292,194,1,D, , , , ,space,2000,2,611bf8b09116e2b85a9657eb,001,2021-08-19_15h58.17.710,natb3,2021.2.3,Win32,60.11060351,611bf8b09116e2b85a9657eb,611e07ecdcc96256ae8d5b80,611e71641f6e0a06521d0a49,
,,,,space,0.5335,,0,293,293,176,1,N, , , , ,space,1500,1.5,611bf8b09116e2b85a9657eb,001,2021-08-19_15h58.17.710,natb3,2021.2.3,Win32,60.11060351,611bf8b09116e2b85a9657eb,611e07ecdcc96256ae8d5b80,611e71641f6e0a06521d0a49,
,,,,space,0.4551,,0,294,294,327,1,E, , , , ,space,1500,1.5,611bf8b09116e2b85a9657eb,001,2021-08-19_15h58.17.710,natb3,2021.2.3,Win32,60.11060351,611bf8b09116e2b85a9657eb,611e07ecdcc96256ae8d5b80,611e71641f6e0a06521d0a49,
,,,,space,0.3857,,0,295,295,117,1,T, , , , ,space,2500,2.5,611bf8b09116e2b85a9657eb,001,2021-08-19_15h58.17.710,natb3,2021.2.3,Win32,60.11060351,611bf8b09116e2b85a9657eb,611e07ecdcc96256ae8d5b80,611e71641f6e0a06521d0a49,
,,,,space,0.3156,,0,296,296,169,1,L, , , , ,space,2500,2.5,611bf8b09116e2b85a9657eb,001,2021-08-19_15h58.17.710,natb3,2021.2.3,Win32,60.11060351,611bf8b09116e2b85a9657eb,611e07ecdcc96256ae8d5b80,611e71641f6e0a06521d0a49,
,,,,space,0.4095,,0,297,297,47,1,P, , , , ,space,2000,2,611bf8b09116e2b85a9657eb,001,2021-08-19_15h58.17.710,natb3,2021.2.3,Win32,60.11060351,611bf8b09116e2b85a9657eb,611e07ecdcc96256ae8d5b80,611e71641f6e0a06521d0a49,
,,,,space,0.5707,,0,298,298,224,1,W, , , , ,space,1500,1.5,611bf8b09116e2b85a9657eb,001,2021-08-19_15h58.17.710,natb3,2021.2.3,Win32,60.11060351,611bf8b09116e2b85a9657eb,611e07ecdcc96256ae8d5b80,611e71641f6e0a06521d0a49,
,,,,space,0.2872,,0,299,299,108,1,Y, , , , ,space,2500,2.5,611bf8b09116e2b85a9657eb,001,2021-08-19_15h58.17.710,natb3,2021.2.3,Win32,60.11060351,611bf8b09116e2b85a9657eb,611e07ecdcc96256ae8d5b80,611e71641f6e0a06521d0a49,
,,,,space,0.3853,,0,300,300,228,1,Y, , , , ,space,2000,2,611bf8b09116e2b85a9657eb,001,2021-08-19_15h58.17.710,natb3,2021.2.3,Win32,60.11060351,611bf8b09116e2b85a9657eb,611e07ecdcc96256ae8d5b80,611e71641f6e0a06521d0a49,
,,,,space,0.52,,0,301,301,288,1,M, , , , ,space,1500,1.5,611bf8b09116e2b85a9657eb,001,2021-08-19_15h58.17.710,natb3,2021.2.3,Win32,60.11060351,611bf8b09116e2b85a9657eb,611e07ecdcc96256ae8d5b80,611e71641f6e0a06521d0a49,
,,,,space,0.4046,,0,302,302,111,1,O, , , , ,space,2000,2,611bf8b09116e2b85a9657eb,001,2021-08-19_15h58.17.710,natb3,2021.2.3,Win32,60.11060351,611bf8b09116e2b85a9657eb,611e07ecdcc96256ae8d5b80,611e71641f6e0a06521d0a49,
,,,,space,0.3664,,0,303,303,30,1,N, , , , ,space,2500,2.5,611bf8b09116e2b85a9657eb,001,2021-08-19_15h58.17.710,natb3,2021.2.3,Win32,60.11060351,611bf8b09116e2b85a9657eb,611e07ecdcc96256ae8d5b80,611e71641f6e0a06521d0a49,
,,,,space,0.469,,0,304,304,125,1,X, , , , ,,2000,2,611bf8b09116e2b85a9657eb,001,2021-08-19_15h58.17.710,natb3,2021.2.3,Win32,60.11060351,611bf8b09116e2b85a9657eb,611e07ecdcc96256ae8d5b80,611e71641f6e0a06521d0a49,
,,,,space,0.369,,0,305,305,274,1,F, , , , ,space,2000,2,611bf8b09116e2b85a9657eb,001,2021-08-19_15h58.17.710,natb3,2021.2.3,Win32,60.11060351,611bf8b09116e2b85a9657eb,611e07ecdcc96256ae8d5b80,611e71641f6e0a06521d0a49,
,,,,space,0.4876,,0,306,306,9,1,I, , , , ,space,1500,1.5,611bf8b09116e2b85a9657eb,001,2021-08-19_15h58.17.710,natb3,2021.2.3,Win32,60.11060351,611bf8b09116e2b85a9657eb,611e07ecdcc96256ae8d5b80,611e71641f6e0a06521d0a49,
,,,,space,0.3431,,0,307,307,213,1,X, , , , ,,2500,2.5,611bf8b09116e2b85a9657eb,001,2021-08-19_15h58.17.710,natb3,2021.2.3,Win32,60.11060351,611bf8b09116e2b85a9657eb,611e07ecdcc96256ae8d5b80,611e71641f6e0a06521d0a49,
,,,,space,0.5197,,0,308,308,160,1,D, , , , ,space,1500,1.5,611bf8b09116e2b85a9657eb,001,2021-08-19_15h58.17.710,natb3,2021.2.3,Win32,60.11060351,611bf8b09116e2b85a9657eb,611e07ecdcc96256ae8d5b80,611e71641f6e0a06521d0a49,
,,,,space,0.4016,,0,309,309,281,1,Z, , , , ,space,1500,1.5,611bf8b09116e2b85a9657eb,001,2021-08-19_15h58.17.710,natb3,2021.2.3,Win32,60.11060351,611bf8b09116e2b85a9657eb,611e07ecdcc96256ae8d5b80,611e71641f6e0a06521d0a49,
,,,,space,0.348,,0,310,310,259,1,X,8, , ,3,,2500,2.5,611bf8b09116e2b85a9657eb,001,2021-08-19_15h58.17.710,natb3,2021.2.3,Win32,60.11060351,611bf8b09116e2b85a9657eb,611e07ecdcc96256ae8d5b80,611e71641f6e0a06521d0a49,
,,,,space,0.3677,,0,311,311,80,1,A, , , , ,space,2000,2,611bf8b09116e2b85a9657eb,001,2021-08-19_15h58.17.710,natb3,2021.2.3,Win32,60.11060351,611bf8b09116e2b85a9657eb,611e07ecdcc96256ae8d5b80,611e71641f6e0a06521d0a49,
,,,,,,,0,312,312,141,1,X,1, ,4,6,,1500,1.5,611bf8b09116e2b85a9657eb,001,2021-08-19_15h58.17.710,natb3,2021.2.3,Win32,60.11060351,611bf8b09116e2b85a9657eb,611e07ecdcc96256ae8d5b80,611e71641f6e0a06521d0a49,
,,,,,,,0,313,313,287,1,X, ,2, ,9,,2000,2,611bf8b09116e2b85a9657eb,001,2021-08-19_15h58.17.710,natb3,2021.2.3,Win32,60.11060351,611bf8b09116e2b85a9657eb,611e07ecdcc96256ae8d5b80,611e71641f6e0a06521d0a49,
,,,,space,0.4147,,0,314,314,134,1,J, , , , ,space,2000,2,611bf8b09116e2b85a9657eb,001,2021-08-19_15h58.17.710,natb3,2021.2.3,Win32,60.11060351,611bf8b09116e2b85a9657eb,611e07ecdcc96256ae8d5b80,611e71641f6e0a06521d0a49,
,,,,space,0.3994,,0,315,315,261,1,T, , , , ,space,2000,2,611bf8b09116e2b85a9657eb,001,2021-08-19_15h58.17.710,natb3,2021.2.3,Win32,60.11060351,611bf8b09116e2b85a9657eb,611e07ecdcc96256ae8d5b80,611e71641f6e0a06521d0a49,
,,,,space,0.4116,,0,316,316,41,1,Y, , , , ,space,2500,2.5,611bf8b09116e2b85a9657eb,001,2021-08-19_15h58.17.710,natb3,2021.2.3,Win32,60.11060351,611bf8b09116e2b85a9657eb,611e07ecdcc96256ae8d5b80,611e71641f6e0a06521d0a49,
,,,,,,,0,317,317,84,1,X, , , , ,,2000,2,611bf8b09116e2b85a9657eb,001,2021-08-19_15h58.17.710,natb3,2021.2.3,Win32,60.11060351,611bf8b09116e2b85a9657eb,611e07ecdcc96256ae8d5b80,611e71641f6e0a06521d0a49,
,,,,space,0.417,,0,318,318,100,1,M, , , , ,space,2000,2,611bf8b09116e2b85a9657eb,001,2021-08-19_15h58.17.710,natb3,2021.2.3,Win32,60.11060351,611bf8b09116e2b85a9657eb,611e07ecdcc96256ae8d5b80,611e71641f6e0a06521d0a49,
,,,,space,0.5003,,0,319,319,303,1,A, , , , ,space,2000,2,611bf8b09116e2b85a9657eb,001,2021-08-19_15h58.17.710,natb3,2021.2.3,Win32,60.11060351,611bf8b09116e2b85a9657eb,611e07ecdcc96256ae8d5b80,611e71641f6e0a06521d0a49,
,,,,,,,0,320,320,33,1,X, , , , ,,1500,1.5,611bf8b09116e2b85a9657eb,001,2021-08-19_15h58.17.710,natb3,2021.2.3,Win32,60.11060351,611bf8b09116e2b85a9657eb,611e07ecdcc96256ae8d5b80,611e71641f6e0a06521d0a49,
,,,,,,,0,321,321,299,1,X, , , , ,,2500,2.5,611bf8b09116e2b85a9657eb,001,2021-08-19_15h58.17.710,natb3,2021.2.3,Win32,60.11060351,611bf8b09116e2b85a9657eb,611e07ecdcc96256ae8d5b80,611e71641f6e0a06521d0a49,
,,,,space,0.5012,,0,322,322,284,1,V, , , , ,space,2500,2.5,611bf8b09116e2b85a9657eb,001,2021-08-19_15h58.17.710,natb3,2021.2.3,Win32,60.11060351,611bf8b09116e2b85a9657eb,611e07ecdcc96256ae8d5b80,611e71641f6e0a06521d0a49,
,,,,space,0.3941,,0,323,323,75,1,U, , , , ,space,1500,1.5,611bf8b09116e2b85a9657eb,001,2021-08-19_15h58.17.710,natb3,2021.2.3,Win32,60.11060351,611bf8b09116e2b85a9657eb,611e07ecdcc96256ae8d5b80,611e71641f6e0a06521d0a49,
,,,,,,,0,324,324,305,1,X, , , , ,,1500,1.5,611bf8b09116e2b85a9657eb,001,2021-08-19_15h58.17.710,natb3,2021.2.3,Win32,60.11060351,611bf8b09116e2b85a9657eb,611e07ecdcc96256ae8d5b80,611e71641f6e0a06521d0a49,
,,,,space,0.5544,,0,325,325,164,1,H, , , , ,space,2500,2.5,611bf8b09116e2b85a9657eb,001,2021-08-19_15h58.17.710,natb3,2021.2.3,Win32,60.11060351,611bf8b09116e2b85a9657eb,611e07ecdcc96256ae8d5b80,611e71641f6e0a06521d0a49,
,,,,,,,0,326,326,329,1,X,3,4, ,2,,2500,2.5,611bf8b09116e2b85a9657eb,001,2021-08-19_15h58.17.710,natb3,2021.2.3,Win32,60.11060351,611bf8b09116e2b85a9657eb,611e07ecdcc96256ae8d5b80,611e71641f6e0a06521d0a49,
,,,,,,,0,327,327,102,1,X, ,6, , ,,1500,1.5,611bf8b09116e2b85a9657eb,001,2021-08-19_15h58.17.710,natb3,2021.2.3,Win32,60.11060351,611bf8b09116e2b85a9657eb,611e07ecdcc96256ae8d5b80,611e71641f6e0a06521d0a49,
,,,,space,0.3909,,0,328,328,198,1,H, , , , ,space,2500,2.5,611bf8b09116e2b85a9657eb,001,2021-08-19_15h58.17.710,natb3,2021.2.3,Win32,60.11060351,611bf8b09116e2b85a9657eb,611e07ecdcc96256ae8d5b80,611e71641f6e0a06521d0a49,
,,,,space,0.3627,,0,329,329,247,1,Z, , , , ,space,1500,1.5,611bf8b09116e2b85a9657eb,001,2021-08-19_15h58.17.710,natb3,2021.2.3,Win32,60.11060351,611bf8b09116e2b85a9657eb,611e07ecdcc96256ae8d5b80,611e71641f6e0a06521d0a49,
,,,,,,,0,330,330,318,1,X, , , , ,,1500,1.5,611bf8b09116e2b85a9657eb,001,2021-08-19_15h58.17.710,natb3,2021.2.3,Win32,60.11060351,611bf8b09116e2b85a9657eb,611e07ecdcc96256ae8d5b80,611e71641f6e0a06521d0a49,
,,,,space,0.4331,,0,331,331,205,1,C, , , , ,space,2000,2,611bf8b09116e2b85a9657eb,001,2021-08-19_15h58.17.710,natb3,2021.2.3,Win32,60.11060351,611bf8b09116e2b85a9657eb,611e07ecdcc96256ae8d5b80,611e71641f6e0a06521d0a49,
,,,,space,0.3891,,0,332,332,38,1,R, , , , ,space,2500,2.5,611bf8b09116e2b85a9657eb,001,2021-08-19_15h58.17.710,natb3,2021.2.3,Win32,60.11060351,611bf8b09116e2b85a9657eb,611e07ecdcc96256ae8d5b80,611e71641f6e0a06521d0a49,
,,,,space,0.4837,,0,333,333,154,1,I, , , , ,space,2500,2.5,611bf8b09116e2b85a9657eb,001,2021-08-19_15h58.17.710,natb3,2021.2.3,Win32,60.11060351,611bf8b09116e2b85a9657eb,611e07ecdcc96256ae8d5b80,611e71641f6e0a06521d0a49,
,,,,,,,0,334,334,182,1,X, , , , ,,1500,1.5,611bf8b09116e2b85a9657eb,001,2021-08-19_15h58.17.710,natb3,2021.2.3,Win32,60.11060351,611bf8b09116e2b85a9657eb,611e07ecdcc96256ae8d5b80,611e71641f6e0a06521d0a49,
,,,,,,,0,335,335,171,1,X, , , , ,,1500,1.5,611bf8b09116e2b85a9657eb,001,2021-08-19_15h58.17.710,natb3,2021.2.3,Win32,60.11060351,611bf8b09116e2b85a9657eb,611e07ecdcc96256ae8d5b80,611e71641f6e0a06521d0a49,
