key_resp_2.keys,key_resp_2.rt,key_resp_3.keys,key_resp_3.rt,key_resp.keys,key_resp.rt,key_resp_4.keys,trials.thisRepN,trials.thisTrialN,trials.thisN,trials.thisIndex,trials.ran,stimulus,distractor1,distractor2,distractor3,distractor4,CorrAns,isi_duration,isi_dur_in_seconds,participant,session,date,expName,psychopyVersion,OS,frameRate,PROLIFIC_PID,STUDY_ID,SESSION_ID,key_resp_4.rt
return,9.0614,space,17.6421,space,0.455,,0,0,0,108,1,Y, , , , ,space,2500,2.5,611cf31ca5d9e0fc103e5572,001,2021-08-19_15h59.40.507,natb3,2021.2.3,Win32,59.99880002,611cf31ca5d9e0fc103e5572,611e07ecdcc96256ae8d5b80,611e71b82041f68bf7a92aeb,
,,,,space,0.2992,,0,1,1,267,1,P, , , , ,space,2000,2,611cf31ca5d9e0fc103e5572,001,2021-08-19_15h59.40.507,natb3,2021.2.3,Win32,59.99880002,611cf31ca5d9e0fc103e5572,611e07ecdcc96256ae8d5b80,611e71b82041f68bf7a92aeb,
,,,,space,0.2685,,0,2,2,31,1,X, , , , ,,1500,1.5,611cf31ca5d9e0fc103e5572,001,2021-08-19_15h59.40.507,natb3,2021.2.3,Win32,59.99880002,611cf31ca5d9e0fc103e5572,611e07ecdcc96256ae8d5b80,611e71b82041f68bf7a92aeb,
,,,,space,0.404,,0,3,3,298,1,I, , , , ,space,2000,2,611cf31ca5d9e0fc103e5572,001,2021-08-19_15h59.40.507,natb3,2021.2.3,Win32,59.99880002,611cf31ca5d9e0fc103e5572,611e07ecdcc96256ae8d5b80,611e71b82041f68bf7a92aeb,
,,,,space,0.4265,,0,4,4,192,1,A, , , , ,space,2000,2,611cf31ca5d9e0fc103e5572,001,2021-08-19_15h59.40.507,natb3,2021.2.3,Win32,59.99880002,611cf31ca5d9e0fc103e5572,611e07ecdcc96256ae8d5b80,611e71b82041f68bf7a92aeb,
,,,,,,,0,5,5,277,1,X,8,5, ,2,,2000,2,611cf31ca5d9e0fc103e5572,001,2021-08-19_15h59.40.507,natb3,2021.2.3,Win32,59.99880002,611cf31ca5d9e0fc103e5572,611e07ecdcc96256ae8d5b80,611e71b82041f68bf7a92aeb,
,,,,space,0.5568,,0,6,6,150,1,T, , , , ,space,2500,2.5,611cf31ca5d9e0fc103e5572,001,2021-08-19_15h59.40.507,natb3,2021.2.3,Win32,59.99880002,611cf31ca5d9e0fc103e5572,611e07ecdcc96256ae8d5b80,611e71b82041f68bf7a92aeb,
,,,,space,0.4204,,0,7,7,120,1,U, , , , ,space,1500,1.5,611cf31ca5d9e0fc103e5572,001,2021-08-19_15h59.40.507,natb3,2021.2.3,Win32,59.99880002,611cf31ca5d9e0fc103e5572,611e07ecdcc96256ae8d5b80,611e71b82041f68bf7a92aeb,
,,,,space,0.47,,0,8,8,119,1,Y, , , , ,space,2500,2.5,611cf31ca5d9e0fc103e5572,001,2021-08-19_15h59.40.507,natb3,2021.2.3,Win32,59.99880002,611cf31ca5d9e0fc103e5572,611e07ecdcc96256ae8d5b80,611e71b82041f68bf7a92aeb,
,,,,space,0.4674,,0,9,9,96,1,X, , , , ,,1500,1.5,611cf31ca5d9e0fc103e5572,001,2021-08-19_15h59.40.507,natb3,2021.2.3,Win32,59.99880002,611cf31ca5d9e0fc103e5572,611e07ecdcc96256ae8d5b80,611e71b82041f68bf7a92aeb,
,,,,space,0.452,,0,10,10,265,1,I, , , , ,space,2000,2,611cf31ca5d9e0fc103e5572,001,2021-08-19_15h59.40.507,natb3,2021.2.3,Win32,59.99880002,611cf31ca5d9e0fc103e5572,611e07ecdcc96256ae8d5b80,611e71b82041f68bf7a92aeb,
,,,,space,0.3954,,0,11,11,59,1,Z, , , , ,space,2000,2,611cf31ca5d9e0fc103e5572,001,2021-08-19_15h59.40.507,natb3,2021.2.3,Win32,59.99880002,611cf31ca5d9e0fc103e5572,611e07ecdcc96256ae8d5b80,611e71b82041f68bf7a92aeb,
,,,,space,0.3997,,0,12,12,29,1,B, , , , ,space,1500,1.5,611cf31ca5d9e0fc103e5572,001,2021-08-19_15h59.40.507,natb3,2021.2.3,Win32,59.99880002,611cf31ca5d9e0fc103e5572,611e07ecdcc96256ae8d5b80,611e71b82041f68bf7a92aeb,
,,,,,,,0,13,13,77,1,O, , , , ,space,2000,2,611cf31ca5d9e0fc103e5572,001,2021-08-19_15h59.40.507,natb3,2021.2.3,Win32,59.99880002,611cf31ca5d9e0fc103e5572,611e07ecdcc96256ae8d5b80,611e71b82041f68bf7a92aeb,
,,,,space,0.406,,0,14,14,253,1,N, , , , ,space,2500,2.5,611cf31ca5d9e0fc103e5572,001,2021-08-19_15h59.40.507,natb3,2021.2.3,Win32,59.99880002,611cf31ca5d9e0fc103e5572,611e07ecdcc96256ae8d5b80,611e71b82041f68bf7a92aeb,
,,,,space,0.4513,,0,15,15,121,1,I, , , , ,space,2000,2,611cf31ca5d9e0fc103e5572,001,2021-08-19_15h59.40.507,natb3,2021.2.3,Win32,59.99880002,611cf31ca5d9e0fc103e5572,611e07ecdcc96256ae8d5b80,611e71b82041f68bf7a92aeb,
,,,,space,0.4916,,0,16,16,95,1,V, , , , ,space,1500,1.5,611cf31ca5d9e0fc103e5572,001,2021-08-19_15h59.40.507,natb3,2021.2.3,Win32,59.99880002,611cf31ca5d9e0fc103e5572,611e07ecdcc96256ae8d5b80,611e71b82041f68bf7a92aeb,
,,,,,,,0,17,17,291,1,X, , , , ,,2000,2,611cf31ca5d9e0fc103e5572,001,2021-08-19_15h59.40.507,natb3,2021.2.3,Win32,59.99880002,611cf31ca5d9e0fc103e5572,611e07ecdcc96256ae8d5b80,611e71b82041f68bf7a92aeb,
,,,,space,0.4167,,0,18,18,140,1,B, , , , ,space,2500,2.5,611cf31ca5d9e0fc103e5572,001,2021-08-19_15h59.40.507,natb3,2021.2.3,Win32,59.99880002,611cf31ca5d9e0fc103e5572,611e07ecdcc96256ae8d5b80,611e71b82041f68bf7a92aeb,
,,,,space,0.422,,0,19,19,146,1,W, , , , ,space,1500,1.5,611cf31ca5d9e0fc103e5572,001,2021-08-19_15h59.40.507,natb3,2021.2.3,Win32,59.99880002,611cf31ca5d9e0fc103e5572,611e07ecdcc96256ae8d5b80,611e71b82041f68bf7a92aeb,
,,,,space,0.3213,,0,20,20,40,1,T, , , , ,space,1500,1.5,611cf31ca5d9e0fc103e5572,001,2021-08-19_15h59.40.507,natb3,2021.2.3,Win32,59.99880002,611cf31ca5d9e0fc103e5572,611e07ecdcc96256ae8d5b80,611e71b82041f68bf7a92aeb,
,,,,space,0.5233,,0,21,21,307,1,F, , , , ,space,2500,2.5,611cf31ca5d9e0fc103e5572,001,2021-08-19_15h59.40.507,natb3,2021.2.3,Win32,59.99880002,611cf31ca5d9e0fc103e5572,611e07ecdcc96256ae8d5b80,611e71b82041f68bf7a92aeb,
,,,,,,,0,22,22,189,1,O, , , , ,space,1500,1.5,611cf31ca5d9e0fc103e5572,001,2021-08-19_15h59.40.507,natb3,2021.2.3,Win32,59.99880002,611cf31ca5d9e0fc103e5572,611e07ecdcc96256ae8d5b80,611e71b82041f68bf7a92aeb,
,,,,space,0.3923,,0,23,23,13,1,A, , , , ,space,2000,2,611cf31ca5d9e0fc103e5572,001,2021-08-19_15h59.40.507,natb3,2021.2.3,Win32,59.99880002,611cf31ca5d9e0fc103e5572,611e07ecdcc96256ae8d5b80,611e71b82041f68bf7a92aeb,
,,,,space,0.2677,,0,24,24,80,1,A, , , , ,space,2000,2,611cf31ca5d9e0fc103e5572,001,2021-08-19_15h59.40.507,natb3,2021.2.3,Win32,59.99880002,611cf31ca5d9e0fc103e5572,611e07ecdcc96256ae8d5b80,611e71b82041f68bf7a92aeb,
,,,,space,0.2852,,0,25,25,300,1,O, , , , ,space,2500,2.5,611cf31ca5d9e0fc103e5572,001,2021-08-19_15h59.40.507,natb3,2021.2.3,Win32,59.99880002,611cf31ca5d9e0fc103e5572,611e07ecdcc96256ae8d5b80,611e71b82041f68bf7a92aeb,
,,,,space,0.2703,,0,26,26,198,1,H, , , , ,space,2500,2.5,611cf31ca5d9e0fc103e5572,001,2021-08-19_15h59.40.507,natb3,2021.2.3,Win32,59.99880002,611cf31ca5d9e0fc103e5572,611e07ecdcc96256ae8d5b80,611e71b82041f68bf7a92aeb,
,,,,space,0.3877,,0,27,27,5,1,T, , , , ,space,2000,2,611cf31ca5d9e0fc103e5572,001,2021-08-19_15h59.40.507,natb3,2021.2.3,Win32,59.99880002,611cf31ca5d9e0fc103e5572,611e07ecdcc96256ae8d5b80,611e71b82041f68bf7a92aeb,
,,,,space,0.4365,,0,28,28,126,1,A, , , , ,space,2500,2.5,611cf31ca5d9e0fc103e5572,001,2021-08-19_15h59.40.507,natb3,2021.2.3,Win32,59.99880002,611cf31ca5d9e0fc103e5572,611e07ecdcc96256ae8d5b80,611e71b82041f68bf7a92aeb,
,,,,,,,0,29,29,84,1,X, , , , ,,2000,2,611cf31ca5d9e0fc103e5572,001,2021-08-19_15h59.40.507,natb3,2021.2.3,Win32,59.99880002,611cf31ca5d9e0fc103e5572,611e07ecdcc96256ae8d5b80,611e71b82041f68bf7a92aeb,
,,,,space,0.3171,,0,30,30,330,1,T, , , , ,space,2500,2.5,611cf31ca5d9e0fc103e5572,001,2021-08-19_15h59.40.507,natb3,2021.2.3,Win32,59.99880002,611cf31ca5d9e0fc103e5572,611e07ecdcc96256ae8d5b80,611e71b82041f68bf7a92aeb,
,,,,space,0.31,,0,31,31,235,1,A, , , , ,space,1500,1.5,611cf31ca5d9e0fc103e5572,001,2021-08-19_15h59.40.507,natb3,2021.2.3,Win32,59.99880002,611cf31ca5d9e0fc103e5572,611e07ecdcc96256ae8d5b80,611e71b82041f68bf7a92aeb,
,,,,space,0.434,,0,32,32,273,1,X, , , , ,,2000,2,611cf31ca5d9e0fc103e5572,001,2021-08-19_15h59.40.507,natb3,2021.2.3,Win32,59.99880002,611cf31ca5d9e0fc103e5572,611e07ecdcc96256ae8d5b80,611e71b82041f68bf7a92aeb,
,,,,,,,0,33,33,179,1,X, ,9, ,2,,1500,1.5,611cf31ca5d9e0fc103e5572,001,2021-08-19_15h59.40.507,natb3,2021.2.3,Win32,59.99880002,611cf31ca5d9e0fc103e5572,611e07ecdcc96256ae8d5b80,611e71b82041f68bf7a92aeb,
,,,,,,,0,34,34,153,1,X,4,7, ,6,,2000,2,611cf31ca5d9e0fc103e5572,001,2021-08-19_15h59.40.507,natb3,2021.2.3,Win32,59.99880002,611cf31ca5d9e0fc103e5572,611e07ecdcc96256ae8d5b80,611e71b82041f68bf7a92aeb,
,,,,space,0.5745,,0,35,35,312,1,K, , , , ,space,2000,2,611cf31ca5d9e0fc103e5572,001,2021-08-19_15h59.40.507,natb3,2021.2.3,Win32,59.99880002,611cf31ca5d9e0fc103e5572,611e07ecdcc96256ae8d5b80,611e71b82041f68bf7a92aeb,
,,,,,,,0,36,36,35,1,X, , , , ,,2500,2.5,611cf31ca5d9e0fc103e5572,001,2021-08-19_15h59.40.507,natb3,2021.2.3,Win32,59.99880002,611cf31ca5d9e0fc103e5572,611e07ecdcc96256ae8d5b80,611e71b82041f68bf7a92aeb,
,,,,space,0.5016,,0,37,37,188,1,I, , , , ,space,2500,2.5,611cf31ca5d9e0fc103e5572,001,2021-08-19_15h59.40.507,natb3,2021.2.3,Win32,59.99880002,611cf31ca5d9e0fc103e5572,611e07ecdcc96256ae8d5b80,611e71b82041f68bf7a92aeb,
,,,,space,0.5335,,0,38,38,57,1,K, , , , ,space,2500,2.5,611cf31ca5d9e0fc103e5572,001,2021-08-19_15h59.40.507,natb3,2021.2.3,Win32,59.99880002,611cf31ca5d9e0fc103e5572,611e07ecdcc96256ae8d5b80,611e71b82041f68bf7a92aeb,
,,,,,,,0,39,39,213,1,X, , , , ,,2500,2.5,611cf31ca5d9e0fc103e5572,001,2021-08-19_15h59.40.507,natb3,2021.2.3,Win32,59.99880002,611cf31ca5d9e0fc103e5572,611e07ecdcc96256ae8d5b80,611e71b82041f68bf7a92aeb,
,,,,,,,0,40,40,252,1,X,3, ,6,9,,2000,2,611cf31ca5d9e0fc103e5572,001,2021-08-19_15h59.40.507,natb3,2021.2.3,Win32,59.99880002,611cf31ca5d9e0fc103e5572,611e07ecdcc96256ae8d5b80,611e71b82041f68bf7a92aeb,
,,,,,,,0,41,41,82,1,X,4,6,1,7,,2000,2,611cf31ca5d9e0fc103e5572,001,2021-08-19_15h59.40.507,natb3,2021.2.3,Win32,59.99880002,611cf31ca5d9e0fc103e5572,611e07ecdcc96256ae8d5b80,611e71b82041f68bf7a92aeb,
,,,,space,0.667,,0,42,42,164,1,H, , , , ,space,2500,2.5,611cf31ca5d9e0fc103e5572,001,2021-08-19_15h59.40.507,natb3,2021.2.3,Win32,59.99880002,611cf31ca5d9e0fc103e5572,611e07ecdcc96256ae8d5b80,611e71b82041f68bf7a92aeb,
,,,,space,0.5118,,0,43,43,139,1,V, , , , ,space,2000,2,611cf31ca5d9e0fc103e5572,001,2021-08-19_15h59.40.507,natb3,2021.2.3,Win32,59.99880002,611cf31ca5d9e0fc103e5572,611e07ecdcc96256ae8d5b80,611e71b82041f68bf7a92aeb,
,,,,space,0.5098,,0,44,44,292,1,E, , , , ,space,2000,2,611cf31ca5d9e0fc103e5572,001,2021-08-19_15h59.40.507,natb3,2021.2.3,Win32,59.99880002,611cf31ca5d9e0fc103e5572,611e07ecdcc96256ae8d5b80,611e71b82041f68bf7a92aeb,
,,,,space,0.3702,,0,45,45,279,1,K, , , , ,space,2500,2.5,611cf31ca5d9e0fc103e5572,001,2021-08-19_15h59.40.507,natb3,2021.2.3,Win32,59.99880002,611cf31ca5d9e0fc103e5572,611e07ecdcc96256ae8d5b80,611e71b82041f68bf7a92aeb,
,,,,space,0.3794,,0,46,46,16,1,D, , , , ,space,1500,1.5,611cf31ca5d9e0fc103e5572,001,2021-08-19_15h59.40.507,natb3,2021.2.3,Win32,59.99880002,611cf31ca5d9e0fc103e5572,611e07ecdcc96256ae8d5b80,611e71b82041f68bf7a92aeb,
,,,,,,,0,47,47,116,1,X, , , , ,,2000,2,611cf31ca5d9e0fc103e5572,001,2021-08-19_15h59.40.507,natb3,2021.2.3,Win32,59.99880002,611cf31ca5d9e0fc103e5572,611e07ecdcc96256ae8d5b80,611e71b82041f68bf7a92aeb,
,,,,space,0.332,,0,48,48,288,1,M, , , , ,space,1500,1.5,611cf31ca5d9e0fc103e5572,001,2021-08-19_15h59.40.507,natb3,2021.2.3,Win32,59.99880002,611cf31ca5d9e0fc103e5572,611e07ecdcc96256ae8d5b80,611e71b82041f68bf7a92aeb,
,,,,space,0.648,,0,49,49,50,1,D, , , , ,space,1500,1.5,611cf31ca5d9e0fc103e5572,001,2021-08-19_15h59.40.507,natb3,2021.2.3,Win32,59.99880002,611cf31ca5d9e0fc103e5572,611e07ecdcc96256ae8d5b80,611e71b82041f68bf7a92aeb,
,,,,space,0.3822,,0,50,50,284,1,V, , , , ,space,2500,2.5,611cf31ca5d9e0fc103e5572,001,2021-08-19_15h59.40.507,natb3,2021.2.3,Win32,59.99880002,611cf31ca5d9e0fc103e5572,611e07ecdcc96256ae8d5b80,611e71b82041f68bf7a92aeb,
,,,,space,0.3981,,0,51,51,101,1,Q, , , , ,space,2500,2.5,611cf31ca5d9e0fc103e5572,001,2021-08-19_15h59.40.507,natb3,2021.2.3,Win32,59.99880002,611cf31ca5d9e0fc103e5572,611e07ecdcc96256ae8d5b80,611e71b82041f68bf7a92aeb,
,,,,space,0.6012,,0,52,52,314,1,L, , , , ,space,1500,1.5,611cf31ca5d9e0fc103e5572,001,2021-08-19_15h59.40.507,natb3,2021.2.3,Win32,59.99880002,611cf31ca5d9e0fc103e5572,611e07ecdcc96256ae8d5b80,611e71b82041f68bf7a92aeb,
,,,,space,0.3638,,0,53,53,3,1,R, , , , ,space,2000,2,611cf31ca5d9e0fc103e5572,001,2021-08-19_15h59.40.507,natb3,2021.2.3,Win32,59.99880002,611cf31ca5d9e0fc103e5572,611e07ecdcc96256ae8d5b80,611e71b82041f68bf7a92aeb,
,,,,space,0.3966,,0,54,54,45,1,O, , , , ,space,2000,2,611cf31ca5d9e0fc103e5572,001,2021-08-19_15h59.40.507,natb3,2021.2.3,Win32,59.99880002,611cf31ca5d9e0fc103e5572,611e07ecdcc96256ae8d5b80,611e71b82041f68bf7a92aeb,
,,,,space,0.4461,,0,55,55,269,1,A, , , , ,space,2500,2.5,611cf31ca5d9e0fc103e5572,001,2021-08-19_15h59.40.507,natb3,2021.2.3,Win32,59.99880002,611cf31ca5d9e0fc103e5572,611e07ecdcc96256ae8d5b80,611e71b82041f68bf7a92aeb,
,,,,,,,0,56,56,187,1,X, ,3,7,4,,1500,1.5,611cf31ca5d9e0fc103e5572,001,2021-08-19_15h59.40.507,natb3,2021.2.3,Win32,59.99880002,611cf31ca5d9e0fc103e5572,611e07ecdcc96256ae8d5b80,611e71b82041f68bf7a92aeb,
,,,,space,0.4211,,0,57,57,197,1,G, , , , ,space,2500,2.5,611cf31ca5d9e0fc103e5572,001,2021-08-19_15h59.40.507,natb3,2021.2.3,Win32,59.99880002,611cf31ca5d9e0fc103e5572,611e07ecdcc96256ae8d5b80,611e71b82041f68bf7a92aeb,
,,,,space,0.3581,,0,58,58,322,1,X, , ,1,6,,2000,2,611cf31ca5d9e0fc103e5572,001,2021-08-19_15h59.40.507,natb3,2021.2.3,Win32,59.99880002,611cf31ca5d9e0fc103e5572,611e07ecdcc96256ae8d5b80,611e71b82041f68bf7a92aeb,
,,,,space,0.4841,,0,59,59,6,1,Y, , , , ,space,2500,2.5,611cf31ca5d9e0fc103e5572,001,2021-08-19_15h59.40.507,natb3,2021.2.3,Win32,59.99880002,611cf31ca5d9e0fc103e5572,611e07ecdcc96256ae8d5b80,611e71b82041f68bf7a92aeb,
,,,,,,,0,60,60,138,1,X,8,5, ,3,,2000,2,611cf31ca5d9e0fc103e5572,001,2021-08-19_15h59.40.507,natb3,2021.2.3,Win32,59.99880002,611cf31ca5d9e0fc103e5572,611e07ecdcc96256ae8d5b80,611e71b82041f68bf7a92aeb,
,,,,space,0.3825,,0,61,61,113,1,W, , , , ,space,2500,2.5,611cf31ca5d9e0fc103e5572,001,2021-08-19_15h59.40.507,natb3,2021.2.3,Win32,59.99880002,611cf31ca5d9e0fc103e5572,611e07ecdcc96256ae8d5b80,611e71b82041f68bf7a92aeb,
,,,,space,0.3912,,0,62,62,306,1,D, , , , ,space,2000,2,611cf31ca5d9e0fc103e5572,001,2021-08-19_15h59.40.507,natb3,2021.2.3,Win32,59.99880002,611cf31ca5d9e0fc103e5572,611e07ecdcc96256ae8d5b80,611e71b82041f68bf7a92aeb,
,,,,space,0.6354,,0,63,63,24,1,L, , , , ,space,2500,2.5,611cf31ca5d9e0fc103e5572,001,2021-08-19_15h59.40.507,natb3,2021.2.3,Win32,59.99880002,611cf31ca5d9e0fc103e5572,611e07ecdcc96256ae8d5b80,611e71b82041f68bf7a92aeb,
,,,,space,0.3356,,0,64,64,48,1,A, , , , ,space,2500,2.5,611cf31ca5d9e0fc103e5572,001,2021-08-19_15h59.40.507,natb3,2021.2.3,Win32,59.99880002,611cf31ca5d9e0fc103e5572,611e07ecdcc96256ae8d5b80,611e71b82041f68bf7a92aeb,
,,,,,,,0,65,65,295,1,X,8,7,5, ,,2500,2.5,611cf31ca5d9e0fc103e5572,001,2021-08-19_15h59.40.507,natb3,2021.2.3,Win32,59.99880002,611cf31ca5d9e0fc103e5572,611e07ecdcc96256ae8d5b80,611e71b82041f68bf7a92aeb,
,,,,space,0.3689,,0,66,66,294,1,T, , , , ,space,2000,2,611cf31ca5d9e0fc103e5572,001,2021-08-19_15h59.40.507,natb3,2021.2.3,Win32,59.99880002,611cf31ca5d9e0fc103e5572,611e07ecdcc96256ae8d5b80,611e71b82041f68bf7a92aeb,
,,,,space,0.3485,,0,67,67,74,1,X, ,4,3,2,,1500,1.5,611cf31ca5d9e0fc103e5572,001,2021-08-19_15h59.40.507,natb3,2021.2.3,Win32,59.99880002,611cf31ca5d9e0fc103e5572,611e07ecdcc96256ae8d5b80,611e71b82041f68bf7a92aeb,
,,,,space,0.5968,,0,68,68,320,1,B, , , , ,space,1500,1.5,611cf31ca5d9e0fc103e5572,001,2021-08-19_15h59.40.507,natb3,2021.2.3,Win32,59.99880002,611cf31ca5d9e0fc103e5572,611e07ecdcc96256ae8d5b80,611e71b82041f68bf7a92aeb,
,,,,,,,0,69,69,46,1,X, , , , ,,2000,2,611cf31ca5d9e0fc103e5572,001,2021-08-19_15h59.40.507,natb3,2021.2.3,Win32,59.99880002,611cf31ca5d9e0fc103e5572,611e07ecdcc96256ae8d5b80,611e71b82041f68bf7a92aeb,
,,,,space,0.4507,,0,70,70,296,1,Y, , , , ,space,2500,2.5,611cf31ca5d9e0fc103e5572,001,2021-08-19_15h59.40.507,natb3,2021.2.3,Win32,59.99880002,611cf31ca5d9e0fc103e5572,611e07ecdcc96256ae8d5b80,611e71b82041f68bf7a92aeb,
,,,,space,0.4422,,0,71,71,79,1,P, , , , ,space,2000,2,611cf31ca5d9e0fc103e5572,001,2021-08-19_15h59.40.507,natb3,2021.2.3,Win32,59.99880002,611cf31ca5d9e0fc103e5572,611e07ecdcc96256ae8d5b80,611e71b82041f68bf7a92aeb,
,,,,,,,0,72,72,107,1,X,9,3, ,2,,2000,2,611cf31ca5d9e0fc103e5572,001,2021-08-19_15h59.40.507,natb3,2021.2.3,Win32,59.99880002,611cf31ca5d9e0fc103e5572,611e07ecdcc96256ae8d5b80,611e71b82041f68bf7a92aeb,
,,,,space,0.6028,,0,73,73,220,1,U, , , , ,space,2500,2.5,611cf31ca5d9e0fc103e5572,001,2021-08-19_15h59.40.507,natb3,2021.2.3,Win32,59.99880002,611cf31ca5d9e0fc103e5572,611e07ecdcc96256ae8d5b80,611e71b82041f68bf7a92aeb,
,,,,,,,0,74,74,175,1,X,7, ,4,2,,1500,1.5,611cf31ca5d9e0fc103e5572,001,2021-08-19_15h59.40.507,natb3,2021.2.3,Win32,59.99880002,611cf31ca5d9e0fc103e5572,611e07ecdcc96256ae8d5b80,611e71b82041f68bf7a92aeb,
,,,,space,0.4497,,0,75,75,224,1,W, , , , ,space,1500,1.5,611cf31ca5d9e0fc103e5572,001,2021-08-19_15h59.40.507,natb3,2021.2.3,Win32,59.99880002,611cf31ca5d9e0fc103e5572,611e07ecdcc96256ae8d5b80,611e71b82041f68bf7a92aeb,
,,,,space,0.3161,,0,76,76,268,1,X,6, ,3, ,,2500,2.5,611cf31ca5d9e0fc103e5572,001,2021-08-19_15h59.40.507,natb3,2021.2.3,Win32,59.99880002,611cf31ca5d9e0fc103e5572,611e07ecdcc96256ae8d5b80,611e71b82041f68bf7a92aeb,
,,,,space,0.5342,,0,77,77,125,1,X, , , , ,,2000,2,611cf31ca5d9e0fc103e5572,001,2021-08-19_15h59.40.507,natb3,2021.2.3,Win32,59.99880002,611cf31ca5d9e0fc103e5572,611e07ecdcc96256ae8d5b80,611e71b82041f68bf7a92aeb,
,,,,space,0.5346,,0,78,78,38,1,R, , , , ,space,2500,2.5,611cf31ca5d9e0fc103e5572,001,2021-08-19_15h59.40.507,natb3,2021.2.3,Win32,59.99880002,611cf31ca5d9e0fc103e5572,611e07ecdcc96256ae8d5b80,611e71b82041f68bf7a92aeb,
,,,,space,0.4676,,0,79,79,319,1,V, , , , ,space,2000,2,611cf31ca5d9e0fc103e5572,001,2021-08-19_15h59.40.507,natb3,2021.2.3,Win32,59.99880002,611cf31ca5d9e0fc103e5572,611e07ecdcc96256ae8d5b80,611e71b82041f68bf7a92aeb,
,,,,space,0.4678,,0,80,80,244,1,J, , , , ,space,1500,1.5,611cf31ca5d9e0fc103e5572,001,2021-08-19_15h59.40.507,natb3,2021.2.3,Win32,59.99880002,611cf31ca5d9e0fc103e5572,611e07ecdcc96256ae8d5b80,611e71b82041f68bf7a92aeb,
,,,,space,0.5655,,0,81,81,227,1,T, , , , ,space,1500,1.5,611cf31ca5d9e0fc103e5572,001,2021-08-19_15h59.40.507,natb3,2021.2.3,Win32,59.99880002,611cf31ca5d9e0fc103e5572,611e07ecdcc96256ae8d5b80,611e71b82041f68bf7a92aeb,
,,,,,,,0,82,82,141,1,X,1, ,4,6,,1500,1.5,611cf31ca5d9e0fc103e5572,001,2021-08-19_15h59.40.507,natb3,2021.2.3,Win32,59.99880002,611cf31ca5d9e0fc103e5572,611e07ecdcc96256ae8d5b80,611e71b82041f68bf7a92aeb,
,,,,space,0.5094,,0,83,83,261,1,T, , , , ,space,2000,2,611cf31ca5d9e0fc103e5572,001,2021-08-19_15h59.40.507,natb3,2021.2.3,Win32,59.99880002,611cf31ca5d9e0fc103e5572,611e07ecdcc96256ae8d5b80,611e71b82041f68bf7a92aeb,
,,,,space,0.4522,,0,84,84,132,1,H, , , , ,space,2500,2.5,611cf31ca5d9e0fc103e5572,001,2021-08-19_15h59.40.507,natb3,2021.2.3,Win32,59.99880002,611cf31ca5d9e0fc103e5572,611e07ecdcc96256ae8d5b80,611e71b82041f68bf7a92aeb,
,,,,space,0.4954,,0,85,85,123,1,O, , , , ,space,1500,1.5,611cf31ca5d9e0fc103e5572,001,2021-08-19_15h59.40.507,natb3,2021.2.3,Win32,59.99880002,611cf31ca5d9e0fc103e5572,611e07ecdcc96256ae8d5b80,611e71b82041f68bf7a92aeb,
,,,,space,0.5495,,0,86,86,199,1,J, , , , ,space,2500,2.5,611cf31ca5d9e0fc103e5572,001,2021-08-19_15h59.40.507,natb3,2021.2.3,Win32,59.99880002,611cf31ca5d9e0fc103e5572,611e07ecdcc96256ae8d5b80,611e71b82041f68bf7a92aeb,
,,,,space,0.5304,,0,87,87,161,1,F, , , , ,space,1500,1.5,611cf31ca5d9e0fc103e5572,001,2021-08-19_15h59.40.507,natb3,2021.2.3,Win32,59.99880002,611cf31ca5d9e0fc103e5572,611e07ecdcc96256ae8d5b80,611e71b82041f68bf7a92aeb,
,,,,space,0.4484,,0,88,88,181,1,E, , , , ,space,1500,1.5,611cf31ca5d9e0fc103e5572,001,2021-08-19_15h59.40.507,natb3,2021.2.3,Win32,59.99880002,611cf31ca5d9e0fc103e5572,611e07ecdcc96256ae8d5b80,611e71b82041f68bf7a92aeb,
,,,,space,0.4622,,0,89,89,106,1,T, , , , ,space,1500,1.5,611cf31ca5d9e0fc103e5572,001,2021-08-19_15h59.40.507,natb3,2021.2.3,Win32,59.99880002,611cf31ca5d9e0fc103e5572,611e07ecdcc96256ae8d5b80,611e71b82041f68bf7a92aeb,
,,,,space,0.4235,,0,90,90,194,1,D, , , , ,space,2000,2,611cf31ca5d9e0fc103e5572,001,2021-08-19_15h59.40.507,natb3,2021.2.3,Win32,59.99880002,611cf31ca5d9e0fc103e5572,611e07ecdcc96256ae8d5b80,611e71b82041f68bf7a92aeb,
,,,,space,0.4163,,0,91,91,264,1,U, , , , ,space,2000,2,611cf31ca5d9e0fc103e5572,001,2021-08-19_15h59.40.507,natb3,2021.2.3,Win32,59.99880002,611cf31ca5d9e0fc103e5572,611e07ecdcc96256ae8d5b80,611e71b82041f68bf7a92aeb,
,,,,space,0.4487,,0,92,92,32,1,M, , , , ,space,1500,1.5,611cf31ca5d9e0fc103e5572,001,2021-08-19_15h59.40.507,natb3,2021.2.3,Win32,59.99880002,611cf31ca5d9e0fc103e5572,611e07ecdcc96256ae8d5b80,611e71b82041f68bf7a92aeb,
,,,,space,0.411,,0,93,93,10,1,O, , , , ,space,2000,2,611cf31ca5d9e0fc103e5572,001,2021-08-19_15h59.40.507,natb3,2021.2.3,Win32,59.99880002,611cf31ca5d9e0fc103e5572,611e07ecdcc96256ae8d5b80,611e71b82041f68bf7a92aeb,
,,,,,,,0,94,94,282,1,X, , , , ,,2500,2.5,611cf31ca5d9e0fc103e5572,001,2021-08-19_15h59.40.507,natb3,2021.2.3,Win32,59.99880002,611cf31ca5d9e0fc103e5572,611e07ecdcc96256ae8d5b80,611e71b82041f68bf7a92aeb,
,,,,space,0.4898,,0,95,95,41,1,Y, , , , ,space,2500,2.5,611cf31ca5d9e0fc103e5572,001,2021-08-19_15h59.40.507,natb3,2021.2.3,Win32,59.99880002,611cf31ca5d9e0fc103e5572,611e07ecdcc96256ae8d5b80,611e71b82041f68bf7a92aeb,
,,,,,,,0,96,96,7,1,X, , , , ,,1500,1.5,611cf31ca5d9e0fc103e5572,001,2021-08-19_15h59.40.507,natb3,2021.2.3,Win32,59.99880002,611cf31ca5d9e0fc103e5572,611e07ecdcc96256ae8d5b80,611e71b82041f68bf7a92aeb,
,,,,space,0.546,,0,97,97,28,1,V, , , , ,space,1500,1.5,611cf31ca5d9e0fc103e5572,001,2021-08-19_15h59.40.507,natb3,2021.2.3,Win32,59.99880002,611cf31ca5d9e0fc103e5572,611e07ecdcc96256ae8d5b80,611e71b82041f68bf7a92aeb,
,,,,space,0.4504,,0,98,98,94,1,C, , , , ,space,2000,2,611cf31ca5d9e0fc103e5572,001,2021-08-19_15h59.40.507,natb3,2021.2.3,Win32,59.99880002,611cf31ca5d9e0fc103e5572,611e07ecdcc96256ae8d5b80,611e71b82041f68bf7a92aeb,
,,,,,,,0,99,99,15,1,X, , , , ,,1500,1.5,611cf31ca5d9e0fc103e5572,001,2021-08-19_15h59.40.507,natb3,2021.2.3,Win32,59.99880002,611cf31ca5d9e0fc103e5572,611e07ecdcc96256ae8d5b80,611e71b82041f68bf7a92aeb,
,,,,space,0.3484,,0,100,100,93,1,X,5, ,7, ,,2500,2.5,611cf31ca5d9e0fc103e5572,001,2021-08-19_15h59.40.507,natb3,2021.2.3,Win32,59.99880002,611cf31ca5d9e0fc103e5572,611e07ecdcc96256ae8d5b80,611e71b82041f68bf7a92aeb,
,,,,space,0.6165,,0,101,101,86,1,G, , , , ,space,2000,2,611cf31ca5d9e0fc103e5572,001,2021-08-19_15h59.40.507,natb3,2021.2.3,Win32,59.99880002,611cf31ca5d9e0fc103e5572,611e07ecdcc96256ae8d5b80,611e71b82041f68bf7a92aeb,
,,,,space,0.538,,0,102,102,37,1,E, , , , ,space,2500,2.5,611cf31ca5d9e0fc103e5572,001,2021-08-19_15h59.40.507,natb3,2021.2.3,Win32,59.99880002,611cf31ca5d9e0fc103e5572,611e07ecdcc96256ae8d5b80,611e71b82041f68bf7a92aeb,
,,,,space,0.5067,,0,103,103,87,1,H, , , , ,space,1500,1.5,611cf31ca5d9e0fc103e5572,001,2021-08-19_15h59.40.507,natb3,2021.2.3,Win32,59.99880002,611cf31ca5d9e0fc103e5572,611e07ecdcc96256ae8d5b80,611e71b82041f68bf7a92aeb,
,,,,space,0.4596,,0,104,104,317,1,C, , , , ,space,2000,2,611cf31ca5d9e0fc103e5572,001,2021-08-19_15h59.40.507,natb3,2021.2.3,Win32,59.99880002,611cf31ca5d9e0fc103e5572,611e07ecdcc96256ae8d5b80,611e71b82041f68bf7a92aeb,
,,,,space,0.5096,,0,105,105,55,1,H, , , , ,space,2500,2.5,611cf31ca5d9e0fc103e5572,001,2021-08-19_15h59.40.507,natb3,2021.2.3,Win32,59.99880002,611cf31ca5d9e0fc103e5572,611e07ecdcc96256ae8d5b80,611e71b82041f68bf7a92aeb,
,,,,space,0.647,,0,106,106,223,1,Q, , , , ,space,2000,2,611cf31ca5d9e0fc103e5572,001,2021-08-19_15h59.40.507,natb3,2021.2.3,Win32,59.99880002,611cf31ca5d9e0fc103e5572,611e07ecdcc96256ae8d5b80,611e71b82041f68bf7a92aeb,
,,,,space,0.4627,,0,107,107,91,1,L, , , , ,space,2000,2,611cf31ca5d9e0fc103e5572,001,2021-08-19_15h59.40.507,natb3,2021.2.3,Win32,59.99880002,611cf31ca5d9e0fc103e5572,611e07ecdcc96256ae8d5b80,611e71b82041f68bf7a92aeb,
,,,,,,,0,108,108,60,1,X,7,3,5, ,,1500,1.5,611cf31ca5d9e0fc103e5572,001,2021-08-19_15h59.40.507,natb3,2021.2.3,Win32,59.99880002,611cf31ca5d9e0fc103e5572,611e07ecdcc96256ae8d5b80,611e71b82041f68bf7a92aeb,
,,,,space,0.5474,,0,109,109,249,1,C, , , , ,space,2000,2,611cf31ca5d9e0fc103e5572,001,2021-08-19_15h59.40.507,natb3,2021.2.3,Win32,59.99880002,611cf31ca5d9e0fc103e5572,611e07ecdcc96256ae8d5b80,611e71b82041f68bf7a92aeb,
,,,,space,0.5381,,0,110,110,215,1,E, , , , ,space,2500,2.5,611cf31ca5d9e0fc103e5572,001,2021-08-19_15h59.40.507,natb3,2021.2.3,Win32,59.99880002,611cf31ca5d9e0fc103e5572,611e07ecdcc96256ae8d5b80,611e71b82041f68bf7a92aeb,
,,,,space,0.3845,,0,111,111,241,1,G, , , , ,space,2500,2.5,611cf31ca5d9e0fc103e5572,001,2021-08-19_15h59.40.507,natb3,2021.2.3,Win32,59.99880002,611cf31ca5d9e0fc103e5572,611e07ecdcc96256ae8d5b80,611e71b82041f68bf7a92aeb,
,,,,space,0.3608,,0,112,112,137,1,C, , , , ,space,2500,2.5,611cf31ca5d9e0fc103e5572,001,2021-08-19_15h59.40.507,natb3,2021.2.3,Win32,59.99880002,611cf31ca5d9e0fc103e5572,611e07ecdcc96256ae8d5b80,611e71b82041f68bf7a92aeb,
,,,,,,,0,113,113,166,1,X, , , , ,,2000,2,611cf31ca5d9e0fc103e5572,001,2021-08-19_15h59.40.507,natb3,2021.2.3,Win32,59.99880002,611cf31ca5d9e0fc103e5572,611e07ecdcc96256ae8d5b80,611e71b82041f68bf7a92aeb,
,,,,space,0.3999,,0,114,114,8,1,U, , , , ,space,1500,1.5,611cf31ca5d9e0fc103e5572,001,2021-08-19_15h59.40.507,natb3,2021.2.3,Win32,59.99880002,611cf31ca5d9e0fc103e5572,611e07ecdcc96256ae8d5b80,611e71b82041f68bf7a92aeb,
,,,,space,0.4358,,0,115,115,246,1,L, , , , ,space,2500,2.5,611cf31ca5d9e0fc103e5572,001,2021-08-19_15h59.40.507,natb3,2021.2.3,Win32,59.99880002,611cf31ca5d9e0fc103e5572,611e07ecdcc96256ae8d5b80,611e71b82041f68bf7a92aeb,
,,,,space,0.3192,,0,116,116,90,1,K, , , , ,space,2000,2,611cf31ca5d9e0fc103e5572,001,2021-08-19_15h59.40.507,natb3,2021.2.3,Win32,59.99880002,611cf31ca5d9e0fc103e5572,611e07ecdcc96256ae8d5b80,611e71b82041f68bf7a92aeb,
,,,,space,0.3255,,0,117,117,251,1,B, , , , ,space,1500,1.5,611cf31ca5d9e0fc103e5572,001,2021-08-19_15h59.40.507,natb3,2021.2.3,Win32,59.99880002,611cf31ca5d9e0fc103e5572,611e07ecdcc96256ae8d5b80,611e71b82041f68bf7a92aeb,
,,,,space,0.3907,,0,118,118,124,1,P, , , , ,space,2000,2,611cf31ca5d9e0fc103e5572,001,2021-08-19_15h59.40.507,natb3,2021.2.3,Win32,59.99880002,611cf31ca5d9e0fc103e5572,611e07ecdcc96256ae8d5b80,611e71b82041f68bf7a92aeb,
,,,,,,,0,119,119,51,1,X,7,5,8, ,,1500,1.5,611cf31ca5d9e0fc103e5572,001,2021-08-19_15h59.40.507,natb3,2021.2.3,Win32,59.99880002,611cf31ca5d9e0fc103e5572,611e07ecdcc96256ae8d5b80,611e71b82041f68bf7a92aeb,
,,,,space,0.5003,,0,120,120,266,1,O, , , , ,space,1500,1.5,611cf31ca5d9e0fc103e5572,001,2021-08-19_15h59.40.507,natb3,2021.2.3,Win32,59.99880002,611cf31ca5d9e0fc103e5572,611e07ecdcc96256ae8d5b80,611e71b82041f68bf7a92aeb,
,,,,space,0.4259,,0,121,121,333,1,I, , , , ,space,1500,1.5,611cf31ca5d9e0fc103e5572,001,2021-08-19_15h59.40.507,natb3,2021.2.3,Win32,59.99880002,611cf31ca5d9e0fc103e5572,611e07ecdcc96256ae8d5b80,611e71b82041f68bf7a92aeb,
,,,,space,0.3556,,0,122,122,52,1,F, , , , ,space,1500,1.5,611cf31ca5d9e0fc103e5572,001,2021-08-19_15h59.40.507,natb3,2021.2.3,Win32,59.99880002,611cf31ca5d9e0fc103e5572,611e07ecdcc96256ae8d5b80,611e71b82041f68bf7a92aeb,
,,,,space,0.3411,,0,123,123,104,1,E, , , , ,space,2000,2,611cf31ca5d9e0fc103e5572,001,2021-08-19_15h59.40.507,natb3,2021.2.3,Win32,59.99880002,611cf31ca5d9e0fc103e5572,611e07ecdcc96256ae8d5b80,611e71b82041f68bf7a92aeb,
,,,,space,0.319,,0,124,124,1,1,W, , , , ,space,2000,2,611cf31ca5d9e0fc103e5572,001,2021-08-19_15h59.40.507,natb3,2021.2.3,Win32,59.99880002,611cf31ca5d9e0fc103e5572,611e07ecdcc96256ae8d5b80,611e71b82041f68bf7a92aeb,
,,,,space,0.5526,,0,125,125,11,1,P, , , , ,space,2500,2.5,611cf31ca5d9e0fc103e5572,001,2021-08-19_15h59.40.507,natb3,2021.2.3,Win32,59.99880002,611cf31ca5d9e0fc103e5572,611e07ecdcc96256ae8d5b80,611e71b82041f68bf7a92aeb,
,,,,,,,0,126,126,335,1,P,,,,,space,1500,1.5,611cf31ca5d9e0fc103e5572,001,2021-08-19_15h59.40.507,natb3,2021.2.3,Win32,59.99880002,611cf31ca5d9e0fc103e5572,611e07ecdcc96256ae8d5b80,611e71b82041f68bf7a92aeb,
,,,,space,0.5669,,0,127,127,58,1,L, , , , ,space,2000,2,611cf31ca5d9e0fc103e5572,001,2021-08-19_15h59.40.507,natb3,2021.2.3,Win32,59.99880002,611cf31ca5d9e0fc103e5572,611e07ecdcc96256ae8d5b80,611e71b82041f68bf7a92aeb,
,,,,space,0.518,,0,128,128,131,1,G, , , , ,space,1500,1.5,611cf31ca5d9e0fc103e5572,001,2021-08-19_15h59.40.507,natb3,2021.2.3,Win32,59.99880002,611cf31ca5d9e0fc103e5572,611e07ecdcc96256ae8d5b80,611e71b82041f68bf7a92aeb,
,,,,space,0.4395,,0,129,129,85,1,F, , , , ,space,2500,2.5,611cf31ca5d9e0fc103e5572,001,2021-08-19_15h59.40.507,natb3,2021.2.3,Win32,59.99880002,611cf31ca5d9e0fc103e5572,611e07ecdcc96256ae8d5b80,611e71b82041f68bf7a92aeb,
,,,,space,0.4752,,0,130,130,208,1,B, , , , ,space,1500,1.5,611cf31ca5d9e0fc103e5572,001,2021-08-19_15h59.40.507,natb3,2021.2.3,Win32,59.99880002,611cf31ca5d9e0fc103e5572,611e07ecdcc96256ae8d5b80,611e71b82041f68bf7a92aeb,
,,,,space,0.504,,0,131,131,178,1,Q, , , , ,space,1500,1.5,611cf31ca5d9e0fc103e5572,001,2021-08-19_15h59.40.507,natb3,2021.2.3,Win32,59.99880002,611cf31ca5d9e0fc103e5572,611e07ecdcc96256ae8d5b80,611e71b82041f68bf7a92aeb,
,,,,,,,0,132,132,271,1,X, , , , ,,2500,2.5,611cf31ca5d9e0fc103e5572,001,2021-08-19_15h59.40.507,natb3,2021.2.3,Win32,59.99880002,611cf31ca5d9e0fc103e5572,611e07ecdcc96256ae8d5b80,611e71b82041f68bf7a92aeb,
,,,,,,,0,133,133,39,1,X,6,2, , ,,1500,1.5,611cf31ca5d9e0fc103e5572,001,2021-08-19_15h59.40.507,natb3,2021.2.3,Win32,59.99880002,611cf31ca5d9e0fc103e5572,611e07ecdcc96256ae8d5b80,611e71b82041f68bf7a92aeb,
,,,,,,,0,134,134,248,1,X, ,1,5, ,,1500,1.5,611cf31ca5d9e0fc103e5572,001,2021-08-19_15h59.40.507,natb3,2021.2.3,Win32,59.99880002,611cf31ca5d9e0fc103e5572,611e07ecdcc96256ae8d5b80,611e71b82041f68bf7a92aeb,
,,,,space,0.5727,,0,135,135,67,1,Q, , , , ,space,2000,2,611cf31ca5d9e0fc103e5572,001,2021-08-19_15h59.40.507,natb3,2021.2.3,Win32,59.99880002,611cf31ca5d9e0fc103e5572,611e07ecdcc96256ae8d5b80,611e71b82041f68bf7a92aeb,
,,,,space,0.5044,,0,136,136,47,1,P, , , , ,space,2000,2,611cf31ca5d9e0fc103e5572,001,2021-08-19_15h59.40.507,natb3,2021.2.3,Win32,59.99880002,611cf31ca5d9e0fc103e5572,611e07ecdcc96256ae8d5b80,611e71b82041f68bf7a92aeb,
,,,,,,,0,137,137,23,1,X,1, ,5, ,,2000,2,611cf31ca5d9e0fc103e5572,001,2021-08-19_15h59.40.507,natb3,2021.2.3,Win32,59.99880002,611cf31ca5d9e0fc103e5572,611e07ecdcc96256ae8d5b80,611e71b82041f68bf7a92aeb,
,,,,space,0.6004,,0,138,138,154,1,I, , , , ,space,2500,2.5,611cf31ca5d9e0fc103e5572,001,2021-08-19_15h59.40.507,natb3,2021.2.3,Win32,59.99880002,611cf31ca5d9e0fc103e5572,611e07ecdcc96256ae8d5b80,611e71b82041f68bf7a92aeb,
,,,,space,0.4839,,0,139,139,127,1,S, , , , ,space,2500,2.5,611cf31ca5d9e0fc103e5572,001,2021-08-19_15h59.40.507,natb3,2021.2.3,Win32,59.99880002,611cf31ca5d9e0fc103e5572,611e07ecdcc96256ae8d5b80,611e71b82041f68bf7a92aeb,
,,,,space,0.5482,,0,140,140,180,1,W, , , , ,space,2000,2,611cf31ca5d9e0fc103e5572,001,2021-08-19_15h59.40.507,natb3,2021.2.3,Win32,59.99880002,611cf31ca5d9e0fc103e5572,611e07ecdcc96256ae8d5b80,611e71b82041f68bf7a92aeb,
,,,,,,,0,141,141,148,1,X, , , , ,,2000,2,611cf31ca5d9e0fc103e5572,001,2021-08-19_15h59.40.507,natb3,2021.2.3,Win32,59.99880002,611cf31ca5d9e0fc103e5572,611e07ecdcc96256ae8d5b80,611e71b82041f68bf7a92aeb,
,,,,,,,0,142,142,211,1,X, , , , ,,2500,2.5,611cf31ca5d9e0fc103e5572,001,2021-08-19_15h59.40.507,natb3,2021.2.3,Win32,59.99880002,611cf31ca5d9e0fc103e5572,611e07ecdcc96256ae8d5b80,611e71b82041f68bf7a92aeb,
,,,,space,0.6392,,0,143,143,22,1,K, , , , ,space,2000,2,611cf31ca5d9e0fc103e5572,001,2021-08-19_15h59.40.507,natb3,2021.2.3,Win32,59.99880002,611cf31ca5d9e0fc103e5572,611e07ecdcc96256ae8d5b80,611e71b82041f68bf7a92aeb,
,,,,,,,0,144,144,325,1,X, , , , ,,2500,2.5,611cf31ca5d9e0fc103e5572,001,2021-08-19_15h59.40.507,natb3,2021.2.3,Win32,59.99880002,611cf31ca5d9e0fc103e5572,611e07ecdcc96256ae8d5b80,611e71b82041f68bf7a92aeb,
,,,,,,,0,145,145,182,1,X, , , , ,,1500,1.5,611cf31ca5d9e0fc103e5572,001,2021-08-19_15h59.40.507,natb3,2021.2.3,Win32,59.99880002,611cf31ca5d9e0fc103e5572,611e07ecdcc96256ae8d5b80,611e71b82041f68bf7a92aeb,
,,,,,,,0,146,146,318,1,X, , , , ,,1500,1.5,611cf31ca5d9e0fc103e5572,001,2021-08-19_15h59.40.507,natb3,2021.2.3,Win32,59.99880002,611cf31ca5d9e0fc103e5572,611e07ecdcc96256ae8d5b80,611e71b82041f68bf7a92aeb,
,,,,,,,0,147,147,89,1,X,3, , , ,,2000,2,611cf31ca5d9e0fc103e5572,001,2021-08-19_15h59.40.507,natb3,2021.2.3,Win32,59.99880002,611cf31ca5d9e0fc103e5572,611e07ecdcc96256ae8d5b80,611e71b82041f68bf7a92aeb,
,,,,space,0.5583,,0,148,148,183,1,R, , , , ,space,1500,1.5,611cf31ca5d9e0fc103e5572,001,2021-08-19_15h59.40.507,natb3,2021.2.3,Win32,59.99880002,611cf31ca5d9e0fc103e5572,611e07ecdcc96256ae8d5b80,611e71b82041f68bf7a92aeb,
,,,,space,0.5364,,0,149,149,0,1,Q, , , , ,space,1500,1.5,611cf31ca5d9e0fc103e5572,001,2021-08-19_15h59.40.507,natb3,2021.2.3,Win32,59.99880002,611cf31ca5d9e0fc103e5572,611e07ecdcc96256ae8d5b80,611e71b82041f68bf7a92aeb,
,,,,,,,0,150,150,302,1,X, , , , ,,2000,2,611cf31ca5d9e0fc103e5572,001,2021-08-19_15h59.40.507,natb3,2021.2.3,Win32,59.99880002,611cf31ca5d9e0fc103e5572,611e07ecdcc96256ae8d5b80,611e71b82041f68bf7a92aeb,
,,,,space,0.5484,,0,151,151,202,1,L, , , , ,space,2500,2.5,611cf31ca5d9e0fc103e5572,001,2021-08-19_15h59.40.507,natb3,2021.2.3,Win32,59.99880002,611cf31ca5d9e0fc103e5572,611e07ecdcc96256ae8d5b80,611e71b82041f68bf7a92aeb,
,,,,space,0.4601,,0,152,152,323,1,M, , , , ,space,2500,2.5,611cf31ca5d9e0fc103e5572,001,2021-08-19_15h59.40.507,natb3,2021.2.3,Win32,59.99880002,611cf31ca5d9e0fc103e5572,611e07ecdcc96256ae8d5b80,611e71b82041f68bf7a92aeb,
,,,,space,0.4489,,0,153,153,144,1,Q, , , , ,space,2500,2.5,611cf31ca5d9e0fc103e5572,001,2021-08-19_15h59.40.507,natb3,2021.2.3,Win32,59.99880002,611cf31ca5d9e0fc103e5572,611e07ecdcc96256ae8d5b80,611e71b82041f68bf7a92aeb,
,,,,space,0.4711,,0,154,154,72,1,T, , , , ,space,1500,1.5,611cf31ca5d9e0fc103e5572,001,2021-08-19_15h59.40.507,natb3,2021.2.3,Win32,59.99880002,611cf31ca5d9e0fc103e5572,611e07ecdcc96256ae8d5b80,611e71b82041f68bf7a92aeb,
,,,,space,0.3428,,0,155,155,176,1,N, , , , ,space,1500,1.5,611cf31ca5d9e0fc103e5572,001,2021-08-19_15h59.40.507,natb3,2021.2.3,Win32,59.99880002,611cf31ca5d9e0fc103e5572,611e07ecdcc96256ae8d5b80,611e71b82041f68bf7a92aeb,
,,,,space,0.3464,,0,156,156,193,1,S, , , , ,space,2500,2.5,611cf31ca5d9e0fc103e5572,001,2021-08-19_15h59.40.507,natb3,2021.2.3,Win32,59.99880002,611cf31ca5d9e0fc103e5572,611e07ecdcc96256ae8d5b80,611e71b82041f68bf7a92aeb,
,,,,space,0.3828,,0,157,157,157,1,A, , , , ,space,2500,2.5,611cf31ca5d9e0fc103e5572,001,2021-08-19_15h59.40.507,natb3,2021.2.3,Win32,59.99880002,611cf31ca5d9e0fc103e5572,611e07ecdcc96256ae8d5b80,611e71b82041f68bf7a92aeb,
,,,,space,0.6501,,0,158,158,289,1,Q, , , , ,space,2000,2,611cf31ca5d9e0fc103e5572,001,2021-08-19_15h59.40.507,natb3,2021.2.3,Win32,59.99880002,611cf31ca5d9e0fc103e5572,611e07ecdcc96256ae8d5b80,611e71b82041f68bf7a92aeb,
,,,,space,0.3872,,0,159,159,129,1,X,2,3,5, ,,1500,1.5,611cf31ca5d9e0fc103e5572,001,2021-08-19_15h59.40.507,natb3,2021.2.3,Win32,59.99880002,611cf31ca5d9e0fc103e5572,611e07ecdcc96256ae8d5b80,611e71b82041f68bf7a92aeb,
,,,,space,0.4037,,0,160,160,81,1,S, , , , ,space,2000,2,611cf31ca5d9e0fc103e5572,001,2021-08-19_15h59.40.507,natb3,2021.2.3,Win32,59.99880002,611cf31ca5d9e0fc103e5572,611e07ecdcc96256ae8d5b80,611e71b82041f68bf7a92aeb,
,,,,space,0.3338,,0,161,161,262,1,Y, , , , ,space,2500,2.5,611cf31ca5d9e0fc103e5572,001,2021-08-19_15h59.40.507,natb3,2021.2.3,Win32,59.99880002,611cf31ca5d9e0fc103e5572,611e07ecdcc96256ae8d5b80,611e71b82041f68bf7a92aeb,
,,,,space,0.4652,,0,162,162,258,1,E, , , , ,space,1500,1.5,611cf31ca5d9e0fc103e5572,001,2021-08-19_15h59.40.507,natb3,2021.2.3,Win32,59.99880002,611cf31ca5d9e0fc103e5572,611e07ecdcc96256ae8d5b80,611e71b82041f68bf7a92aeb,
,,,,space,0.4071,,0,163,163,173,1,V, , , , ,space,1500,1.5,611cf31ca5d9e0fc103e5572,001,2021-08-19_15h59.40.507,natb3,2021.2.3,Win32,59.99880002,611cf31ca5d9e0fc103e5572,611e07ecdcc96256ae8d5b80,611e71b82041f68bf7a92aeb,
,,,,space,0.4984,,0,164,164,231,1,I, , , , ,space,2500,2.5,611cf31ca5d9e0fc103e5572,001,2021-08-19_15h59.40.507,natb3,2021.2.3,Win32,59.99880002,611cf31ca5d9e0fc103e5572,611e07ecdcc96256ae8d5b80,611e71b82041f68bf7a92aeb,
,,,,space,0.3748,,0,165,165,109,1,U, , , , ,space,1500,1.5,611cf31ca5d9e0fc103e5572,001,2021-08-19_15h59.40.507,natb3,2021.2.3,Win32,59.99880002,611cf31ca5d9e0fc103e5572,611e07ecdcc96256ae8d5b80,611e71b82041f68bf7a92aeb,
,,,,space,0.2784,,0,166,166,114,1,E, , , , ,space,2000,2,611cf31ca5d9e0fc103e5572,001,2021-08-19_15h59.40.507,natb3,2021.2.3,Win32,59.99880002,611cf31ca5d9e0fc103e5572,611e07ecdcc96256ae8d5b80,611e71b82041f68bf7a92aeb,
,,,,space,0.3325,space,0,167,167,21,1,J, , , , ,space,1500,1.5,611cf31ca5d9e0fc103e5572,001,2021-08-19_15h59.40.507,natb3,2021.2.3,Win32,59.99880002,611cf31ca5d9e0fc103e5572,611e07ecdcc96256ae8d5b80,611e71b82041f68bf7a92aeb,12.0511
,,,,space,0.6325,,0,168,168,172,1,C, , , , ,space,1500,1.5,611cf31ca5d9e0fc103e5572,001,2021-08-19_15h59.40.507,natb3,2021.2.3,Win32,59.99880002,611cf31ca5d9e0fc103e5572,611e07ecdcc96256ae8d5b80,611e71b82041f68bf7a92aeb,
,,,,space,0.3347,,0,169,169,255,1,X, , , , ,,1500,1.5,611cf31ca5d9e0fc103e5572,001,2021-08-19_15h59.40.507,natb3,2021.2.3,Win32,59.99880002,611cf31ca5d9e0fc103e5572,611e07ecdcc96256ae8d5b80,611e71b82041f68bf7a92aeb,
,,,,,,,0,170,170,162,1,X,1,6, ,2,,1500,1.5,611cf31ca5d9e0fc103e5572,001,2021-08-19_15h59.40.507,natb3,2021.2.3,Win32,59.99880002,611cf31ca5d9e0fc103e5572,611e07ecdcc96256ae8d5b80,611e71b82041f68bf7a92aeb,
,,,,space,0.5503,,0,171,171,256,1,Q, , , , ,space,2000,2,611cf31ca5d9e0fc103e5572,001,2021-08-19_15h59.40.507,natb3,2021.2.3,Win32,59.99880002,611cf31ca5d9e0fc103e5572,611e07ecdcc96256ae8d5b80,611e71b82041f68bf7a92aeb,
,,,,space,0.4348,,0,172,172,71,1,R, , , , ,space,2500,2.5,611cf31ca5d9e0fc103e5572,001,2021-08-19_15h59.40.507,natb3,2021.2.3,Win32,59.99880002,611cf31ca5d9e0fc103e5572,611e07ecdcc96256ae8d5b80,611e71b82041f68bf7a92aeb,
,,,,,,,0,173,173,171,1,X, , , , ,,1500,1.5,611cf31ca5d9e0fc103e5572,001,2021-08-19_15h59.40.507,natb3,2021.2.3,Win32,59.99880002,611cf31ca5d9e0fc103e5572,611e07ecdcc96256ae8d5b80,611e71b82041f68bf7a92aeb,
,,,,space,0.387,,0,174,174,73,1,Y, , , , ,space,2000,2,611cf31ca5d9e0fc103e5572,001,2021-08-19_15h59.40.507,natb3,2021.2.3,Win32,59.99880002,611cf31ca5d9e0fc103e5572,611e07ecdcc96256ae8d5b80,611e71b82041f68bf7a92aeb,
,,,,space,0.551,,0,175,175,149,1,R, , , , ,space,2000,2,611cf31ca5d9e0fc103e5572,001,2021-08-19_15h59.40.507,natb3,2021.2.3,Win32,59.99880002,611cf31ca5d9e0fc103e5572,611e07ecdcc96256ae8d5b80,611e71b82041f68bf7a92aeb,
,,,,space,0.4816,,0,176,176,196,1,F, , , , ,space,1500,1.5,611cf31ca5d9e0fc103e5572,001,2021-08-19_15h59.40.507,natb3,2021.2.3,Win32,59.99880002,611cf31ca5d9e0fc103e5572,611e07ecdcc96256ae8d5b80,611e71b82041f68bf7a92aeb,
,,,,space,0.3868,,0,177,177,42,1,U, , , , ,space,1500,1.5,611cf31ca5d9e0fc103e5572,001,2021-08-19_15h59.40.507,natb3,2021.2.3,Win32,59.99880002,611cf31ca5d9e0fc103e5572,611e07ecdcc96256ae8d5b80,611e71b82041f68bf7a92aeb,
,,,,,,,0,178,178,12,1,X, , , , ,,1500,1.5,611cf31ca5d9e0fc103e5572,001,2021-08-19_15h59.40.507,natb3,2021.2.3,Win32,59.99880002,611cf31ca5d9e0fc103e5572,611e07ecdcc96256ae8d5b80,611e71b82041f68bf7a92aeb,
,,,,space,0.5644,,0,179,179,290,1,W, , , , ,space,1500,1.5,611cf31ca5d9e0fc103e5572,001,2021-08-19_15h59.40.507,natb3,2021.2.3,Win32,59.99880002,611cf31ca5d9e0fc103e5572,611e07ecdcc96256ae8d5b80,611e71b82041f68bf7a92aeb,
,,,,space,0.4234,,0,180,180,285,1,B, , , , ,space,1500,1.5,611cf31ca5d9e0fc103e5572,001,2021-08-19_15h59.40.507,natb3,2021.2.3,Win32,59.99880002,611cf31ca5d9e0fc103e5572,611e07ecdcc96256ae8d5b80,611e71b82041f68bf7a92aeb,
,,,,space,0.448,,0,181,181,169,1,L, , , , ,space,2500,2.5,611cf31ca5d9e0fc103e5572,001,2021-08-19_15h59.40.507,natb3,2021.2.3,Win32,59.99880002,611cf31ca5d9e0fc103e5572,611e07ecdcc96256ae8d5b80,611e71b82041f68bf7a92aeb,
,,,,space,0.7673,,0,182,182,316,1,Z, , , , ,space,1500,1.5,611cf31ca5d9e0fc103e5572,001,2021-08-19_15h59.40.507,natb3,2021.2.3,Win32,59.99880002,611cf31ca5d9e0fc103e5572,611e07ecdcc96256ae8d5b80,611e71b82041f68bf7a92aeb,
,,,,space,0.5329,,0,183,183,293,1,R, , , , ,space,2500,2.5,611cf31ca5d9e0fc103e5572,001,2021-08-19_15h59.40.507,natb3,2021.2.3,Win32,59.99880002,611cf31ca5d9e0fc103e5572,611e07ecdcc96256ae8d5b80,611e71b82041f68bf7a92aeb,
,,,,space,0.4032,,0,184,184,136,1,Z, , , , ,space,2500,2.5,611cf31ca5d9e0fc103e5572,001,2021-08-19_15h59.40.507,natb3,2021.2.3,Win32,59.99880002,611cf31ca5d9e0fc103e5572,611e07ecdcc96256ae8d5b80,611e71b82041f68bf7a92aeb,
,,,,space,0.3272,,0,185,185,311,1,X,1,2,7,3,,2500,2.5,611cf31ca5d9e0fc103e5572,001,2021-08-19_15h59.40.507,natb3,2021.2.3,Win32,59.99880002,611cf31ca5d9e0fc103e5572,611e07ecdcc96256ae8d5b80,611e71b82041f68bf7a92aeb,
,,,,,,,0,186,186,218,1,X,1,3, ,8,,1500,1.5,611cf31ca5d9e0fc103e5572,001,2021-08-19_15h59.40.507,natb3,2021.2.3,Win32,59.99880002,611cf31ca5d9e0fc103e5572,611e07ecdcc96256ae8d5b80,611e71b82041f68bf7a92aeb,
,,,,space,0.4523,,0,187,187,25,1,Z, , , , ,space,2500,2.5,611cf31ca5d9e0fc103e5572,001,2021-08-19_15h59.40.507,natb3,2021.2.3,Win32,59.99880002,611cf31ca5d9e0fc103e5572,611e07ecdcc96256ae8d5b80,611e71b82041f68bf7a92aeb,
,,,,space,0.7642,,0,188,188,212,1,Q, , , , ,space,2500,2.5,611cf31ca5d9e0fc103e5572,001,2021-08-19_15h59.40.507,natb3,2021.2.3,Win32,59.99880002,611cf31ca5d9e0fc103e5572,611e07ecdcc96256ae8d5b80,611e71b82041f68bf7a92aeb,
,,,,,,,0,189,189,56,1,J, , , , ,space,1500,1.5,611cf31ca5d9e0fc103e5572,001,2021-08-19_15h59.40.507,natb3,2021.2.3,Win32,59.99880002,611cf31ca5d9e0fc103e5572,611e07ecdcc96256ae8d5b80,611e71b82041f68bf7a92aeb,
,,,,space,0.6727,,0,190,190,110,1,I, , , , ,space,1500,1.5,611cf31ca5d9e0fc103e5572,001,2021-08-19_15h59.40.507,natb3,2021.2.3,Win32,59.99880002,611cf31ca5d9e0fc103e5572,611e07ecdcc96256ae8d5b80,611e71b82041f68bf7a92aeb,
,,,,space,0.4677,,0,191,191,165,1,J, , , , ,space,2500,2.5,611cf31ca5d9e0fc103e5572,001,2021-08-19_15h59.40.507,natb3,2021.2.3,Win32,59.99880002,611cf31ca5d9e0fc103e5572,611e07ecdcc96256ae8d5b80,611e71b82041f68bf7a92aeb,
,,,,space,0.4623,,0,192,192,83,1,D, , , , ,space,2000,2,611cf31ca5d9e0fc103e5572,001,2021-08-19_15h59.40.507,natb3,2021.2.3,Win32,59.99880002,611cf31ca5d9e0fc103e5572,611e07ecdcc96256ae8d5b80,611e71b82041f68bf7a92aeb,
,,,,space,0.6058,,0,193,193,308,1,G, , , , ,space,1500,1.5,611cf31ca5d9e0fc103e5572,001,2021-08-19_15h59.40.507,natb3,2021.2.3,Win32,59.99880002,611cf31ca5d9e0fc103e5572,611e07ecdcc96256ae8d5b80,611e71b82041f68bf7a92aeb,
,,,,space,0.5257,,0,194,194,275,1,G, , , , ,space,1500,1.5,611cf31ca5d9e0fc103e5572,001,2021-08-19_15h59.40.507,natb3,2021.2.3,Win32,59.99880002,611cf31ca5d9e0fc103e5572,611e07ecdcc96256ae8d5b80,611e71b82041f68bf7a92aeb,
,,,,space,0.4565,,0,195,195,44,1,I, , , , ,space,2500,2.5,611cf31ca5d9e0fc103e5572,001,2021-08-19_15h59.40.507,natb3,2021.2.3,Win32,59.99880002,611cf31ca5d9e0fc103e5572,611e07ecdcc96256ae8d5b80,611e71b82041f68bf7a92aeb,
,,,,space,0.5685,,0,196,196,214,1,W, , , , ,space,2000,2,611cf31ca5d9e0fc103e5572,001,2021-08-19_15h59.40.507,natb3,2021.2.3,Win32,59.99880002,611cf31ca5d9e0fc103e5572,611e07ecdcc96256ae8d5b80,611e71b82041f68bf7a92aeb,
,,,,space,0.8181,,0,197,197,14,1,S, , , , ,space,2500,2.5,611cf31ca5d9e0fc103e5572,001,2021-08-19_15h59.40.507,natb3,2021.2.3,Win32,59.99880002,611cf31ca5d9e0fc103e5572,611e07ecdcc96256ae8d5b80,611e71b82041f68bf7a92aeb,
,,,,space,0.5324,,0,198,198,184,1,T, , , , ,space,2000,2,611cf31ca5d9e0fc103e5572,001,2021-08-19_15h59.40.507,natb3,2021.2.3,Win32,59.99880002,611cf31ca5d9e0fc103e5572,611e07ecdcc96256ae8d5b80,611e71b82041f68bf7a92aeb,
,,,,space,0.4652,,0,199,199,206,1,V, , , , ,space,2000,2,611cf31ca5d9e0fc103e5572,001,2021-08-19_15h59.40.507,natb3,2021.2.3,Win32,59.99880002,611cf31ca5d9e0fc103e5572,611e07ecdcc96256ae8d5b80,611e71b82041f68bf7a92aeb,
,,,,space,0.6005,,0,200,200,219,1,Y, , , , ,space,2000,2,611cf31ca5d9e0fc103e5572,001,2021-08-19_15h59.40.507,natb3,2021.2.3,Win32,59.99880002,611cf31ca5d9e0fc103e5572,611e07ecdcc96256ae8d5b80,611e71b82041f68bf7a92aeb,
,,,,space,0.3334,,0,201,201,234,1,P, , , , ,space,2000,2,611cf31ca5d9e0fc103e5572,001,2021-08-19_15h59.40.507,natb3,2021.2.3,Win32,59.99880002,611cf31ca5d9e0fc103e5572,611e07ecdcc96256ae8d5b80,611e71b82041f68bf7a92aeb,
,,,,space,0.3041,,0,202,202,242,1,H, , , , ,space,2500,2.5,611cf31ca5d9e0fc103e5572,001,2021-08-19_15h59.40.507,natb3,2021.2.3,Win32,59.99880002,611cf31ca5d9e0fc103e5572,611e07ecdcc96256ae8d5b80,611e71b82041f68bf7a92aeb,
,,,,space,0.3346,,0,203,203,130,1,F, , , , ,space,2000,2,611cf31ca5d9e0fc103e5572,001,2021-08-19_15h59.40.507,natb3,2021.2.3,Win32,59.99880002,611cf31ca5d9e0fc103e5572,611e07ecdcc96256ae8d5b80,611e71b82041f68bf7a92aeb,
,,,,space,0.3506,,0,204,204,304,1,S, , , , ,space,2000,2,611cf31ca5d9e0fc103e5572,001,2021-08-19_15h59.40.507,natb3,2021.2.3,Win32,59.99880002,611cf31ca5d9e0fc103e5572,611e07ecdcc96256ae8d5b80,611e71b82041f68bf7a92aeb,
,,,,space,0.3707,,0,205,205,115,1,R, , , , ,space,1500,1.5,611cf31ca5d9e0fc103e5572,001,2021-08-19_15h59.40.507,natb3,2021.2.3,Win32,59.99880002,611cf31ca5d9e0fc103e5572,611e07ecdcc96256ae8d5b80,611e71b82041f68bf7a92aeb,
,,,,space,0.5172,,0,206,206,225,1,E, , , , ,space,2000,2,611cf31ca5d9e0fc103e5572,001,2021-08-19_15h59.40.507,natb3,2021.2.3,Win32,59.99880002,611cf31ca5d9e0fc103e5572,611e07ecdcc96256ae8d5b80,611e71b82041f68bf7a92aeb,
,,,,space,0.308,,0,207,207,310,1,J, , , , ,space,2500,2.5,611cf31ca5d9e0fc103e5572,001,2021-08-19_15h59.40.507,natb3,2021.2.3,Win32,59.99880002,611cf31ca5d9e0fc103e5572,611e07ecdcc96256ae8d5b80,611e71b82041f68bf7a92aeb,
,,,,space,0.4148,,0,208,208,329,1,X,3,4, ,2,,2500,2.5,611cf31ca5d9e0fc103e5572,001,2021-08-19_15h59.40.507,natb3,2021.2.3,Win32,59.99880002,611cf31ca5d9e0fc103e5572,611e07ecdcc96256ae8d5b80,611e71b82041f68bf7a92aeb,
,,,,space,0.4723,,0,209,209,237,1,S, , , , ,space,1500,1.5,611cf31ca5d9e0fc103e5572,001,2021-08-19_15h59.40.507,natb3,2021.2.3,Win32,59.99880002,611cf31ca5d9e0fc103e5572,611e07ecdcc96256ae8d5b80,611e71b82041f68bf7a92aeb,
,,,,space,0.4012,,0,210,210,270,1,S, , , , ,space,1500,1.5,611cf31ca5d9e0fc103e5572,001,2021-08-19_15h59.40.507,natb3,2021.2.3,Win32,59.99880002,611cf31ca5d9e0fc103e5572,611e07ecdcc96256ae8d5b80,611e71b82041f68bf7a92aeb,
,,,,space,0.5426,,0,211,211,34,1,Q, , , , ,space,2500,2.5,611cf31ca5d9e0fc103e5572,001,2021-08-19_15h59.40.507,natb3,2021.2.3,Win32,59.99880002,611cf31ca5d9e0fc103e5572,611e07ecdcc96256ae8d5b80,611e71b82041f68bf7a92aeb,
,,,,space,0.4392,,0,212,212,62,1,V, , , , ,space,1500,1.5,611cf31ca5d9e0fc103e5572,001,2021-08-19_15h59.40.507,natb3,2021.2.3,Win32,59.99880002,611cf31ca5d9e0fc103e5572,611e07ecdcc96256ae8d5b80,611e71b82041f68bf7a92aeb,
,,,,space,0.4182,,0,213,213,238,1,D, , , , ,space,1500,1.5,611cf31ca5d9e0fc103e5572,001,2021-08-19_15h59.40.507,natb3,2021.2.3,Win32,59.99880002,611cf31ca5d9e0fc103e5572,611e07ecdcc96256ae8d5b80,611e71b82041f68bf7a92aeb,
,,,,space,0.4382,,0,214,214,201,1,K, , , , ,space,1500,1.5,611cf31ca5d9e0fc103e5572,001,2021-08-19_15h59.40.507,natb3,2021.2.3,Win32,59.99880002,611cf31ca5d9e0fc103e5572,611e07ecdcc96256ae8d5b80,611e71b82041f68bf7a92aeb,
,,,,space,0.4837,,0,215,215,210,1,M, , , , ,space,1500,1.5,611cf31ca5d9e0fc103e5572,001,2021-08-19_15h59.40.507,natb3,2021.2.3,Win32,59.99880002,611cf31ca5d9e0fc103e5572,611e07ecdcc96256ae8d5b80,611e71b82041f68bf7a92aeb,
,,,,space,0.4879,,0,216,216,92,1,Z, , , , ,space,1500,1.5,611cf31ca5d9e0fc103e5572,001,2021-08-19_15h59.40.507,natb3,2021.2.3,Win32,59.99880002,611cf31ca5d9e0fc103e5572,611e07ecdcc96256ae8d5b80,611e71b82041f68bf7a92aeb,
,,,,space,0.4747,,0,217,217,70,1,E, , , , ,space,2500,2.5,611cf31ca5d9e0fc103e5572,001,2021-08-19_15h59.40.507,natb3,2021.2.3,Win32,59.99880002,611cf31ca5d9e0fc103e5572,611e07ecdcc96256ae8d5b80,611e71b82041f68bf7a92aeb,
,,,,space,0.4215,,0,218,218,160,1,D, , , , ,space,1500,1.5,611cf31ca5d9e0fc103e5572,001,2021-08-19_15h59.40.507,natb3,2021.2.3,Win32,59.99880002,611cf31ca5d9e0fc103e5572,611e07ecdcc96256ae8d5b80,611e71b82041f68bf7a92aeb,
,,,,space,0.5174,,0,219,219,280,1,L, , , , ,space,1500,1.5,611cf31ca5d9e0fc103e5572,001,2021-08-19_15h59.40.507,natb3,2021.2.3,Win32,59.99880002,611cf31ca5d9e0fc103e5572,611e07ecdcc96256ae8d5b80,611e71b82041f68bf7a92aeb,
,,,,space,0.317,,0,220,220,65,1,M, , , , ,space,1500,1.5,611cf31ca5d9e0fc103e5572,001,2021-08-19_15h59.40.507,natb3,2021.2.3,Win32,59.99880002,611cf31ca5d9e0fc103e5572,611e07ecdcc96256ae8d5b80,611e71b82041f68bf7a92aeb,
,,,,space,0.3229,,0,221,221,239,1,X, , , , ,,2000,2,611cf31ca5d9e0fc103e5572,001,2021-08-19_15h59.40.507,natb3,2021.2.3,Win32,59.99880002,611cf31ca5d9e0fc103e5572,611e07ecdcc96256ae8d5b80,611e71b82041f68bf7a92aeb,
,,,,,,,0,222,222,236,1,X,3, ,4,7,,2500,2.5,611cf31ca5d9e0fc103e5572,001,2021-08-19_15h59.40.507,natb3,2021.2.3,Win32,59.99880002,611cf31ca5d9e0fc103e5572,611e07ecdcc96256ae8d5b80,611e71b82041f68bf7a92aeb,
,,,,space,0.586,,0,223,223,254,1,M, , , , ,space,1500,1.5,611cf31ca5d9e0fc103e5572,001,2021-08-19_15h59.40.507,natb3,2021.2.3,Win32,59.99880002,611cf31ca5d9e0fc103e5572,611e07ecdcc96256ae8d5b80,611e71b82041f68bf7a92aeb,
,,,,space,0.3763,,0,224,224,243,1,X, , , , ,,2500,2.5,611cf31ca5d9e0fc103e5572,001,2021-08-19_15h59.40.507,natb3,2021.2.3,Win32,59.99880002,611cf31ca5d9e0fc103e5572,611e07ecdcc96256ae8d5b80,611e71b82041f68bf7a92aeb,
,,,,space,0.4583,,0,225,225,98,1,X, , , , ,,2500,2.5,611cf31ca5d9e0fc103e5572,001,2021-08-19_15h59.40.507,natb3,2021.2.3,Win32,59.99880002,611cf31ca5d9e0fc103e5572,611e07ecdcc96256ae8d5b80,611e71b82041f68bf7a92aeb,
,,,,space,0.4859,,0,226,226,128,1,D, , , , ,space,2500,2.5,611cf31ca5d9e0fc103e5572,001,2021-08-19_15h59.40.507,natb3,2021.2.3,Win32,59.99880002,611cf31ca5d9e0fc103e5572,611e07ecdcc96256ae8d5b80,611e71b82041f68bf7a92aeb,
,,,,space,0.4064,,0,227,227,232,1,O, , , , ,space,2500,2.5,611cf31ca5d9e0fc103e5572,001,2021-08-19_15h59.40.507,natb3,2021.2.3,Win32,59.99880002,611cf31ca5d9e0fc103e5572,611e07ecdcc96256ae8d5b80,611e71b82041f68bf7a92aeb,
,,,,,,,0,228,228,203,1,X, , , , ,,2500,2.5,611cf31ca5d9e0fc103e5572,001,2021-08-19_15h59.40.507,natb3,2021.2.3,Win32,59.99880002,611cf31ca5d9e0fc103e5572,611e07ecdcc96256ae8d5b80,611e71b82041f68bf7a92aeb,
,,,,,,,0,229,229,78,1,X, , , , ,,2000,2,611cf31ca5d9e0fc103e5572,001,2021-08-19_15h59.40.507,natb3,2021.2.3,Win32,59.99880002,611cf31ca5d9e0fc103e5572,611e07ecdcc96256ae8d5b80,611e71b82041f68bf7a92aeb,
,,,,,,,0,230,230,259,1,X,8, , ,3,,2500,2.5,611cf31ca5d9e0fc103e5572,001,2021-08-19_15h59.40.507,natb3,2021.2.3,Win32,59.99880002,611cf31ca5d9e0fc103e5572,611e07ecdcc96256ae8d5b80,611e71b82041f68bf7a92aeb,
,,,,space,0.7411,,0,231,231,75,1,U, , , , ,space,1500,1.5,611cf31ca5d9e0fc103e5572,001,2021-08-19_15h59.40.507,natb3,2021.2.3,Win32,59.99880002,611cf31ca5d9e0fc103e5572,611e07ecdcc96256ae8d5b80,611e71b82041f68bf7a92aeb,
,,,,space,0.4664,,0,232,232,2,1,E, , , , ,space,2500,2.5,611cf31ca5d9e0fc103e5572,001,2021-08-19_15h59.40.507,natb3,2021.2.3,Win32,59.99880002,611cf31ca5d9e0fc103e5572,611e07ecdcc96256ae8d5b80,611e71b82041f68bf7a92aeb,
,,,,,,,0,233,233,27,1,X,5, ,1,3,,1500,1.5,611cf31ca5d9e0fc103e5572,001,2021-08-19_15h59.40.507,natb3,2021.2.3,Win32,59.99880002,611cf31ca5d9e0fc103e5572,611e07ecdcc96256ae8d5b80,611e71b82041f68bf7a92aeb,
,,,,,,,0,234,234,122,1,X,1, , ,8,,1500,1.5,611cf31ca5d9e0fc103e5572,001,2021-08-19_15h59.40.507,natb3,2021.2.3,Win32,59.99880002,611cf31ca5d9e0fc103e5572,611e07ecdcc96256ae8d5b80,611e71b82041f68bf7a92aeb,
,,,,,,,0,235,235,54,1,X, , , , ,,2000,2,611cf31ca5d9e0fc103e5572,001,2021-08-19_15h59.40.507,natb3,2021.2.3,Win32,59.99880002,611cf31ca5d9e0fc103e5572,611e07ecdcc96256ae8d5b80,611e71b82041f68bf7a92aeb,
,,,,,,,0,236,236,33,1,X, , , , ,,1500,1.5,611cf31ca5d9e0fc103e5572,001,2021-08-19_15h59.40.507,natb3,2021.2.3,Win32,59.99880002,611cf31ca5d9e0fc103e5572,611e07ecdcc96256ae8d5b80,611e71b82041f68bf7a92aeb,
,,,,space,0.401,,0,237,237,142,1,N, , , , ,space,2500,2.5,611cf31ca5d9e0fc103e5572,001,2021-08-19_15h59.40.507,natb3,2021.2.3,Win32,59.99880002,611cf31ca5d9e0fc103e5572,611e07ecdcc96256ae8d5b80,611e71b82041f68bf7a92aeb,
,,,,,,,0,238,238,158,1,X, , , , ,,1500,1.5,611cf31ca5d9e0fc103e5572,001,2021-08-19_15h59.40.507,natb3,2021.2.3,Win32,59.99880002,611cf31ca5d9e0fc103e5572,611e07ecdcc96256ae8d5b80,611e71b82041f68bf7a92aeb,
,,,,space,0.4878,,0,239,239,19,1,G, , , , ,space,1500,1.5,611cf31ca5d9e0fc103e5572,001,2021-08-19_15h59.40.507,natb3,2021.2.3,Win32,59.99880002,611cf31ca5d9e0fc103e5572,611e07ecdcc96256ae8d5b80,611e71b82041f68bf7a92aeb,
,,,,space,0.4324,,0,240,240,286,1,N, , , , ,space,1500,1.5,611cf31ca5d9e0fc103e5572,001,2021-08-19_15h59.40.507,natb3,2021.2.3,Win32,59.99880002,611cf31ca5d9e0fc103e5572,611e07ecdcc96256ae8d5b80,611e71b82041f68bf7a92aeb,
,,,,space,0.4512,,0,241,241,297,1,U, , , , ,space,2000,2,611cf31ca5d9e0fc103e5572,001,2021-08-19_15h59.40.507,natb3,2021.2.3,Win32,59.99880002,611cf31ca5d9e0fc103e5572,611e07ecdcc96256ae8d5b80,611e71b82041f68bf7a92aeb,
,,,,,,,0,242,242,229,1,X,8, ,2,6,,2500,2.5,611cf31ca5d9e0fc103e5572,001,2021-08-19_15h59.40.507,natb3,2021.2.3,Win32,59.99880002,611cf31ca5d9e0fc103e5572,611e07ecdcc96256ae8d5b80,611e71b82041f68bf7a92aeb,
,,,,space,0.5659,,0,243,243,49,1,S, , , , ,space,1500,1.5,611cf31ca5d9e0fc103e5572,001,2021-08-19_15h59.40.507,natb3,2021.2.3,Win32,59.99880002,611cf31ca5d9e0fc103e5572,611e07ecdcc96256ae8d5b80,611e71b82041f68bf7a92aeb,
,,,,space,0.5389,,0,244,244,281,1,Z, , , , ,space,1500,1.5,611cf31ca5d9e0fc103e5572,001,2021-08-19_15h59.40.507,natb3,2021.2.3,Win32,59.99880002,611cf31ca5d9e0fc103e5572,611e07ecdcc96256ae8d5b80,611e71b82041f68bf7a92aeb,
,,,,,,,0,245,245,145,1,X, , , , ,,2000,2,611cf31ca5d9e0fc103e5572,001,2021-08-19_15h59.40.507,natb3,2021.2.3,Win32,59.99880002,611cf31ca5d9e0fc103e5572,611e07ecdcc96256ae8d5b80,611e71b82041f68bf7a92aeb,
,,,,space,0.4867,,0,246,246,76,1,I, , , , ,space,2000,2,611cf31ca5d9e0fc103e5572,001,2021-08-19_15h59.40.507,natb3,2021.2.3,Win32,59.99880002,611cf31ca5d9e0fc103e5572,611e07ecdcc96256ae8d5b80,611e71b82041f68bf7a92aeb,
,,,,space,0.5329,,0,247,247,151,1,Y, , , , ,space,2500,2.5,611cf31ca5d9e0fc103e5572,001,2021-08-19_15h59.40.507,natb3,2021.2.3,Win32,59.99880002,611cf31ca5d9e0fc103e5572,611e07ecdcc96256ae8d5b80,611e71b82041f68bf7a92aeb,
,,,,space,0.4507,,0,248,248,100,1,M, , , , ,space,2000,2,611cf31ca5d9e0fc103e5572,001,2021-08-19_15h59.40.507,natb3,2021.2.3,Win32,59.99880002,611cf31ca5d9e0fc103e5572,611e07ecdcc96256ae8d5b80,611e71b82041f68bf7a92aeb,
,,,,space,0.4005,,0,249,249,105,1,R, , , , ,space,2500,2.5,611cf31ca5d9e0fc103e5572,001,2021-08-19_15h59.40.507,natb3,2021.2.3,Win32,59.99880002,611cf31ca5d9e0fc103e5572,611e07ecdcc96256ae8d5b80,611e71b82041f68bf7a92aeb,
,,,,space,0.384,,0,250,250,20,1,H, , , , ,space,1500,1.5,611cf31ca5d9e0fc103e5572,001,2021-08-19_15h59.40.507,natb3,2021.2.3,Win32,59.99880002,611cf31ca5d9e0fc103e5572,611e07ecdcc96256ae8d5b80,611e71b82041f68bf7a92aeb,
,,,,space,0.3462,,0,251,251,111,1,O, , , , ,space,2000,2,611cf31ca5d9e0fc103e5572,001,2021-08-19_15h59.40.507,natb3,2021.2.3,Win32,59.99880002,611cf31ca5d9e0fc103e5572,611e07ecdcc96256ae8d5b80,611e71b82041f68bf7a92aeb,
,,,,space,0.467,,0,252,252,143,1,M, , , , ,space,2500,2.5,611cf31ca5d9e0fc103e5572,001,2021-08-19_15h59.40.507,natb3,2021.2.3,Win32,59.99880002,611cf31ca5d9e0fc103e5572,611e07ecdcc96256ae8d5b80,611e71b82041f68bf7a92aeb,
,,,,space,0.377,,0,253,253,191,1,X,1, ,3,4,,2500,2.5,611cf31ca5d9e0fc103e5572,001,2021-08-19_15h59.40.507,natb3,2021.2.3,Win32,59.99880002,611cf31ca5d9e0fc103e5572,611e07ecdcc96256ae8d5b80,611e71b82041f68bf7a92aeb,
,,,,,,,0,254,254,168,1,X, , , , ,,2500,2.5,611cf31ca5d9e0fc103e5572,001,2021-08-19_15h59.40.507,natb3,2021.2.3,Win32,59.99880002,611cf31ca5d9e0fc103e5572,611e07ecdcc96256ae8d5b80,611e71b82041f68bf7a92aeb,
,,,,space,0.4849,,0,255,255,222,1,O, , , , ,space,2000,2,611cf31ca5d9e0fc103e5572,001,2021-08-19_15h59.40.507,natb3,2021.2.3,Win32,59.99880002,611cf31ca5d9e0fc103e5572,611e07ecdcc96256ae8d5b80,611e71b82041f68bf7a92aeb,
,,,,space,0.529,,0,256,256,221,1,I, , , , ,space,2500,2.5,611cf31ca5d9e0fc103e5572,001,2021-08-19_15h59.40.507,natb3,2021.2.3,Win32,59.99880002,611cf31ca5d9e0fc103e5572,611e07ecdcc96256ae8d5b80,611e71b82041f68bf7a92aeb,
,,,,space,0.4555,,0,257,257,36,1,W, , , , ,space,2000,2,611cf31ca5d9e0fc103e5572,001,2021-08-19_15h59.40.507,natb3,2021.2.3,Win32,59.99880002,611cf31ca5d9e0fc103e5572,611e07ecdcc96256ae8d5b80,611e71b82041f68bf7a92aeb,
,,,,space,0.331,,0,258,258,327,1,E, , , , ,space,1500,1.5,611cf31ca5d9e0fc103e5572,001,2021-08-19_15h59.40.507,natb3,2021.2.3,Win32,59.99880002,611cf31ca5d9e0fc103e5572,611e07ecdcc96256ae8d5b80,611e71b82041f68bf7a92aeb,
,,,,,,,0,259,259,263,1,X,4, ,6, ,,1500,1.5,611cf31ca5d9e0fc103e5572,001,2021-08-19_15h59.40.507,natb3,2021.2.3,Win32,59.99880002,611cf31ca5d9e0fc103e5572,611e07ecdcc96256ae8d5b80,611e71b82041f68bf7a92aeb,
,,,,,,,0,260,260,18,1,X, ,2,5,8,,2500,2.5,611cf31ca5d9e0fc103e5572,001,2021-08-19_15h59.40.507,natb3,2021.2.3,Win32,59.99880002,611cf31ca5d9e0fc103e5572,611e07ecdcc96256ae8d5b80,611e71b82041f68bf7a92aeb,
,,,,space,0.4589,,0,261,261,309,1,H, , , , ,space,2500,2.5,611cf31ca5d9e0fc103e5572,001,2021-08-19_15h59.40.507,natb3,2021.2.3,Win32,59.99880002,611cf31ca5d9e0fc103e5572,611e07ecdcc96256ae8d5b80,611e71b82041f68bf7a92aeb,
,,,,space,0.5014,,0,262,262,205,1,C, , , , ,space,2000,2,611cf31ca5d9e0fc103e5572,001,2021-08-19_15h59.40.507,natb3,2021.2.3,Win32,59.99880002,611cf31ca5d9e0fc103e5572,611e07ecdcc96256ae8d5b80,611e71b82041f68bf7a92aeb,
,,,,space,0.3616,,0,263,263,278,1,J, , , , ,space,2000,2,611cf31ca5d9e0fc103e5572,001,2021-08-19_15h59.40.507,natb3,2021.2.3,Win32,59.99880002,611cf31ca5d9e0fc103e5572,611e07ecdcc96256ae8d5b80,611e71b82041f68bf7a92aeb,
,,,,space,0.3476,,0,264,264,283,1,C, , , , ,space,1500,1.5,611cf31ca5d9e0fc103e5572,001,2021-08-19_15h59.40.507,natb3,2021.2.3,Win32,59.99880002,611cf31ca5d9e0fc103e5572,611e07ecdcc96256ae8d5b80,611e71b82041f68bf7a92aeb,
,,,,space,0.4584,,0,265,265,156,1,P, , , , ,space,1500,1.5,611cf31ca5d9e0fc103e5572,001,2021-08-19_15h59.40.507,natb3,2021.2.3,Win32,59.99880002,611cf31ca5d9e0fc103e5572,611e07ecdcc96256ae8d5b80,611e71b82041f68bf7a92aeb,
,,,,space,0.4659,,0,266,266,177,1,M, , , , ,space,2500,2.5,611cf31ca5d9e0fc103e5572,001,2021-08-19_15h59.40.507,natb3,2021.2.3,Win32,59.99880002,611cf31ca5d9e0fc103e5572,611e07ecdcc96256ae8d5b80,611e71b82041f68bf7a92aeb,
,,,,space,0.654,,0,267,267,9,1,I, , , , ,space,1500,1.5,611cf31ca5d9e0fc103e5572,001,2021-08-19_15h59.40.507,natb3,2021.2.3,Win32,59.99880002,611cf31ca5d9e0fc103e5572,611e07ecdcc96256ae8d5b80,611e71b82041f68bf7a92aeb,
,,,,space,0.3832,,0,268,268,61,1,C, , , , ,space,2000,2,611cf31ca5d9e0fc103e5572,001,2021-08-19_15h59.40.507,natb3,2021.2.3,Win32,59.99880002,611cf31ca5d9e0fc103e5572,611e07ecdcc96256ae8d5b80,611e71b82041f68bf7a92aeb,
,,,,,,,0,269,269,66,1,X, ,4,7, ,,2000,2,611cf31ca5d9e0fc103e5572,001,2021-08-19_15h59.40.507,natb3,2021.2.3,Win32,59.99880002,611cf31ca5d9e0fc103e5572,611e07ecdcc96256ae8d5b80,611e71b82041f68bf7a92aeb,
,,,,space,0.4711,,0,270,270,97,1,B, , , , ,space,2500,2.5,611cf31ca5d9e0fc103e5572,001,2021-08-19_15h59.40.507,natb3,2021.2.3,Win32,59.99880002,611cf31ca5d9e0fc103e5572,611e07ecdcc96256ae8d5b80,611e71b82041f68bf7a92aeb,
,,,,space,0.5823,,0,271,271,247,1,Z, , , , ,space,1500,1.5,611cf31ca5d9e0fc103e5572,001,2021-08-19_15h59.40.507,natb3,2021.2.3,Win32,59.99880002,611cf31ca5d9e0fc103e5572,611e07ecdcc96256ae8d5b80,611e71b82041f68bf7a92aeb,
,,,,space,0.5195,,0,272,272,163,1,G, , , , ,space,2500,2.5,611cf31ca5d9e0fc103e5572,001,2021-08-19_15h59.40.507,natb3,2021.2.3,Win32,59.99880002,611cf31ca5d9e0fc103e5572,611e07ecdcc96256ae8d5b80,611e71b82041f68bf7a92aeb,
,,,,space,0.45,,0,273,273,155,1,O, , , , ,space,1500,1.5,611cf31ca5d9e0fc103e5572,001,2021-08-19_15h59.40.507,natb3,2021.2.3,Win32,59.99880002,611cf31ca5d9e0fc103e5572,611e07ecdcc96256ae8d5b80,611e71b82041f68bf7a92aeb,
,,,,space,0.6918,,0,274,274,53,1,G, , , , ,space,2500,2.5,611cf31ca5d9e0fc103e5572,001,2021-08-19_15h59.40.507,natb3,2021.2.3,Win32,59.99880002,611cf31ca5d9e0fc103e5572,611e07ecdcc96256ae8d5b80,611e71b82041f68bf7a92aeb,
,,,,space,0.3818,,0,275,275,207,1,X,9, ,2, ,,2500,2.5,611cf31ca5d9e0fc103e5572,001,2021-08-19_15h59.40.507,natb3,2021.2.3,Win32,59.99880002,611cf31ca5d9e0fc103e5572,611e07ecdcc96256ae8d5b80,611e71b82041f68bf7a92aeb,
,,,,space,0.565,,0,276,276,217,1,T, , , , ,space,2500,2.5,611cf31ca5d9e0fc103e5572,001,2021-08-19_15h59.40.507,natb3,2021.2.3,Win32,59.99880002,611cf31ca5d9e0fc103e5572,611e07ecdcc96256ae8d5b80,611e71b82041f68bf7a92aeb,
,,,,,,,0,277,277,195,1,X, , , , ,,1500,1.5,611cf31ca5d9e0fc103e5572,001,2021-08-19_15h59.40.507,natb3,2021.2.3,Win32,59.99880002,611cf31ca5d9e0fc103e5572,611e07ecdcc96256ae8d5b80,611e71b82041f68bf7a92aeb,
,,,,space,0.3899,,0,278,278,240,1,F, , , , ,space,2500,2.5,611cf31ca5d9e0fc103e5572,001,2021-08-19_15h59.40.507,natb3,2021.2.3,Win32,59.99880002,611cf31ca5d9e0fc103e5572,611e07ecdcc96256ae8d5b80,611e71b82041f68bf7a92aeb,
,,,,space,0.6584,,0,279,279,334,1,O, , , , ,space,1500,1.5,611cf31ca5d9e0fc103e5572,001,2021-08-19_15h59.40.507,natb3,2021.2.3,Win32,59.99880002,611cf31ca5d9e0fc103e5572,611e07ecdcc96256ae8d5b80,611e71b82041f68bf7a92aeb,
,,,,space,0.6675,,0,280,280,112,1,Q, , , , ,space,2500,2.5,611cf31ca5d9e0fc103e5572,001,2021-08-19_15h59.40.507,natb3,2021.2.3,Win32,59.99880002,611cf31ca5d9e0fc103e5572,611e07ecdcc96256ae8d5b80,611e71b82041f68bf7a92aeb,
,,,,space,0.5534,,0,281,281,250,1,V, , , , ,space,2000,2,611cf31ca5d9e0fc103e5572,001,2021-08-19_15h59.40.507,natb3,2021.2.3,Win32,59.99880002,611cf31ca5d9e0fc103e5572,611e07ecdcc96256ae8d5b80,611e71b82041f68bf7a92aeb,
,,,,space,0.9172,,0,282,282,299,1,X, , , , ,,2500,2.5,611cf31ca5d9e0fc103e5572,001,2021-08-19_15h59.40.507,natb3,2021.2.3,Win32,59.99880002,611cf31ca5d9e0fc103e5572,611e07ecdcc96256ae8d5b80,611e71b82041f68bf7a92aeb,
,,,,,,,0,283,283,313,1,X, , , , ,,2500,2.5,611cf31ca5d9e0fc103e5572,001,2021-08-19_15h59.40.507,natb3,2021.2.3,Win32,59.99880002,611cf31ca5d9e0fc103e5572,611e07ecdcc96256ae8d5b80,611e71b82041f68bf7a92aeb,
,,,,space,0.7294,,0,284,284,260,1,R, , , , ,space,2000,2,611cf31ca5d9e0fc103e5572,001,2021-08-19_15h59.40.507,natb3,2021.2.3,Win32,59.99880002,611cf31ca5d9e0fc103e5572,611e07ecdcc96256ae8d5b80,611e71b82041f68bf7a92aeb,
,,,,space,0.4562,,0,285,285,321,1,N, , , , ,space,2000,2,611cf31ca5d9e0fc103e5572,001,2021-08-19_15h59.40.507,natb3,2021.2.3,Win32,59.99880002,611cf31ca5d9e0fc103e5572,611e07ecdcc96256ae8d5b80,611e71b82041f68bf7a92aeb,
,,,,,,,0,286,286,200,1,X,7, ,5,3,,1500,1.5,611cf31ca5d9e0fc103e5572,001,2021-08-19_15h59.40.507,natb3,2021.2.3,Win32,59.99880002,611cf31ca5d9e0fc103e5572,611e07ecdcc96256ae8d5b80,611e71b82041f68bf7a92aeb,
,,,,,,,0,287,287,69,1,X, , , , ,,1500,1.5,611cf31ca5d9e0fc103e5572,001,2021-08-19_15h59.40.507,natb3,2021.2.3,Win32,59.99880002,611cf31ca5d9e0fc103e5572,611e07ecdcc96256ae8d5b80,611e71b82041f68bf7a92aeb,
,,,,space,0.5967,,0,288,288,99,1,N, , , , ,space,2500,2.5,611cf31ca5d9e0fc103e5572,001,2021-08-19_15h59.40.507,natb3,2021.2.3,Win32,59.99880002,611cf31ca5d9e0fc103e5572,611e07ecdcc96256ae8d5b80,611e71b82041f68bf7a92aeb,
,,,,space,0.5479,,0,289,289,274,1,F, , , , ,space,2000,2,611cf31ca5d9e0fc103e5572,001,2021-08-19_15h59.40.507,natb3,2021.2.3,Win32,59.99880002,611cf31ca5d9e0fc103e5572,611e07ecdcc96256ae8d5b80,611e71b82041f68bf7a92aeb,
,,,,space,0.8006,,0,290,290,230,1,U, , , , ,space,1500,1.5,611cf31ca5d9e0fc103e5572,001,2021-08-19_15h59.40.507,natb3,2021.2.3,Win32,59.99880002,611cf31ca5d9e0fc103e5572,611e07ecdcc96256ae8d5b80,611e71b82041f68bf7a92aeb,
,,,,,,,0,291,291,102,1,X, ,6, , ,,1500,1.5,611cf31ca5d9e0fc103e5572,001,2021-08-19_15h59.40.507,natb3,2021.2.3,Win32,59.99880002,611cf31ca5d9e0fc103e5572,611e07ecdcc96256ae8d5b80,611e71b82041f68bf7a92aeb,
,,,,space,0.5114,,0,292,292,190,1,P, , , , ,space,2000,2,611cf31ca5d9e0fc103e5572,001,2021-08-19_15h59.40.507,natb3,2021.2.3,Win32,59.99880002,611cf31ca5d9e0fc103e5572,611e07ecdcc96256ae8d5b80,611e71b82041f68bf7a92aeb,
,,,,space,0.7042,,0,293,293,332,1,U, , , , ,space,2000,2,611cf31ca5d9e0fc103e5572,001,2021-08-19_15h59.40.507,natb3,2021.2.3,Win32,59.99880002,611cf31ca5d9e0fc103e5572,611e07ecdcc96256ae8d5b80,611e71b82041f68bf7a92aeb,
,,,,space,0.7855,,0,294,294,301,1,P, , , , ,space,1500,1.5,611cf31ca5d9e0fc103e5572,001,2021-08-19_15h59.40.507,natb3,2021.2.3,Win32,59.99880002,611cf31ca5d9e0fc103e5572,611e07ecdcc96256ae8d5b80,611e71b82041f68bf7a92aeb,
,,,,space,0.3705,,0,295,295,88,1,J, , , , ,space,2500,2.5,611cf31ca5d9e0fc103e5572,001,2021-08-19_15h59.40.507,natb3,2021.2.3,Win32,59.99880002,611cf31ca5d9e0fc103e5572,611e07ecdcc96256ae8d5b80,611e71b82041f68bf7a92aeb,
,,,,space,0.5137,,0,296,296,328,1,R, , , , ,space,1500,1.5,611cf31ca5d9e0fc103e5572,001,2021-08-19_15h59.40.507,natb3,2021.2.3,Win32,59.99880002,611cf31ca5d9e0fc103e5572,611e07ecdcc96256ae8d5b80,611e71b82041f68bf7a92aeb,
,,,,space,0.4021,,0,297,297,103,1,W, , , , ,space,2000,2,611cf31ca5d9e0fc103e5572,001,2021-08-19_15h59.40.507,natb3,2021.2.3,Win32,59.99880002,611cf31ca5d9e0fc103e5572,611e07ecdcc96256ae8d5b80,611e71b82041f68bf7a92aeb,
,,,,space,0.2695,,0,298,298,209,1,N, , , , ,space,2000,2,611cf31ca5d9e0fc103e5572,001,2021-08-19_15h59.40.507,natb3,2021.2.3,Win32,59.99880002,611cf31ca5d9e0fc103e5572,611e07ecdcc96256ae8d5b80,611e71b82041f68bf7a92aeb,
,,,,,,,0,299,299,133,1,X, ,4, ,6,,2500,2.5,611cf31ca5d9e0fc103e5572,001,2021-08-19_15h59.40.507,natb3,2021.2.3,Win32,59.99880002,611cf31ca5d9e0fc103e5572,611e07ecdcc96256ae8d5b80,611e71b82041f68bf7a92aeb,
,,,,space,0.7288,,0,300,300,17,1,F, , , , ,space,2500,2.5,611cf31ca5d9e0fc103e5572,001,2021-08-19_15h59.40.507,natb3,2021.2.3,Win32,59.99880002,611cf31ca5d9e0fc103e5572,611e07ecdcc96256ae8d5b80,611e71b82041f68bf7a92aeb,
,,,,,,,0,301,301,152,1,U, , , , ,space,2000,2,611cf31ca5d9e0fc103e5572,001,2021-08-19_15h59.40.507,natb3,2021.2.3,Win32,59.99880002,611cf31ca5d9e0fc103e5572,611e07ecdcc96256ae8d5b80,611e71b82041f68bf7a92aeb,
,,,,space,0.4261,,0,302,302,245,1,K, , , , ,space,2000,2,611cf31ca5d9e0fc103e5572,001,2021-08-19_15h59.40.507,natb3,2021.2.3,Win32,59.99880002,611cf31ca5d9e0fc103e5572,611e07ecdcc96256ae8d5b80,611e71b82041f68bf7a92aeb,
,,,,space,0.4892,,0,303,303,147,1,E, , , , ,space,2000,2,611cf31ca5d9e0fc103e5572,001,2021-08-19_15h59.40.507,natb3,2021.2.3,Win32,59.99880002,611cf31ca5d9e0fc103e5572,611e07ecdcc96256ae8d5b80,611e71b82041f68bf7a92aeb,
,,,,space,0.427,,0,304,304,326,1,W, , , , ,space,2000,2,611cf31ca5d9e0fc103e5572,001,2021-08-19_15h59.40.507,natb3,2021.2.3,Win32,59.99880002,611cf31ca5d9e0fc103e5572,611e07ecdcc96256ae8d5b80,611e71b82041f68bf7a92aeb,
,,,,space,0.4341,,0,305,305,64,1,N, , , , ,space,2000,2,611cf31ca5d9e0fc103e5572,001,2021-08-19_15h59.40.507,natb3,2021.2.3,Win32,59.99880002,611cf31ca5d9e0fc103e5572,611e07ecdcc96256ae8d5b80,611e71b82041f68bf7a92aeb,
,,,,space,0.401,,0,306,306,186,1,U, , , , ,space,2500,2.5,611cf31ca5d9e0fc103e5572,001,2021-08-19_15h59.40.507,natb3,2021.2.3,Win32,59.99880002,611cf31ca5d9e0fc103e5572,611e07ecdcc96256ae8d5b80,611e71b82041f68bf7a92aeb,
,,,,,,,0,307,307,118,1,X, , , , ,,2000,2,611cf31ca5d9e0fc103e5572,001,2021-08-19_15h59.40.507,natb3,2021.2.3,Win32,59.99880002,611cf31ca5d9e0fc103e5572,611e07ecdcc96256ae8d5b80,611e71b82041f68bf7a92aeb,
,,,,space,0.6046,,0,308,308,167,1,K, , , , ,space,1500,1.5,611cf31ca5d9e0fc103e5572,001,2021-08-19_15h59.40.507,natb3,2021.2.3,Win32,59.99880002,611cf31ca5d9e0fc103e5572,611e07ecdcc96256ae8d5b80,611e71b82041f68bf7a92aeb,
,,,,,,,0,309,309,305,1,X, , , , ,,1500,1.5,611cf31ca5d9e0fc103e5572,001,2021-08-19_15h59.40.507,natb3,2021.2.3,Win32,59.99880002,611cf31ca5d9e0fc103e5572,611e07ecdcc96256ae8d5b80,611e71b82041f68bf7a92aeb,
,,,,space,0.4815,,0,310,310,170,1,Z, , , , ,space,2000,2,611cf31ca5d9e0fc103e5572,001,2021-08-19_15h59.40.507,natb3,2021.2.3,Win32,59.99880002,611cf31ca5d9e0fc103e5572,611e07ecdcc96256ae8d5b80,611e71b82041f68bf7a92aeb,
,,,,space,0.3762,,0,311,311,68,1,W, , , , ,space,2500,2.5,611cf31ca5d9e0fc103e5572,001,2021-08-19_15h59.40.507,natb3,2021.2.3,Win32,59.99880002,611cf31ca5d9e0fc103e5572,611e07ecdcc96256ae8d5b80,611e71b82041f68bf7a92aeb,
,,,,space,0.6141,,0,312,312,26,1,C, , , , ,space,2000,2,611cf31ca5d9e0fc103e5572,001,2021-08-19_15h59.40.507,natb3,2021.2.3,Win32,59.99880002,611cf31ca5d9e0fc103e5572,611e07ecdcc96256ae8d5b80,611e71b82041f68bf7a92aeb,
,,,,space,0.5455,,0,313,313,204,1,Z, , , , ,space,2000,2,611cf31ca5d9e0fc103e5572,001,2021-08-19_15h59.40.507,natb3,2021.2.3,Win32,59.99880002,611cf31ca5d9e0fc103e5572,611e07ecdcc96256ae8d5b80,611e71b82041f68bf7a92aeb,
,,,,space,0.636,,0,314,314,134,1,J, , , , ,space,2000,2,611cf31ca5d9e0fc103e5572,001,2021-08-19_15h59.40.507,natb3,2021.2.3,Win32,59.99880002,611cf31ca5d9e0fc103e5572,611e07ecdcc96256ae8d5b80,611e71b82041f68bf7a92aeb,
,,,,,,,0,315,315,287,1,X, ,2, ,9,,2000,2,611cf31ca5d9e0fc103e5572,001,2021-08-19_15h59.40.507,natb3,2021.2.3,Win32,59.99880002,611cf31ca5d9e0fc103e5572,611e07ecdcc96256ae8d5b80,611e71b82041f68bf7a92aeb,
,,,,space,0.3858,,0,316,316,331,1,Y, , , , ,space,2500,2.5,611cf31ca5d9e0fc103e5572,001,2021-08-19_15h59.40.507,natb3,2021.2.3,Win32,59.99880002,611cf31ca5d9e0fc103e5572,611e07ecdcc96256ae8d5b80,611e71b82041f68bf7a92aeb,
,,,,space,0.544,,0,317,317,63,1,B, , , , ,space,2000,2,611cf31ca5d9e0fc103e5572,001,2021-08-19_15h59.40.507,natb3,2021.2.3,Win32,59.99880002,611cf31ca5d9e0fc103e5572,611e07ecdcc96256ae8d5b80,611e71b82041f68bf7a92aeb,
,,,,,,,0,318,318,324,1,Q, , , , ,space,2000,2,611cf31ca5d9e0fc103e5572,001,2021-08-19_15h59.40.507,natb3,2021.2.3,Win32,59.99880002,611cf31ca5d9e0fc103e5572,611e07ecdcc96256ae8d5b80,611e71b82041f68bf7a92aeb,
,,,,space,0.4933,,0,319,319,30,1,N, , , , ,space,2500,2.5,611cf31ca5d9e0fc103e5572,001,2021-08-19_15h59.40.507,natb3,2021.2.3,Win32,59.99880002,611cf31ca5d9e0fc103e5572,611e07ecdcc96256ae8d5b80,611e71b82041f68bf7a92aeb,
,,,,,,,0,320,320,233,1,X, ,2, ,5,,1500,1.5,611cf31ca5d9e0fc103e5572,001,2021-08-19_15h59.40.507,natb3,2021.2.3,Win32,59.99880002,611cf31ca5d9e0fc103e5572,611e07ecdcc96256ae8d5b80,611e71b82041f68bf7a92aeb,
,,,,,,,0,321,321,4,1,X, , , , ,,2000,2,611cf31ca5d9e0fc103e5572,001,2021-08-19_15h59.40.507,natb3,2021.2.3,Win32,59.99880002,611cf31ca5d9e0fc103e5572,611e07ecdcc96256ae8d5b80,611e71b82041f68bf7a92aeb,
,,,,,,,0,322,322,315,1,X, , , , ,,2500,2.5,611cf31ca5d9e0fc103e5572,001,2021-08-19_15h59.40.507,natb3,2021.2.3,Win32,59.99880002,611cf31ca5d9e0fc103e5572,611e07ecdcc96256ae8d5b80,611e71b82041f68bf7a92aeb,
,,,,,,,0,323,323,43,1,X, ,6, ,2,,2500,2.5,611cf31ca5d9e0fc103e5572,001,2021-08-19_15h59.40.507,natb3,2021.2.3,Win32,59.99880002,611cf31ca5d9e0fc103e5572,611e07ecdcc96256ae8d5b80,611e71b82041f68bf7a92aeb,
,,,,space,0.7203,,0,324,324,216,1,R, , , , ,space,1500,1.5,611cf31ca5d9e0fc103e5572,001,2021-08-19_15h59.40.507,natb3,2021.2.3,Win32,59.99880002,611cf31ca5d9e0fc103e5572,611e07ecdcc96256ae8d5b80,611e71b82041f68bf7a92aeb,
,,,,space,0.9182,,0,325,325,185,1,Y, , , , ,space,2500,2.5,611cf31ca5d9e0fc103e5572,001,2021-08-19_15h59.40.507,natb3,2021.2.3,Win32,59.99880002,611cf31ca5d9e0fc103e5572,611e07ecdcc96256ae8d5b80,611e71b82041f68bf7a92aeb,
,,,,space,0.6685,,0,326,326,276,1,H, , , , ,space,2000,2,611cf31ca5d9e0fc103e5572,001,2021-08-19_15h59.40.507,natb3,2021.2.3,Win32,59.99880002,611cf31ca5d9e0fc103e5572,611e07ecdcc96256ae8d5b80,611e71b82041f68bf7a92aeb,
,,,,space,0.6506,,0,327,327,174,1,B, , , , ,space,2500,2.5,611cf31ca5d9e0fc103e5572,001,2021-08-19_15h59.40.507,natb3,2021.2.3,Win32,59.99880002,611cf31ca5d9e0fc103e5572,611e07ecdcc96256ae8d5b80,611e71b82041f68bf7a92aeb,
,,,,space,0.683,,0,328,328,257,1,W, , , , ,space,2000,2,611cf31ca5d9e0fc103e5572,001,2021-08-19_15h59.40.507,natb3,2021.2.3,Win32,59.99880002,611cf31ca5d9e0fc103e5572,611e07ecdcc96256ae8d5b80,611e71b82041f68bf7a92aeb,
,,,,,,,0,329,329,226,1,R, , , , ,space,2000,2,611cf31ca5d9e0fc103e5572,001,2021-08-19_15h59.40.507,natb3,2021.2.3,Win32,59.99880002,611cf31ca5d9e0fc103e5572,611e07ecdcc96256ae8d5b80,611e71b82041f68bf7a92aeb,
,,,,space,0.3514,,0,330,330,272,1,D, , , , ,space,2000,2,611cf31ca5d9e0fc103e5572,001,2021-08-19_15h59.40.507,natb3,2021.2.3,Win32,59.99880002,611cf31ca5d9e0fc103e5572,611e07ecdcc96256ae8d5b80,611e71b82041f68bf7a92aeb,
,,,,space,0.6172,,0,331,331,159,1,S, , , , ,space,2500,2.5,611cf31ca5d9e0fc103e5572,001,2021-08-19_15h59.40.507,natb3,2021.2.3,Win32,59.99880002,611cf31ca5d9e0fc103e5572,611e07ecdcc96256ae8d5b80,611e71b82041f68bf7a92aeb,
,,,,space,0.3344,,0,332,332,228,1,Y, , , , ,space,2000,2,611cf31ca5d9e0fc103e5572,001,2021-08-19_15h59.40.507,natb3,2021.2.3,Win32,59.99880002,611cf31ca5d9e0fc103e5572,611e07ecdcc96256ae8d5b80,611e71b82041f68bf7a92aeb,
,,,,space,0.8044,,0,333,333,135,1,K, , , , ,space,1500,1.5,611cf31ca5d9e0fc103e5572,001,2021-08-19_15h59.40.507,natb3,2021.2.3,Win32,59.99880002,611cf31ca5d9e0fc103e5572,611e07ecdcc96256ae8d5b80,611e71b82041f68bf7a92aeb,
,,,,space,0.6359,,0,334,334,303,1,A, , , , ,space,2000,2,611cf31ca5d9e0fc103e5572,001,2021-08-19_15h59.40.507,natb3,2021.2.3,Win32,59.99880002,611cf31ca5d9e0fc103e5572,611e07ecdcc96256ae8d5b80,611e71b82041f68bf7a92aeb,
,,,,space,0.351,,0,335,335,117,1,T, , , , ,space,2500,2.5,611cf31ca5d9e0fc103e5572,001,2021-08-19_15h59.40.507,natb3,2021.2.3,Win32,59.99880002,611cf31ca5d9e0fc103e5572,611e07ecdcc96256ae8d5b80,611e71b82041f68bf7a92aeb,
