key_resp_2.keys,key_resp_2.rt,key_resp_3.keys,key_resp_3.rt,key_resp.keys,key_resp_4.keys,trials.thisRepN,trials.thisTrialN,trials.thisN,trials.thisIndex,trials.ran,stimulus,distractor1,distractor2,distractor3,distractor4,CorrAns,isi_duration,isi_dur_in_seconds,participant,session,date,expName,psychopyVersion,OS,frameRate,PROLIFIC_PID,STUDY_ID,SESSION_ID,key_resp.rt,key_resp_4.rt
return,16.884,space,16.473,,,0,0,0,217,1,T, , , , ,space,2500,2.5,611cd8c9e43bcb3eb8ccaf68,001,2021-08-19_16h29.47.008,natb3,2021.2.3,MacIntel,333.3333333,611cd8c9e43bcb3eb8ccaf68,611e07ecdcc96256ae8d5b80,611e77bdfa48dd33da987a6b,,
,,,,space,,0,1,1,5,1,T, , , , ,space,2000,2,611cd8c9e43bcb3eb8ccaf68,001,2021-08-19_16h29.47.008,natb3,2021.2.3,MacIntel,333.3333333,611cd8c9e43bcb3eb8ccaf68,611e07ecdcc96256ae8d5b80,611e77bdfa48dd33da987a6b,0.465,
,,,,space,,0,2,2,232,1,O, , , , ,space,2500,2.5,611cd8c9e43bcb3eb8ccaf68,001,2021-08-19_16h29.47.008,natb3,2021.2.3,MacIntel,333.3333333,611cd8c9e43bcb3eb8ccaf68,611e07ecdcc96256ae8d5b80,611e77bdfa48dd33da987a6b,0.946,
,,,,space,,0,3,3,237,1,S, , , , ,space,1500,1.5,611cd8c9e43bcb3eb8ccaf68,001,2021-08-19_16h29.47.008,natb3,2021.2.3,MacIntel,333.3333333,611cd8c9e43bcb3eb8ccaf68,611e07ecdcc96256ae8d5b80,611e77bdfa48dd33da987a6b,0.464,
,,,,space,,0,4,4,103,1,W, , , , ,space,2000,2,611cd8c9e43bcb3eb8ccaf68,001,2021-08-19_16h29.47.008,natb3,2021.2.3,MacIntel,333.3333333,611cd8c9e43bcb3eb8ccaf68,611e07ecdcc96256ae8d5b80,611e77bdfa48dd33da987a6b,0.629,
,,,,space,,0,5,5,292,1,E, , , , ,space,2000,2,611cd8c9e43bcb3eb8ccaf68,001,2021-08-19_16h29.47.008,natb3,2021.2.3,MacIntel,333.3333333,611cd8c9e43bcb3eb8ccaf68,611e07ecdcc96256ae8d5b80,611e77bdfa48dd33da987a6b,0.421,
,,,,space,,0,6,6,8,1,U, , , , ,space,1500,1.5,611cd8c9e43bcb3eb8ccaf68,001,2021-08-19_16h29.47.008,natb3,2021.2.3,MacIntel,333.3333333,611cd8c9e43bcb3eb8ccaf68,611e07ecdcc96256ae8d5b80,611e77bdfa48dd33da987a6b,0.529,
,,,,space,,0,7,7,327,1,E, , , , ,space,1500,1.5,611cd8c9e43bcb3eb8ccaf68,001,2021-08-19_16h29.47.008,natb3,2021.2.3,MacIntel,333.3333333,611cd8c9e43bcb3eb8ccaf68,611e07ecdcc96256ae8d5b80,611e77bdfa48dd33da987a6b,0.449,
,,,,space,,0,8,8,269,1,A, , , , ,space,2500,2.5,611cd8c9e43bcb3eb8ccaf68,001,2021-08-19_16h29.47.008,natb3,2021.2.3,MacIntel,333.3333333,611cd8c9e43bcb3eb8ccaf68,611e07ecdcc96256ae8d5b80,611e77bdfa48dd33da987a6b,0.435,
,,,,space,,0,9,9,156,1,P, , , , ,space,1500,1.5,611cd8c9e43bcb3eb8ccaf68,001,2021-08-19_16h29.47.008,natb3,2021.2.3,MacIntel,333.3333333,611cd8c9e43bcb3eb8ccaf68,611e07ecdcc96256ae8d5b80,611e77bdfa48dd33da987a6b,0.416,
,,,,space,,0,10,10,0,1,Q, , , , ,space,1500,1.5,611cd8c9e43bcb3eb8ccaf68,001,2021-08-19_16h29.47.008,natb3,2021.2.3,MacIntel,333.3333333,611cd8c9e43bcb3eb8ccaf68,611e07ecdcc96256ae8d5b80,611e77bdfa48dd33da987a6b,0.347,
,,,,,,0,11,11,33,1,X, , , , ,,1500,1.5,611cd8c9e43bcb3eb8ccaf68,001,2021-08-19_16h29.47.008,natb3,2021.2.3,MacIntel,333.3333333,611cd8c9e43bcb3eb8ccaf68,611e07ecdcc96256ae8d5b80,611e77bdfa48dd33da987a6b,,
,,,,space,,0,12,12,298,1,I, , , , ,space,2000,2,611cd8c9e43bcb3eb8ccaf68,001,2021-08-19_16h29.47.008,natb3,2021.2.3,MacIntel,333.3333333,611cd8c9e43bcb3eb8ccaf68,611e07ecdcc96256ae8d5b80,611e77bdfa48dd33da987a6b,0.478,
,,,,space,,0,13,13,170,1,Z, , , , ,space,2000,2,611cd8c9e43bcb3eb8ccaf68,001,2021-08-19_16h29.47.008,natb3,2021.2.3,MacIntel,333.3333333,611cd8c9e43bcb3eb8ccaf68,611e07ecdcc96256ae8d5b80,611e77bdfa48dd33da987a6b,0.511,
,,,,space,,0,14,14,188,1,I, , , , ,space,2500,2.5,611cd8c9e43bcb3eb8ccaf68,001,2021-08-19_16h29.47.008,natb3,2021.2.3,MacIntel,333.3333333,611cd8c9e43bcb3eb8ccaf68,611e07ecdcc96256ae8d5b80,611e77bdfa48dd33da987a6b,0.498,
,,,,space,,0,15,15,149,1,R, , , , ,space,2000,2,611cd8c9e43bcb3eb8ccaf68,001,2021-08-19_16h29.47.008,natb3,2021.2.3,MacIntel,333.3333333,611cd8c9e43bcb3eb8ccaf68,611e07ecdcc96256ae8d5b80,611e77bdfa48dd33da987a6b,0.521,
,,,,,,0,16,16,299,1,X, , , , ,,2500,2.5,611cd8c9e43bcb3eb8ccaf68,001,2021-08-19_16h29.47.008,natb3,2021.2.3,MacIntel,333.3333333,611cd8c9e43bcb3eb8ccaf68,611e07ecdcc96256ae8d5b80,611e77bdfa48dd33da987a6b,,
,,,,space,,0,17,17,157,1,A, , , , ,space,2500,2.5,611cd8c9e43bcb3eb8ccaf68,001,2021-08-19_16h29.47.008,natb3,2021.2.3,MacIntel,333.3333333,611cd8c9e43bcb3eb8ccaf68,611e07ecdcc96256ae8d5b80,611e77bdfa48dd33da987a6b,0.373,
,,,,space,,0,18,18,108,1,Y, , , , ,space,2500,2.5,611cd8c9e43bcb3eb8ccaf68,001,2021-08-19_16h29.47.008,natb3,2021.2.3,MacIntel,333.3333333,611cd8c9e43bcb3eb8ccaf68,611e07ecdcc96256ae8d5b80,611e77bdfa48dd33da987a6b,0.648,
,,,,,,0,19,19,43,1,X, ,6, ,2,,2500,2.5,611cd8c9e43bcb3eb8ccaf68,001,2021-08-19_16h29.47.008,natb3,2021.2.3,MacIntel,333.3333333,611cd8c9e43bcb3eb8ccaf68,611e07ecdcc96256ae8d5b80,611e77bdfa48dd33da987a6b,,
,,,,,,0,20,20,179,1,X, ,9, ,2,,1500,1.5,611cd8c9e43bcb3eb8ccaf68,001,2021-08-19_16h29.47.008,natb3,2021.2.3,MacIntel,333.3333333,611cd8c9e43bcb3eb8ccaf68,611e07ecdcc96256ae8d5b80,611e77bdfa48dd33da987a6b,,
,,,,space,,0,21,21,224,1,W, , , , ,space,1500,1.5,611cd8c9e43bcb3eb8ccaf68,001,2021-08-19_16h29.47.008,natb3,2021.2.3,MacIntel,333.3333333,611cd8c9e43bcb3eb8ccaf68,611e07ecdcc96256ae8d5b80,611e77bdfa48dd33da987a6b,0.552,
,,,,space,,0,22,22,316,1,Z, , , , ,space,1500,1.5,611cd8c9e43bcb3eb8ccaf68,001,2021-08-19_16h29.47.008,natb3,2021.2.3,MacIntel,333.3333333,611cd8c9e43bcb3eb8ccaf68,611e07ecdcc96256ae8d5b80,611e77bdfa48dd33da987a6b,0.431,
,,,,,,0,23,23,93,1,X,5, ,7, ,,2500,2.5,611cd8c9e43bcb3eb8ccaf68,001,2021-08-19_16h29.47.008,natb3,2021.2.3,MacIntel,333.3333333,611cd8c9e43bcb3eb8ccaf68,611e07ecdcc96256ae8d5b80,611e77bdfa48dd33da987a6b,,
,,,,space,,0,24,24,266,1,O, , , , ,space,1500,1.5,611cd8c9e43bcb3eb8ccaf68,001,2021-08-19_16h29.47.008,natb3,2021.2.3,MacIntel,333.3333333,611cd8c9e43bcb3eb8ccaf68,611e07ecdcc96256ae8d5b80,611e77bdfa48dd33da987a6b,0.478,
,,,,space,,0,25,25,34,1,Q, , , , ,space,2500,2.5,611cd8c9e43bcb3eb8ccaf68,001,2021-08-19_16h29.47.008,natb3,2021.2.3,MacIntel,333.3333333,611cd8c9e43bcb3eb8ccaf68,611e07ecdcc96256ae8d5b80,611e77bdfa48dd33da987a6b,0.474,
,,,,space,,0,26,26,91,1,L, , , , ,space,2000,2,611cd8c9e43bcb3eb8ccaf68,001,2021-08-19_16h29.47.008,natb3,2021.2.3,MacIntel,333.3333333,611cd8c9e43bcb3eb8ccaf68,611e07ecdcc96256ae8d5b80,611e77bdfa48dd33da987a6b,0.614,
,,,,space,,0,27,27,185,1,Y, , , , ,space,2500,2.5,611cd8c9e43bcb3eb8ccaf68,001,2021-08-19_16h29.47.008,natb3,2021.2.3,MacIntel,333.3333333,611cd8c9e43bcb3eb8ccaf68,611e07ecdcc96256ae8d5b80,611e77bdfa48dd33da987a6b,0.664,
,,,,,,0,28,28,39,1,X,6,2, , ,,1500,1.5,611cd8c9e43bcb3eb8ccaf68,001,2021-08-19_16h29.47.008,natb3,2021.2.3,MacIntel,333.3333333,611cd8c9e43bcb3eb8ccaf68,611e07ecdcc96256ae8d5b80,611e77bdfa48dd33da987a6b,,
,,,,space,,0,29,29,90,1,K, , , , ,space,2000,2,611cd8c9e43bcb3eb8ccaf68,001,2021-08-19_16h29.47.008,natb3,2021.2.3,MacIntel,333.3333333,611cd8c9e43bcb3eb8ccaf68,611e07ecdcc96256ae8d5b80,611e77bdfa48dd33da987a6b,0.641,
,,,,space,,0,30,30,94,1,C, , , , ,space,2000,2,611cd8c9e43bcb3eb8ccaf68,001,2021-08-19_16h29.47.008,natb3,2021.2.3,MacIntel,333.3333333,611cd8c9e43bcb3eb8ccaf68,611e07ecdcc96256ae8d5b80,611e77bdfa48dd33da987a6b,0.535,
,,,,space,,0,31,31,242,1,H, , , , ,space,2500,2.5,611cd8c9e43bcb3eb8ccaf68,001,2021-08-19_16h29.47.008,natb3,2021.2.3,MacIntel,333.3333333,611cd8c9e43bcb3eb8ccaf68,611e07ecdcc96256ae8d5b80,611e77bdfa48dd33da987a6b,0.45,
,,,,space,,0,32,32,101,1,Q, , , , ,space,2500,2.5,611cd8c9e43bcb3eb8ccaf68,001,2021-08-19_16h29.47.008,natb3,2021.2.3,MacIntel,333.3333333,611cd8c9e43bcb3eb8ccaf68,611e07ecdcc96256ae8d5b80,611e77bdfa48dd33da987a6b,0.463,
,,,,,,0,33,33,243,1,X, , , , ,,2500,2.5,611cd8c9e43bcb3eb8ccaf68,001,2021-08-19_16h29.47.008,natb3,2021.2.3,MacIntel,333.3333333,611cd8c9e43bcb3eb8ccaf68,611e07ecdcc96256ae8d5b80,611e77bdfa48dd33da987a6b,,
,,,,space,,0,34,34,310,1,J, , , , ,space,2500,2.5,611cd8c9e43bcb3eb8ccaf68,001,2021-08-19_16h29.47.008,natb3,2021.2.3,MacIntel,333.3333333,611cd8c9e43bcb3eb8ccaf68,611e07ecdcc96256ae8d5b80,611e77bdfa48dd33da987a6b,0.6,
,,,,space,,0,35,35,92,1,Z, , , , ,space,1500,1.5,611cd8c9e43bcb3eb8ccaf68,001,2021-08-19_16h29.47.008,natb3,2021.2.3,MacIntel,333.3333333,611cd8c9e43bcb3eb8ccaf68,611e07ecdcc96256ae8d5b80,611e77bdfa48dd33da987a6b,0.621,
,,,,space,,0,36,36,48,1,A, , , , ,space,2500,2.5,611cd8c9e43bcb3eb8ccaf68,001,2021-08-19_16h29.47.008,natb3,2021.2.3,MacIntel,333.3333333,611cd8c9e43bcb3eb8ccaf68,611e07ecdcc96256ae8d5b80,611e77bdfa48dd33da987a6b,0.552,
,,,,space,,0,37,37,261,1,T, , , , ,space,2000,2,611cd8c9e43bcb3eb8ccaf68,001,2021-08-19_16h29.47.008,natb3,2021.2.3,MacIntel,333.3333333,611cd8c9e43bcb3eb8ccaf68,611e07ecdcc96256ae8d5b80,611e77bdfa48dd33da987a6b,0.536,
,,,,space,,0,38,38,99,1,N, , , , ,space,2500,2.5,611cd8c9e43bcb3eb8ccaf68,001,2021-08-19_16h29.47.008,natb3,2021.2.3,MacIntel,333.3333333,611cd8c9e43bcb3eb8ccaf68,611e07ecdcc96256ae8d5b80,611e77bdfa48dd33da987a6b,0.649,
,,,,space,,0,39,39,155,1,O, , , , ,space,1500,1.5,611cd8c9e43bcb3eb8ccaf68,001,2021-08-19_16h29.47.008,natb3,2021.2.3,MacIntel,333.3333333,611cd8c9e43bcb3eb8ccaf68,611e07ecdcc96256ae8d5b80,611e77bdfa48dd33da987a6b,0.602,
,,,,space,,0,40,40,199,1,J, , , , ,space,2500,2.5,611cd8c9e43bcb3eb8ccaf68,001,2021-08-19_16h29.47.008,natb3,2021.2.3,MacIntel,333.3333333,611cd8c9e43bcb3eb8ccaf68,611e07ecdcc96256ae8d5b80,611e77bdfa48dd33da987a6b,0.564,
,,,,space,,0,41,41,36,1,W, , , , ,space,2000,2,611cd8c9e43bcb3eb8ccaf68,001,2021-08-19_16h29.47.008,natb3,2021.2.3,MacIntel,333.3333333,611cd8c9e43bcb3eb8ccaf68,611e07ecdcc96256ae8d5b80,611e77bdfa48dd33da987a6b,0.548,
,,,,space,,0,42,42,196,1,F, , , , ,space,1500,1.5,611cd8c9e43bcb3eb8ccaf68,001,2021-08-19_16h29.47.008,natb3,2021.2.3,MacIntel,333.3333333,611cd8c9e43bcb3eb8ccaf68,611e07ecdcc96256ae8d5b80,611e77bdfa48dd33da987a6b,0.801,
,,,,space,,0,43,43,321,1,N, , , , ,space,2000,2,611cd8c9e43bcb3eb8ccaf68,001,2021-08-19_16h29.47.008,natb3,2021.2.3,MacIntel,333.3333333,611cd8c9e43bcb3eb8ccaf68,611e07ecdcc96256ae8d5b80,611e77bdfa48dd33da987a6b,0.614,
,,,,space,,0,44,44,68,1,W, , , , ,space,2500,2.5,611cd8c9e43bcb3eb8ccaf68,001,2021-08-19_16h29.47.008,natb3,2021.2.3,MacIntel,333.3333333,611cd8c9e43bcb3eb8ccaf68,611e07ecdcc96256ae8d5b80,611e77bdfa48dd33da987a6b,0.497,
,,,,,,0,45,45,107,1,X,9,3, ,2,,2000,2,611cd8c9e43bcb3eb8ccaf68,001,2021-08-19_16h29.47.008,natb3,2021.2.3,MacIntel,333.3333333,611cd8c9e43bcb3eb8ccaf68,611e07ecdcc96256ae8d5b80,611e77bdfa48dd33da987a6b,,
,,,,space,,0,46,46,59,1,Z, , , , ,space,2000,2,611cd8c9e43bcb3eb8ccaf68,001,2021-08-19_16h29.47.008,natb3,2021.2.3,MacIntel,333.3333333,611cd8c9e43bcb3eb8ccaf68,611e07ecdcc96256ae8d5b80,611e77bdfa48dd33da987a6b,0.565,
,,,,,,0,47,47,213,1,X, , , , ,,2500,2.5,611cd8c9e43bcb3eb8ccaf68,001,2021-08-19_16h29.47.008,natb3,2021.2.3,MacIntel,333.3333333,611cd8c9e43bcb3eb8ccaf68,611e07ecdcc96256ae8d5b80,611e77bdfa48dd33da987a6b,,
,,,,space,,0,48,48,275,1,G, , , , ,space,1500,1.5,611cd8c9e43bcb3eb8ccaf68,001,2021-08-19_16h29.47.008,natb3,2021.2.3,MacIntel,333.3333333,611cd8c9e43bcb3eb8ccaf68,611e07ecdcc96256ae8d5b80,611e77bdfa48dd33da987a6b,0.581,
,,,,space,,0,49,49,206,1,V, , , , ,space,2000,2,611cd8c9e43bcb3eb8ccaf68,001,2021-08-19_16h29.47.008,natb3,2021.2.3,MacIntel,333.3333333,611cd8c9e43bcb3eb8ccaf68,611e07ecdcc96256ae8d5b80,611e77bdfa48dd33da987a6b,0.496,
,,,,space,,0,50,50,110,1,I, , , , ,space,1500,1.5,611cd8c9e43bcb3eb8ccaf68,001,2021-08-19_16h29.47.008,natb3,2021.2.3,MacIntel,333.3333333,611cd8c9e43bcb3eb8ccaf68,611e07ecdcc96256ae8d5b80,611e77bdfa48dd33da987a6b,0.464,
,,,,space,,0,51,51,113,1,W, , , , ,space,2500,2.5,611cd8c9e43bcb3eb8ccaf68,001,2021-08-19_16h29.47.008,natb3,2021.2.3,MacIntel,333.3333333,611cd8c9e43bcb3eb8ccaf68,611e07ecdcc96256ae8d5b80,611e77bdfa48dd33da987a6b,0.531,
,,,,space,,0,52,52,61,1,C, , , , ,space,2000,2,611cd8c9e43bcb3eb8ccaf68,001,2021-08-19_16h29.47.008,natb3,2021.2.3,MacIntel,333.3333333,611cd8c9e43bcb3eb8ccaf68,611e07ecdcc96256ae8d5b80,611e77bdfa48dd33da987a6b,0.534,
,,,,space,,0,53,53,55,1,H, , , , ,space,2500,2.5,611cd8c9e43bcb3eb8ccaf68,001,2021-08-19_16h29.47.008,natb3,2021.2.3,MacIntel,333.3333333,611cd8c9e43bcb3eb8ccaf68,611e07ecdcc96256ae8d5b80,611e77bdfa48dd33da987a6b,0.437,
,,,,space,,0,54,54,273,1,X, , , , ,,2000,2,611cd8c9e43bcb3eb8ccaf68,001,2021-08-19_16h29.47.008,natb3,2021.2.3,MacIntel,333.3333333,611cd8c9e43bcb3eb8ccaf68,611e07ecdcc96256ae8d5b80,611e77bdfa48dd33da987a6b,0.377,
,,,,space,,0,55,55,267,1,P, , , , ,space,2000,2,611cd8c9e43bcb3eb8ccaf68,001,2021-08-19_16h29.47.008,natb3,2021.2.3,MacIntel,333.3333333,611cd8c9e43bcb3eb8ccaf68,611e07ecdcc96256ae8d5b80,611e77bdfa48dd33da987a6b,0.538,
,,,,space,,0,56,56,317,1,C, , , , ,space,2000,2,611cd8c9e43bcb3eb8ccaf68,001,2021-08-19_16h29.47.008,natb3,2021.2.3,MacIntel,333.3333333,611cd8c9e43bcb3eb8ccaf68,611e07ecdcc96256ae8d5b80,611e77bdfa48dd33da987a6b,0.497,
,,,,space,,0,57,57,70,1,E, , , , ,space,2500,2.5,611cd8c9e43bcb3eb8ccaf68,001,2021-08-19_16h29.47.008,natb3,2021.2.3,MacIntel,333.3333333,611cd8c9e43bcb3eb8ccaf68,611e07ecdcc96256ae8d5b80,611e77bdfa48dd33da987a6b,0.43,
,,,,space,,0,58,58,159,1,S, , , , ,space,2500,2.5,611cd8c9e43bcb3eb8ccaf68,001,2021-08-19_16h29.47.008,natb3,2021.2.3,MacIntel,333.3333333,611cd8c9e43bcb3eb8ccaf68,611e07ecdcc96256ae8d5b80,611e77bdfa48dd33da987a6b,0.584,
,,,,,,0,59,59,200,1,X,7, ,5,3,,1500,1.5,611cd8c9e43bcb3eb8ccaf68,001,2021-08-19_16h29.47.008,natb3,2021.2.3,MacIntel,333.3333333,611cd8c9e43bcb3eb8ccaf68,611e07ecdcc96256ae8d5b80,611e77bdfa48dd33da987a6b,,
,,,,space,,0,60,60,285,1,B, , , , ,space,1500,1.5,611cd8c9e43bcb3eb8ccaf68,001,2021-08-19_16h29.47.008,natb3,2021.2.3,MacIntel,333.3333333,611cd8c9e43bcb3eb8ccaf68,611e07ecdcc96256ae8d5b80,611e77bdfa48dd33da987a6b,0.593,
,,,,space,,0,61,61,297,1,U, , , , ,space,2000,2,611cd8c9e43bcb3eb8ccaf68,001,2021-08-19_16h29.47.008,natb3,2021.2.3,MacIntel,333.3333333,611cd8c9e43bcb3eb8ccaf68,611e07ecdcc96256ae8d5b80,611e77bdfa48dd33da987a6b,0.664,
,,,,space,,0,62,62,37,1,E, , , , ,space,2500,2.5,611cd8c9e43bcb3eb8ccaf68,001,2021-08-19_16h29.47.008,natb3,2021.2.3,MacIntel,333.3333333,611cd8c9e43bcb3eb8ccaf68,611e07ecdcc96256ae8d5b80,611e77bdfa48dd33da987a6b,0.705,
,,,,space,,0,63,63,319,1,V, , , , ,space,2000,2,611cd8c9e43bcb3eb8ccaf68,001,2021-08-19_16h29.47.008,natb3,2021.2.3,MacIntel,333.3333333,611cd8c9e43bcb3eb8ccaf68,611e07ecdcc96256ae8d5b80,611e77bdfa48dd33da987a6b,0.619,
,,,,space,,0,64,64,139,1,V, , , , ,space,2000,2,611cd8c9e43bcb3eb8ccaf68,001,2021-08-19_16h29.47.008,natb3,2021.2.3,MacIntel,333.3333333,611cd8c9e43bcb3eb8ccaf68,611e07ecdcc96256ae8d5b80,611e77bdfa48dd33da987a6b,0.621,
,,,,space,,0,65,65,165,1,J, , , , ,space,2500,2.5,611cd8c9e43bcb3eb8ccaf68,001,2021-08-19_16h29.47.008,natb3,2021.2.3,MacIntel,333.3333333,611cd8c9e43bcb3eb8ccaf68,611e07ecdcc96256ae8d5b80,611e77bdfa48dd33da987a6b,0.516,
,,,,,,0,66,66,279,1,K, , , , ,space,2500,2.5,611cd8c9e43bcb3eb8ccaf68,001,2021-08-19_16h29.47.008,natb3,2021.2.3,MacIntel,333.3333333,611cd8c9e43bcb3eb8ccaf68,611e07ecdcc96256ae8d5b80,611e77bdfa48dd33da987a6b,,
,,,,space,,0,67,67,247,1,Z, , , , ,space,1500,1.5,611cd8c9e43bcb3eb8ccaf68,001,2021-08-19_16h29.47.008,natb3,2021.2.3,MacIntel,333.3333333,611cd8c9e43bcb3eb8ccaf68,611e07ecdcc96256ae8d5b80,611e77bdfa48dd33da987a6b,0.463,
,,,,,,0,68,68,31,1,X, , , , ,,1500,1.5,611cd8c9e43bcb3eb8ccaf68,001,2021-08-19_16h29.47.008,natb3,2021.2.3,MacIntel,333.3333333,611cd8c9e43bcb3eb8ccaf68,611e07ecdcc96256ae8d5b80,611e77bdfa48dd33da987a6b,,
,,,,,,0,69,69,329,1,X,3,4, ,2,,2500,2.5,611cd8c9e43bcb3eb8ccaf68,001,2021-08-19_16h29.47.008,natb3,2021.2.3,MacIntel,333.3333333,611cd8c9e43bcb3eb8ccaf68,611e07ecdcc96256ae8d5b80,611e77bdfa48dd33da987a6b,,
,,,,space,,0,70,70,264,1,U, , , , ,space,2000,2,611cd8c9e43bcb3eb8ccaf68,001,2021-08-19_16h29.47.008,natb3,2021.2.3,MacIntel,333.3333333,611cd8c9e43bcb3eb8ccaf68,611e07ecdcc96256ae8d5b80,611e77bdfa48dd33da987a6b,0.577,
,,,,,,0,71,71,268,1,X,6, ,3, ,,2500,2.5,611cd8c9e43bcb3eb8ccaf68,001,2021-08-19_16h29.47.008,natb3,2021.2.3,MacIntel,333.3333333,611cd8c9e43bcb3eb8ccaf68,611e07ecdcc96256ae8d5b80,611e77bdfa48dd33da987a6b,,
,,,,space,,0,72,72,205,1,C, , , , ,space,2000,2,611cd8c9e43bcb3eb8ccaf68,001,2021-08-19_16h29.47.008,natb3,2021.2.3,MacIntel,333.3333333,611cd8c9e43bcb3eb8ccaf68,611e07ecdcc96256ae8d5b80,611e77bdfa48dd33da987a6b,0.631,
,,,,space,,0,73,73,87,1,H, , , , ,space,1500,1.5,611cd8c9e43bcb3eb8ccaf68,001,2021-08-19_16h29.47.008,natb3,2021.2.3,MacIntel,333.3333333,611cd8c9e43bcb3eb8ccaf68,611e07ecdcc96256ae8d5b80,611e77bdfa48dd33da987a6b,0.867,
,,,,space,,0,74,74,30,1,N, , , , ,space,2500,2.5,611cd8c9e43bcb3eb8ccaf68,001,2021-08-19_16h29.47.008,natb3,2021.2.3,MacIntel,333.3333333,611cd8c9e43bcb3eb8ccaf68,611e07ecdcc96256ae8d5b80,611e77bdfa48dd33da987a6b,0.631,
,,,,,,0,75,75,51,1,X,7,5,8, ,,1500,1.5,611cd8c9e43bcb3eb8ccaf68,001,2021-08-19_16h29.47.008,natb3,2021.2.3,MacIntel,333.3333333,611cd8c9e43bcb3eb8ccaf68,611e07ecdcc96256ae8d5b80,611e77bdfa48dd33da987a6b,,
,,,,space,,0,76,76,147,1,E, , , , ,space,2000,2,611cd8c9e43bcb3eb8ccaf68,001,2021-08-19_16h29.47.008,natb3,2021.2.3,MacIntel,333.3333333,611cd8c9e43bcb3eb8ccaf68,611e07ecdcc96256ae8d5b80,611e77bdfa48dd33da987a6b,0.616,
,,,,space,,0,77,77,183,1,R, , , , ,space,1500,1.5,611cd8c9e43bcb3eb8ccaf68,001,2021-08-19_16h29.47.008,natb3,2021.2.3,MacIntel,333.3333333,611cd8c9e43bcb3eb8ccaf68,611e07ecdcc96256ae8d5b80,611e77bdfa48dd33da987a6b,0.546,
,,,,,,0,78,78,315,1,X, , , , ,,2500,2.5,611cd8c9e43bcb3eb8ccaf68,001,2021-08-19_16h29.47.008,natb3,2021.2.3,MacIntel,333.3333333,611cd8c9e43bcb3eb8ccaf68,611e07ecdcc96256ae8d5b80,611e77bdfa48dd33da987a6b,,
,,,,,,0,79,79,191,1,X,1, ,3,4,,2500,2.5,611cd8c9e43bcb3eb8ccaf68,001,2021-08-19_16h29.47.008,natb3,2021.2.3,MacIntel,333.3333333,611cd8c9e43bcb3eb8ccaf68,611e07ecdcc96256ae8d5b80,611e77bdfa48dd33da987a6b,,
,,,,space,,0,80,80,19,1,G, , , , ,space,1500,1.5,611cd8c9e43bcb3eb8ccaf68,001,2021-08-19_16h29.47.008,natb3,2021.2.3,MacIntel,333.3333333,611cd8c9e43bcb3eb8ccaf68,611e07ecdcc96256ae8d5b80,611e77bdfa48dd33da987a6b,0.527,
,,,,space,,0,81,81,128,1,D, , , , ,space,2500,2.5,611cd8c9e43bcb3eb8ccaf68,001,2021-08-19_16h29.47.008,natb3,2021.2.3,MacIntel,333.3333333,611cd8c9e43bcb3eb8ccaf68,611e07ecdcc96256ae8d5b80,611e77bdfa48dd33da987a6b,0.712,
,,,,space,,0,82,82,214,1,W, , , , ,space,2000,2,611cd8c9e43bcb3eb8ccaf68,001,2021-08-19_16h29.47.008,natb3,2021.2.3,MacIntel,333.3333333,611cd8c9e43bcb3eb8ccaf68,611e07ecdcc96256ae8d5b80,611e77bdfa48dd33da987a6b,0.531,
,,,,space,,0,83,83,124,1,P, , , , ,space,2000,2,611cd8c9e43bcb3eb8ccaf68,001,2021-08-19_16h29.47.008,natb3,2021.2.3,MacIntel,333.3333333,611cd8c9e43bcb3eb8ccaf68,611e07ecdcc96256ae8d5b80,611e77bdfa48dd33da987a6b,0.47,
,,,,space,,0,84,84,216,1,R, , , , ,space,1500,1.5,611cd8c9e43bcb3eb8ccaf68,001,2021-08-19_16h29.47.008,natb3,2021.2.3,MacIntel,333.3333333,611cd8c9e43bcb3eb8ccaf68,611e07ecdcc96256ae8d5b80,611e77bdfa48dd33da987a6b,0.78,
,,,,,,0,85,85,12,1,X, , , , ,,1500,1.5,611cd8c9e43bcb3eb8ccaf68,001,2021-08-19_16h29.47.008,natb3,2021.2.3,MacIntel,333.3333333,611cd8c9e43bcb3eb8ccaf68,611e07ecdcc96256ae8d5b80,611e77bdfa48dd33da987a6b,,
,,,,space,,0,86,86,334,1,O, , , , ,space,1500,1.5,611cd8c9e43bcb3eb8ccaf68,001,2021-08-19_16h29.47.008,natb3,2021.2.3,MacIntel,333.3333333,611cd8c9e43bcb3eb8ccaf68,611e07ecdcc96256ae8d5b80,611e77bdfa48dd33da987a6b,0.731,
,,,,space,,0,87,87,79,1,P, , , , ,space,2000,2,611cd8c9e43bcb3eb8ccaf68,001,2021-08-19_16h29.47.008,natb3,2021.2.3,MacIntel,333.3333333,611cd8c9e43bcb3eb8ccaf68,611e07ecdcc96256ae8d5b80,611e77bdfa48dd33da987a6b,0.497,
,,,,space,,0,88,88,323,1,M, , , , ,space,2500,2.5,611cd8c9e43bcb3eb8ccaf68,001,2021-08-19_16h29.47.008,natb3,2021.2.3,MacIntel,333.3333333,611cd8c9e43bcb3eb8ccaf68,611e07ecdcc96256ae8d5b80,611e77bdfa48dd33da987a6b,0.547,
,,,,space,,0,89,89,253,1,N, , , , ,space,2500,2.5,611cd8c9e43bcb3eb8ccaf68,001,2021-08-19_16h29.47.008,natb3,2021.2.3,MacIntel,333.3333333,611cd8c9e43bcb3eb8ccaf68,611e07ecdcc96256ae8d5b80,611e77bdfa48dd33da987a6b,0.505,
,,,,space,,0,90,90,172,1,C, , , , ,space,1500,1.5,611cd8c9e43bcb3eb8ccaf68,001,2021-08-19_16h29.47.008,natb3,2021.2.3,MacIntel,333.3333333,611cd8c9e43bcb3eb8ccaf68,611e07ecdcc96256ae8d5b80,611e77bdfa48dd33da987a6b,0.623,
,,,,space,,0,91,91,117,1,T, , , , ,space,2500,2.5,611cd8c9e43bcb3eb8ccaf68,001,2021-08-19_16h29.47.008,natb3,2021.2.3,MacIntel,333.3333333,611cd8c9e43bcb3eb8ccaf68,611e07ecdcc96256ae8d5b80,611e77bdfa48dd33da987a6b,0.464,
,,,,space,,0,92,92,284,1,V, , , , ,space,2500,2.5,611cd8c9e43bcb3eb8ccaf68,001,2021-08-19_16h29.47.008,natb3,2021.2.3,MacIntel,333.3333333,611cd8c9e43bcb3eb8ccaf68,611e07ecdcc96256ae8d5b80,611e77bdfa48dd33da987a6b,0.55,
,,,,space,,0,93,93,258,1,E, , , , ,space,1500,1.5,611cd8c9e43bcb3eb8ccaf68,001,2021-08-19_16h29.47.008,natb3,2021.2.3,MacIntel,333.3333333,611cd8c9e43bcb3eb8ccaf68,611e07ecdcc96256ae8d5b80,611e77bdfa48dd33da987a6b,0.45,
,,,,,,0,94,94,129,1,X,2,3,5, ,,1500,1.5,611cd8c9e43bcb3eb8ccaf68,001,2021-08-19_16h29.47.008,natb3,2021.2.3,MacIntel,333.3333333,611cd8c9e43bcb3eb8ccaf68,611e07ecdcc96256ae8d5b80,611e77bdfa48dd33da987a6b,,
,,,,space,,0,95,95,9,1,I, , , , ,space,1500,1.5,611cd8c9e43bcb3eb8ccaf68,001,2021-08-19_16h29.47.008,natb3,2021.2.3,MacIntel,333.3333333,611cd8c9e43bcb3eb8ccaf68,611e07ecdcc96256ae8d5b80,611e77bdfa48dd33da987a6b,0.842,
,,,,space,,0,96,96,210,1,M, , , , ,space,1500,1.5,611cd8c9e43bcb3eb8ccaf68,001,2021-08-19_16h29.47.008,natb3,2021.2.3,MacIntel,333.3333333,611cd8c9e43bcb3eb8ccaf68,611e07ecdcc96256ae8d5b80,611e77bdfa48dd33da987a6b,0.464,
,,,,,,0,97,97,211,1,X, , , , ,,2500,2.5,611cd8c9e43bcb3eb8ccaf68,001,2021-08-19_16h29.47.008,natb3,2021.2.3,MacIntel,333.3333333,611cd8c9e43bcb3eb8ccaf68,611e07ecdcc96256ae8d5b80,611e77bdfa48dd33da987a6b,,
,,,,,,0,98,98,325,1,X, , , , ,,2500,2.5,611cd8c9e43bcb3eb8ccaf68,001,2021-08-19_16h29.47.008,natb3,2021.2.3,MacIntel,333.3333333,611cd8c9e43bcb3eb8ccaf68,611e07ecdcc96256ae8d5b80,611e77bdfa48dd33da987a6b,,
,,,,space,,0,99,99,6,1,Y, , , , ,space,2500,2.5,611cd8c9e43bcb3eb8ccaf68,001,2021-08-19_16h29.47.008,natb3,2021.2.3,MacIntel,333.3333333,611cd8c9e43bcb3eb8ccaf68,611e07ecdcc96256ae8d5b80,611e77bdfa48dd33da987a6b,0.681,
,,,,,,0,100,100,318,1,X, , , , ,,1500,1.5,611cd8c9e43bcb3eb8ccaf68,001,2021-08-19_16h29.47.008,natb3,2021.2.3,MacIntel,333.3333333,611cd8c9e43bcb3eb8ccaf68,611e07ecdcc96256ae8d5b80,611e77bdfa48dd33da987a6b,,
,,,,space,,0,101,101,160,1,D, , , , ,space,1500,1.5,611cd8c9e43bcb3eb8ccaf68,001,2021-08-19_16h29.47.008,natb3,2021.2.3,MacIntel,333.3333333,611cd8c9e43bcb3eb8ccaf68,611e07ecdcc96256ae8d5b80,611e77bdfa48dd33da987a6b,0.62,
,,,,space,,0,102,102,324,1,Q, , , , ,space,2000,2,611cd8c9e43bcb3eb8ccaf68,001,2021-08-19_16h29.47.008,natb3,2021.2.3,MacIntel,333.3333333,611cd8c9e43bcb3eb8ccaf68,611e07ecdcc96256ae8d5b80,611e77bdfa48dd33da987a6b,0.664,
,,,,space,,0,103,103,104,1,E, , , , ,space,2000,2,611cd8c9e43bcb3eb8ccaf68,001,2021-08-19_16h29.47.008,natb3,2021.2.3,MacIntel,333.3333333,611cd8c9e43bcb3eb8ccaf68,611e07ecdcc96256ae8d5b80,611e77bdfa48dd33da987a6b,0.944,
,,,,space,,0,104,104,254,1,M, , , , ,space,1500,1.5,611cd8c9e43bcb3eb8ccaf68,001,2021-08-19_16h29.47.008,natb3,2021.2.3,MacIntel,333.3333333,611cd8c9e43bcb3eb8ccaf68,611e07ecdcc96256ae8d5b80,611e77bdfa48dd33da987a6b,0.564,
,,,,space,,0,105,105,95,1,V, , , , ,space,1500,1.5,611cd8c9e43bcb3eb8ccaf68,001,2021-08-19_16h29.47.008,natb3,2021.2.3,MacIntel,333.3333333,611cd8c9e43bcb3eb8ccaf68,611e07ecdcc96256ae8d5b80,611e77bdfa48dd33da987a6b,0.587,
,,,,space,,0,106,106,220,1,U, , , , ,space,2500,2.5,611cd8c9e43bcb3eb8ccaf68,001,2021-08-19_16h29.47.008,natb3,2021.2.3,MacIntel,333.3333333,611cd8c9e43bcb3eb8ccaf68,611e07ecdcc96256ae8d5b80,611e77bdfa48dd33da987a6b,0.606,
,,,,,,0,107,107,69,1,X, , , , ,,1500,1.5,611cd8c9e43bcb3eb8ccaf68,001,2021-08-19_16h29.47.008,natb3,2021.2.3,MacIntel,333.3333333,611cd8c9e43bcb3eb8ccaf68,611e07ecdcc96256ae8d5b80,611e77bdfa48dd33da987a6b,,
,,,,space,,0,108,108,219,1,Y, , , , ,space,2000,2,611cd8c9e43bcb3eb8ccaf68,001,2021-08-19_16h29.47.008,natb3,2021.2.3,MacIntel,333.3333333,611cd8c9e43bcb3eb8ccaf68,611e07ecdcc96256ae8d5b80,611e77bdfa48dd33da987a6b,0.681,
,,,,space,,0,109,109,246,1,L, , , , ,space,2500,2.5,611cd8c9e43bcb3eb8ccaf68,001,2021-08-19_16h29.47.008,natb3,2021.2.3,MacIntel,333.3333333,611cd8c9e43bcb3eb8ccaf68,611e07ecdcc96256ae8d5b80,611e77bdfa48dd33da987a6b,0.456,
,,,,space,,0,110,110,146,1,W, , , , ,space,1500,1.5,611cd8c9e43bcb3eb8ccaf68,001,2021-08-19_16h29.47.008,natb3,2021.2.3,MacIntel,333.3333333,611cd8c9e43bcb3eb8ccaf68,611e07ecdcc96256ae8d5b80,611e77bdfa48dd33da987a6b,0.665,
,,,,space,,0,111,111,143,1,M, , , , ,space,2500,2.5,611cd8c9e43bcb3eb8ccaf68,001,2021-08-19_16h29.47.008,natb3,2021.2.3,MacIntel,333.3333333,611cd8c9e43bcb3eb8ccaf68,611e07ecdcc96256ae8d5b80,611e77bdfa48dd33da987a6b,0.531,
,,,,space,,0,112,112,332,1,U, , , , ,space,2000,2,611cd8c9e43bcb3eb8ccaf68,001,2021-08-19_16h29.47.008,natb3,2021.2.3,MacIntel,333.3333333,611cd8c9e43bcb3eb8ccaf68,611e07ecdcc96256ae8d5b80,611e77bdfa48dd33da987a6b,0.563,
,,,,space,,0,113,113,121,1,I, , , , ,space,2000,2,611cd8c9e43bcb3eb8ccaf68,001,2021-08-19_16h29.47.008,natb3,2021.2.3,MacIntel,333.3333333,611cd8c9e43bcb3eb8ccaf68,611e07ecdcc96256ae8d5b80,611e77bdfa48dd33da987a6b,0.564,
,,,,space,,0,114,114,306,1,D, , , , ,space,2000,2,611cd8c9e43bcb3eb8ccaf68,001,2021-08-19_16h29.47.008,natb3,2021.2.3,MacIntel,333.3333333,611cd8c9e43bcb3eb8ccaf68,611e07ecdcc96256ae8d5b80,611e77bdfa48dd33da987a6b,0.53,
,,,,space,,0,115,115,186,1,U, , , , ,space,2500,2.5,611cd8c9e43bcb3eb8ccaf68,001,2021-08-19_16h29.47.008,natb3,2021.2.3,MacIntel,333.3333333,611cd8c9e43bcb3eb8ccaf68,611e07ecdcc96256ae8d5b80,611e77bdfa48dd33da987a6b,0.654,
,,,,space,,0,116,116,288,1,M, , , , ,space,1500,1.5,611cd8c9e43bcb3eb8ccaf68,001,2021-08-19_16h29.47.008,natb3,2021.2.3,MacIntel,333.3333333,611cd8c9e43bcb3eb8ccaf68,611e07ecdcc96256ae8d5b80,611e77bdfa48dd33da987a6b,0.631,
,,,,space,,0,117,117,135,1,K, , , , ,space,1500,1.5,611cd8c9e43bcb3eb8ccaf68,001,2021-08-19_16h29.47.008,natb3,2021.2.3,MacIntel,333.3333333,611cd8c9e43bcb3eb8ccaf68,611e07ecdcc96256ae8d5b80,611e77bdfa48dd33da987a6b,0.596,
,,,,space,,0,118,118,238,1,D, , , , ,space,1500,1.5,611cd8c9e43bcb3eb8ccaf68,001,2021-08-19_16h29.47.008,natb3,2021.2.3,MacIntel,333.3333333,611cd8c9e43bcb3eb8ccaf68,611e07ecdcc96256ae8d5b80,611e77bdfa48dd33da987a6b,0.415,
,,,,space,,0,119,119,241,1,G, , , , ,space,2500,2.5,611cd8c9e43bcb3eb8ccaf68,001,2021-08-19_16h29.47.008,natb3,2021.2.3,MacIntel,333.3333333,611cd8c9e43bcb3eb8ccaf68,611e07ecdcc96256ae8d5b80,611e77bdfa48dd33da987a6b,0.482,
,,,,,,0,120,120,287,1,X, ,2, ,9,,2000,2,611cd8c9e43bcb3eb8ccaf68,001,2021-08-19_16h29.47.008,natb3,2021.2.3,MacIntel,333.3333333,611cd8c9e43bcb3eb8ccaf68,611e07ecdcc96256ae8d5b80,611e77bdfa48dd33da987a6b,,
,,,,space,,0,121,121,180,1,W, , , , ,space,2000,2,611cd8c9e43bcb3eb8ccaf68,001,2021-08-19_16h29.47.008,natb3,2021.2.3,MacIntel,333.3333333,611cd8c9e43bcb3eb8ccaf68,611e07ecdcc96256ae8d5b80,611e77bdfa48dd33da987a6b,0.513,
,,,,space,,0,122,122,225,1,E, , , , ,space,2000,2,611cd8c9e43bcb3eb8ccaf68,001,2021-08-19_16h29.47.008,natb3,2021.2.3,MacIntel,333.3333333,611cd8c9e43bcb3eb8ccaf68,611e07ecdcc96256ae8d5b80,611e77bdfa48dd33da987a6b,0.699,
,,,,space,,0,123,123,83,1,D, , , , ,space,2000,2,611cd8c9e43bcb3eb8ccaf68,001,2021-08-19_16h29.47.008,natb3,2021.2.3,MacIntel,333.3333333,611cd8c9e43bcb3eb8ccaf68,611e07ecdcc96256ae8d5b80,611e77bdfa48dd33da987a6b,0.565,
,,,,,,0,124,124,233,1,X, ,2, ,5,,1500,1.5,611cd8c9e43bcb3eb8ccaf68,001,2021-08-19_16h29.47.008,natb3,2021.2.3,MacIntel,333.3333333,611cd8c9e43bcb3eb8ccaf68,611e07ecdcc96256ae8d5b80,611e77bdfa48dd33da987a6b,,
,,,,space,,0,125,125,71,1,R, , , , ,space,2500,2.5,611cd8c9e43bcb3eb8ccaf68,001,2021-08-19_16h29.47.008,natb3,2021.2.3,MacIntel,333.3333333,611cd8c9e43bcb3eb8ccaf68,611e07ecdcc96256ae8d5b80,611e77bdfa48dd33da987a6b,0.529,
,,,,,,0,126,126,175,1,X,7, ,4,2,,1500,1.5,611cd8c9e43bcb3eb8ccaf68,001,2021-08-19_16h29.47.008,natb3,2021.2.3,MacIntel,333.3333333,611cd8c9e43bcb3eb8ccaf68,611e07ecdcc96256ae8d5b80,611e77bdfa48dd33da987a6b,,
,,,,space,,0,127,127,136,1,Z, , , , ,space,2500,2.5,611cd8c9e43bcb3eb8ccaf68,001,2021-08-19_16h29.47.008,natb3,2021.2.3,MacIntel,333.3333333,611cd8c9e43bcb3eb8ccaf68,611e07ecdcc96256ae8d5b80,611e77bdfa48dd33da987a6b,0.894,
,,,,space,,0,128,128,32,1,M, , , , ,space,1500,1.5,611cd8c9e43bcb3eb8ccaf68,001,2021-08-19_16h29.47.008,natb3,2021.2.3,MacIntel,333.3333333,611cd8c9e43bcb3eb8ccaf68,611e07ecdcc96256ae8d5b80,611e77bdfa48dd33da987a6b,0.6,
,,,,,,0,129,129,177,1,M, , , , ,space,2500,2.5,611cd8c9e43bcb3eb8ccaf68,001,2021-08-19_16h29.47.008,natb3,2021.2.3,MacIntel,333.3333333,611cd8c9e43bcb3eb8ccaf68,611e07ecdcc96256ae8d5b80,611e77bdfa48dd33da987a6b,,
,,,,space,,0,130,130,184,1,T, , , , ,space,2000,2,611cd8c9e43bcb3eb8ccaf68,001,2021-08-19_16h29.47.008,natb3,2021.2.3,MacIntel,333.3333333,611cd8c9e43bcb3eb8ccaf68,611e07ecdcc96256ae8d5b80,611e77bdfa48dd33da987a6b,0.535,
,,,,,,0,131,131,125,1,X, , , , ,,2000,2,611cd8c9e43bcb3eb8ccaf68,001,2021-08-19_16h29.47.008,natb3,2021.2.3,MacIntel,333.3333333,611cd8c9e43bcb3eb8ccaf68,611e07ecdcc96256ae8d5b80,611e77bdfa48dd33da987a6b,,
,,,,space,,0,132,132,2,1,E, , , , ,space,2500,2.5,611cd8c9e43bcb3eb8ccaf68,001,2021-08-19_16h29.47.008,natb3,2021.2.3,MacIntel,333.3333333,611cd8c9e43bcb3eb8ccaf68,611e07ecdcc96256ae8d5b80,611e77bdfa48dd33da987a6b,0.62,
,,,,space,,0,133,133,140,1,B, , , , ,space,2500,2.5,611cd8c9e43bcb3eb8ccaf68,001,2021-08-19_16h29.47.008,natb3,2021.2.3,MacIntel,333.3333333,611cd8c9e43bcb3eb8ccaf68,611e07ecdcc96256ae8d5b80,611e77bdfa48dd33da987a6b,0.63,
,,,,space,,0,134,134,126,1,A, , , , ,space,2500,2.5,611cd8c9e43bcb3eb8ccaf68,001,2021-08-19_16h29.47.008,natb3,2021.2.3,MacIntel,333.3333333,611cd8c9e43bcb3eb8ccaf68,611e07ecdcc96256ae8d5b80,611e77bdfa48dd33da987a6b,0.848,
,,,,space,,0,135,135,132,1,H, , , , ,space,2500,2.5,611cd8c9e43bcb3eb8ccaf68,001,2021-08-19_16h29.47.008,natb3,2021.2.3,MacIntel,333.3333333,611cd8c9e43bcb3eb8ccaf68,611e07ecdcc96256ae8d5b80,611e77bdfa48dd33da987a6b,0.582,
,,,,space,,0,136,136,167,1,K, , , , ,space,1500,1.5,611cd8c9e43bcb3eb8ccaf68,001,2021-08-19_16h29.47.008,natb3,2021.2.3,MacIntel,333.3333333,611cd8c9e43bcb3eb8ccaf68,611e07ecdcc96256ae8d5b80,611e77bdfa48dd33da987a6b,0.551,
,,,,space,,0,137,137,148,1,X, , , , ,,2000,2,611cd8c9e43bcb3eb8ccaf68,001,2021-08-19_16h29.47.008,natb3,2021.2.3,MacIntel,333.3333333,611cd8c9e43bcb3eb8ccaf68,611e07ecdcc96256ae8d5b80,611e77bdfa48dd33da987a6b,0.383,
,,,,space,,0,138,138,272,1,D, , , , ,space,2000,2,611cd8c9e43bcb3eb8ccaf68,001,2021-08-19_16h29.47.008,natb3,2021.2.3,MacIntel,333.3333333,611cd8c9e43bcb3eb8ccaf68,611e07ecdcc96256ae8d5b80,611e77bdfa48dd33da987a6b,0.566,
,,,,,,0,139,139,4,1,X, , , , ,,2000,2,611cd8c9e43bcb3eb8ccaf68,001,2021-08-19_16h29.47.008,natb3,2021.2.3,MacIntel,333.3333333,611cd8c9e43bcb3eb8ccaf68,611e07ecdcc96256ae8d5b80,611e77bdfa48dd33da987a6b,,
,,,,space,,0,140,140,209,1,N, , , , ,space,2000,2,611cd8c9e43bcb3eb8ccaf68,001,2021-08-19_16h29.47.008,natb3,2021.2.3,MacIntel,333.3333333,611cd8c9e43bcb3eb8ccaf68,611e07ecdcc96256ae8d5b80,611e77bdfa48dd33da987a6b,0.582,
,,,,,,0,141,141,54,1,X, , , , ,,2000,2,611cd8c9e43bcb3eb8ccaf68,001,2021-08-19_16h29.47.008,natb3,2021.2.3,MacIntel,333.3333333,611cd8c9e43bcb3eb8ccaf68,611e07ecdcc96256ae8d5b80,611e77bdfa48dd33da987a6b,,
,,,,space,,0,142,142,197,1,G, , , , ,space,2500,2.5,611cd8c9e43bcb3eb8ccaf68,001,2021-08-19_16h29.47.008,natb3,2021.2.3,MacIntel,333.3333333,611cd8c9e43bcb3eb8ccaf68,611e07ecdcc96256ae8d5b80,611e77bdfa48dd33da987a6b,0.697,
,,,,space,,0,143,143,41,1,Y, , , , ,space,2500,2.5,611cd8c9e43bcb3eb8ccaf68,001,2021-08-19_16h29.47.008,natb3,2021.2.3,MacIntel,333.3333333,611cd8c9e43bcb3eb8ccaf68,611e07ecdcc96256ae8d5b80,611e77bdfa48dd33da987a6b,0.517,
,,,,space,,0,144,144,304,1,S, , , , ,space,2000,2,611cd8c9e43bcb3eb8ccaf68,001,2021-08-19_16h29.47.008,natb3,2021.2.3,MacIntel,333.3333333,611cd8c9e43bcb3eb8ccaf68,611e07ecdcc96256ae8d5b80,611e77bdfa48dd33da987a6b,0.531,
,,,,space,,0,145,145,115,1,R, , , , ,space,1500,1.5,611cd8c9e43bcb3eb8ccaf68,001,2021-08-19_16h29.47.008,natb3,2021.2.3,MacIntel,333.3333333,611cd8c9e43bcb3eb8ccaf68,611e07ecdcc96256ae8d5b80,611e77bdfa48dd33da987a6b,0.617,
,,,,space,,0,146,146,286,1,N, , , , ,space,1500,1.5,611cd8c9e43bcb3eb8ccaf68,001,2021-08-19_16h29.47.008,natb3,2021.2.3,MacIntel,333.3333333,611cd8c9e43bcb3eb8ccaf68,611e07ecdcc96256ae8d5b80,611e77bdfa48dd33da987a6b,0.567,
,,,,,,0,147,147,195,1,X, , , , ,,1500,1.5,611cd8c9e43bcb3eb8ccaf68,001,2021-08-19_16h29.47.008,natb3,2021.2.3,MacIntel,333.3333333,611cd8c9e43bcb3eb8ccaf68,611e07ecdcc96256ae8d5b80,611e77bdfa48dd33da987a6b,,
,,,,space,,0,148,148,300,1,O, , , , ,space,2500,2.5,611cd8c9e43bcb3eb8ccaf68,001,2021-08-19_16h29.47.008,natb3,2021.2.3,MacIntel,333.3333333,611cd8c9e43bcb3eb8ccaf68,611e07ecdcc96256ae8d5b80,611e77bdfa48dd33da987a6b,0.581,
,,,,,,0,149,149,252,1,X,3, ,6,9,,2000,2,611cd8c9e43bcb3eb8ccaf68,001,2021-08-19_16h29.47.008,natb3,2021.2.3,MacIntel,333.3333333,611cd8c9e43bcb3eb8ccaf68,611e07ecdcc96256ae8d5b80,611e77bdfa48dd33da987a6b,,
,,,,space,,0,150,150,308,1,G, , , , ,space,1500,1.5,611cd8c9e43bcb3eb8ccaf68,001,2021-08-19_16h29.47.008,natb3,2021.2.3,MacIntel,333.3333333,611cd8c9e43bcb3eb8ccaf68,611e07ecdcc96256ae8d5b80,611e77bdfa48dd33da987a6b,0.867,
,,,,space,,0,151,151,29,1,B, , , , ,space,1500,1.5,611cd8c9e43bcb3eb8ccaf68,001,2021-08-19_16h29.47.008,natb3,2021.2.3,MacIntel,333.3333333,611cd8c9e43bcb3eb8ccaf68,611e07ecdcc96256ae8d5b80,611e77bdfa48dd33da987a6b,0.647,
,,,,,,0,152,152,311,1,X,1,2,7,3,,2500,2.5,611cd8c9e43bcb3eb8ccaf68,001,2021-08-19_16h29.47.008,natb3,2021.2.3,MacIntel,333.3333333,611cd8c9e43bcb3eb8ccaf68,611e07ecdcc96256ae8d5b80,611e77bdfa48dd33da987a6b,,
,,,,,,0,153,153,271,1,X, , , , ,,2500,2.5,611cd8c9e43bcb3eb8ccaf68,001,2021-08-19_16h29.47.008,natb3,2021.2.3,MacIntel,333.3333333,611cd8c9e43bcb3eb8ccaf68,611e07ecdcc96256ae8d5b80,611e77bdfa48dd33da987a6b,,
,,,,space,,0,154,154,63,1,B, , , , ,space,2000,2,611cd8c9e43bcb3eb8ccaf68,001,2021-08-19_16h29.47.008,natb3,2021.2.3,MacIntel,333.3333333,611cd8c9e43bcb3eb8ccaf68,611e07ecdcc96256ae8d5b80,611e77bdfa48dd33da987a6b,0.53,
,,,,,,0,155,155,263,1,X,4, ,6, ,,1500,1.5,611cd8c9e43bcb3eb8ccaf68,001,2021-08-19_16h29.47.008,natb3,2021.2.3,MacIntel,333.3333333,611cd8c9e43bcb3eb8ccaf68,611e07ecdcc96256ae8d5b80,611e77bdfa48dd33da987a6b,,
,,,,space,,0,156,156,26,1,C, , , , ,space,2000,2,611cd8c9e43bcb3eb8ccaf68,001,2021-08-19_16h29.47.008,natb3,2021.2.3,MacIntel,333.3333333,611cd8c9e43bcb3eb8ccaf68,611e07ecdcc96256ae8d5b80,611e77bdfa48dd33da987a6b,0.542,
,,,,space,,0,157,157,309,1,H, , , , ,space,2500,2.5,611cd8c9e43bcb3eb8ccaf68,001,2021-08-19_16h29.47.008,natb3,2021.2.3,MacIntel,333.3333333,611cd8c9e43bcb3eb8ccaf68,611e07ecdcc96256ae8d5b80,611e77bdfa48dd33da987a6b,0.6,
,,,,space,,0,158,158,189,1,O, , , , ,space,1500,1.5,611cd8c9e43bcb3eb8ccaf68,001,2021-08-19_16h29.47.008,natb3,2021.2.3,MacIntel,333.3333333,611cd8c9e43bcb3eb8ccaf68,611e07ecdcc96256ae8d5b80,611e77bdfa48dd33da987a6b,0.548,
,,,,,,0,159,159,138,1,X,8,5, ,3,,2000,2,611cd8c9e43bcb3eb8ccaf68,001,2021-08-19_16h29.47.008,natb3,2021.2.3,MacIntel,333.3333333,611cd8c9e43bcb3eb8ccaf68,611e07ecdcc96256ae8d5b80,611e77bdfa48dd33da987a6b,,
,,,,space,,0,160,160,257,1,W, , , , ,space,2000,2,611cd8c9e43bcb3eb8ccaf68,001,2021-08-19_16h29.47.008,natb3,2021.2.3,MacIntel,333.3333333,611cd8c9e43bcb3eb8ccaf68,611e07ecdcc96256ae8d5b80,611e77bdfa48dd33da987a6b,0.594,
,,,,space,,0,161,161,164,1,H, , , , ,space,2500,2.5,611cd8c9e43bcb3eb8ccaf68,001,2021-08-19_16h29.47.008,natb3,2021.2.3,MacIntel,333.3333333,611cd8c9e43bcb3eb8ccaf68,611e07ecdcc96256ae8d5b80,611e77bdfa48dd33da987a6b,0.5,
,,,,space,,0,162,162,234,1,P, , , , ,space,2000,2,611cd8c9e43bcb3eb8ccaf68,001,2021-08-19_16h29.47.008,natb3,2021.2.3,MacIntel,333.3333333,611cd8c9e43bcb3eb8ccaf68,611e07ecdcc96256ae8d5b80,611e77bdfa48dd33da987a6b,0.465,
,,,,space,,0,163,163,326,1,W, , , , ,space,2000,2,611cd8c9e43bcb3eb8ccaf68,001,2021-08-19_16h29.47.008,natb3,2021.2.3,MacIntel,333.3333333,611cd8c9e43bcb3eb8ccaf68,611e07ecdcc96256ae8d5b80,611e77bdfa48dd33da987a6b,0.633,
,,,,space,,0,164,164,45,1,O, , , , ,space,2000,2,611cd8c9e43bcb3eb8ccaf68,001,2021-08-19_16h29.47.008,natb3,2021.2.3,MacIntel,333.3333333,611cd8c9e43bcb3eb8ccaf68,611e07ecdcc96256ae8d5b80,611e77bdfa48dd33da987a6b,0.469,
,,,,space,,0,165,165,202,1,L, , , , ,space,2500,2.5,611cd8c9e43bcb3eb8ccaf68,001,2021-08-19_16h29.47.008,natb3,2021.2.3,MacIntel,333.3333333,611cd8c9e43bcb3eb8ccaf68,611e07ecdcc96256ae8d5b80,611e77bdfa48dd33da987a6b,0.836,
,,,,space,,0,166,166,80,1,A, , , , ,space,2000,2,611cd8c9e43bcb3eb8ccaf68,001,2021-08-19_16h29.47.008,natb3,2021.2.3,MacIntel,333.3333333,611cd8c9e43bcb3eb8ccaf68,611e07ecdcc96256ae8d5b80,611e77bdfa48dd33da987a6b,0.431,
,,,,space,space,0,167,167,10,1,O, , , , ,space,2000,2,611cd8c9e43bcb3eb8ccaf68,001,2021-08-19_16h29.47.008,natb3,2021.2.3,MacIntel,333.3333333,611cd8c9e43bcb3eb8ccaf68,611e07ecdcc96256ae8d5b80,611e77bdfa48dd33da987a6b,0.563,16.959
,,,,space,,0,168,168,47,1,P, , , , ,space,2000,2,611cd8c9e43bcb3eb8ccaf68,001,2021-08-19_16h29.47.008,natb3,2021.2.3,MacIntel,333.3333333,611cd8c9e43bcb3eb8ccaf68,611e07ecdcc96256ae8d5b80,611e77bdfa48dd33da987a6b,0.805,
,,,,,,0,169,169,84,1,X, , , , ,,2000,2,611cd8c9e43bcb3eb8ccaf68,001,2021-08-19_16h29.47.008,natb3,2021.2.3,MacIntel,333.3333333,611cd8c9e43bcb3eb8ccaf68,611e07ecdcc96256ae8d5b80,611e77bdfa48dd33da987a6b,,
,,,,space,,0,170,170,154,1,I, , , , ,space,2500,2.5,611cd8c9e43bcb3eb8ccaf68,001,2021-08-19_16h29.47.008,natb3,2021.2.3,MacIntel,333.3333333,611cd8c9e43bcb3eb8ccaf68,611e07ecdcc96256ae8d5b80,611e77bdfa48dd33da987a6b,0.616,
,,,,space,,0,171,171,249,1,C, , , , ,space,2000,2,611cd8c9e43bcb3eb8ccaf68,001,2021-08-19_16h29.47.008,natb3,2021.2.3,MacIntel,333.3333333,611cd8c9e43bcb3eb8ccaf68,611e07ecdcc96256ae8d5b80,611e77bdfa48dd33da987a6b,0.765,
,,,,space,,0,172,172,64,1,N, , , , ,space,2000,2,611cd8c9e43bcb3eb8ccaf68,001,2021-08-19_16h29.47.008,natb3,2021.2.3,MacIntel,333.3333333,611cd8c9e43bcb3eb8ccaf68,611e07ecdcc96256ae8d5b80,611e77bdfa48dd33da987a6b,0.748,
,,,,,,0,173,173,259,1,X,8, , ,3,,2500,2.5,611cd8c9e43bcb3eb8ccaf68,001,2021-08-19_16h29.47.008,natb3,2021.2.3,MacIntel,333.3333333,611cd8c9e43bcb3eb8ccaf68,611e07ecdcc96256ae8d5b80,611e77bdfa48dd33da987a6b,,
,,,,,,0,174,174,1,1,W, , , , ,space,2000,2,611cd8c9e43bcb3eb8ccaf68,001,2021-08-19_16h29.47.008,natb3,2021.2.3,MacIntel,333.3333333,611cd8c9e43bcb3eb8ccaf68,611e07ecdcc96256ae8d5b80,611e77bdfa48dd33da987a6b,,
,,,,space,,0,175,175,227,1,T, , , , ,space,1500,1.5,611cd8c9e43bcb3eb8ccaf68,001,2021-08-19_16h29.47.008,natb3,2021.2.3,MacIntel,333.3333333,611cd8c9e43bcb3eb8ccaf68,611e07ecdcc96256ae8d5b80,611e77bdfa48dd33da987a6b,0.552,
,,,,space,,0,176,176,97,1,B, , , , ,space,2500,2.5,611cd8c9e43bcb3eb8ccaf68,001,2021-08-19_16h29.47.008,natb3,2021.2.3,MacIntel,333.3333333,611cd8c9e43bcb3eb8ccaf68,611e07ecdcc96256ae8d5b80,611e77bdfa48dd33da987a6b,0.502,
,,,,,,0,177,177,18,1,X, ,2,5,8,,2500,2.5,611cd8c9e43bcb3eb8ccaf68,001,2021-08-19_16h29.47.008,natb3,2021.2.3,MacIntel,333.3333333,611cd8c9e43bcb3eb8ccaf68,611e07ecdcc96256ae8d5b80,611e77bdfa48dd33da987a6b,,
,,,,space,,0,178,178,120,1,U, , , , ,space,1500,1.5,611cd8c9e43bcb3eb8ccaf68,001,2021-08-19_16h29.47.008,natb3,2021.2.3,MacIntel,333.3333333,611cd8c9e43bcb3eb8ccaf68,611e07ecdcc96256ae8d5b80,611e77bdfa48dd33da987a6b,0.765,
,,,,,,0,179,179,187,1,X, ,3,7,4,,1500,1.5,611cd8c9e43bcb3eb8ccaf68,001,2021-08-19_16h29.47.008,natb3,2021.2.3,MacIntel,333.3333333,611cd8c9e43bcb3eb8ccaf68,611e07ecdcc96256ae8d5b80,611e77bdfa48dd33da987a6b,,
,,,,space,,0,180,180,137,1,C, , , , ,space,2500,2.5,611cd8c9e43bcb3eb8ccaf68,001,2021-08-19_16h29.47.008,natb3,2021.2.3,MacIntel,333.3333333,611cd8c9e43bcb3eb8ccaf68,611e07ecdcc96256ae8d5b80,611e77bdfa48dd33da987a6b,0.402,
,,,,space,,0,181,181,294,1,T, , , , ,space,2000,2,611cd8c9e43bcb3eb8ccaf68,001,2021-08-19_16h29.47.008,natb3,2021.2.3,MacIntel,333.3333333,611cd8c9e43bcb3eb8ccaf68,611e07ecdcc96256ae8d5b80,611e77bdfa48dd33da987a6b,0.464,
,,,,,,0,182,182,255,1,X, , , , ,,1500,1.5,611cd8c9e43bcb3eb8ccaf68,001,2021-08-19_16h29.47.008,natb3,2021.2.3,MacIntel,333.3333333,611cd8c9e43bcb3eb8ccaf68,611e07ecdcc96256ae8d5b80,611e77bdfa48dd33da987a6b,,
,,,,,,0,183,183,322,1,X, , ,1,6,,2000,2,611cd8c9e43bcb3eb8ccaf68,001,2021-08-19_16h29.47.008,natb3,2021.2.3,MacIntel,333.3333333,611cd8c9e43bcb3eb8ccaf68,611e07ecdcc96256ae8d5b80,611e77bdfa48dd33da987a6b,,
,,,,,,0,184,184,116,1,X, , , , ,,2000,2,611cd8c9e43bcb3eb8ccaf68,001,2021-08-19_16h29.47.008,natb3,2021.2.3,MacIntel,333.3333333,611cd8c9e43bcb3eb8ccaf68,611e07ecdcc96256ae8d5b80,611e77bdfa48dd33da987a6b,,
,,,,space,,0,185,185,228,1,Y, , , , ,space,2000,2,611cd8c9e43bcb3eb8ccaf68,001,2021-08-19_16h29.47.008,natb3,2021.2.3,MacIntel,333.3333333,611cd8c9e43bcb3eb8ccaf68,611e07ecdcc96256ae8d5b80,611e77bdfa48dd33da987a6b,0.664,
,,,,space,,0,186,186,131,1,G, , , , ,space,1500,1.5,611cd8c9e43bcb3eb8ccaf68,001,2021-08-19_16h29.47.008,natb3,2021.2.3,MacIntel,333.3333333,611cd8c9e43bcb3eb8ccaf68,611e07ecdcc96256ae8d5b80,611e77bdfa48dd33da987a6b,0.681,
,,,,space,,0,187,187,212,1,Q, , , , ,space,2500,2.5,611cd8c9e43bcb3eb8ccaf68,001,2021-08-19_16h29.47.008,natb3,2021.2.3,MacIntel,333.3333333,611cd8c9e43bcb3eb8ccaf68,611e07ecdcc96256ae8d5b80,611e77bdfa48dd33da987a6b,0.514,
,,,,space,,0,188,188,57,1,K, , , , ,space,2500,2.5,611cd8c9e43bcb3eb8ccaf68,001,2021-08-19_16h29.47.008,natb3,2021.2.3,MacIntel,333.3333333,611cd8c9e43bcb3eb8ccaf68,611e07ecdcc96256ae8d5b80,611e77bdfa48dd33da987a6b,0.419,
,,,,space,,0,189,189,208,1,B, , , , ,space,1500,1.5,611cd8c9e43bcb3eb8ccaf68,001,2021-08-19_16h29.47.008,natb3,2021.2.3,MacIntel,333.3333333,611cd8c9e43bcb3eb8ccaf68,611e07ecdcc96256ae8d5b80,611e77bdfa48dd33da987a6b,0.48,
,,,,space,,0,190,190,182,1,X, , , , ,,1500,1.5,611cd8c9e43bcb3eb8ccaf68,001,2021-08-19_16h29.47.008,natb3,2021.2.3,MacIntel,333.3333333,611cd8c9e43bcb3eb8ccaf68,611e07ecdcc96256ae8d5b80,611e77bdfa48dd33da987a6b,0.351,
,,,,space,,0,191,191,276,1,H, , , , ,space,2000,2,611cd8c9e43bcb3eb8ccaf68,001,2021-08-19_16h29.47.008,natb3,2021.2.3,MacIntel,333.3333333,611cd8c9e43bcb3eb8ccaf68,611e07ecdcc96256ae8d5b80,611e77bdfa48dd33da987a6b,0.599,
,,,,,,0,192,192,236,1,X,3, ,4,7,,2500,2.5,611cd8c9e43bcb3eb8ccaf68,001,2021-08-19_16h29.47.008,natb3,2021.2.3,MacIntel,333.3333333,611cd8c9e43bcb3eb8ccaf68,611e07ecdcc96256ae8d5b80,611e77bdfa48dd33da987a6b,,
,,,,space,,0,193,193,114,1,E, , , , ,space,2000,2,611cd8c9e43bcb3eb8ccaf68,001,2021-08-19_16h29.47.008,natb3,2021.2.3,MacIntel,333.3333333,611cd8c9e43bcb3eb8ccaf68,611e07ecdcc96256ae8d5b80,611e77bdfa48dd33da987a6b,0.741,
,,,,,,0,194,194,168,1,X, , , , ,,2500,2.5,611cd8c9e43bcb3eb8ccaf68,001,2021-08-19_16h29.47.008,natb3,2021.2.3,MacIntel,333.3333333,611cd8c9e43bcb3eb8ccaf68,611e07ecdcc96256ae8d5b80,611e77bdfa48dd33da987a6b,,
,,,,,,0,195,195,166,1,X, , , , ,,2000,2,611cd8c9e43bcb3eb8ccaf68,001,2021-08-19_16h29.47.008,natb3,2021.2.3,MacIntel,333.3333333,611cd8c9e43bcb3eb8ccaf68,611e07ecdcc96256ae8d5b80,611e77bdfa48dd33da987a6b,,
,,,,space,,0,196,196,194,1,D, , , , ,space,2000,2,611cd8c9e43bcb3eb8ccaf68,001,2021-08-19_16h29.47.008,natb3,2021.2.3,MacIntel,333.3333333,611cd8c9e43bcb3eb8ccaf68,611e07ecdcc96256ae8d5b80,611e77bdfa48dd33da987a6b,0.649,
,,,,space,,0,197,197,192,1,A, , , , ,space,2000,2,611cd8c9e43bcb3eb8ccaf68,001,2021-08-19_16h29.47.008,natb3,2021.2.3,MacIntel,333.3333333,611cd8c9e43bcb3eb8ccaf68,611e07ecdcc96256ae8d5b80,611e77bdfa48dd33da987a6b,0.812,
,,,,,,0,198,198,89,1,X,3, , , ,,2000,2,611cd8c9e43bcb3eb8ccaf68,001,2021-08-19_16h29.47.008,natb3,2021.2.3,MacIntel,333.3333333,611cd8c9e43bcb3eb8ccaf68,611e07ecdcc96256ae8d5b80,611e77bdfa48dd33da987a6b,,
,,,,space,,0,199,199,85,1,F, , , , ,space,2500,2.5,611cd8c9e43bcb3eb8ccaf68,001,2021-08-19_16h29.47.008,natb3,2021.2.3,MacIntel,333.3333333,611cd8c9e43bcb3eb8ccaf68,611e07ecdcc96256ae8d5b80,611e77bdfa48dd33da987a6b,0.499,
,,,,,,0,200,200,277,1,X,8,5, ,2,,2000,2,611cd8c9e43bcb3eb8ccaf68,001,2021-08-19_16h29.47.008,natb3,2021.2.3,MacIntel,333.3333333,611cd8c9e43bcb3eb8ccaf68,611e07ecdcc96256ae8d5b80,611e77bdfa48dd33da987a6b,,
,,,,space,,0,201,201,163,1,G, , , , ,space,2500,2.5,611cd8c9e43bcb3eb8ccaf68,001,2021-08-19_16h29.47.008,natb3,2021.2.3,MacIntel,333.3333333,611cd8c9e43bcb3eb8ccaf68,611e07ecdcc96256ae8d5b80,611e77bdfa48dd33da987a6b,0.534,
,,,,space,,0,202,202,16,1,D, , , , ,space,1500,1.5,611cd8c9e43bcb3eb8ccaf68,001,2021-08-19_16h29.47.008,natb3,2021.2.3,MacIntel,333.3333333,611cd8c9e43bcb3eb8ccaf68,611e07ecdcc96256ae8d5b80,611e77bdfa48dd33da987a6b,0.581,
,,,,space,,0,203,203,230,1,U, , , , ,space,1500,1.5,611cd8c9e43bcb3eb8ccaf68,001,2021-08-19_16h29.47.008,natb3,2021.2.3,MacIntel,333.3333333,611cd8c9e43bcb3eb8ccaf68,611e07ecdcc96256ae8d5b80,611e77bdfa48dd33da987a6b,0.54,
,,,,,,0,204,204,335,1,P,,,,,space,1500,1.5,611cd8c9e43bcb3eb8ccaf68,001,2021-08-19_16h29.47.008,natb3,2021.2.3,MacIntel,333.3333333,611cd8c9e43bcb3eb8ccaf68,611e07ecdcc96256ae8d5b80,611e77bdfa48dd33da987a6b,,
,,,,space,,0,205,205,293,1,R, , , , ,space,2500,2.5,611cd8c9e43bcb3eb8ccaf68,001,2021-08-19_16h29.47.008,natb3,2021.2.3,MacIntel,333.3333333,611cd8c9e43bcb3eb8ccaf68,611e07ecdcc96256ae8d5b80,611e77bdfa48dd33da987a6b,0.656,
,,,,space,,0,206,206,278,1,J, , , , ,space,2000,2,611cd8c9e43bcb3eb8ccaf68,001,2021-08-19_16h29.47.008,natb3,2021.2.3,MacIntel,333.3333333,611cd8c9e43bcb3eb8ccaf68,611e07ecdcc96256ae8d5b80,611e77bdfa48dd33da987a6b,0.465,
,,,,,,0,207,207,207,1,X,9, ,2, ,,2500,2.5,611cd8c9e43bcb3eb8ccaf68,001,2021-08-19_16h29.47.008,natb3,2021.2.3,MacIntel,333.3333333,611cd8c9e43bcb3eb8ccaf68,611e07ecdcc96256ae8d5b80,611e77bdfa48dd33da987a6b,,
,,,,space,,0,208,208,152,1,U, , , , ,space,2000,2,611cd8c9e43bcb3eb8ccaf68,001,2021-08-19_16h29.47.008,natb3,2021.2.3,MacIntel,333.3333333,611cd8c9e43bcb3eb8ccaf68,611e07ecdcc96256ae8d5b80,611e77bdfa48dd33da987a6b,0.384,
,,,,,,0,209,209,305,1,X, , , , ,,1500,1.5,611cd8c9e43bcb3eb8ccaf68,001,2021-08-19_16h29.47.008,natb3,2021.2.3,MacIntel,333.3333333,611cd8c9e43bcb3eb8ccaf68,611e07ecdcc96256ae8d5b80,611e77bdfa48dd33da987a6b,,
,,,,space,,0,210,210,75,1,U, , , , ,space,1500,1.5,611cd8c9e43bcb3eb8ccaf68,001,2021-08-19_16h29.47.008,natb3,2021.2.3,MacIntel,333.3333333,611cd8c9e43bcb3eb8ccaf68,611e07ecdcc96256ae8d5b80,611e77bdfa48dd33da987a6b,0.58,
,,,,space,,0,211,211,144,1,Q, , , , ,space,2500,2.5,611cd8c9e43bcb3eb8ccaf68,001,2021-08-19_16h29.47.008,natb3,2021.2.3,MacIntel,333.3333333,611cd8c9e43bcb3eb8ccaf68,611e07ecdcc96256ae8d5b80,611e77bdfa48dd33da987a6b,0.433,
,,,,space,,0,212,212,244,1,J, , , , ,space,1500,1.5,611cd8c9e43bcb3eb8ccaf68,001,2021-08-19_16h29.47.008,natb3,2021.2.3,MacIntel,333.3333333,611cd8c9e43bcb3eb8ccaf68,611e07ecdcc96256ae8d5b80,611e77bdfa48dd33da987a6b,0.381,
,,,,space,,0,213,213,100,1,M, , , , ,space,2000,2,611cd8c9e43bcb3eb8ccaf68,001,2021-08-19_16h29.47.008,natb3,2021.2.3,MacIntel,333.3333333,611cd8c9e43bcb3eb8ccaf68,611e07ecdcc96256ae8d5b80,611e77bdfa48dd33da987a6b,0.39,
,,,,space,,0,214,214,262,1,Y, , , , ,space,2500,2.5,611cd8c9e43bcb3eb8ccaf68,001,2021-08-19_16h29.47.008,natb3,2021.2.3,MacIntel,333.3333333,611cd8c9e43bcb3eb8ccaf68,611e07ecdcc96256ae8d5b80,611e77bdfa48dd33da987a6b,0.389,
,,,,space,,0,215,215,11,1,P, , , , ,space,2500,2.5,611cd8c9e43bcb3eb8ccaf68,001,2021-08-19_16h29.47.008,natb3,2021.2.3,MacIntel,333.3333333,611cd8c9e43bcb3eb8ccaf68,611e07ecdcc96256ae8d5b80,611e77bdfa48dd33da987a6b,0.38,
,,,,,,0,216,216,23,1,X,1, ,5, ,,2000,2,611cd8c9e43bcb3eb8ccaf68,001,2021-08-19_16h29.47.008,natb3,2021.2.3,MacIntel,333.3333333,611cd8c9e43bcb3eb8ccaf68,611e07ecdcc96256ae8d5b80,611e77bdfa48dd33da987a6b,,
,,,,space,,0,217,217,28,1,V, , , , ,space,1500,1.5,611cd8c9e43bcb3eb8ccaf68,001,2021-08-19_16h29.47.008,natb3,2021.2.3,MacIntel,333.3333333,611cd8c9e43bcb3eb8ccaf68,611e07ecdcc96256ae8d5b80,611e77bdfa48dd33da987a6b,0.511,
,,,,space,,0,218,218,333,1,I, , , , ,space,1500,1.5,611cd8c9e43bcb3eb8ccaf68,001,2021-08-19_16h29.47.008,natb3,2021.2.3,MacIntel,333.3333333,611cd8c9e43bcb3eb8ccaf68,611e07ecdcc96256ae8d5b80,611e77bdfa48dd33da987a6b,0.799,
,,,,,,0,219,219,171,1,X, , , , ,,1500,1.5,611cd8c9e43bcb3eb8ccaf68,001,2021-08-19_16h29.47.008,natb3,2021.2.3,MacIntel,333.3333333,611cd8c9e43bcb3eb8ccaf68,611e07ecdcc96256ae8d5b80,611e77bdfa48dd33da987a6b,,
,,,,space,,0,220,220,331,1,Y, , , , ,space,2500,2.5,611cd8c9e43bcb3eb8ccaf68,001,2021-08-19_16h29.47.008,natb3,2021.2.3,MacIntel,333.3333333,611cd8c9e43bcb3eb8ccaf68,611e07ecdcc96256ae8d5b80,611e77bdfa48dd33da987a6b,0.398,
,,,,space,,0,221,221,46,1,X, , , , ,,2000,2,611cd8c9e43bcb3eb8ccaf68,001,2021-08-19_16h29.47.008,natb3,2021.2.3,MacIntel,333.3333333,611cd8c9e43bcb3eb8ccaf68,611e07ecdcc96256ae8d5b80,611e77bdfa48dd33da987a6b,0.416,
,,,,space,,0,222,222,235,1,A, , , , ,space,1500,1.5,611cd8c9e43bcb3eb8ccaf68,001,2021-08-19_16h29.47.008,natb3,2021.2.3,MacIntel,333.3333333,611cd8c9e43bcb3eb8ccaf68,611e07ecdcc96256ae8d5b80,611e77bdfa48dd33da987a6b,0.457,
,,,,space,,0,223,223,290,1,W, , , , ,space,1500,1.5,611cd8c9e43bcb3eb8ccaf68,001,2021-08-19_16h29.47.008,natb3,2021.2.3,MacIntel,333.3333333,611cd8c9e43bcb3eb8ccaf68,611e07ecdcc96256ae8d5b80,611e77bdfa48dd33da987a6b,0.58,
,,,,,,0,224,224,158,1,X, , , , ,,1500,1.5,611cd8c9e43bcb3eb8ccaf68,001,2021-08-19_16h29.47.008,natb3,2021.2.3,MacIntel,333.3333333,611cd8c9e43bcb3eb8ccaf68,611e07ecdcc96256ae8d5b80,611e77bdfa48dd33da987a6b,,
,,,,space,,0,225,225,328,1,R, , , , ,space,1500,1.5,611cd8c9e43bcb3eb8ccaf68,001,2021-08-19_16h29.47.008,natb3,2021.2.3,MacIntel,333.3333333,611cd8c9e43bcb3eb8ccaf68,611e07ecdcc96256ae8d5b80,611e77bdfa48dd33da987a6b,0.405,
,,,,space,,0,226,226,330,1,T, , , , ,space,2500,2.5,611cd8c9e43bcb3eb8ccaf68,001,2021-08-19_16h29.47.008,natb3,2021.2.3,MacIntel,333.3333333,611cd8c9e43bcb3eb8ccaf68,611e07ecdcc96256ae8d5b80,611e77bdfa48dd33da987a6b,0.652,
,,,,space,,0,227,227,13,1,A, , , , ,space,2000,2,611cd8c9e43bcb3eb8ccaf68,001,2021-08-19_16h29.47.008,natb3,2021.2.3,MacIntel,333.3333333,611cd8c9e43bcb3eb8ccaf68,611e07ecdcc96256ae8d5b80,611e77bdfa48dd33da987a6b,0.467,
,,,,,,0,228,228,35,1,X, , , , ,,2500,2.5,611cd8c9e43bcb3eb8ccaf68,001,2021-08-19_16h29.47.008,natb3,2021.2.3,MacIntel,333.3333333,611cd8c9e43bcb3eb8ccaf68,611e07ecdcc96256ae8d5b80,611e77bdfa48dd33da987a6b,,
,,,,space,,0,229,229,169,1,L, , , , ,space,2500,2.5,611cd8c9e43bcb3eb8ccaf68,001,2021-08-19_16h29.47.008,natb3,2021.2.3,MacIntel,333.3333333,611cd8c9e43bcb3eb8ccaf68,611e07ecdcc96256ae8d5b80,611e77bdfa48dd33da987a6b,0.505,
,,,,space,,0,230,230,281,1,Z, , , , ,space,1500,1.5,611cd8c9e43bcb3eb8ccaf68,001,2021-08-19_16h29.47.008,natb3,2021.2.3,MacIntel,333.3333333,611cd8c9e43bcb3eb8ccaf68,611e07ecdcc96256ae8d5b80,611e77bdfa48dd33da987a6b,0.446,
,,,,space,,0,231,231,42,1,U, , , , ,space,1500,1.5,611cd8c9e43bcb3eb8ccaf68,001,2021-08-19_16h29.47.008,natb3,2021.2.3,MacIntel,333.3333333,611cd8c9e43bcb3eb8ccaf68,611e07ecdcc96256ae8d5b80,611e77bdfa48dd33da987a6b,0.438,
,,,,space,,0,232,232,260,1,R, , , , ,space,2000,2,611cd8c9e43bcb3eb8ccaf68,001,2021-08-19_16h29.47.008,natb3,2021.2.3,MacIntel,333.3333333,611cd8c9e43bcb3eb8ccaf68,611e07ecdcc96256ae8d5b80,611e77bdfa48dd33da987a6b,0.432,
,,,,space,,0,233,233,198,1,H, , , , ,space,2500,2.5,611cd8c9e43bcb3eb8ccaf68,001,2021-08-19_16h29.47.008,natb3,2021.2.3,MacIntel,333.3333333,611cd8c9e43bcb3eb8ccaf68,611e07ecdcc96256ae8d5b80,611e77bdfa48dd33da987a6b,0.448,
,,,,space,,0,234,234,270,1,S, , , , ,space,1500,1.5,611cd8c9e43bcb3eb8ccaf68,001,2021-08-19_16h29.47.008,natb3,2021.2.3,MacIntel,333.3333333,611cd8c9e43bcb3eb8ccaf68,611e07ecdcc96256ae8d5b80,611e77bdfa48dd33da987a6b,0.832,
,,,,,,0,235,235,291,1,X, , , , ,,2000,2,611cd8c9e43bcb3eb8ccaf68,001,2021-08-19_16h29.47.008,natb3,2021.2.3,MacIntel,333.3333333,611cd8c9e43bcb3eb8ccaf68,611e07ecdcc96256ae8d5b80,611e77bdfa48dd33da987a6b,,
,,,,,,0,236,236,27,1,X,5, ,1,3,,1500,1.5,611cd8c9e43bcb3eb8ccaf68,001,2021-08-19_16h29.47.008,natb3,2021.2.3,MacIntel,333.3333333,611cd8c9e43bcb3eb8ccaf68,611e07ecdcc96256ae8d5b80,611e77bdfa48dd33da987a6b,,
,,,,,,0,237,237,15,1,X, , , , ,,1500,1.5,611cd8c9e43bcb3eb8ccaf68,001,2021-08-19_16h29.47.008,natb3,2021.2.3,MacIntel,333.3333333,611cd8c9e43bcb3eb8ccaf68,611e07ecdcc96256ae8d5b80,611e77bdfa48dd33da987a6b,,
,,,,space,,0,238,238,301,1,P, , , , ,space,1500,1.5,611cd8c9e43bcb3eb8ccaf68,001,2021-08-19_16h29.47.008,natb3,2021.2.3,MacIntel,333.3333333,611cd8c9e43bcb3eb8ccaf68,611e07ecdcc96256ae8d5b80,611e77bdfa48dd33da987a6b,0.464,
,,,,space,,0,239,239,53,1,G, , , , ,space,2500,2.5,611cd8c9e43bcb3eb8ccaf68,001,2021-08-19_16h29.47.008,natb3,2021.2.3,MacIntel,333.3333333,611cd8c9e43bcb3eb8ccaf68,611e07ecdcc96256ae8d5b80,611e77bdfa48dd33da987a6b,0.422,
,,,,space,,0,240,240,119,1,Y, , , , ,space,2500,2.5,611cd8c9e43bcb3eb8ccaf68,001,2021-08-19_16h29.47.008,natb3,2021.2.3,MacIntel,333.3333333,611cd8c9e43bcb3eb8ccaf68,611e07ecdcc96256ae8d5b80,611e77bdfa48dd33da987a6b,0.473,
,,,,space,,0,241,241,181,1,E, , , , ,space,1500,1.5,611cd8c9e43bcb3eb8ccaf68,001,2021-08-19_16h29.47.008,natb3,2021.2.3,MacIntel,333.3333333,611cd8c9e43bcb3eb8ccaf68,611e07ecdcc96256ae8d5b80,611e77bdfa48dd33da987a6b,0.531,
,,,,,,0,242,242,122,1,X,1, , ,8,,1500,1.5,611cd8c9e43bcb3eb8ccaf68,001,2021-08-19_16h29.47.008,natb3,2021.2.3,MacIntel,333.3333333,611cd8c9e43bcb3eb8ccaf68,611e07ecdcc96256ae8d5b80,611e77bdfa48dd33da987a6b,,
,,,,space,,0,243,243,193,1,S, , , , ,space,2500,2.5,611cd8c9e43bcb3eb8ccaf68,001,2021-08-19_16h29.47.008,natb3,2021.2.3,MacIntel,333.3333333,611cd8c9e43bcb3eb8ccaf68,611e07ecdcc96256ae8d5b80,611e77bdfa48dd33da987a6b,0.445,
,,,,space,,0,244,244,56,1,J, , , , ,space,1500,1.5,611cd8c9e43bcb3eb8ccaf68,001,2021-08-19_16h29.47.008,natb3,2021.2.3,MacIntel,333.3333333,611cd8c9e43bcb3eb8ccaf68,611e07ecdcc96256ae8d5b80,611e77bdfa48dd33da987a6b,0.448,
,,,,space,,0,245,245,231,1,I, , , , ,space,2500,2.5,611cd8c9e43bcb3eb8ccaf68,001,2021-08-19_16h29.47.008,natb3,2021.2.3,MacIntel,333.3333333,611cd8c9e43bcb3eb8ccaf68,611e07ecdcc96256ae8d5b80,611e77bdfa48dd33da987a6b,0.431,
,,,,space,,0,246,246,296,1,Y, , , , ,space,2500,2.5,611cd8c9e43bcb3eb8ccaf68,001,2021-08-19_16h29.47.008,natb3,2021.2.3,MacIntel,333.3333333,611cd8c9e43bcb3eb8ccaf68,611e07ecdcc96256ae8d5b80,611e77bdfa48dd33da987a6b,0.516,
,,,,space,,0,247,247,251,1,B, , , , ,space,1500,1.5,611cd8c9e43bcb3eb8ccaf68,001,2021-08-19_16h29.47.008,natb3,2021.2.3,MacIntel,333.3333333,611cd8c9e43bcb3eb8ccaf68,611e07ecdcc96256ae8d5b80,611e77bdfa48dd33da987a6b,0.565,
,,,,space,,0,248,248,151,1,Y, , , , ,space,2500,2.5,611cd8c9e43bcb3eb8ccaf68,001,2021-08-19_16h29.47.008,natb3,2021.2.3,MacIntel,333.3333333,611cd8c9e43bcb3eb8ccaf68,611e07ecdcc96256ae8d5b80,611e77bdfa48dd33da987a6b,0.513,
,,,,space,,0,249,249,14,1,S, , , , ,space,2500,2.5,611cd8c9e43bcb3eb8ccaf68,001,2021-08-19_16h29.47.008,natb3,2021.2.3,MacIntel,333.3333333,611cd8c9e43bcb3eb8ccaf68,611e07ecdcc96256ae8d5b80,611e77bdfa48dd33da987a6b,0.398,
,,,,space,,0,250,250,226,1,R, , , , ,space,2000,2,611cd8c9e43bcb3eb8ccaf68,001,2021-08-19_16h29.47.008,natb3,2021.2.3,MacIntel,333.3333333,611cd8c9e43bcb3eb8ccaf68,611e07ecdcc96256ae8d5b80,611e77bdfa48dd33da987a6b,0.747,
,,,,space,,0,251,251,134,1,J, , , , ,space,2000,2,611cd8c9e43bcb3eb8ccaf68,001,2021-08-19_16h29.47.008,natb3,2021.2.3,MacIntel,333.3333333,611cd8c9e43bcb3eb8ccaf68,611e07ecdcc96256ae8d5b80,611e77bdfa48dd33da987a6b,0.449,
,,,,space,,0,252,252,127,1,S, , , , ,space,2500,2.5,611cd8c9e43bcb3eb8ccaf68,001,2021-08-19_16h29.47.008,natb3,2021.2.3,MacIntel,333.3333333,611cd8c9e43bcb3eb8ccaf68,611e07ecdcc96256ae8d5b80,611e77bdfa48dd33da987a6b,0.439,
,,,,space,,0,253,253,250,1,V, , , , ,space,2000,2,611cd8c9e43bcb3eb8ccaf68,001,2021-08-19_16h29.47.008,natb3,2021.2.3,MacIntel,333.3333333,611cd8c9e43bcb3eb8ccaf68,611e07ecdcc96256ae8d5b80,611e77bdfa48dd33da987a6b,0.582,
,,,,space,,0,254,254,245,1,K, , , , ,space,2000,2,611cd8c9e43bcb3eb8ccaf68,001,2021-08-19_16h29.47.008,natb3,2021.2.3,MacIntel,333.3333333,611cd8c9e43bcb3eb8ccaf68,611e07ecdcc96256ae8d5b80,611e77bdfa48dd33da987a6b,0.385,
,,,,space,,0,255,255,222,1,O, , , , ,space,2000,2,611cd8c9e43bcb3eb8ccaf68,001,2021-08-19_16h29.47.008,natb3,2021.2.3,MacIntel,333.3333333,611cd8c9e43bcb3eb8ccaf68,611e07ecdcc96256ae8d5b80,611e77bdfa48dd33da987a6b,0.365,
,,,,space,,0,256,256,312,1,K, , , , ,space,2000,2,611cd8c9e43bcb3eb8ccaf68,001,2021-08-19_16h29.47.008,natb3,2021.2.3,MacIntel,333.3333333,611cd8c9e43bcb3eb8ccaf68,611e07ecdcc96256ae8d5b80,611e77bdfa48dd33da987a6b,0.397,
,,,,,,0,257,257,229,1,X,8, ,2,6,,2500,2.5,611cd8c9e43bcb3eb8ccaf68,001,2021-08-19_16h29.47.008,natb3,2021.2.3,MacIntel,333.3333333,611cd8c9e43bcb3eb8ccaf68,611e07ecdcc96256ae8d5b80,611e77bdfa48dd33da987a6b,,
,,,,,,0,258,258,218,1,X,1,3, ,8,,1500,1.5,611cd8c9e43bcb3eb8ccaf68,001,2021-08-19_16h29.47.008,natb3,2021.2.3,MacIntel,333.3333333,611cd8c9e43bcb3eb8ccaf68,611e07ecdcc96256ae8d5b80,611e77bdfa48dd33da987a6b,,
,,,,space,,0,259,259,256,1,Q, , , , ,space,2000,2,611cd8c9e43bcb3eb8ccaf68,001,2021-08-19_16h29.47.008,natb3,2021.2.3,MacIntel,333.3333333,611cd8c9e43bcb3eb8ccaf68,611e07ecdcc96256ae8d5b80,611e77bdfa48dd33da987a6b,0.829,
,,,,space,,0,260,260,289,1,Q, , , , ,space,2000,2,611cd8c9e43bcb3eb8ccaf68,001,2021-08-19_16h29.47.008,natb3,2021.2.3,MacIntel,333.3333333,611cd8c9e43bcb3eb8ccaf68,611e07ecdcc96256ae8d5b80,611e77bdfa48dd33da987a6b,0.541,
,,,,space,,0,261,261,24,1,L, , , , ,space,2500,2.5,611cd8c9e43bcb3eb8ccaf68,001,2021-08-19_16h29.47.008,natb3,2021.2.3,MacIntel,333.3333333,611cd8c9e43bcb3eb8ccaf68,611e07ecdcc96256ae8d5b80,611e77bdfa48dd33da987a6b,0.499,
,,,,space,,0,262,262,221,1,I, , , , ,space,2500,2.5,611cd8c9e43bcb3eb8ccaf68,001,2021-08-19_16h29.47.008,natb3,2021.2.3,MacIntel,333.3333333,611cd8c9e43bcb3eb8ccaf68,611e07ecdcc96256ae8d5b80,611e77bdfa48dd33da987a6b,0.599,
,,,,space,,0,263,263,201,1,K, , , , ,space,1500,1.5,611cd8c9e43bcb3eb8ccaf68,001,2021-08-19_16h29.47.008,natb3,2021.2.3,MacIntel,333.3333333,611cd8c9e43bcb3eb8ccaf68,611e07ecdcc96256ae8d5b80,611e77bdfa48dd33da987a6b,0.455,
,,,,,,0,264,264,145,1,X, , , , ,,2000,2,611cd8c9e43bcb3eb8ccaf68,001,2021-08-19_16h29.47.008,natb3,2021.2.3,MacIntel,333.3333333,611cd8c9e43bcb3eb8ccaf68,611e07ecdcc96256ae8d5b80,611e77bdfa48dd33da987a6b,,
,,,,space,,0,265,265,65,1,M, , , , ,space,1500,1.5,611cd8c9e43bcb3eb8ccaf68,001,2021-08-19_16h29.47.008,natb3,2021.2.3,MacIntel,333.3333333,611cd8c9e43bcb3eb8ccaf68,611e07ecdcc96256ae8d5b80,611e77bdfa48dd33da987a6b,0.568,
,,,,space,,0,266,266,161,1,F, , , , ,space,1500,1.5,611cd8c9e43bcb3eb8ccaf68,001,2021-08-19_16h29.47.008,natb3,2021.2.3,MacIntel,333.3333333,611cd8c9e43bcb3eb8ccaf68,611e07ecdcc96256ae8d5b80,611e77bdfa48dd33da987a6b,0.445,
,,,,,,0,267,267,313,1,X, , , , ,,2500,2.5,611cd8c9e43bcb3eb8ccaf68,001,2021-08-19_16h29.47.008,natb3,2021.2.3,MacIntel,333.3333333,611cd8c9e43bcb3eb8ccaf68,611e07ecdcc96256ae8d5b80,611e77bdfa48dd33da987a6b,,
,,,,,,0,268,268,282,1,X, , , , ,,2500,2.5,611cd8c9e43bcb3eb8ccaf68,001,2021-08-19_16h29.47.008,natb3,2021.2.3,MacIntel,333.3333333,611cd8c9e43bcb3eb8ccaf68,611e07ecdcc96256ae8d5b80,611e77bdfa48dd33da987a6b,,
,,,,space,,0,269,269,88,1,J, , , , ,space,2500,2.5,611cd8c9e43bcb3eb8ccaf68,001,2021-08-19_16h29.47.008,natb3,2021.2.3,MacIntel,333.3333333,611cd8c9e43bcb3eb8ccaf68,611e07ecdcc96256ae8d5b80,611e77bdfa48dd33da987a6b,0.619,
,,,,space,,0,270,270,50,1,D, , , , ,space,1500,1.5,611cd8c9e43bcb3eb8ccaf68,001,2021-08-19_16h29.47.008,natb3,2021.2.3,MacIntel,333.3333333,611cd8c9e43bcb3eb8ccaf68,611e07ecdcc96256ae8d5b80,611e77bdfa48dd33da987a6b,0.633,
,,,,space,,0,271,271,106,1,T, , , , ,space,1500,1.5,611cd8c9e43bcb3eb8ccaf68,001,2021-08-19_16h29.47.008,natb3,2021.2.3,MacIntel,333.3333333,611cd8c9e43bcb3eb8ccaf68,611e07ecdcc96256ae8d5b80,611e77bdfa48dd33da987a6b,0.515,
,,,,,,0,272,272,60,1,X,7,3,5, ,,1500,1.5,611cd8c9e43bcb3eb8ccaf68,001,2021-08-19_16h29.47.008,natb3,2021.2.3,MacIntel,333.3333333,611cd8c9e43bcb3eb8ccaf68,611e07ecdcc96256ae8d5b80,611e77bdfa48dd33da987a6b,,
,,,,space,,0,273,273,265,1,I, , , , ,space,2000,2,611cd8c9e43bcb3eb8ccaf68,001,2021-08-19_16h29.47.008,natb3,2021.2.3,MacIntel,333.3333333,611cd8c9e43bcb3eb8ccaf68,611e07ecdcc96256ae8d5b80,611e77bdfa48dd33da987a6b,0.662,
,,,,,,0,274,274,7,1,X, , , , ,,1500,1.5,611cd8c9e43bcb3eb8ccaf68,001,2021-08-19_16h29.47.008,natb3,2021.2.3,MacIntel,333.3333333,611cd8c9e43bcb3eb8ccaf68,611e07ecdcc96256ae8d5b80,611e77bdfa48dd33da987a6b,,
,,,,space,,0,275,275,223,1,Q, , , , ,space,2000,2,611cd8c9e43bcb3eb8ccaf68,001,2021-08-19_16h29.47.008,natb3,2021.2.3,MacIntel,333.3333333,611cd8c9e43bcb3eb8ccaf68,611e07ecdcc96256ae8d5b80,611e77bdfa48dd33da987a6b,0.53,
,,,,,,0,276,276,98,1,X, , , , ,,2500,2.5,611cd8c9e43bcb3eb8ccaf68,001,2021-08-19_16h29.47.008,natb3,2021.2.3,MacIntel,333.3333333,611cd8c9e43bcb3eb8ccaf68,611e07ecdcc96256ae8d5b80,611e77bdfa48dd33da987a6b,,
,,,,,,0,277,277,40,1,T, , , , ,space,1500,1.5,611cd8c9e43bcb3eb8ccaf68,001,2021-08-19_16h29.47.008,natb3,2021.2.3,MacIntel,333.3333333,611cd8c9e43bcb3eb8ccaf68,611e07ecdcc96256ae8d5b80,611e77bdfa48dd33da987a6b,,
,,,,,,0,278,278,141,1,X,1, ,4,6,,1500,1.5,611cd8c9e43bcb3eb8ccaf68,001,2021-08-19_16h29.47.008,natb3,2021.2.3,MacIntel,333.3333333,611cd8c9e43bcb3eb8ccaf68,611e07ecdcc96256ae8d5b80,611e77bdfa48dd33da987a6b,,
,,,,space,,0,279,279,174,1,B, , , , ,space,2500,2.5,611cd8c9e43bcb3eb8ccaf68,001,2021-08-19_16h29.47.008,natb3,2021.2.3,MacIntel,333.3333333,611cd8c9e43bcb3eb8ccaf68,611e07ecdcc96256ae8d5b80,611e77bdfa48dd33da987a6b,0.525,
,,,,space,,0,280,280,17,1,F, , , , ,space,2500,2.5,611cd8c9e43bcb3eb8ccaf68,001,2021-08-19_16h29.47.008,natb3,2021.2.3,MacIntel,333.3333333,611cd8c9e43bcb3eb8ccaf68,611e07ecdcc96256ae8d5b80,611e77bdfa48dd33da987a6b,0.621,
,,,,space,,0,281,281,314,1,L, , , , ,space,1500,1.5,611cd8c9e43bcb3eb8ccaf68,001,2021-08-19_16h29.47.008,natb3,2021.2.3,MacIntel,333.3333333,611cd8c9e43bcb3eb8ccaf68,611e07ecdcc96256ae8d5b80,611e77bdfa48dd33da987a6b,0.77,
,,,,,,0,282,282,248,1,X, ,1,5, ,,1500,1.5,611cd8c9e43bcb3eb8ccaf68,001,2021-08-19_16h29.47.008,natb3,2021.2.3,MacIntel,333.3333333,611cd8c9e43bcb3eb8ccaf68,611e07ecdcc96256ae8d5b80,611e77bdfa48dd33da987a6b,,
,,,,space,,0,283,283,204,1,Z, , , , ,space,2000,2,611cd8c9e43bcb3eb8ccaf68,001,2021-08-19_16h29.47.008,natb3,2021.2.3,MacIntel,333.3333333,611cd8c9e43bcb3eb8ccaf68,611e07ecdcc96256ae8d5b80,611e77bdfa48dd33da987a6b,0.628,
,,,,,,0,284,284,239,1,X, , , , ,,2000,2,611cd8c9e43bcb3eb8ccaf68,001,2021-08-19_16h29.47.008,natb3,2021.2.3,MacIntel,333.3333333,611cd8c9e43bcb3eb8ccaf68,611e07ecdcc96256ae8d5b80,611e77bdfa48dd33da987a6b,,
,,,,space,,0,285,285,123,1,O, , , , ,space,1500,1.5,611cd8c9e43bcb3eb8ccaf68,001,2021-08-19_16h29.47.008,natb3,2021.2.3,MacIntel,333.3333333,611cd8c9e43bcb3eb8ccaf68,611e07ecdcc96256ae8d5b80,611e77bdfa48dd33da987a6b,0.479,
,,,,space,,0,286,286,111,1,O, , , , ,space,2000,2,611cd8c9e43bcb3eb8ccaf68,001,2021-08-19_16h29.47.008,natb3,2021.2.3,MacIntel,333.3333333,611cd8c9e43bcb3eb8ccaf68,611e07ecdcc96256ae8d5b80,611e77bdfa48dd33da987a6b,0.736,
,,,,space,,0,287,287,303,1,A, , , , ,space,2000,2,611cd8c9e43bcb3eb8ccaf68,001,2021-08-19_16h29.47.008,natb3,2021.2.3,MacIntel,333.3333333,611cd8c9e43bcb3eb8ccaf68,611e07ecdcc96256ae8d5b80,611e77bdfa48dd33da987a6b,0.553,
,,,,space,,0,288,288,283,1,C, , , , ,space,1500,1.5,611cd8c9e43bcb3eb8ccaf68,001,2021-08-19_16h29.47.008,natb3,2021.2.3,MacIntel,333.3333333,611cd8c9e43bcb3eb8ccaf68,611e07ecdcc96256ae8d5b80,611e77bdfa48dd33da987a6b,0.42,
,,,,space,,0,289,289,105,1,R, , , , ,space,2500,2.5,611cd8c9e43bcb3eb8ccaf68,001,2021-08-19_16h29.47.008,natb3,2021.2.3,MacIntel,333.3333333,611cd8c9e43bcb3eb8ccaf68,611e07ecdcc96256ae8d5b80,611e77bdfa48dd33da987a6b,0.445,
,,,,space,,0,290,290,76,1,I, , , , ,space,2000,2,611cd8c9e43bcb3eb8ccaf68,001,2021-08-19_16h29.47.008,natb3,2021.2.3,MacIntel,333.3333333,611cd8c9e43bcb3eb8ccaf68,611e07ecdcc96256ae8d5b80,611e77bdfa48dd33da987a6b,0.555,
,,,,space,,0,291,291,44,1,I, , , , ,space,2500,2.5,611cd8c9e43bcb3eb8ccaf68,001,2021-08-19_16h29.47.008,natb3,2021.2.3,MacIntel,333.3333333,611cd8c9e43bcb3eb8ccaf68,611e07ecdcc96256ae8d5b80,611e77bdfa48dd33da987a6b,0.509,
,,,,,,0,292,292,66,1,X, ,4,7, ,,2000,2,611cd8c9e43bcb3eb8ccaf68,001,2021-08-19_16h29.47.008,natb3,2021.2.3,MacIntel,333.3333333,611cd8c9e43bcb3eb8ccaf68,611e07ecdcc96256ae8d5b80,611e77bdfa48dd33da987a6b,,
,,,,space,,0,293,293,73,1,Y, , , , ,space,2000,2,611cd8c9e43bcb3eb8ccaf68,001,2021-08-19_16h29.47.008,natb3,2021.2.3,MacIntel,333.3333333,611cd8c9e43bcb3eb8ccaf68,611e07ecdcc96256ae8d5b80,611e77bdfa48dd33da987a6b,0.529,
,,,,space,,0,294,294,67,1,Q, , , , ,space,2000,2,611cd8c9e43bcb3eb8ccaf68,001,2021-08-19_16h29.47.008,natb3,2021.2.3,MacIntel,333.3333333,611cd8c9e43bcb3eb8ccaf68,611e07ecdcc96256ae8d5b80,611e77bdfa48dd33da987a6b,0.569,
,,,,space,,0,295,295,130,1,F, , , , ,space,2000,2,611cd8c9e43bcb3eb8ccaf68,001,2021-08-19_16h29.47.008,natb3,2021.2.3,MacIntel,333.3333333,611cd8c9e43bcb3eb8ccaf68,611e07ecdcc96256ae8d5b80,611e77bdfa48dd33da987a6b,0.686,
,,,,,,0,296,296,78,1,X, , , , ,,2000,2,611cd8c9e43bcb3eb8ccaf68,001,2021-08-19_16h29.47.008,natb3,2021.2.3,MacIntel,333.3333333,611cd8c9e43bcb3eb8ccaf68,611e07ecdcc96256ae8d5b80,611e77bdfa48dd33da987a6b,,
,,,,space,,0,297,297,81,1,S, , , , ,space,2000,2,611cd8c9e43bcb3eb8ccaf68,001,2021-08-19_16h29.47.008,natb3,2021.2.3,MacIntel,333.3333333,611cd8c9e43bcb3eb8ccaf68,611e07ecdcc96256ae8d5b80,611e77bdfa48dd33da987a6b,0.59,
,,,,,,0,298,298,302,1,X, , , , ,,2000,2,611cd8c9e43bcb3eb8ccaf68,001,2021-08-19_16h29.47.008,natb3,2021.2.3,MacIntel,333.3333333,611cd8c9e43bcb3eb8ccaf68,611e07ecdcc96256ae8d5b80,611e77bdfa48dd33da987a6b,,
,,,,,,0,299,299,118,1,X, , , , ,,2000,2,611cd8c9e43bcb3eb8ccaf68,001,2021-08-19_16h29.47.008,natb3,2021.2.3,MacIntel,333.3333333,611cd8c9e43bcb3eb8ccaf68,611e07ecdcc96256ae8d5b80,611e77bdfa48dd33da987a6b,,
,,,,space,,0,300,300,178,1,Q, , , , ,space,1500,1.5,611cd8c9e43bcb3eb8ccaf68,001,2021-08-19_16h29.47.008,natb3,2021.2.3,MacIntel,333.3333333,611cd8c9e43bcb3eb8ccaf68,611e07ecdcc96256ae8d5b80,611e77bdfa48dd33da987a6b,0.481,
,,,,space,,0,301,301,25,1,Z, , , , ,space,2500,2.5,611cd8c9e43bcb3eb8ccaf68,001,2021-08-19_16h29.47.008,natb3,2021.2.3,MacIntel,333.3333333,611cd8c9e43bcb3eb8ccaf68,611e07ecdcc96256ae8d5b80,611e77bdfa48dd33da987a6b,0.464,
,,,,space,,0,302,302,21,1,J, , , , ,space,1500,1.5,611cd8c9e43bcb3eb8ccaf68,001,2021-08-19_16h29.47.008,natb3,2021.2.3,MacIntel,333.3333333,611cd8c9e43bcb3eb8ccaf68,611e07ecdcc96256ae8d5b80,611e77bdfa48dd33da987a6b,0.883,
,,,,,,0,303,303,320,1,B, , , , ,space,1500,1.5,611cd8c9e43bcb3eb8ccaf68,001,2021-08-19_16h29.47.008,natb3,2021.2.3,MacIntel,333.3333333,611cd8c9e43bcb3eb8ccaf68,611e07ecdcc96256ae8d5b80,611e77bdfa48dd33da987a6b,,
,,,,space,,0,304,304,22,1,K, , , , ,space,2000,2,611cd8c9e43bcb3eb8ccaf68,001,2021-08-19_16h29.47.008,natb3,2021.2.3,MacIntel,333.3333333,611cd8c9e43bcb3eb8ccaf68,611e07ecdcc96256ae8d5b80,611e77bdfa48dd33da987a6b,0.438,
,,,,,,0,305,305,295,1,X,8,7,5, ,,2500,2.5,611cd8c9e43bcb3eb8ccaf68,001,2021-08-19_16h29.47.008,natb3,2021.2.3,MacIntel,333.3333333,611cd8c9e43bcb3eb8ccaf68,611e07ecdcc96256ae8d5b80,611e77bdfa48dd33da987a6b,,
,,,,,,0,306,306,153,1,X,4,7, ,6,,2000,2,611cd8c9e43bcb3eb8ccaf68,001,2021-08-19_16h29.47.008,natb3,2021.2.3,MacIntel,333.3333333,611cd8c9e43bcb3eb8ccaf68,611e07ecdcc96256ae8d5b80,611e77bdfa48dd33da987a6b,,
,,,,space,,0,307,307,280,1,L, , , , ,space,1500,1.5,611cd8c9e43bcb3eb8ccaf68,001,2021-08-19_16h29.47.008,natb3,2021.2.3,MacIntel,333.3333333,611cd8c9e43bcb3eb8ccaf68,611e07ecdcc96256ae8d5b80,611e77bdfa48dd33da987a6b,0.66,
,,,,space,,0,308,308,58,1,L, , , , ,space,2000,2,611cd8c9e43bcb3eb8ccaf68,001,2021-08-19_16h29.47.008,natb3,2021.2.3,MacIntel,333.3333333,611cd8c9e43bcb3eb8ccaf68,611e07ecdcc96256ae8d5b80,611e77bdfa48dd33da987a6b,0.499,
,,,,,,0,309,309,203,1,X, , , , ,,2500,2.5,611cd8c9e43bcb3eb8ccaf68,001,2021-08-19_16h29.47.008,natb3,2021.2.3,MacIntel,333.3333333,611cd8c9e43bcb3eb8ccaf68,611e07ecdcc96256ae8d5b80,611e77bdfa48dd33da987a6b,,
,,,,space,,0,310,310,215,1,E, , , , ,space,2500,2.5,611cd8c9e43bcb3eb8ccaf68,001,2021-08-19_16h29.47.008,natb3,2021.2.3,MacIntel,333.3333333,611cd8c9e43bcb3eb8ccaf68,611e07ecdcc96256ae8d5b80,611e77bdfa48dd33da987a6b,0.381,
,,,,space,,0,311,311,86,1,G, , , , ,space,2000,2,611cd8c9e43bcb3eb8ccaf68,001,2021-08-19_16h29.47.008,natb3,2021.2.3,MacIntel,333.3333333,611cd8c9e43bcb3eb8ccaf68,611e07ecdcc96256ae8d5b80,611e77bdfa48dd33da987a6b,0.439,
,,,,space,,0,312,312,274,1,F, , , , ,space,2000,2,611cd8c9e43bcb3eb8ccaf68,001,2021-08-19_16h29.47.008,natb3,2021.2.3,MacIntel,333.3333333,611cd8c9e43bcb3eb8ccaf68,611e07ecdcc96256ae8d5b80,611e77bdfa48dd33da987a6b,0.398,
,,,,space,,0,313,313,72,1,T, , , , ,space,1500,1.5,611cd8c9e43bcb3eb8ccaf68,001,2021-08-19_16h29.47.008,natb3,2021.2.3,MacIntel,333.3333333,611cd8c9e43bcb3eb8ccaf68,611e07ecdcc96256ae8d5b80,611e77bdfa48dd33da987a6b,0.603,
,,,,space,,0,314,314,20,1,H, , , , ,space,1500,1.5,611cd8c9e43bcb3eb8ccaf68,001,2021-08-19_16h29.47.008,natb3,2021.2.3,MacIntel,333.3333333,611cd8c9e43bcb3eb8ccaf68,611e07ecdcc96256ae8d5b80,611e77bdfa48dd33da987a6b,0.366,
,,,,,,0,315,315,133,1,X, ,4, ,6,,2500,2.5,611cd8c9e43bcb3eb8ccaf68,001,2021-08-19_16h29.47.008,natb3,2021.2.3,MacIntel,333.3333333,611cd8c9e43bcb3eb8ccaf68,611e07ecdcc96256ae8d5b80,611e77bdfa48dd33da987a6b,,
,,,,space,,0,316,316,190,1,P, , , , ,space,2000,2,611cd8c9e43bcb3eb8ccaf68,001,2021-08-19_16h29.47.008,natb3,2021.2.3,MacIntel,333.3333333,611cd8c9e43bcb3eb8ccaf68,611e07ecdcc96256ae8d5b80,611e77bdfa48dd33da987a6b,0.485,
,,,,,,0,317,317,74,1,X, ,4,3,2,,1500,1.5,611cd8c9e43bcb3eb8ccaf68,001,2021-08-19_16h29.47.008,natb3,2021.2.3,MacIntel,333.3333333,611cd8c9e43bcb3eb8ccaf68,611e07ecdcc96256ae8d5b80,611e77bdfa48dd33da987a6b,,
,,,,,,0,318,318,102,1,X, ,6, , ,,1500,1.5,611cd8c9e43bcb3eb8ccaf68,001,2021-08-19_16h29.47.008,natb3,2021.2.3,MacIntel,333.3333333,611cd8c9e43bcb3eb8ccaf68,611e07ecdcc96256ae8d5b80,611e77bdfa48dd33da987a6b,,
,,,,,,0,319,319,96,1,X, , , , ,,1500,1.5,611cd8c9e43bcb3eb8ccaf68,001,2021-08-19_16h29.47.008,natb3,2021.2.3,MacIntel,333.3333333,611cd8c9e43bcb3eb8ccaf68,611e07ecdcc96256ae8d5b80,611e77bdfa48dd33da987a6b,,
,,,,space,,0,320,320,62,1,V, , , , ,space,1500,1.5,611cd8c9e43bcb3eb8ccaf68,001,2021-08-19_16h29.47.008,natb3,2021.2.3,MacIntel,333.3333333,611cd8c9e43bcb3eb8ccaf68,611e07ecdcc96256ae8d5b80,611e77bdfa48dd33da987a6b,0.547,
,,,,,,0,321,321,150,1,T, , , , ,space,2500,2.5,611cd8c9e43bcb3eb8ccaf68,001,2021-08-19_16h29.47.008,natb3,2021.2.3,MacIntel,333.3333333,611cd8c9e43bcb3eb8ccaf68,611e07ecdcc96256ae8d5b80,611e77bdfa48dd33da987a6b,,
,,,,space,,0,322,322,173,1,V, , , , ,space,1500,1.5,611cd8c9e43bcb3eb8ccaf68,001,2021-08-19_16h29.47.008,natb3,2021.2.3,MacIntel,333.3333333,611cd8c9e43bcb3eb8ccaf68,611e07ecdcc96256ae8d5b80,611e77bdfa48dd33da987a6b,0.548,
,,,,space,,0,323,323,112,1,Q, , , , ,space,2500,2.5,611cd8c9e43bcb3eb8ccaf68,001,2021-08-19_16h29.47.008,natb3,2021.2.3,MacIntel,333.3333333,611cd8c9e43bcb3eb8ccaf68,611e07ecdcc96256ae8d5b80,611e77bdfa48dd33da987a6b,0.479,
,,,,space,,0,324,324,176,1,N, , , , ,space,1500,1.5,611cd8c9e43bcb3eb8ccaf68,001,2021-08-19_16h29.47.008,natb3,2021.2.3,MacIntel,333.3333333,611cd8c9e43bcb3eb8ccaf68,611e07ecdcc96256ae8d5b80,611e77bdfa48dd33da987a6b,0.653,
,,,,space,,0,325,325,52,1,F, , , , ,space,1500,1.5,611cd8c9e43bcb3eb8ccaf68,001,2021-08-19_16h29.47.008,natb3,2021.2.3,MacIntel,333.3333333,611cd8c9e43bcb3eb8ccaf68,611e07ecdcc96256ae8d5b80,611e77bdfa48dd33da987a6b,0.447,
,,,,space,,0,326,326,3,1,R, , , , ,space,2000,2,611cd8c9e43bcb3eb8ccaf68,001,2021-08-19_16h29.47.008,natb3,2021.2.3,MacIntel,333.3333333,611cd8c9e43bcb3eb8ccaf68,611e07ecdcc96256ae8d5b80,611e77bdfa48dd33da987a6b,0.448,
,,,,space,,0,327,327,142,1,N, , , , ,space,2500,2.5,611cd8c9e43bcb3eb8ccaf68,001,2021-08-19_16h29.47.008,natb3,2021.2.3,MacIntel,333.3333333,611cd8c9e43bcb3eb8ccaf68,611e07ecdcc96256ae8d5b80,611e77bdfa48dd33da987a6b,0.365,
,,,,space,,0,328,328,49,1,S, , , , ,space,1500,1.5,611cd8c9e43bcb3eb8ccaf68,001,2021-08-19_16h29.47.008,natb3,2021.2.3,MacIntel,333.3333333,611cd8c9e43bcb3eb8ccaf68,611e07ecdcc96256ae8d5b80,611e77bdfa48dd33da987a6b,0.43,
,,,,space,,0,329,329,38,1,R, , , , ,space,2500,2.5,611cd8c9e43bcb3eb8ccaf68,001,2021-08-19_16h29.47.008,natb3,2021.2.3,MacIntel,333.3333333,611cd8c9e43bcb3eb8ccaf68,611e07ecdcc96256ae8d5b80,611e77bdfa48dd33da987a6b,0.415,
,,,,space,,0,330,330,240,1,F, , , , ,space,2500,2.5,611cd8c9e43bcb3eb8ccaf68,001,2021-08-19_16h29.47.008,natb3,2021.2.3,MacIntel,333.3333333,611cd8c9e43bcb3eb8ccaf68,611e07ecdcc96256ae8d5b80,611e77bdfa48dd33da987a6b,0.547,
,,,,,,0,331,331,162,1,X,1,6, ,2,,1500,1.5,611cd8c9e43bcb3eb8ccaf68,001,2021-08-19_16h29.47.008,natb3,2021.2.3,MacIntel,333.3333333,611cd8c9e43bcb3eb8ccaf68,611e07ecdcc96256ae8d5b80,611e77bdfa48dd33da987a6b,,
,,,,space,,0,332,332,109,1,U, , , , ,space,1500,1.5,611cd8c9e43bcb3eb8ccaf68,001,2021-08-19_16h29.47.008,natb3,2021.2.3,MacIntel,333.3333333,611cd8c9e43bcb3eb8ccaf68,611e07ecdcc96256ae8d5b80,611e77bdfa48dd33da987a6b,0.561,
,,,,,,0,333,333,77,1,O, , , , ,space,2000,2,611cd8c9e43bcb3eb8ccaf68,001,2021-08-19_16h29.47.008,natb3,2021.2.3,MacIntel,333.3333333,611cd8c9e43bcb3eb8ccaf68,611e07ecdcc96256ae8d5b80,611e77bdfa48dd33da987a6b,,
,,,,,,0,334,334,82,1,X,4,6,1,7,,2000,2,611cd8c9e43bcb3eb8ccaf68,001,2021-08-19_16h29.47.008,natb3,2021.2.3,MacIntel,333.3333333,611cd8c9e43bcb3eb8ccaf68,611e07ecdcc96256ae8d5b80,611e77bdfa48dd33da987a6b,,
,,,,space,,0,335,335,307,1,F, , , , ,space,2500,2.5,611cd8c9e43bcb3eb8ccaf68,001,2021-08-19_16h29.47.008,natb3,2021.2.3,MacIntel,333.3333333,611cd8c9e43bcb3eb8ccaf68,611e07ecdcc96256ae8d5b80,611e77bdfa48dd33da987a6b,0.459,
