key_resp_2.keys,key_resp_2.rt,key_resp_3.keys,key_resp_3.rt,key_resp.keys,key_resp_4.keys,trials.thisRepN,trials.thisTrialN,trials.thisN,trials.thisIndex,trials.ran,stimulus,distractor1,distractor2,distractor3,distractor4,CorrAns,isi_duration,isi_dur_in_seconds,participant,session,date,expName,psychopyVersion,OS,frameRate,PROLIFIC_PID,STUDY_ID,SESSION_ID,key_resp.rt,key_resp_4.rt
return,14.7298,space,29.5566,,,0,0,0,186,1,U, , , , ,space,2500,2.5,611c1fa8d50a2ad182a9d2f7,001,2021-08-19_16h26.49.574,natb3,2021.2.3,Win32,59.97720866,611c1fa8d50a2ad182a9d2f7,611e07ecdcc96256ae8d5b80,611e7812d0208f92fcd21771,,
,,,,space,,0,1,1,81,1,S, , , , ,space,2000,2,611c1fa8d50a2ad182a9d2f7,001,2021-08-19_16h26.49.574,natb3,2021.2.3,Win32,59.97720866,611c1fa8d50a2ad182a9d2f7,611e07ecdcc96256ae8d5b80,611e7812d0208f92fcd21771,0.3167,
,,,,space,,0,2,2,192,1,A, , , , ,space,2000,2,611c1fa8d50a2ad182a9d2f7,001,2021-08-19_16h26.49.574,natb3,2021.2.3,Win32,59.97720866,611c1fa8d50a2ad182a9d2f7,611e07ecdcc96256ae8d5b80,611e7812d0208f92fcd21771,0.2734,
,,,,space,,0,3,3,198,1,H, , , , ,space,2500,2.5,611c1fa8d50a2ad182a9d2f7,001,2021-08-19_16h26.49.574,natb3,2021.2.3,Win32,59.97720866,611c1fa8d50a2ad182a9d2f7,611e07ecdcc96256ae8d5b80,611e7812d0208f92fcd21771,0.3342,
,,,,space,,0,4,4,133,1,X, ,4, ,6,,2500,2.5,611c1fa8d50a2ad182a9d2f7,001,2021-08-19_16h26.49.574,natb3,2021.2.3,Win32,59.97720866,611c1fa8d50a2ad182a9d2f7,611e07ecdcc96256ae8d5b80,611e7812d0208f92fcd21771,0.2342,
,,,,space,,0,5,5,36,1,W, , , , ,space,2000,2,611c1fa8d50a2ad182a9d2f7,001,2021-08-19_16h26.49.574,natb3,2021.2.3,Win32,59.97720866,611c1fa8d50a2ad182a9d2f7,611e07ecdcc96256ae8d5b80,611e7812d0208f92fcd21771,0.5515,
,,,,,,0,6,6,282,1,X, , , , ,,2500,2.5,611c1fa8d50a2ad182a9d2f7,001,2021-08-19_16h26.49.574,natb3,2021.2.3,Win32,59.97720866,611c1fa8d50a2ad182a9d2f7,611e07ecdcc96256ae8d5b80,611e7812d0208f92fcd21771,,
,,,,space,,0,7,7,114,1,E, , , , ,space,2000,2,611c1fa8d50a2ad182a9d2f7,001,2021-08-19_16h26.49.574,natb3,2021.2.3,Win32,59.97720866,611c1fa8d50a2ad182a9d2f7,611e07ecdcc96256ae8d5b80,611e7812d0208f92fcd21771,0.4898,
,,,,space,,0,8,8,208,1,B, , , , ,space,1500,1.5,611c1fa8d50a2ad182a9d2f7,001,2021-08-19_16h26.49.574,natb3,2021.2.3,Win32,59.97720866,611c1fa8d50a2ad182a9d2f7,611e07ecdcc96256ae8d5b80,611e7812d0208f92fcd21771,0.4185,
,,,,space,,0,9,9,154,1,I, , , , ,space,2500,2.5,611c1fa8d50a2ad182a9d2f7,001,2021-08-19_16h26.49.574,natb3,2021.2.3,Win32,59.97720866,611c1fa8d50a2ad182a9d2f7,611e07ecdcc96256ae8d5b80,611e7812d0208f92fcd21771,0.6677,
,,,,space,,0,10,10,314,1,L, , , , ,space,1500,1.5,611c1fa8d50a2ad182a9d2f7,001,2021-08-19_16h26.49.574,natb3,2021.2.3,Win32,59.97720866,611c1fa8d50a2ad182a9d2f7,611e07ecdcc96256ae8d5b80,611e7812d0208f92fcd21771,0.8342,
,,,,,,0,11,11,259,1,X,8, , ,3,,2500,2.5,611c1fa8d50a2ad182a9d2f7,001,2021-08-19_16h26.49.574,natb3,2021.2.3,Win32,59.97720866,611c1fa8d50a2ad182a9d2f7,611e07ecdcc96256ae8d5b80,611e7812d0208f92fcd21771,,
,,,,,,0,12,12,82,1,X,4,6,1,7,,2000,2,611c1fa8d50a2ad182a9d2f7,001,2021-08-19_16h26.49.574,natb3,2021.2.3,Win32,59.97720866,611c1fa8d50a2ad182a9d2f7,611e07ecdcc96256ae8d5b80,611e7812d0208f92fcd21771,,
,,,,space,,0,13,13,47,1,P, , , , ,space,2000,2,611c1fa8d50a2ad182a9d2f7,001,2021-08-19_16h26.49.574,natb3,2021.2.3,Win32,59.97720866,611c1fa8d50a2ad182a9d2f7,611e07ecdcc96256ae8d5b80,611e7812d0208f92fcd21771,0.6357,
,,,,space,,0,14,14,272,1,D, , , , ,space,2000,2,611c1fa8d50a2ad182a9d2f7,001,2021-08-19_16h26.49.574,natb3,2021.2.3,Win32,59.97720866,611c1fa8d50a2ad182a9d2f7,611e07ecdcc96256ae8d5b80,611e7812d0208f92fcd21771,0.4559,
,,,,space,,0,15,15,19,1,G, , , , ,space,1500,1.5,611c1fa8d50a2ad182a9d2f7,001,2021-08-19_16h26.49.574,natb3,2021.2.3,Win32,59.97720866,611c1fa8d50a2ad182a9d2f7,611e07ecdcc96256ae8d5b80,611e7812d0208f92fcd21771,0.4219,
,,,,,,0,16,16,66,1,X, ,4,7, ,,2000,2,611c1fa8d50a2ad182a9d2f7,001,2021-08-19_16h26.49.574,natb3,2021.2.3,Win32,59.97720866,611c1fa8d50a2ad182a9d2f7,611e07ecdcc96256ae8d5b80,611e7812d0208f92fcd21771,,
,,,,space,,0,17,17,247,1,Z, , , , ,space,1500,1.5,611c1fa8d50a2ad182a9d2f7,001,2021-08-19_16h26.49.574,natb3,2021.2.3,Win32,59.97720866,611c1fa8d50a2ad182a9d2f7,611e07ecdcc96256ae8d5b80,611e7812d0208f92fcd21771,0.4174,
,,,,space,,0,18,18,100,1,M, , , , ,space,2000,2,611c1fa8d50a2ad182a9d2f7,001,2021-08-19_16h26.49.574,natb3,2021.2.3,Win32,59.97720866,611c1fa8d50a2ad182a9d2f7,611e07ecdcc96256ae8d5b80,611e7812d0208f92fcd21771,0.326,
,,,,space,,0,19,19,242,1,H, , , , ,space,2500,2.5,611c1fa8d50a2ad182a9d2f7,001,2021-08-19_16h26.49.574,natb3,2021.2.3,Win32,59.97720866,611c1fa8d50a2ad182a9d2f7,611e07ecdcc96256ae8d5b80,611e7812d0208f92fcd21771,0.5343,
,,,,space,,0,20,20,89,1,X,3, , , ,,2000,2,611c1fa8d50a2ad182a9d2f7,001,2021-08-19_16h26.49.574,natb3,2021.2.3,Win32,59.97720866,611c1fa8d50a2ad182a9d2f7,611e07ecdcc96256ae8d5b80,611e7812d0208f92fcd21771,0.4079,
,,,,space,,0,21,21,312,1,K, , , , ,space,2000,2,611c1fa8d50a2ad182a9d2f7,001,2021-08-19_16h26.49.574,natb3,2021.2.3,Win32,59.97720866,611c1fa8d50a2ad182a9d2f7,611e07ecdcc96256ae8d5b80,611e7812d0208f92fcd21771,0.5671,
,,,,,,0,22,22,329,1,X,3,4, ,2,,2500,2.5,611c1fa8d50a2ad182a9d2f7,001,2021-08-19_16h26.49.574,natb3,2021.2.3,Win32,59.97720866,611c1fa8d50a2ad182a9d2f7,611e07ecdcc96256ae8d5b80,611e7812d0208f92fcd21771,,
,,,,space,,0,23,23,332,1,U, , , , ,space,2000,2,611c1fa8d50a2ad182a9d2f7,001,2021-08-19_16h26.49.574,natb3,2021.2.3,Win32,59.97720866,611c1fa8d50a2ad182a9d2f7,611e07ecdcc96256ae8d5b80,611e7812d0208f92fcd21771,0.6174,
,,,,space,,0,24,24,77,1,O, , , , ,space,2000,2,611c1fa8d50a2ad182a9d2f7,001,2021-08-19_16h26.49.574,natb3,2021.2.3,Win32,59.97720866,611c1fa8d50a2ad182a9d2f7,611e07ecdcc96256ae8d5b80,611e7812d0208f92fcd21771,0.4942,
,,,,space,,0,25,25,134,1,J, , , , ,space,2000,2,611c1fa8d50a2ad182a9d2f7,001,2021-08-19_16h26.49.574,natb3,2021.2.3,Win32,59.97720866,611c1fa8d50a2ad182a9d2f7,611e07ecdcc96256ae8d5b80,611e7812d0208f92fcd21771,0.7012,
,,,,space,,0,26,26,201,1,K, , , , ,space,1500,1.5,611c1fa8d50a2ad182a9d2f7,001,2021-08-19_16h26.49.574,natb3,2021.2.3,Win32,59.97720866,611c1fa8d50a2ad182a9d2f7,611e07ecdcc96256ae8d5b80,611e7812d0208f92fcd21771,0.4752,
,,,,,,0,27,27,175,1,X,7, ,4,2,,1500,1.5,611c1fa8d50a2ad182a9d2f7,001,2021-08-19_16h26.49.574,natb3,2021.2.3,Win32,59.97720866,611c1fa8d50a2ad182a9d2f7,611e07ecdcc96256ae8d5b80,611e7812d0208f92fcd21771,,
,,,,,,0,28,28,231,1,I, , , , ,space,2500,2.5,611c1fa8d50a2ad182a9d2f7,001,2021-08-19_16h26.49.574,natb3,2021.2.3,Win32,59.97720866,611c1fa8d50a2ad182a9d2f7,611e07ecdcc96256ae8d5b80,611e7812d0208f92fcd21771,,
,,,,space,,0,29,29,14,1,S, , , , ,space,2500,2.5,611c1fa8d50a2ad182a9d2f7,001,2021-08-19_16h26.49.574,natb3,2021.2.3,Win32,59.97720866,611c1fa8d50a2ad182a9d2f7,611e07ecdcc96256ae8d5b80,611e7812d0208f92fcd21771,0.461,
,,,,space,,0,30,30,245,1,K, , , , ,space,2000,2,611c1fa8d50a2ad182a9d2f7,001,2021-08-19_16h26.49.574,natb3,2021.2.3,Win32,59.97720866,611c1fa8d50a2ad182a9d2f7,611e07ecdcc96256ae8d5b80,611e7812d0208f92fcd21771,0.5498,
,,,,space,,0,31,31,30,1,N, , , , ,space,2500,2.5,611c1fa8d50a2ad182a9d2f7,001,2021-08-19_16h26.49.574,natb3,2021.2.3,Win32,59.97720866,611c1fa8d50a2ad182a9d2f7,611e07ecdcc96256ae8d5b80,611e7812d0208f92fcd21771,0.5722,
,,,,space,,0,32,32,135,1,K, , , , ,space,1500,1.5,611c1fa8d50a2ad182a9d2f7,001,2021-08-19_16h26.49.574,natb3,2021.2.3,Win32,59.97720866,611c1fa8d50a2ad182a9d2f7,611e07ecdcc96256ae8d5b80,611e7812d0208f92fcd21771,0.5223,
,,,,space,,0,33,33,255,1,X, , , , ,,1500,1.5,611c1fa8d50a2ad182a9d2f7,001,2021-08-19_16h26.49.574,natb3,2021.2.3,Win32,59.97720866,611c1fa8d50a2ad182a9d2f7,611e07ecdcc96256ae8d5b80,611e7812d0208f92fcd21771,0.392,
,,,,space,,0,34,34,257,1,W, , , , ,space,2000,2,611c1fa8d50a2ad182a9d2f7,001,2021-08-19_16h26.49.574,natb3,2021.2.3,Win32,59.97720866,611c1fa8d50a2ad182a9d2f7,611e07ecdcc96256ae8d5b80,611e7812d0208f92fcd21771,0.2607,
,,,,,,0,35,35,158,1,X, , , , ,,1500,1.5,611c1fa8d50a2ad182a9d2f7,001,2021-08-19_16h26.49.574,natb3,2021.2.3,Win32,59.97720866,611c1fa8d50a2ad182a9d2f7,611e07ecdcc96256ae8d5b80,611e7812d0208f92fcd21771,,
,,,,space,,0,36,36,202,1,L, , , , ,space,2500,2.5,611c1fa8d50a2ad182a9d2f7,001,2021-08-19_16h26.49.574,natb3,2021.2.3,Win32,59.97720866,611c1fa8d50a2ad182a9d2f7,611e07ecdcc96256ae8d5b80,611e7812d0208f92fcd21771,0.3178,
,,,,space,,0,37,37,253,1,N, , , , ,space,2500,2.5,611c1fa8d50a2ad182a9d2f7,001,2021-08-19_16h26.49.574,natb3,2021.2.3,Win32,59.97720866,611c1fa8d50a2ad182a9d2f7,611e07ecdcc96256ae8d5b80,611e7812d0208f92fcd21771,0.2566,
,,,,,,0,38,38,248,1,X, ,1,5, ,,1500,1.5,611c1fa8d50a2ad182a9d2f7,001,2021-08-19_16h26.49.574,natb3,2021.2.3,Win32,59.97720866,611c1fa8d50a2ad182a9d2f7,611e07ecdcc96256ae8d5b80,611e7812d0208f92fcd21771,,
,,,,space,,0,39,39,288,1,M, , , , ,space,1500,1.5,611c1fa8d50a2ad182a9d2f7,001,2021-08-19_16h26.49.574,natb3,2021.2.3,Win32,59.97720866,611c1fa8d50a2ad182a9d2f7,611e07ecdcc96256ae8d5b80,611e7812d0208f92fcd21771,0.301,
,,,,space,,0,40,40,130,1,F, , , , ,space,2000,2,611c1fa8d50a2ad182a9d2f7,001,2021-08-19_16h26.49.574,natb3,2021.2.3,Win32,59.97720866,611c1fa8d50a2ad182a9d2f7,611e07ecdcc96256ae8d5b80,611e7812d0208f92fcd21771,0.4168,
,,,,space,,0,41,41,72,1,T, , , , ,space,1500,1.5,611c1fa8d50a2ad182a9d2f7,001,2021-08-19_16h26.49.574,natb3,2021.2.3,Win32,59.97720866,611c1fa8d50a2ad182a9d2f7,611e07ecdcc96256ae8d5b80,611e7812d0208f92fcd21771,0.4166,
,,,,space,,0,42,42,146,1,W, , , , ,space,1500,1.5,611c1fa8d50a2ad182a9d2f7,001,2021-08-19_16h26.49.574,natb3,2021.2.3,Win32,59.97720866,611c1fa8d50a2ad182a9d2f7,611e07ecdcc96256ae8d5b80,611e7812d0208f92fcd21771,0.2851,
,,,,space,,0,43,43,119,1,Y, , , , ,space,2500,2.5,611c1fa8d50a2ad182a9d2f7,001,2021-08-19_16h26.49.574,natb3,2021.2.3,Win32,59.97720866,611c1fa8d50a2ad182a9d2f7,611e07ecdcc96256ae8d5b80,611e7812d0208f92fcd21771,0.4347,
,,,,space,,0,44,44,142,1,N, , , , ,space,2500,2.5,611c1fa8d50a2ad182a9d2f7,001,2021-08-19_16h26.49.574,natb3,2021.2.3,Win32,59.97720866,611c1fa8d50a2ad182a9d2f7,611e07ecdcc96256ae8d5b80,611e7812d0208f92fcd21771,0.3012,
,,,,,,0,45,45,171,1,X, , , , ,,1500,1.5,611c1fa8d50a2ad182a9d2f7,001,2021-08-19_16h26.49.574,natb3,2021.2.3,Win32,59.97720866,611c1fa8d50a2ad182a9d2f7,611e07ecdcc96256ae8d5b80,611e7812d0208f92fcd21771,,
,,,,space,,0,46,46,111,1,O, , , , ,space,2000,2,611c1fa8d50a2ad182a9d2f7,001,2021-08-19_16h26.49.574,natb3,2021.2.3,Win32,59.97720866,611c1fa8d50a2ad182a9d2f7,611e07ecdcc96256ae8d5b80,611e7812d0208f92fcd21771,0.4837,
,,,,,,0,47,47,129,1,X,2,3,5, ,,1500,1.5,611c1fa8d50a2ad182a9d2f7,001,2021-08-19_16h26.49.574,natb3,2021.2.3,Win32,59.97720866,611c1fa8d50a2ad182a9d2f7,611e07ecdcc96256ae8d5b80,611e7812d0208f92fcd21771,,
,,,,space,,0,48,48,294,1,T, , , , ,space,2000,2,611c1fa8d50a2ad182a9d2f7,001,2021-08-19_16h26.49.574,natb3,2021.2.3,Win32,59.97720866,611c1fa8d50a2ad182a9d2f7,611e07ecdcc96256ae8d5b80,611e7812d0208f92fcd21771,0.4669,
,,,,space,,0,49,49,139,1,V, , , , ,space,2000,2,611c1fa8d50a2ad182a9d2f7,001,2021-08-19_16h26.49.574,natb3,2021.2.3,Win32,59.97720866,611c1fa8d50a2ad182a9d2f7,611e07ecdcc96256ae8d5b80,611e7812d0208f92fcd21771,0.5007,
,,,,space,,0,50,50,34,1,Q, , , , ,space,2500,2.5,611c1fa8d50a2ad182a9d2f7,001,2021-08-19_16h26.49.574,natb3,2021.2.3,Win32,59.97720866,611c1fa8d50a2ad182a9d2f7,611e07ecdcc96256ae8d5b80,611e7812d0208f92fcd21771,0.4038,
,,,,,,0,51,51,229,1,X,8, ,2,6,,2500,2.5,611c1fa8d50a2ad182a9d2f7,001,2021-08-19_16h26.49.574,natb3,2021.2.3,Win32,59.97720866,611c1fa8d50a2ad182a9d2f7,611e07ecdcc96256ae8d5b80,611e7812d0208f92fcd21771,,
,,,,space,,0,52,52,226,1,R, , , , ,space,2000,2,611c1fa8d50a2ad182a9d2f7,001,2021-08-19_16h26.49.574,natb3,2021.2.3,Win32,59.97720866,611c1fa8d50a2ad182a9d2f7,611e07ecdcc96256ae8d5b80,611e7812d0208f92fcd21771,0.3879,
,,,,,,0,53,53,273,1,X, , , , ,,2000,2,611c1fa8d50a2ad182a9d2f7,001,2021-08-19_16h26.49.574,natb3,2021.2.3,Win32,59.97720866,611c1fa8d50a2ad182a9d2f7,611e07ecdcc96256ae8d5b80,611e7812d0208f92fcd21771,,
,,,,space,,0,54,54,32,1,M, , , , ,space,1500,1.5,611c1fa8d50a2ad182a9d2f7,001,2021-08-19_16h26.49.574,natb3,2021.2.3,Win32,59.97720866,611c1fa8d50a2ad182a9d2f7,611e07ecdcc96256ae8d5b80,611e7812d0208f92fcd21771,0.3835,
,,,,space,,0,55,55,275,1,G, , , , ,space,1500,1.5,611c1fa8d50a2ad182a9d2f7,001,2021-08-19_16h26.49.574,natb3,2021.2.3,Win32,59.97720866,611c1fa8d50a2ad182a9d2f7,611e07ecdcc96256ae8d5b80,611e7812d0208f92fcd21771,0.4179,
,,,,space,,0,56,56,91,1,L, , , , ,space,2000,2,611c1fa8d50a2ad182a9d2f7,001,2021-08-19_16h26.49.574,natb3,2021.2.3,Win32,59.97720866,611c1fa8d50a2ad182a9d2f7,611e07ecdcc96256ae8d5b80,611e7812d0208f92fcd21771,0.2739,
,,,,space,,0,57,57,250,1,V, , , , ,space,2000,2,611c1fa8d50a2ad182a9d2f7,001,2021-08-19_16h26.49.574,natb3,2021.2.3,Win32,59.97720866,611c1fa8d50a2ad182a9d2f7,611e07ecdcc96256ae8d5b80,611e7812d0208f92fcd21771,0.2932,
,,,,space,,0,58,58,42,1,U, , , , ,space,1500,1.5,611c1fa8d50a2ad182a9d2f7,001,2021-08-19_16h26.49.574,natb3,2021.2.3,Win32,59.97720866,611c1fa8d50a2ad182a9d2f7,611e07ecdcc96256ae8d5b80,611e7812d0208f92fcd21771,0.4672,
,,,,space,,0,59,59,177,1,M, , , , ,space,2500,2.5,611c1fa8d50a2ad182a9d2f7,001,2021-08-19_16h26.49.574,natb3,2021.2.3,Win32,59.97720866,611c1fa8d50a2ad182a9d2f7,611e07ecdcc96256ae8d5b80,611e7812d0208f92fcd21771,0.3507,
,,,,space,,0,60,60,258,1,E, , , , ,space,1500,1.5,611c1fa8d50a2ad182a9d2f7,001,2021-08-19_16h26.49.574,natb3,2021.2.3,Win32,59.97720866,611c1fa8d50a2ad182a9d2f7,611e07ecdcc96256ae8d5b80,611e7812d0208f92fcd21771,0.5263,
,,,,,,0,61,61,162,1,X,1,6, ,2,,1500,1.5,611c1fa8d50a2ad182a9d2f7,001,2021-08-19_16h26.49.574,natb3,2021.2.3,Win32,59.97720866,611c1fa8d50a2ad182a9d2f7,611e07ecdcc96256ae8d5b80,611e7812d0208f92fcd21771,,
,,,,space,,0,62,62,20,1,H, , , , ,space,1500,1.5,611c1fa8d50a2ad182a9d2f7,001,2021-08-19_16h26.49.574,natb3,2021.2.3,Win32,59.97720866,611c1fa8d50a2ad182a9d2f7,611e07ecdcc96256ae8d5b80,611e7812d0208f92fcd21771,0.5021,
,,,,space,,0,63,63,55,1,H, , , , ,space,2500,2.5,611c1fa8d50a2ad182a9d2f7,001,2021-08-19_16h26.49.574,natb3,2021.2.3,Win32,59.97720866,611c1fa8d50a2ad182a9d2f7,611e07ecdcc96256ae8d5b80,611e7812d0208f92fcd21771,0.3679,
,,,,space,,0,64,64,239,1,X, , , , ,,2000,2,611c1fa8d50a2ad182a9d2f7,001,2021-08-19_16h26.49.574,natb3,2021.2.3,Win32,59.97720866,611c1fa8d50a2ad182a9d2f7,611e07ecdcc96256ae8d5b80,611e7812d0208f92fcd21771,0.3012,
,,,,space,,0,65,65,147,1,E, , , , ,space,2000,2,611c1fa8d50a2ad182a9d2f7,001,2021-08-19_16h26.49.574,natb3,2021.2.3,Win32,59.97720866,611c1fa8d50a2ad182a9d2f7,611e07ecdcc96256ae8d5b80,611e7812d0208f92fcd21771,0.6504,
,,,,space,,0,66,66,16,1,D, , , , ,space,1500,1.5,611c1fa8d50a2ad182a9d2f7,001,2021-08-19_16h26.49.574,natb3,2021.2.3,Win32,59.97720866,611c1fa8d50a2ad182a9d2f7,611e07ecdcc96256ae8d5b80,611e7812d0208f92fcd21771,0.5551,
,,,,space,,0,67,67,240,1,F, , , , ,space,2500,2.5,611c1fa8d50a2ad182a9d2f7,001,2021-08-19_16h26.49.574,natb3,2021.2.3,Win32,59.97720866,611c1fa8d50a2ad182a9d2f7,611e07ecdcc96256ae8d5b80,611e7812d0208f92fcd21771,0.5718,
,,,,space,,0,68,68,302,1,X, , , , ,,2000,2,611c1fa8d50a2ad182a9d2f7,001,2021-08-19_16h26.49.574,natb3,2021.2.3,Win32,59.97720866,611c1fa8d50a2ad182a9d2f7,611e07ecdcc96256ae8d5b80,611e7812d0208f92fcd21771,0.285,
,,,,,,0,69,69,138,1,X,8,5, ,3,,2000,2,611c1fa8d50a2ad182a9d2f7,001,2021-08-19_16h26.49.574,natb3,2021.2.3,Win32,59.97720866,611c1fa8d50a2ad182a9d2f7,611e07ecdcc96256ae8d5b80,611e7812d0208f92fcd21771,,
,,,,space,,0,70,70,112,1,Q, , , , ,space,2500,2.5,611c1fa8d50a2ad182a9d2f7,001,2021-08-19_16h26.49.574,natb3,2021.2.3,Win32,59.97720866,611c1fa8d50a2ad182a9d2f7,611e07ecdcc96256ae8d5b80,611e7812d0208f92fcd21771,0.4703,
,,,,space,,0,71,71,206,1,V, , , , ,space,2000,2,611c1fa8d50a2ad182a9d2f7,001,2021-08-19_16h26.49.574,natb3,2021.2.3,Win32,59.97720866,611c1fa8d50a2ad182a9d2f7,611e07ecdcc96256ae8d5b80,611e7812d0208f92fcd21771,0.3733,
,,,,space,,0,72,72,286,1,N, , , , ,space,1500,1.5,611c1fa8d50a2ad182a9d2f7,001,2021-08-19_16h26.49.574,natb3,2021.2.3,Win32,59.97720866,611c1fa8d50a2ad182a9d2f7,611e07ecdcc96256ae8d5b80,611e7812d0208f92fcd21771,0.4582,
,,,,,,0,73,73,33,1,X, , , , ,,1500,1.5,611c1fa8d50a2ad182a9d2f7,001,2021-08-19_16h26.49.574,natb3,2021.2.3,Win32,59.97720866,611c1fa8d50a2ad182a9d2f7,611e07ecdcc96256ae8d5b80,611e7812d0208f92fcd21771,,
,,,,space,,0,74,74,210,1,M, , , , ,space,1500,1.5,611c1fa8d50a2ad182a9d2f7,001,2021-08-19_16h26.49.574,natb3,2021.2.3,Win32,59.97720866,611c1fa8d50a2ad182a9d2f7,611e07ecdcc96256ae8d5b80,611e7812d0208f92fcd21771,0.3747,
,,,,space,,0,75,75,160,1,D, , , , ,space,1500,1.5,611c1fa8d50a2ad182a9d2f7,001,2021-08-19_16h26.49.574,natb3,2021.2.3,Win32,59.97720866,611c1fa8d50a2ad182a9d2f7,611e07ecdcc96256ae8d5b80,611e7812d0208f92fcd21771,0.3897,
,,,,space,,0,76,76,50,1,D, , , , ,space,1500,1.5,611c1fa8d50a2ad182a9d2f7,001,2021-08-19_16h26.49.574,natb3,2021.2.3,Win32,59.97720866,611c1fa8d50a2ad182a9d2f7,611e07ecdcc96256ae8d5b80,611e7812d0208f92fcd21771,0.437,
,,,,space,,0,77,77,335,1,P,,,,,space,1500,1.5,611c1fa8d50a2ad182a9d2f7,001,2021-08-19_16h26.49.574,natb3,2021.2.3,Win32,59.97720866,611c1fa8d50a2ad182a9d2f7,611e07ecdcc96256ae8d5b80,611e7812d0208f92fcd21771,0.5727,
,,,,,,0,78,78,27,1,X,5, ,1,3,,1500,1.5,611c1fa8d50a2ad182a9d2f7,001,2021-08-19_16h26.49.574,natb3,2021.2.3,Win32,59.97720866,611c1fa8d50a2ad182a9d2f7,611e07ecdcc96256ae8d5b80,611e7812d0208f92fcd21771,,
,,,,space,,0,79,79,199,1,J, , , , ,space,2500,2.5,611c1fa8d50a2ad182a9d2f7,001,2021-08-19_16h26.49.574,natb3,2021.2.3,Win32,59.97720866,611c1fa8d50a2ad182a9d2f7,611e07ecdcc96256ae8d5b80,611e7812d0208f92fcd21771,0.5005,
,,,,space,,0,80,80,169,1,L, , , , ,space,2500,2.5,611c1fa8d50a2ad182a9d2f7,001,2021-08-19_16h26.49.574,natb3,2021.2.3,Win32,59.97720866,611c1fa8d50a2ad182a9d2f7,611e07ecdcc96256ae8d5b80,611e7812d0208f92fcd21771,0.2686,
,,,,space,,0,81,81,155,1,O, , , , ,space,1500,1.5,611c1fa8d50a2ad182a9d2f7,001,2021-08-19_16h26.49.574,natb3,2021.2.3,Win32,59.97720866,611c1fa8d50a2ad182a9d2f7,611e07ecdcc96256ae8d5b80,611e7812d0208f92fcd21771,0.4689,
,,,,space,,0,82,82,151,1,Y, , , , ,space,2500,2.5,611c1fa8d50a2ad182a9d2f7,001,2021-08-19_16h26.49.574,natb3,2021.2.3,Win32,59.97720866,611c1fa8d50a2ad182a9d2f7,611e07ecdcc96256ae8d5b80,611e7812d0208f92fcd21771,0.4205,
,,,,,,0,83,83,200,1,X,7, ,5,3,,1500,1.5,611c1fa8d50a2ad182a9d2f7,001,2021-08-19_16h26.49.574,natb3,2021.2.3,Win32,59.97720866,611c1fa8d50a2ad182a9d2f7,611e07ecdcc96256ae8d5b80,611e7812d0208f92fcd21771,,
,,,,space,,0,84,84,179,1,X, ,9, ,2,,1500,1.5,611c1fa8d50a2ad182a9d2f7,001,2021-08-19_16h26.49.574,natb3,2021.2.3,Win32,59.97720866,611c1fa8d50a2ad182a9d2f7,611e07ecdcc96256ae8d5b80,611e7812d0208f92fcd21771,0.2932,
,,,,space,,0,85,85,262,1,Y, , , , ,space,2500,2.5,611c1fa8d50a2ad182a9d2f7,001,2021-08-19_16h26.49.574,natb3,2021.2.3,Win32,59.97720866,611c1fa8d50a2ad182a9d2f7,611e07ecdcc96256ae8d5b80,611e7812d0208f92fcd21771,0.328,
,,,,space,,0,86,86,244,1,J, , , , ,space,1500,1.5,611c1fa8d50a2ad182a9d2f7,001,2021-08-19_16h26.49.574,natb3,2021.2.3,Win32,59.97720866,611c1fa8d50a2ad182a9d2f7,611e07ecdcc96256ae8d5b80,611e7812d0208f92fcd21771,0.4837,
,,,,space,,0,87,87,328,1,R, , , , ,space,1500,1.5,611c1fa8d50a2ad182a9d2f7,001,2021-08-19_16h26.49.574,natb3,2021.2.3,Win32,59.97720866,611c1fa8d50a2ad182a9d2f7,611e07ecdcc96256ae8d5b80,611e7812d0208f92fcd21771,0.3708,
,,,,space,,0,88,88,217,1,T, , , , ,space,2500,2.5,611c1fa8d50a2ad182a9d2f7,001,2021-08-19_16h26.49.574,natb3,2021.2.3,Win32,59.97720866,611c1fa8d50a2ad182a9d2f7,611e07ecdcc96256ae8d5b80,611e7812d0208f92fcd21771,0.4368,
,,,,space,,0,89,89,75,1,U, , , , ,space,1500,1.5,611c1fa8d50a2ad182a9d2f7,001,2021-08-19_16h26.49.574,natb3,2021.2.3,Win32,59.97720866,611c1fa8d50a2ad182a9d2f7,611e07ecdcc96256ae8d5b80,611e7812d0208f92fcd21771,0.394,
,,,,,,0,90,90,287,1,X, ,2, ,9,,2000,2,611c1fa8d50a2ad182a9d2f7,001,2021-08-19_16h26.49.574,natb3,2021.2.3,Win32,59.97720866,611c1fa8d50a2ad182a9d2f7,611e07ecdcc96256ae8d5b80,611e7812d0208f92fcd21771,,
,,,,space,,0,91,91,152,1,U, , , , ,space,2000,2,611c1fa8d50a2ad182a9d2f7,001,2021-08-19_16h26.49.574,natb3,2021.2.3,Win32,59.97720866,611c1fa8d50a2ad182a9d2f7,611e07ecdcc96256ae8d5b80,611e7812d0208f92fcd21771,0.8002,
,,,,space,,0,92,92,164,1,H, , , , ,space,2500,2.5,611c1fa8d50a2ad182a9d2f7,001,2021-08-19_16h26.49.574,natb3,2021.2.3,Win32,59.97720866,611c1fa8d50a2ad182a9d2f7,611e07ecdcc96256ae8d5b80,611e7812d0208f92fcd21771,0.3953,
,,,,space,,0,93,93,5,1,T, , , , ,space,2000,2,611c1fa8d50a2ad182a9d2f7,001,2021-08-19_16h26.49.574,natb3,2021.2.3,Win32,59.97720866,611c1fa8d50a2ad182a9d2f7,611e07ecdcc96256ae8d5b80,611e7812d0208f92fcd21771,0.3671,
,,,,,,0,94,94,54,1,X, , , , ,,2000,2,611c1fa8d50a2ad182a9d2f7,001,2021-08-19_16h26.49.574,natb3,2021.2.3,Win32,59.97720866,611c1fa8d50a2ad182a9d2f7,611e07ecdcc96256ae8d5b80,611e7812d0208f92fcd21771,,
,,,,space,,0,95,95,61,1,C, , , , ,space,2000,2,611c1fa8d50a2ad182a9d2f7,001,2021-08-19_16h26.49.574,natb3,2021.2.3,Win32,59.97720866,611c1fa8d50a2ad182a9d2f7,611e07ecdcc96256ae8d5b80,611e7812d0208f92fcd21771,0.4343,
,,,,space,,0,96,96,126,1,A, , , , ,space,2500,2.5,611c1fa8d50a2ad182a9d2f7,001,2021-08-19_16h26.49.574,natb3,2021.2.3,Win32,59.97720866,611c1fa8d50a2ad182a9d2f7,611e07ecdcc96256ae8d5b80,611e7812d0208f92fcd21771,0.3836,
,,,,space,,0,97,97,237,1,S, , , , ,space,1500,1.5,611c1fa8d50a2ad182a9d2f7,001,2021-08-19_16h26.49.574,natb3,2021.2.3,Win32,59.97720866,611c1fa8d50a2ad182a9d2f7,611e07ecdcc96256ae8d5b80,611e7812d0208f92fcd21771,0.3881,
,,,,,,0,98,98,84,1,X, , , , ,,2000,2,611c1fa8d50a2ad182a9d2f7,001,2021-08-19_16h26.49.574,natb3,2021.2.3,Win32,59.97720866,611c1fa8d50a2ad182a9d2f7,611e07ecdcc96256ae8d5b80,611e7812d0208f92fcd21771,,
,,,,,,0,99,99,102,1,X, ,6, , ,,1500,1.5,611c1fa8d50a2ad182a9d2f7,001,2021-08-19_16h26.49.574,natb3,2021.2.3,Win32,59.97720866,611c1fa8d50a2ad182a9d2f7,611e07ecdcc96256ae8d5b80,611e7812d0208f92fcd21771,,
,,,,space,,0,100,100,157,1,A, , , , ,space,2500,2.5,611c1fa8d50a2ad182a9d2f7,001,2021-08-19_16h26.49.574,natb3,2021.2.3,Win32,59.97720866,611c1fa8d50a2ad182a9d2f7,611e07ecdcc96256ae8d5b80,611e7812d0208f92fcd21771,0.5032,
,,,,space,,0,101,101,279,1,K, , , , ,space,2500,2.5,611c1fa8d50a2ad182a9d2f7,001,2021-08-19_16h26.49.574,natb3,2021.2.3,Win32,59.97720866,611c1fa8d50a2ad182a9d2f7,611e07ecdcc96256ae8d5b80,611e7812d0208f92fcd21771,0.6502,
,,,,,,0,102,102,222,1,O, , , , ,space,2000,2,611c1fa8d50a2ad182a9d2f7,001,2021-08-19_16h26.49.574,natb3,2021.2.3,Win32,59.97720866,611c1fa8d50a2ad182a9d2f7,611e07ecdcc96256ae8d5b80,611e7812d0208f92fcd21771,,
,,,,space,,0,103,103,173,1,V, , , , ,space,1500,1.5,611c1fa8d50a2ad182a9d2f7,001,2021-08-19_16h26.49.574,natb3,2021.2.3,Win32,59.97720866,611c1fa8d50a2ad182a9d2f7,611e07ecdcc96256ae8d5b80,611e7812d0208f92fcd21771,0.5236,
,,,,,,0,104,104,15,1,X, , , , ,,1500,1.5,611c1fa8d50a2ad182a9d2f7,001,2021-08-19_16h26.49.574,natb3,2021.2.3,Win32,59.97720866,611c1fa8d50a2ad182a9d2f7,611e07ecdcc96256ae8d5b80,611e7812d0208f92fcd21771,,
,,,,,,0,105,105,182,1,X, , , , ,,1500,1.5,611c1fa8d50a2ad182a9d2f7,001,2021-08-19_16h26.49.574,natb3,2021.2.3,Win32,59.97720866,611c1fa8d50a2ad182a9d2f7,611e07ecdcc96256ae8d5b80,611e7812d0208f92fcd21771,,
,,,,,,0,106,106,305,1,X, , , , ,,1500,1.5,611c1fa8d50a2ad182a9d2f7,001,2021-08-19_16h26.49.574,natb3,2021.2.3,Win32,59.97720866,611c1fa8d50a2ad182a9d2f7,611e07ecdcc96256ae8d5b80,611e7812d0208f92fcd21771,,
,,,,,,0,107,107,166,1,X, , , , ,,2000,2,611c1fa8d50a2ad182a9d2f7,001,2021-08-19_16h26.49.574,natb3,2021.2.3,Win32,59.97720866,611c1fa8d50a2ad182a9d2f7,611e07ecdcc96256ae8d5b80,611e7812d0208f92fcd21771,,
,,,,space,,0,108,108,29,1,B, , , , ,space,1500,1.5,611c1fa8d50a2ad182a9d2f7,001,2021-08-19_16h26.49.574,natb3,2021.2.3,Win32,59.97720866,611c1fa8d50a2ad182a9d2f7,611e07ecdcc96256ae8d5b80,611e7812d0208f92fcd21771,0.672,
,,,,,,0,109,109,212,1,Q, , , , ,space,2500,2.5,611c1fa8d50a2ad182a9d2f7,001,2021-08-19_16h26.49.574,natb3,2021.2.3,Win32,59.97720866,611c1fa8d50a2ad182a9d2f7,611e07ecdcc96256ae8d5b80,611e7812d0208f92fcd21771,,
,,,,,,0,110,110,12,1,X, , , , ,,1500,1.5,611c1fa8d50a2ad182a9d2f7,001,2021-08-19_16h26.49.574,natb3,2021.2.3,Win32,59.97720866,611c1fa8d50a2ad182a9d2f7,611e07ecdcc96256ae8d5b80,611e7812d0208f92fcd21771,,
,,,,space,,0,111,111,241,1,G, , , , ,space,2500,2.5,611c1fa8d50a2ad182a9d2f7,001,2021-08-19_16h26.49.574,natb3,2021.2.3,Win32,59.97720866,611c1fa8d50a2ad182a9d2f7,611e07ecdcc96256ae8d5b80,611e7812d0208f92fcd21771,0.5378,
,,,,space,,0,112,112,306,1,D, , , , ,space,2000,2,611c1fa8d50a2ad182a9d2f7,001,2021-08-19_16h26.49.574,natb3,2021.2.3,Win32,59.97720866,611c1fa8d50a2ad182a9d2f7,611e07ecdcc96256ae8d5b80,611e7812d0208f92fcd21771,0.6481,
,,,,space,,0,113,113,234,1,P, , , , ,space,2000,2,611c1fa8d50a2ad182a9d2f7,001,2021-08-19_16h26.49.574,natb3,2021.2.3,Win32,59.97720866,611c1fa8d50a2ad182a9d2f7,611e07ecdcc96256ae8d5b80,611e7812d0208f92fcd21771,0.734,
,,,,,,0,114,114,83,1,D, , , , ,space,2000,2,611c1fa8d50a2ad182a9d2f7,001,2021-08-19_16h26.49.574,natb3,2021.2.3,Win32,59.97720866,611c1fa8d50a2ad182a9d2f7,611e07ecdcc96256ae8d5b80,611e7812d0208f92fcd21771,,
,,,,space,,0,115,115,123,1,O, , , , ,space,1500,1.5,611c1fa8d50a2ad182a9d2f7,001,2021-08-19_16h26.49.574,natb3,2021.2.3,Win32,59.97720866,611c1fa8d50a2ad182a9d2f7,611e07ecdcc96256ae8d5b80,611e7812d0208f92fcd21771,0.5042,
,,,,space,,0,116,116,267,1,P, , , , ,space,2000,2,611c1fa8d50a2ad182a9d2f7,001,2021-08-19_16h26.49.574,natb3,2021.2.3,Win32,59.97720866,611c1fa8d50a2ad182a9d2f7,611e07ecdcc96256ae8d5b80,611e7812d0208f92fcd21771,0.2967,
,,,,space,,0,117,117,256,1,Q, , , , ,space,2000,2,611c1fa8d50a2ad182a9d2f7,001,2021-08-19_16h26.49.574,natb3,2021.2.3,Win32,59.97720866,611c1fa8d50a2ad182a9d2f7,611e07ecdcc96256ae8d5b80,611e7812d0208f92fcd21771,0.6223,
,,,,space,,0,118,118,143,1,M, , , , ,space,2500,2.5,611c1fa8d50a2ad182a9d2f7,001,2021-08-19_16h26.49.574,natb3,2021.2.3,Win32,59.97720866,611c1fa8d50a2ad182a9d2f7,611e07ecdcc96256ae8d5b80,611e7812d0208f92fcd21771,0.4389,
,,,,space,,0,119,119,8,1,U, , , , ,space,1500,1.5,611c1fa8d50a2ad182a9d2f7,001,2021-08-19_16h26.49.574,natb3,2021.2.3,Win32,59.97720866,611c1fa8d50a2ad182a9d2f7,611e07ecdcc96256ae8d5b80,611e7812d0208f92fcd21771,0.3178,
,,,,space,,0,120,120,53,1,G, , , , ,space,2500,2.5,611c1fa8d50a2ad182a9d2f7,001,2021-08-19_16h26.49.574,natb3,2021.2.3,Win32,59.97720866,611c1fa8d50a2ad182a9d2f7,611e07ecdcc96256ae8d5b80,611e7812d0208f92fcd21771,0.3983,
,,,,,,0,121,121,122,1,X,1, , ,8,,1500,1.5,611c1fa8d50a2ad182a9d2f7,001,2021-08-19_16h26.49.574,natb3,2021.2.3,Win32,59.97720866,611c1fa8d50a2ad182a9d2f7,611e07ecdcc96256ae8d5b80,611e7812d0208f92fcd21771,,
,,,,,,0,122,122,60,1,X,7,3,5, ,,1500,1.5,611c1fa8d50a2ad182a9d2f7,001,2021-08-19_16h26.49.574,natb3,2021.2.3,Win32,59.97720866,611c1fa8d50a2ad182a9d2f7,611e07ecdcc96256ae8d5b80,611e7812d0208f92fcd21771,,
,,,,,,0,123,123,281,1,Z, , , , ,space,1500,1.5,611c1fa8d50a2ad182a9d2f7,001,2021-08-19_16h26.49.574,natb3,2021.2.3,Win32,59.97720866,611c1fa8d50a2ad182a9d2f7,611e07ecdcc96256ae8d5b80,611e7812d0208f92fcd21771,,
,,,,,,0,124,124,195,1,X, , , , ,,1500,1.5,611c1fa8d50a2ad182a9d2f7,001,2021-08-19_16h26.49.574,natb3,2021.2.3,Win32,59.97720866,611c1fa8d50a2ad182a9d2f7,611e07ecdcc96256ae8d5b80,611e7812d0208f92fcd21771,,
,,,,,,0,125,125,23,1,X,1, ,5, ,,2000,2,611c1fa8d50a2ad182a9d2f7,001,2021-08-19_16h26.49.574,natb3,2021.2.3,Win32,59.97720866,611c1fa8d50a2ad182a9d2f7,611e07ecdcc96256ae8d5b80,611e7812d0208f92fcd21771,,
,,,,space,,0,126,126,59,1,Z, , , , ,space,2000,2,611c1fa8d50a2ad182a9d2f7,001,2021-08-19_16h26.49.574,natb3,2021.2.3,Win32,59.97720866,611c1fa8d50a2ad182a9d2f7,611e07ecdcc96256ae8d5b80,611e7812d0208f92fcd21771,0.5765,
,,,,space,,0,127,127,307,1,F, , , , ,space,2500,2.5,611c1fa8d50a2ad182a9d2f7,001,2021-08-19_16h26.49.574,natb3,2021.2.3,Win32,59.97720866,611c1fa8d50a2ad182a9d2f7,611e07ecdcc96256ae8d5b80,611e7812d0208f92fcd21771,0.4036,
,,,,space,,0,128,128,238,1,D, , , , ,space,1500,1.5,611c1fa8d50a2ad182a9d2f7,001,2021-08-19_16h26.49.574,natb3,2021.2.3,Win32,59.97720866,611c1fa8d50a2ad182a9d2f7,611e07ecdcc96256ae8d5b80,611e7812d0208f92fcd21771,0.4695,
,,,,space,,0,129,129,235,1,A, , , , ,space,1500,1.5,611c1fa8d50a2ad182a9d2f7,001,2021-08-19_16h26.49.574,natb3,2021.2.3,Win32,59.97720866,611c1fa8d50a2ad182a9d2f7,611e07ecdcc96256ae8d5b80,611e7812d0208f92fcd21771,0.4298,
,,,,space,,0,130,130,181,1,E, , , , ,space,1500,1.5,611c1fa8d50a2ad182a9d2f7,001,2021-08-19_16h26.49.574,natb3,2021.2.3,Win32,59.97720866,611c1fa8d50a2ad182a9d2f7,611e07ecdcc96256ae8d5b80,611e7812d0208f92fcd21771,0.4505,
,,,,space,,0,131,131,323,1,M, , , , ,space,2500,2.5,611c1fa8d50a2ad182a9d2f7,001,2021-08-19_16h26.49.574,natb3,2021.2.3,Win32,59.97720866,611c1fa8d50a2ad182a9d2f7,611e07ecdcc96256ae8d5b80,611e7812d0208f92fcd21771,0.4152,
,,,,space,,0,132,132,276,1,H, , , , ,space,2000,2,611c1fa8d50a2ad182a9d2f7,001,2021-08-19_16h26.49.574,natb3,2021.2.3,Win32,59.97720866,611c1fa8d50a2ad182a9d2f7,611e07ecdcc96256ae8d5b80,611e7812d0208f92fcd21771,0.455,
,,,,space,,0,133,133,261,1,T, , , , ,space,2000,2,611c1fa8d50a2ad182a9d2f7,001,2021-08-19_16h26.49.574,natb3,2021.2.3,Win32,59.97720866,611c1fa8d50a2ad182a9d2f7,611e07ecdcc96256ae8d5b80,611e7812d0208f92fcd21771,0.3879,
,,,,space,,0,134,134,249,1,C, , , , ,space,2000,2,611c1fa8d50a2ad182a9d2f7,001,2021-08-19_16h26.49.574,natb3,2021.2.3,Win32,59.97720866,611c1fa8d50a2ad182a9d2f7,611e07ecdcc96256ae8d5b80,611e7812d0208f92fcd21771,0.3139,
,,,,,,0,135,135,311,1,X,1,2,7,3,,2500,2.5,611c1fa8d50a2ad182a9d2f7,001,2021-08-19_16h26.49.574,natb3,2021.2.3,Win32,59.97720866,611c1fa8d50a2ad182a9d2f7,611e07ecdcc96256ae8d5b80,611e7812d0208f92fcd21771,,
,,,,space,,0,136,136,86,1,G, , , , ,space,2000,2,611c1fa8d50a2ad182a9d2f7,001,2021-08-19_16h26.49.574,natb3,2021.2.3,Win32,59.97720866,611c1fa8d50a2ad182a9d2f7,611e07ecdcc96256ae8d5b80,611e7812d0208f92fcd21771,0.6263,
,,,,space,,0,137,137,37,1,E, , , , ,space,2500,2.5,611c1fa8d50a2ad182a9d2f7,001,2021-08-19_16h26.49.574,natb3,2021.2.3,Win32,59.97720866,611c1fa8d50a2ad182a9d2f7,611e07ecdcc96256ae8d5b80,611e7812d0208f92fcd21771,0.5465,
,,,,,,0,138,138,150,1,T, , , , ,space,2500,2.5,611c1fa8d50a2ad182a9d2f7,001,2021-08-19_16h26.49.574,natb3,2021.2.3,Win32,59.97720866,611c1fa8d50a2ad182a9d2f7,611e07ecdcc96256ae8d5b80,611e7812d0208f92fcd21771,,
,,,,space,,0,139,139,80,1,A, , , , ,space,2000,2,611c1fa8d50a2ad182a9d2f7,001,2021-08-19_16h26.49.574,natb3,2021.2.3,Win32,59.97720866,611c1fa8d50a2ad182a9d2f7,611e07ecdcc96256ae8d5b80,611e7812d0208f92fcd21771,0.538,
,,,,space,,0,140,140,194,1,D, , , , ,space,2000,2,611c1fa8d50a2ad182a9d2f7,001,2021-08-19_16h26.49.574,natb3,2021.2.3,Win32,59.97720866,611c1fa8d50a2ad182a9d2f7,611e07ecdcc96256ae8d5b80,611e7812d0208f92fcd21771,0.4088,
,,,,space,,0,141,141,321,1,N, , , , ,space,2000,2,611c1fa8d50a2ad182a9d2f7,001,2021-08-19_16h26.49.574,natb3,2021.2.3,Win32,59.97720866,611c1fa8d50a2ad182a9d2f7,611e07ecdcc96256ae8d5b80,611e7812d0208f92fcd21771,0.3049,
,,,,space,,0,142,142,108,1,Y, , , , ,space,2500,2.5,611c1fa8d50a2ad182a9d2f7,001,2021-08-19_16h26.49.574,natb3,2021.2.3,Win32,59.97720866,611c1fa8d50a2ad182a9d2f7,611e07ecdcc96256ae8d5b80,611e7812d0208f92fcd21771,0.3622,
,,,,space,,0,143,143,309,1,H, , , , ,space,2500,2.5,611c1fa8d50a2ad182a9d2f7,001,2021-08-19_16h26.49.574,natb3,2021.2.3,Win32,59.97720866,611c1fa8d50a2ad182a9d2f7,611e07ecdcc96256ae8d5b80,611e7812d0208f92fcd21771,0.3906,
,,,,space,,0,144,144,299,1,X, , , , ,,2500,2.5,611c1fa8d50a2ad182a9d2f7,001,2021-08-19_16h26.49.574,natb3,2021.2.3,Win32,59.97720866,611c1fa8d50a2ad182a9d2f7,611e07ecdcc96256ae8d5b80,611e7812d0208f92fcd21771,0.3673,
,,,,space,,0,145,145,127,1,S, , , , ,space,2500,2.5,611c1fa8d50a2ad182a9d2f7,001,2021-08-19_16h26.49.574,natb3,2021.2.3,Win32,59.97720866,611c1fa8d50a2ad182a9d2f7,611e07ecdcc96256ae8d5b80,611e7812d0208f92fcd21771,0.349,
,,,,space,,0,146,146,313,1,X, , , , ,,2500,2.5,611c1fa8d50a2ad182a9d2f7,001,2021-08-19_16h26.49.574,natb3,2021.2.3,Win32,59.97720866,611c1fa8d50a2ad182a9d2f7,611e07ecdcc96256ae8d5b80,611e7812d0208f92fcd21771,0.4997,
,,,,space,,0,147,147,21,1,J, , , , ,space,1500,1.5,611c1fa8d50a2ad182a9d2f7,001,2021-08-19_16h26.49.574,natb3,2021.2.3,Win32,59.97720866,611c1fa8d50a2ad182a9d2f7,611e07ecdcc96256ae8d5b80,611e7812d0208f92fcd21771,0.6405,
,,,,space,,0,148,148,121,1,I, , , , ,space,2000,2,611c1fa8d50a2ad182a9d2f7,001,2021-08-19_16h26.49.574,natb3,2021.2.3,Win32,59.97720866,611c1fa8d50a2ad182a9d2f7,611e07ecdcc96256ae8d5b80,611e7812d0208f92fcd21771,0.515,
,,,,,,0,149,149,49,1,S, , , , ,space,1500,1.5,611c1fa8d50a2ad182a9d2f7,001,2021-08-19_16h26.49.574,natb3,2021.2.3,Win32,59.97720866,611c1fa8d50a2ad182a9d2f7,611e07ecdcc96256ae8d5b80,611e7812d0208f92fcd21771,,
,,,,space,,0,150,150,103,1,W, , , , ,space,2000,2,611c1fa8d50a2ad182a9d2f7,001,2021-08-19_16h26.49.574,natb3,2021.2.3,Win32,59.97720866,611c1fa8d50a2ad182a9d2f7,611e07ecdcc96256ae8d5b80,611e7812d0208f92fcd21771,0.4432,
,,,,space,,0,151,151,298,1,I, , , , ,space,2000,2,611c1fa8d50a2ad182a9d2f7,001,2021-08-19_16h26.49.574,natb3,2021.2.3,Win32,59.97720866,611c1fa8d50a2ad182a9d2f7,611e07ecdcc96256ae8d5b80,611e7812d0208f92fcd21771,0.4495,
,,,,,,0,152,152,291,1,X, , , , ,,2000,2,611c1fa8d50a2ad182a9d2f7,001,2021-08-19_16h26.49.574,natb3,2021.2.3,Win32,59.97720866,611c1fa8d50a2ad182a9d2f7,611e07ecdcc96256ae8d5b80,611e7812d0208f92fcd21771,,
,,,,space,,0,153,153,144,1,Q, , , , ,space,2500,2.5,611c1fa8d50a2ad182a9d2f7,001,2021-08-19_16h26.49.574,natb3,2021.2.3,Win32,59.97720866,611c1fa8d50a2ad182a9d2f7,611e07ecdcc96256ae8d5b80,611e7812d0208f92fcd21771,0.5224,
,,,,space,,0,154,154,334,1,O, , , , ,space,1500,1.5,611c1fa8d50a2ad182a9d2f7,001,2021-08-19_16h26.49.574,natb3,2021.2.3,Win32,59.97720866,611c1fa8d50a2ad182a9d2f7,611e07ecdcc96256ae8d5b80,611e7812d0208f92fcd21771,0.4134,
,,,,space,,0,155,155,31,1,X, , , , ,,1500,1.5,611c1fa8d50a2ad182a9d2f7,001,2021-08-19_16h26.49.574,natb3,2021.2.3,Win32,59.97720866,611c1fa8d50a2ad182a9d2f7,611e07ecdcc96256ae8d5b80,611e7812d0208f92fcd21771,0.4347,
,,,,,,0,156,156,322,1,X, , ,1,6,,2000,2,611c1fa8d50a2ad182a9d2f7,001,2021-08-19_16h26.49.574,natb3,2021.2.3,Win32,59.97720866,611c1fa8d50a2ad182a9d2f7,611e07ecdcc96256ae8d5b80,611e7812d0208f92fcd21771,,
,,,,space,,0,157,157,220,1,U, , , , ,space,2500,2.5,611c1fa8d50a2ad182a9d2f7,001,2021-08-19_16h26.49.574,natb3,2021.2.3,Win32,59.97720866,611c1fa8d50a2ad182a9d2f7,611e07ecdcc96256ae8d5b80,611e7812d0208f92fcd21771,0.4056,
,,,,space,,0,158,158,120,1,U, , , , ,space,1500,1.5,611c1fa8d50a2ad182a9d2f7,001,2021-08-19_16h26.49.574,natb3,2021.2.3,Win32,59.97720866,611c1fa8d50a2ad182a9d2f7,611e07ecdcc96256ae8d5b80,611e7812d0208f92fcd21771,0.8575,
,,,,space,,0,159,159,97,1,B, , , , ,space,2500,2.5,611c1fa8d50a2ad182a9d2f7,001,2021-08-19_16h26.49.574,natb3,2021.2.3,Win32,59.97720866,611c1fa8d50a2ad182a9d2f7,611e07ecdcc96256ae8d5b80,611e7812d0208f92fcd21771,0.4046,
,,,,space,,0,160,160,289,1,Q, , , , ,space,2000,2,611c1fa8d50a2ad182a9d2f7,001,2021-08-19_16h26.49.574,natb3,2021.2.3,Win32,59.97720866,611c1fa8d50a2ad182a9d2f7,611e07ecdcc96256ae8d5b80,611e7812d0208f92fcd21771,0.781,
,,,,space,,0,161,161,10,1,O, , , , ,space,2000,2,611c1fa8d50a2ad182a9d2f7,001,2021-08-19_16h26.49.574,natb3,2021.2.3,Win32,59.97720866,611c1fa8d50a2ad182a9d2f7,611e07ecdcc96256ae8d5b80,611e7812d0208f92fcd21771,0.7401,
,,,,space,,0,162,162,73,1,Y, , , , ,space,2000,2,611c1fa8d50a2ad182a9d2f7,001,2021-08-19_16h26.49.574,natb3,2021.2.3,Win32,59.97720866,611c1fa8d50a2ad182a9d2f7,611e07ecdcc96256ae8d5b80,611e7812d0208f92fcd21771,0.4891,
,,,,space,,0,163,163,260,1,R, , , , ,space,2000,2,611c1fa8d50a2ad182a9d2f7,001,2021-08-19_16h26.49.574,natb3,2021.2.3,Win32,59.97720866,611c1fa8d50a2ad182a9d2f7,611e07ecdcc96256ae8d5b80,611e7812d0208f92fcd21771,0.4598,
,,,,,,0,164,164,106,1,T, , , , ,space,1500,1.5,611c1fa8d50a2ad182a9d2f7,001,2021-08-19_16h26.49.574,natb3,2021.2.3,Win32,59.97720866,611c1fa8d50a2ad182a9d2f7,611e07ecdcc96256ae8d5b80,611e7812d0208f92fcd21771,,
,,,,,,0,165,165,39,1,X,6,2, , ,,1500,1.5,611c1fa8d50a2ad182a9d2f7,001,2021-08-19_16h26.49.574,natb3,2021.2.3,Win32,59.97720866,611c1fa8d50a2ad182a9d2f7,611e07ecdcc96256ae8d5b80,611e7812d0208f92fcd21771,,
,,,,space,,0,166,166,118,1,X, , , , ,,2000,2,611c1fa8d50a2ad182a9d2f7,001,2021-08-19_16h26.49.574,natb3,2021.2.3,Win32,59.97720866,611c1fa8d50a2ad182a9d2f7,611e07ecdcc96256ae8d5b80,611e7812d0208f92fcd21771,0.4305,
,,,,space,space,0,167,167,214,1,W, , , , ,space,2000,2,611c1fa8d50a2ad182a9d2f7,001,2021-08-19_16h26.49.574,natb3,2021.2.3,Win32,59.97720866,611c1fa8d50a2ad182a9d2f7,611e07ecdcc96256ae8d5b80,611e7812d0208f92fcd21771,0.5658,119.2684
,,,,,,0,168,168,125,1,X, , , , ,,2000,2,611c1fa8d50a2ad182a9d2f7,001,2021-08-19_16h26.49.574,natb3,2021.2.3,Win32,59.97720866,611c1fa8d50a2ad182a9d2f7,611e07ecdcc96256ae8d5b80,611e7812d0208f92fcd21771,,
,,,,space,,0,169,169,67,1,Q, , , , ,space,2000,2,611c1fa8d50a2ad182a9d2f7,001,2021-08-19_16h26.49.574,natb3,2021.2.3,Win32,59.97720866,611c1fa8d50a2ad182a9d2f7,611e07ecdcc96256ae8d5b80,611e7812d0208f92fcd21771,0.547,
,,,,space,,0,170,170,9,1,I, , , , ,space,1500,1.5,611c1fa8d50a2ad182a9d2f7,001,2021-08-19_16h26.49.574,natb3,2021.2.3,Win32,59.97720866,611c1fa8d50a2ad182a9d2f7,611e07ecdcc96256ae8d5b80,611e7812d0208f92fcd21771,0.6504,
,,,,,,0,171,171,69,1,X, , , , ,,1500,1.5,611c1fa8d50a2ad182a9d2f7,001,2021-08-19_16h26.49.574,natb3,2021.2.3,Win32,59.97720866,611c1fa8d50a2ad182a9d2f7,611e07ecdcc96256ae8d5b80,611e7812d0208f92fcd21771,,
,,,,space,,0,172,172,190,1,P, , , , ,space,2000,2,611c1fa8d50a2ad182a9d2f7,001,2021-08-19_16h26.49.574,natb3,2021.2.3,Win32,59.97720866,611c1fa8d50a2ad182a9d2f7,611e07ecdcc96256ae8d5b80,611e7812d0208f92fcd21771,0.6545,
,,,,space,,0,173,173,270,1,S, , , , ,space,1500,1.5,611c1fa8d50a2ad182a9d2f7,001,2021-08-19_16h26.49.574,natb3,2021.2.3,Win32,59.97720866,611c1fa8d50a2ad182a9d2f7,611e07ecdcc96256ae8d5b80,611e7812d0208f92fcd21771,0.8838,
,,,,space,,0,174,174,6,1,Y, , , , ,space,2500,2.5,611c1fa8d50a2ad182a9d2f7,001,2021-08-19_16h26.49.574,natb3,2021.2.3,Win32,59.97720866,611c1fa8d50a2ad182a9d2f7,611e07ecdcc96256ae8d5b80,611e7812d0208f92fcd21771,0.5622,
,,,,,,0,175,175,290,1,W, , , , ,space,1500,1.5,611c1fa8d50a2ad182a9d2f7,001,2021-08-19_16h26.49.574,natb3,2021.2.3,Win32,59.97720866,611c1fa8d50a2ad182a9d2f7,611e07ecdcc96256ae8d5b80,611e7812d0208f92fcd21771,,
,,,,,,0,176,176,78,1,X, , , , ,,2000,2,611c1fa8d50a2ad182a9d2f7,001,2021-08-19_16h26.49.574,natb3,2021.2.3,Win32,59.97720866,611c1fa8d50a2ad182a9d2f7,611e07ecdcc96256ae8d5b80,611e7812d0208f92fcd21771,,
,,,,space,,0,177,177,113,1,W, , , , ,space,2500,2.5,611c1fa8d50a2ad182a9d2f7,001,2021-08-19_16h26.49.574,natb3,2021.2.3,Win32,59.97720866,611c1fa8d50a2ad182a9d2f7,611e07ecdcc96256ae8d5b80,611e7812d0208f92fcd21771,0.4657,
,,,,,,0,178,178,145,1,X, , , , ,,2000,2,611c1fa8d50a2ad182a9d2f7,001,2021-08-19_16h26.49.574,natb3,2021.2.3,Win32,59.97720866,611c1fa8d50a2ad182a9d2f7,611e07ecdcc96256ae8d5b80,611e7812d0208f92fcd21771,,
,,,,space,,0,179,179,296,1,Y, , , , ,space,2500,2.5,611c1fa8d50a2ad182a9d2f7,001,2021-08-19_16h26.49.574,natb3,2021.2.3,Win32,59.97720866,611c1fa8d50a2ad182a9d2f7,611e07ecdcc96256ae8d5b80,611e7812d0208f92fcd21771,0.4902,
,,,,space,,0,180,180,48,1,A, , , , ,space,2500,2.5,611c1fa8d50a2ad182a9d2f7,001,2021-08-19_16h26.49.574,natb3,2021.2.3,Win32,59.97720866,611c1fa8d50a2ad182a9d2f7,611e07ecdcc96256ae8d5b80,611e7812d0208f92fcd21771,0.4306,
,,,,space,,0,181,181,180,1,W, , , , ,space,2000,2,611c1fa8d50a2ad182a9d2f7,001,2021-08-19_16h26.49.574,natb3,2021.2.3,Win32,59.97720866,611c1fa8d50a2ad182a9d2f7,611e07ecdcc96256ae8d5b80,611e7812d0208f92fcd21771,0.482,
,,,,space,,0,182,182,11,1,P, , , , ,space,2500,2.5,611c1fa8d50a2ad182a9d2f7,001,2021-08-19_16h26.49.574,natb3,2021.2.3,Win32,59.97720866,611c1fa8d50a2ad182a9d2f7,611e07ecdcc96256ae8d5b80,611e7812d0208f92fcd21771,0.3979,
,,,,space,,0,183,183,41,1,Y, , , , ,space,2500,2.5,611c1fa8d50a2ad182a9d2f7,001,2021-08-19_16h26.49.574,natb3,2021.2.3,Win32,59.97720866,611c1fa8d50a2ad182a9d2f7,611e07ecdcc96256ae8d5b80,611e7812d0208f92fcd21771,0.4307,
,,,,space,,0,184,184,22,1,K, , , , ,space,2000,2,611c1fa8d50a2ad182a9d2f7,001,2021-08-19_16h26.49.574,natb3,2021.2.3,Win32,59.97720866,611c1fa8d50a2ad182a9d2f7,611e07ecdcc96256ae8d5b80,611e7812d0208f92fcd21771,0.596,
,,,,space,,0,185,185,266,1,O, , , , ,space,1500,1.5,611c1fa8d50a2ad182a9d2f7,001,2021-08-19_16h26.49.574,natb3,2021.2.3,Win32,59.97720866,611c1fa8d50a2ad182a9d2f7,611e07ecdcc96256ae8d5b80,611e7812d0208f92fcd21771,0.8397,
,,,,,,0,186,186,203,1,X, , , , ,,2500,2.5,611c1fa8d50a2ad182a9d2f7,001,2021-08-19_16h26.49.574,natb3,2021.2.3,Win32,59.97720866,611c1fa8d50a2ad182a9d2f7,611e07ecdcc96256ae8d5b80,611e7812d0208f92fcd21771,,
,,,,space,,0,187,187,64,1,N, , , , ,space,2000,2,611c1fa8d50a2ad182a9d2f7,001,2021-08-19_16h26.49.574,natb3,2021.2.3,Win32,59.97720866,611c1fa8d50a2ad182a9d2f7,611e07ecdcc96256ae8d5b80,611e7812d0208f92fcd21771,0.6454,
,,,,space,,0,188,188,38,1,R, , , , ,space,2500,2.5,611c1fa8d50a2ad182a9d2f7,001,2021-08-19_16h26.49.574,natb3,2021.2.3,Win32,59.97720866,611c1fa8d50a2ad182a9d2f7,611e07ecdcc96256ae8d5b80,611e7812d0208f92fcd21771,0.4459,
,,,,space,,0,189,189,185,1,Y, , , , ,space,2500,2.5,611c1fa8d50a2ad182a9d2f7,001,2021-08-19_16h26.49.574,natb3,2021.2.3,Win32,59.97720866,611c1fa8d50a2ad182a9d2f7,611e07ecdcc96256ae8d5b80,611e7812d0208f92fcd21771,0.53,
,,,,space,,0,190,190,28,1,V, , , , ,space,1500,1.5,611c1fa8d50a2ad182a9d2f7,001,2021-08-19_16h26.49.574,natb3,2021.2.3,Win32,59.97720866,611c1fa8d50a2ad182a9d2f7,611e07ecdcc96256ae8d5b80,611e7812d0208f92fcd21771,0.9463,
,,,,space,,0,191,191,76,1,I, , , , ,space,2000,2,611c1fa8d50a2ad182a9d2f7,001,2021-08-19_16h26.49.574,natb3,2021.2.3,Win32,59.97720866,611c1fa8d50a2ad182a9d2f7,611e07ecdcc96256ae8d5b80,611e7812d0208f92fcd21771,0.5383,
,,,,,,0,192,192,207,1,X,9, ,2, ,,2500,2.5,611c1fa8d50a2ad182a9d2f7,001,2021-08-19_16h26.49.574,natb3,2021.2.3,Win32,59.97720866,611c1fa8d50a2ad182a9d2f7,611e07ecdcc96256ae8d5b80,611e7812d0208f92fcd21771,,
,,,,,,0,193,193,271,1,X, , , , ,,2500,2.5,611c1fa8d50a2ad182a9d2f7,001,2021-08-19_16h26.49.574,natb3,2021.2.3,Win32,59.97720866,611c1fa8d50a2ad182a9d2f7,611e07ecdcc96256ae8d5b80,611e7812d0208f92fcd21771,,
,,,,,,0,194,194,35,1,X, , , , ,,2500,2.5,611c1fa8d50a2ad182a9d2f7,001,2021-08-19_16h26.49.574,natb3,2021.2.3,Win32,59.97720866,611c1fa8d50a2ad182a9d2f7,611e07ecdcc96256ae8d5b80,611e7812d0208f92fcd21771,,
,,,,,,0,195,195,46,1,X, , , , ,,2000,2,611c1fa8d50a2ad182a9d2f7,001,2021-08-19_16h26.49.574,natb3,2021.2.3,Win32,59.97720866,611c1fa8d50a2ad182a9d2f7,611e07ecdcc96256ae8d5b80,611e7812d0208f92fcd21771,,
,,,,space,,0,196,196,308,1,G, , , , ,space,1500,1.5,611c1fa8d50a2ad182a9d2f7,001,2021-08-19_16h26.49.574,natb3,2021.2.3,Win32,59.97720866,611c1fa8d50a2ad182a9d2f7,611e07ecdcc96256ae8d5b80,611e7812d0208f92fcd21771,0.4354,
,,,,space,,0,197,197,227,1,T, , , , ,space,1500,1.5,611c1fa8d50a2ad182a9d2f7,001,2021-08-19_16h26.49.574,natb3,2021.2.3,Win32,59.97720866,611c1fa8d50a2ad182a9d2f7,611e07ecdcc96256ae8d5b80,611e7812d0208f92fcd21771,0.4403,
,,,,,,0,198,198,191,1,X,1, ,3,4,,2500,2.5,611c1fa8d50a2ad182a9d2f7,001,2021-08-19_16h26.49.574,natb3,2021.2.3,Win32,59.97720866,611c1fa8d50a2ad182a9d2f7,611e07ecdcc96256ae8d5b80,611e7812d0208f92fcd21771,,
,,,,space,,0,199,199,92,1,Z, , , , ,space,1500,1.5,611c1fa8d50a2ad182a9d2f7,001,2021-08-19_16h26.49.574,natb3,2021.2.3,Win32,59.97720866,611c1fa8d50a2ad182a9d2f7,611e07ecdcc96256ae8d5b80,611e7812d0208f92fcd21771,0.5794,
,,,,space,,0,200,200,319,1,V, , , , ,space,2000,2,611c1fa8d50a2ad182a9d2f7,001,2021-08-19_16h26.49.574,natb3,2021.2.3,Win32,59.97720866,611c1fa8d50a2ad182a9d2f7,611e07ecdcc96256ae8d5b80,611e7812d0208f92fcd21771,0.4635,
,,,,space,,0,201,201,95,1,V, , , , ,space,1500,1.5,611c1fa8d50a2ad182a9d2f7,001,2021-08-19_16h26.49.574,natb3,2021.2.3,Win32,59.97720866,611c1fa8d50a2ad182a9d2f7,611e07ecdcc96256ae8d5b80,611e7812d0208f92fcd21771,0.6575,
,,,,space,,0,202,202,2,1,E, , , , ,space,2500,2.5,611c1fa8d50a2ad182a9d2f7,001,2021-08-19_16h26.49.574,natb3,2021.2.3,Win32,59.97720866,611c1fa8d50a2ad182a9d2f7,611e07ecdcc96256ae8d5b80,611e7812d0208f92fcd21771,0.4124,
,,,,space,,0,203,203,137,1,C, , , , ,space,2500,2.5,611c1fa8d50a2ad182a9d2f7,001,2021-08-19_16h26.49.574,natb3,2021.2.3,Win32,59.97720866,611c1fa8d50a2ad182a9d2f7,611e07ecdcc96256ae8d5b80,611e7812d0208f92fcd21771,0.3815,
,,,,space,,0,204,204,131,1,G, , , , ,space,1500,1.5,611c1fa8d50a2ad182a9d2f7,001,2021-08-19_16h26.49.574,natb3,2021.2.3,Win32,59.97720866,611c1fa8d50a2ad182a9d2f7,611e07ecdcc96256ae8d5b80,611e7812d0208f92fcd21771,0.6128,
,,,,space,,0,205,205,13,1,A, , , , ,space,2000,2,611c1fa8d50a2ad182a9d2f7,001,2021-08-19_16h26.49.574,natb3,2021.2.3,Win32,59.97720866,611c1fa8d50a2ad182a9d2f7,611e07ecdcc96256ae8d5b80,611e7812d0208f92fcd21771,0.4369,
,,,,space,,0,206,206,17,1,F, , , , ,space,2500,2.5,611c1fa8d50a2ad182a9d2f7,001,2021-08-19_16h26.49.574,natb3,2021.2.3,Win32,59.97720866,611c1fa8d50a2ad182a9d2f7,611e07ecdcc96256ae8d5b80,611e7812d0208f92fcd21771,0.3712,
,,,,space,,0,207,207,124,1,P, , , , ,space,2000,2,611c1fa8d50a2ad182a9d2f7,001,2021-08-19_16h26.49.574,natb3,2021.2.3,Win32,59.97720866,611c1fa8d50a2ad182a9d2f7,611e07ecdcc96256ae8d5b80,611e7812d0208f92fcd21771,0.3806,
,,,,space,,0,208,208,115,1,R, , , , ,space,1500,1.5,611c1fa8d50a2ad182a9d2f7,001,2021-08-19_16h26.49.574,natb3,2021.2.3,Win32,59.97720866,611c1fa8d50a2ad182a9d2f7,611e07ecdcc96256ae8d5b80,611e7812d0208f92fcd21771,0.4549,
,,,,space,,0,209,209,310,1,J, , , , ,space,2500,2.5,611c1fa8d50a2ad182a9d2f7,001,2021-08-19_16h26.49.574,natb3,2021.2.3,Win32,59.97720866,611c1fa8d50a2ad182a9d2f7,611e07ecdcc96256ae8d5b80,611e7812d0208f92fcd21771,0.3632,
,,,,space,,0,210,210,205,1,C, , , , ,space,2000,2,611c1fa8d50a2ad182a9d2f7,001,2021-08-19_16h26.49.574,natb3,2021.2.3,Win32,59.97720866,611c1fa8d50a2ad182a9d2f7,611e07ecdcc96256ae8d5b80,611e7812d0208f92fcd21771,0.3745,
,,,,space,,0,211,211,52,1,F, , , , ,space,1500,1.5,611c1fa8d50a2ad182a9d2f7,001,2021-08-19_16h26.49.574,natb3,2021.2.3,Win32,59.97720866,611c1fa8d50a2ad182a9d2f7,611e07ecdcc96256ae8d5b80,611e7812d0208f92fcd21771,0.3477,
,,,,space,,0,212,212,132,1,H, , , , ,space,2500,2.5,611c1fa8d50a2ad182a9d2f7,001,2021-08-19_16h26.49.574,natb3,2021.2.3,Win32,59.97720866,611c1fa8d50a2ad182a9d2f7,611e07ecdcc96256ae8d5b80,611e7812d0208f92fcd21771,0.3627,
,,,,space,,0,213,213,63,1,B, , , , ,space,2000,2,611c1fa8d50a2ad182a9d2f7,001,2021-08-19_16h26.49.574,natb3,2021.2.3,Win32,59.97720866,611c1fa8d50a2ad182a9d2f7,611e07ecdcc96256ae8d5b80,611e7812d0208f92fcd21771,0.3472,
,,,,space,,0,214,214,283,1,C, , , , ,space,1500,1.5,611c1fa8d50a2ad182a9d2f7,001,2021-08-19_16h26.49.574,natb3,2021.2.3,Win32,59.97720866,611c1fa8d50a2ad182a9d2f7,611e07ecdcc96256ae8d5b80,611e7812d0208f92fcd21771,0.4139,
,,,,space,,0,215,215,98,1,X, , , , ,,2500,2.5,611c1fa8d50a2ad182a9d2f7,001,2021-08-19_16h26.49.574,natb3,2021.2.3,Win32,59.97720866,611c1fa8d50a2ad182a9d2f7,611e07ecdcc96256ae8d5b80,611e7812d0208f92fcd21771,0.3968,
,,,,space,,0,216,216,109,1,U, , , , ,space,1500,1.5,611c1fa8d50a2ad182a9d2f7,001,2021-08-19_16h26.49.574,natb3,2021.2.3,Win32,59.97720866,611c1fa8d50a2ad182a9d2f7,611e07ecdcc96256ae8d5b80,611e7812d0208f92fcd21771,0.4646,
,,,,space,,0,217,217,196,1,F, , , , ,space,1500,1.5,611c1fa8d50a2ad182a9d2f7,001,2021-08-19_16h26.49.574,natb3,2021.2.3,Win32,59.97720866,611c1fa8d50a2ad182a9d2f7,611e07ecdcc96256ae8d5b80,611e7812d0208f92fcd21771,0.4472,
,,,,,,0,218,218,295,1,X,8,7,5, ,,2500,2.5,611c1fa8d50a2ad182a9d2f7,001,2021-08-19_16h26.49.574,natb3,2021.2.3,Win32,59.97720866,611c1fa8d50a2ad182a9d2f7,611e07ecdcc96256ae8d5b80,611e7812d0208f92fcd21771,,
,,,,space,,0,219,219,228,1,Y, , , , ,space,2000,2,611c1fa8d50a2ad182a9d2f7,001,2021-08-19_16h26.49.574,natb3,2021.2.3,Win32,59.97720866,611c1fa8d50a2ad182a9d2f7,611e07ecdcc96256ae8d5b80,611e7812d0208f92fcd21771,0.7453,
,,,,space,,0,220,220,327,1,E, , , , ,space,1500,1.5,611c1fa8d50a2ad182a9d2f7,001,2021-08-19_16h26.49.574,natb3,2021.2.3,Win32,59.97720866,611c1fa8d50a2ad182a9d2f7,611e07ecdcc96256ae8d5b80,611e7812d0208f92fcd21771,0.5669,
,,,,space,,0,221,221,330,1,T, , , , ,space,2500,2.5,611c1fa8d50a2ad182a9d2f7,001,2021-08-19_16h26.49.574,natb3,2021.2.3,Win32,59.97720866,611c1fa8d50a2ad182a9d2f7,611e07ecdcc96256ae8d5b80,611e7812d0208f92fcd21771,0.4465,
,,,,space,,0,222,222,269,1,A, , , , ,space,2500,2.5,611c1fa8d50a2ad182a9d2f7,001,2021-08-19_16h26.49.574,natb3,2021.2.3,Win32,59.97720866,611c1fa8d50a2ad182a9d2f7,611e07ecdcc96256ae8d5b80,611e7812d0208f92fcd21771,0.4324,
,,,,space,,0,223,223,188,1,I, , , , ,space,2500,2.5,611c1fa8d50a2ad182a9d2f7,001,2021-08-19_16h26.49.574,natb3,2021.2.3,Win32,59.97720866,611c1fa8d50a2ad182a9d2f7,611e07ecdcc96256ae8d5b80,611e7812d0208f92fcd21771,0.4076,
,,,,space,,0,224,224,280,1,L, , , , ,space,1500,1.5,611c1fa8d50a2ad182a9d2f7,001,2021-08-19_16h26.49.574,natb3,2021.2.3,Win32,59.97720866,611c1fa8d50a2ad182a9d2f7,611e07ecdcc96256ae8d5b80,611e7812d0208f92fcd21771,0.4959,
,,,,space,,0,225,225,333,1,I, , , , ,space,1500,1.5,611c1fa8d50a2ad182a9d2f7,001,2021-08-19_16h26.49.574,natb3,2021.2.3,Win32,59.97720866,611c1fa8d50a2ad182a9d2f7,611e07ecdcc96256ae8d5b80,611e7812d0208f92fcd21771,0.3642,
,,,,space,,0,226,226,116,1,X, , , , ,,2000,2,611c1fa8d50a2ad182a9d2f7,001,2021-08-19_16h26.49.574,natb3,2021.2.3,Win32,59.97720866,611c1fa8d50a2ad182a9d2f7,611e07ecdcc96256ae8d5b80,611e7812d0208f92fcd21771,0.3829,
,,,,space,,0,227,227,246,1,L, , , , ,space,2500,2.5,611c1fa8d50a2ad182a9d2f7,001,2021-08-19_16h26.49.574,natb3,2021.2.3,Win32,59.97720866,611c1fa8d50a2ad182a9d2f7,611e07ecdcc96256ae8d5b80,611e7812d0208f92fcd21771,0.5634,
,,,,space,,0,228,228,44,1,I, , , , ,space,2500,2.5,611c1fa8d50a2ad182a9d2f7,001,2021-08-19_16h26.49.574,natb3,2021.2.3,Win32,59.97720866,611c1fa8d50a2ad182a9d2f7,611e07ecdcc96256ae8d5b80,611e7812d0208f92fcd21771,0.7367,
,,,,,,0,229,229,43,1,X, ,6, ,2,,2500,2.5,611c1fa8d50a2ad182a9d2f7,001,2021-08-19_16h26.49.574,natb3,2021.2.3,Win32,59.97720866,611c1fa8d50a2ad182a9d2f7,611e07ecdcc96256ae8d5b80,611e7812d0208f92fcd21771,,
,,,,space,,0,230,230,215,1,E, , , , ,space,2500,2.5,611c1fa8d50a2ad182a9d2f7,001,2021-08-19_16h26.49.574,natb3,2021.2.3,Win32,59.97720866,611c1fa8d50a2ad182a9d2f7,611e07ecdcc96256ae8d5b80,611e7812d0208f92fcd21771,0.677,
,,,,,,0,231,231,153,1,X,4,7, ,6,,2000,2,611c1fa8d50a2ad182a9d2f7,001,2021-08-19_16h26.49.574,natb3,2021.2.3,Win32,59.97720866,611c1fa8d50a2ad182a9d2f7,611e07ecdcc96256ae8d5b80,611e7812d0208f92fcd21771,,
,,,,space,,0,232,232,300,1,O, , , , ,space,2500,2.5,611c1fa8d50a2ad182a9d2f7,001,2021-08-19_16h26.49.574,natb3,2021.2.3,Win32,59.97720866,611c1fa8d50a2ad182a9d2f7,611e07ecdcc96256ae8d5b80,611e7812d0208f92fcd21771,0.4799,
,,,,space,,0,233,233,320,1,B, , , , ,space,1500,1.5,611c1fa8d50a2ad182a9d2f7,001,2021-08-19_16h26.49.574,natb3,2021.2.3,Win32,59.97720866,611c1fa8d50a2ad182a9d2f7,611e07ecdcc96256ae8d5b80,611e7812d0208f92fcd21771,0.3991,
,,,,,,0,234,234,325,1,X, , , , ,,2500,2.5,611c1fa8d50a2ad182a9d2f7,001,2021-08-19_16h26.49.574,natb3,2021.2.3,Win32,59.97720866,611c1fa8d50a2ad182a9d2f7,611e07ecdcc96256ae8d5b80,611e7812d0208f92fcd21771,,
,,,,,,0,235,235,218,1,X,1,3, ,8,,1500,1.5,611c1fa8d50a2ad182a9d2f7,001,2021-08-19_16h26.49.574,natb3,2021.2.3,Win32,59.97720866,611c1fa8d50a2ad182a9d2f7,611e07ecdcc96256ae8d5b80,611e7812d0208f92fcd21771,,
,,,,space,,0,236,236,88,1,J, , , , ,space,2500,2.5,611c1fa8d50a2ad182a9d2f7,001,2021-08-19_16h26.49.574,natb3,2021.2.3,Win32,59.97720866,611c1fa8d50a2ad182a9d2f7,611e07ecdcc96256ae8d5b80,611e7812d0208f92fcd21771,0.4932,
,,,,space,,0,237,237,3,1,R, , , , ,space,2000,2,611c1fa8d50a2ad182a9d2f7,001,2021-08-19_16h26.49.574,natb3,2021.2.3,Win32,59.97720866,611c1fa8d50a2ad182a9d2f7,611e07ecdcc96256ae8d5b80,611e7812d0208f92fcd21771,0.5493,
,,,,,,0,238,238,252,1,X,3, ,6,9,,2000,2,611c1fa8d50a2ad182a9d2f7,001,2021-08-19_16h26.49.574,natb3,2021.2.3,Win32,59.97720866,611c1fa8d50a2ad182a9d2f7,611e07ecdcc96256ae8d5b80,611e7812d0208f92fcd21771,,
,,,,,,0,239,239,51,1,X,7,5,8, ,,1500,1.5,611c1fa8d50a2ad182a9d2f7,001,2021-08-19_16h26.49.574,natb3,2021.2.3,Win32,59.97720866,611c1fa8d50a2ad182a9d2f7,611e07ecdcc96256ae8d5b80,611e7812d0208f92fcd21771,,
,,,,,,0,240,240,187,1,X, ,3,7,4,,1500,1.5,611c1fa8d50a2ad182a9d2f7,001,2021-08-19_16h26.49.574,natb3,2021.2.3,Win32,59.97720866,611c1fa8d50a2ad182a9d2f7,611e07ecdcc96256ae8d5b80,611e7812d0208f92fcd21771,,
,,,,space,,0,241,241,71,1,R, , , , ,space,2500,2.5,611c1fa8d50a2ad182a9d2f7,001,2021-08-19_16h26.49.574,natb3,2021.2.3,Win32,59.97720866,611c1fa8d50a2ad182a9d2f7,611e07ecdcc96256ae8d5b80,611e7812d0208f92fcd21771,0.5066,
,,,,space,,0,242,242,101,1,Q, , , , ,space,2500,2.5,611c1fa8d50a2ad182a9d2f7,001,2021-08-19_16h26.49.574,natb3,2021.2.3,Win32,59.97720866,611c1fa8d50a2ad182a9d2f7,611e07ecdcc96256ae8d5b80,611e7812d0208f92fcd21771,0.69,
,,,,space,,0,243,243,193,1,S, , , , ,space,2500,2.5,611c1fa8d50a2ad182a9d2f7,001,2021-08-19_16h26.49.574,natb3,2021.2.3,Win32,59.97720866,611c1fa8d50a2ad182a9d2f7,611e07ecdcc96256ae8d5b80,611e7812d0208f92fcd21771,0.419,
,,,,space,,0,244,244,293,1,R, , , , ,space,2500,2.5,611c1fa8d50a2ad182a9d2f7,001,2021-08-19_16h26.49.574,natb3,2021.2.3,Win32,59.97720866,611c1fa8d50a2ad182a9d2f7,611e07ecdcc96256ae8d5b80,611e7812d0208f92fcd21771,0.5238,
,,,,,,0,245,245,318,1,X, , , , ,,1500,1.5,611c1fa8d50a2ad182a9d2f7,001,2021-08-19_16h26.49.574,natb3,2021.2.3,Win32,59.97720866,611c1fa8d50a2ad182a9d2f7,611e07ecdcc96256ae8d5b80,611e7812d0208f92fcd21771,,
,,,,space,,0,246,246,56,1,J, , , , ,space,1500,1.5,611c1fa8d50a2ad182a9d2f7,001,2021-08-19_16h26.49.574,natb3,2021.2.3,Win32,59.97720866,611c1fa8d50a2ad182a9d2f7,611e07ecdcc96256ae8d5b80,611e7812d0208f92fcd21771,0.4285,
,,,,,,0,247,247,18,1,X, ,2,5,8,,2500,2.5,611c1fa8d50a2ad182a9d2f7,001,2021-08-19_16h26.49.574,natb3,2021.2.3,Win32,59.97720866,611c1fa8d50a2ad182a9d2f7,611e07ecdcc96256ae8d5b80,611e7812d0208f92fcd21771,,
,,,,space,,0,248,248,168,1,X, , , , ,,2500,2.5,611c1fa8d50a2ad182a9d2f7,001,2021-08-19_16h26.49.574,natb3,2021.2.3,Win32,59.97720866,611c1fa8d50a2ad182a9d2f7,611e07ecdcc96256ae8d5b80,611e7812d0208f92fcd21771,0.3999,
,,,,space,,0,249,249,156,1,P, , , , ,space,1500,1.5,611c1fa8d50a2ad182a9d2f7,001,2021-08-19_16h26.49.574,natb3,2021.2.3,Win32,59.97720866,611c1fa8d50a2ad182a9d2f7,611e07ecdcc96256ae8d5b80,611e7812d0208f92fcd21771,0.5314,
,,,,space,,0,250,250,304,1,S, , , , ,space,2000,2,611c1fa8d50a2ad182a9d2f7,001,2021-08-19_16h26.49.574,natb3,2021.2.3,Win32,59.97720866,611c1fa8d50a2ad182a9d2f7,611e07ecdcc96256ae8d5b80,611e7812d0208f92fcd21771,0.5195,
,,,,,,0,251,251,213,1,X, , , , ,,2500,2.5,611c1fa8d50a2ad182a9d2f7,001,2021-08-19_16h26.49.574,natb3,2021.2.3,Win32,59.97720866,611c1fa8d50a2ad182a9d2f7,611e07ecdcc96256ae8d5b80,611e7812d0208f92fcd21771,,
,,,,space,,0,252,252,230,1,U, , , , ,space,1500,1.5,611c1fa8d50a2ad182a9d2f7,001,2021-08-19_16h26.49.574,natb3,2021.2.3,Win32,59.97720866,611c1fa8d50a2ad182a9d2f7,611e07ecdcc96256ae8d5b80,611e7812d0208f92fcd21771,0.7524,
,,,,space,,0,253,253,184,1,T, , , , ,space,2000,2,611c1fa8d50a2ad182a9d2f7,001,2021-08-19_16h26.49.574,natb3,2021.2.3,Win32,59.97720866,611c1fa8d50a2ad182a9d2f7,611e07ecdcc96256ae8d5b80,611e7812d0208f92fcd21771,0.564,
,,,,space,,0,254,254,68,1,W, , , , ,space,2500,2.5,611c1fa8d50a2ad182a9d2f7,001,2021-08-19_16h26.49.574,natb3,2021.2.3,Win32,59.97720866,611c1fa8d50a2ad182a9d2f7,611e07ecdcc96256ae8d5b80,611e7812d0208f92fcd21771,0.6469,
,,,,space,,0,255,255,90,1,K, , , , ,space,2000,2,611c1fa8d50a2ad182a9d2f7,001,2021-08-19_16h26.49.574,natb3,2021.2.3,Win32,59.97720866,611c1fa8d50a2ad182a9d2f7,611e07ecdcc96256ae8d5b80,611e7812d0208f92fcd21771,0.4402,
,,,,space,,0,256,256,26,1,C, , , , ,space,2000,2,611c1fa8d50a2ad182a9d2f7,001,2021-08-19_16h26.49.574,natb3,2021.2.3,Win32,59.97720866,611c1fa8d50a2ad182a9d2f7,611e07ecdcc96256ae8d5b80,611e7812d0208f92fcd21771,0.5364,
,,,,space,,0,257,257,317,1,C, , , , ,space,2000,2,611c1fa8d50a2ad182a9d2f7,001,2021-08-19_16h26.49.574,natb3,2021.2.3,Win32,59.97720866,611c1fa8d50a2ad182a9d2f7,611e07ecdcc96256ae8d5b80,611e7812d0208f92fcd21771,0.466,
,,,,space,,0,258,258,297,1,U, , , , ,space,2000,2,611c1fa8d50a2ad182a9d2f7,001,2021-08-19_16h26.49.574,natb3,2021.2.3,Win32,59.97720866,611c1fa8d50a2ad182a9d2f7,611e07ecdcc96256ae8d5b80,611e7812d0208f92fcd21771,0.6462,
,,,,space,,0,259,259,225,1,E, , , , ,space,2000,2,611c1fa8d50a2ad182a9d2f7,001,2021-08-19_16h26.49.574,natb3,2021.2.3,Win32,59.97720866,611c1fa8d50a2ad182a9d2f7,611e07ecdcc96256ae8d5b80,611e7812d0208f92fcd21771,0.5554,
,,,,,,0,260,260,178,1,Q, , , , ,space,1500,1.5,611c1fa8d50a2ad182a9d2f7,001,2021-08-19_16h26.49.574,natb3,2021.2.3,Win32,59.97720866,611c1fa8d50a2ad182a9d2f7,611e07ecdcc96256ae8d5b80,611e7812d0208f92fcd21771,,
,,,,space,,0,261,261,211,1,X, , , , ,,2500,2.5,611c1fa8d50a2ad182a9d2f7,001,2021-08-19_16h26.49.574,natb3,2021.2.3,Win32,59.97720866,611c1fa8d50a2ad182a9d2f7,611e07ecdcc96256ae8d5b80,611e7812d0208f92fcd21771,0.4159,
,,,,space,,0,262,262,183,1,R, , , , ,space,1500,1.5,611c1fa8d50a2ad182a9d2f7,001,2021-08-19_16h26.49.574,natb3,2021.2.3,Win32,59.97720866,611c1fa8d50a2ad182a9d2f7,611e07ecdcc96256ae8d5b80,611e7812d0208f92fcd21771,0.4683,
,,,,space,,0,263,263,316,1,Z, , , , ,space,1500,1.5,611c1fa8d50a2ad182a9d2f7,001,2021-08-19_16h26.49.574,natb3,2021.2.3,Win32,59.97720866,611c1fa8d50a2ad182a9d2f7,611e07ecdcc96256ae8d5b80,611e7812d0208f92fcd21771,0.7227,
,,,,space,,0,264,264,324,1,Q, , , , ,space,2000,2,611c1fa8d50a2ad182a9d2f7,001,2021-08-19_16h26.49.574,natb3,2021.2.3,Win32,59.97720866,611c1fa8d50a2ad182a9d2f7,611e07ecdcc96256ae8d5b80,611e7812d0208f92fcd21771,0.5223,
,,,,space,,0,265,265,189,1,O, , , , ,space,1500,1.5,611c1fa8d50a2ad182a9d2f7,001,2021-08-19_16h26.49.574,natb3,2021.2.3,Win32,59.97720866,611c1fa8d50a2ad182a9d2f7,611e07ecdcc96256ae8d5b80,611e7812d0208f92fcd21771,0.5193,
,,,,space,,0,266,266,163,1,G, , , , ,space,2500,2.5,611c1fa8d50a2ad182a9d2f7,001,2021-08-19_16h26.49.574,natb3,2021.2.3,Win32,59.97720866,611c1fa8d50a2ad182a9d2f7,611e07ecdcc96256ae8d5b80,611e7812d0208f92fcd21771,0.3638,
,,,,space,,0,267,267,221,1,I, , , , ,space,2500,2.5,611c1fa8d50a2ad182a9d2f7,001,2021-08-19_16h26.49.574,natb3,2021.2.3,Win32,59.97720866,611c1fa8d50a2ad182a9d2f7,611e07ecdcc96256ae8d5b80,611e7812d0208f92fcd21771,0.5793,
,,,,,,0,268,268,7,1,X, , , , ,,1500,1.5,611c1fa8d50a2ad182a9d2f7,001,2021-08-19_16h26.49.574,natb3,2021.2.3,Win32,59.97720866,611c1fa8d50a2ad182a9d2f7,611e07ecdcc96256ae8d5b80,611e7812d0208f92fcd21771,,
,,,,space,,0,269,269,87,1,H, , , , ,space,1500,1.5,611c1fa8d50a2ad182a9d2f7,001,2021-08-19_16h26.49.574,natb3,2021.2.3,Win32,59.97720866,611c1fa8d50a2ad182a9d2f7,611e07ecdcc96256ae8d5b80,611e7812d0208f92fcd21771,0.3998,
,,,,space,,0,270,270,24,1,L, , , , ,space,2500,2.5,611c1fa8d50a2ad182a9d2f7,001,2021-08-19_16h26.49.574,natb3,2021.2.3,Win32,59.97720866,611c1fa8d50a2ad182a9d2f7,611e07ecdcc96256ae8d5b80,611e7812d0208f92fcd21771,0.4296,
,,,,space,,0,271,271,204,1,Z, , , , ,space,2000,2,611c1fa8d50a2ad182a9d2f7,001,2021-08-19_16h26.49.574,natb3,2021.2.3,Win32,59.97720866,611c1fa8d50a2ad182a9d2f7,611e07ecdcc96256ae8d5b80,611e7812d0208f92fcd21771,0.3552,
,,,,space,,0,272,272,136,1,Z, , , , ,space,2500,2.5,611c1fa8d50a2ad182a9d2f7,001,2021-08-19_16h26.49.574,natb3,2021.2.3,Win32,59.97720866,611c1fa8d50a2ad182a9d2f7,611e07ecdcc96256ae8d5b80,611e7812d0208f92fcd21771,0.5501,
,,,,,,0,273,273,4,1,X, , , , ,,2000,2,611c1fa8d50a2ad182a9d2f7,001,2021-08-19_16h26.49.574,natb3,2021.2.3,Win32,59.97720866,611c1fa8d50a2ad182a9d2f7,611e07ecdcc96256ae8d5b80,611e7812d0208f92fcd21771,,
,,,,space,,0,274,274,117,1,T, , , , ,space,2500,2.5,611c1fa8d50a2ad182a9d2f7,001,2021-08-19_16h26.49.574,natb3,2021.2.3,Win32,59.97720866,611c1fa8d50a2ad182a9d2f7,611e07ecdcc96256ae8d5b80,611e7812d0208f92fcd21771,0.4189,
,,,,space,,0,275,275,105,1,R, , , , ,space,2500,2.5,611c1fa8d50a2ad182a9d2f7,001,2021-08-19_16h26.49.574,natb3,2021.2.3,Win32,59.97720866,611c1fa8d50a2ad182a9d2f7,611e07ecdcc96256ae8d5b80,611e7812d0208f92fcd21771,0.5885,
,,,,space,,0,276,276,209,1,N, , , , ,space,2000,2,611c1fa8d50a2ad182a9d2f7,001,2021-08-19_16h26.49.574,natb3,2021.2.3,Win32,59.97720866,611c1fa8d50a2ad182a9d2f7,611e07ecdcc96256ae8d5b80,611e7812d0208f92fcd21771,0.4322,
,,,,space,,0,277,277,284,1,V, , , , ,space,2500,2.5,611c1fa8d50a2ad182a9d2f7,001,2021-08-19_16h26.49.574,natb3,2021.2.3,Win32,59.97720866,611c1fa8d50a2ad182a9d2f7,611e07ecdcc96256ae8d5b80,611e7812d0208f92fcd21771,0.4631,
,,,,space,,0,278,278,45,1,O, , , , ,space,2000,2,611c1fa8d50a2ad182a9d2f7,001,2021-08-19_16h26.49.574,natb3,2021.2.3,Win32,59.97720866,611c1fa8d50a2ad182a9d2f7,611e07ecdcc96256ae8d5b80,611e7812d0208f92fcd21771,0.4387,
,,,,space,,0,279,279,161,1,F, , , , ,space,1500,1.5,611c1fa8d50a2ad182a9d2f7,001,2021-08-19_16h26.49.574,natb3,2021.2.3,Win32,59.97720866,611c1fa8d50a2ad182a9d2f7,611e07ecdcc96256ae8d5b80,611e7812d0208f92fcd21771,0.4726,
,,,,space,,0,280,280,268,1,X,6, ,3, ,,2500,2.5,611c1fa8d50a2ad182a9d2f7,001,2021-08-19_16h26.49.574,natb3,2021.2.3,Win32,59.97720866,611c1fa8d50a2ad182a9d2f7,611e07ecdcc96256ae8d5b80,611e7812d0208f92fcd21771,0.409,
,,,,space,,0,281,281,264,1,U, , , , ,space,2000,2,611c1fa8d50a2ad182a9d2f7,001,2021-08-19_16h26.49.574,natb3,2021.2.3,Win32,59.97720866,611c1fa8d50a2ad182a9d2f7,611e07ecdcc96256ae8d5b80,611e7812d0208f92fcd21771,0.4418,
,,,,space,,0,282,282,224,1,W, , , , ,space,1500,1.5,611c1fa8d50a2ad182a9d2f7,001,2021-08-19_16h26.49.574,natb3,2021.2.3,Win32,59.97720866,611c1fa8d50a2ad182a9d2f7,611e07ecdcc96256ae8d5b80,611e7812d0208f92fcd21771,0.5999,
,,,,,,0,283,283,243,1,X, , , , ,,2500,2.5,611c1fa8d50a2ad182a9d2f7,001,2021-08-19_16h26.49.574,natb3,2021.2.3,Win32,59.97720866,611c1fa8d50a2ad182a9d2f7,611e07ecdcc96256ae8d5b80,611e7812d0208f92fcd21771,,
,,,,space,,0,284,284,251,1,B, , , , ,space,1500,1.5,611c1fa8d50a2ad182a9d2f7,001,2021-08-19_16h26.49.574,natb3,2021.2.3,Win32,59.97720866,611c1fa8d50a2ad182a9d2f7,611e07ecdcc96256ae8d5b80,611e7812d0208f92fcd21771,0.6064,
,,,,space,,0,285,285,58,1,L, , , , ,space,2000,2,611c1fa8d50a2ad182a9d2f7,001,2021-08-19_16h26.49.574,natb3,2021.2.3,Win32,59.97720866,611c1fa8d50a2ad182a9d2f7,611e07ecdcc96256ae8d5b80,611e7812d0208f92fcd21771,0.4968,
,,,,space,,0,286,286,85,1,F, , , , ,space,2500,2.5,611c1fa8d50a2ad182a9d2f7,001,2021-08-19_16h26.49.574,natb3,2021.2.3,Win32,59.97720866,611c1fa8d50a2ad182a9d2f7,611e07ecdcc96256ae8d5b80,611e7812d0208f92fcd21771,0.6857,
,,,,space,,0,287,287,128,1,D, , , , ,space,2500,2.5,611c1fa8d50a2ad182a9d2f7,001,2021-08-19_16h26.49.574,natb3,2021.2.3,Win32,59.97720866,611c1fa8d50a2ad182a9d2f7,611e07ecdcc96256ae8d5b80,611e7812d0208f92fcd21771,0.4985,
,,,,space,,0,288,288,265,1,I, , , , ,space,2000,2,611c1fa8d50a2ad182a9d2f7,001,2021-08-19_16h26.49.574,natb3,2021.2.3,Win32,59.97720866,611c1fa8d50a2ad182a9d2f7,611e07ecdcc96256ae8d5b80,611e7812d0208f92fcd21771,0.5349,
,,,,,,0,289,289,93,1,X,5, ,7, ,,2500,2.5,611c1fa8d50a2ad182a9d2f7,001,2021-08-19_16h26.49.574,natb3,2021.2.3,Win32,59.97720866,611c1fa8d50a2ad182a9d2f7,611e07ecdcc96256ae8d5b80,611e7812d0208f92fcd21771,,
,,,,space,,0,290,290,79,1,P, , , , ,space,2000,2,611c1fa8d50a2ad182a9d2f7,001,2021-08-19_16h26.49.574,natb3,2021.2.3,Win32,59.97720866,611c1fa8d50a2ad182a9d2f7,611e07ecdcc96256ae8d5b80,611e7812d0208f92fcd21771,0.539,
,,,,space,,0,291,291,254,1,M, , , , ,space,1500,1.5,611c1fa8d50a2ad182a9d2f7,001,2021-08-19_16h26.49.574,natb3,2021.2.3,Win32,59.97720866,611c1fa8d50a2ad182a9d2f7,611e07ecdcc96256ae8d5b80,611e7812d0208f92fcd21771,0.6632,
,,,,space,,0,292,292,159,1,S, , , , ,space,2500,2.5,611c1fa8d50a2ad182a9d2f7,001,2021-08-19_16h26.49.574,natb3,2021.2.3,Win32,59.97720866,611c1fa8d50a2ad182a9d2f7,611e07ecdcc96256ae8d5b80,611e7812d0208f92fcd21771,0.4653,
,,,,space,,0,293,293,285,1,B, , , , ,space,1500,1.5,611c1fa8d50a2ad182a9d2f7,001,2021-08-19_16h26.49.574,natb3,2021.2.3,Win32,59.97720866,611c1fa8d50a2ad182a9d2f7,611e07ecdcc96256ae8d5b80,611e7812d0208f92fcd21771,0.6473,
,,,,,,0,294,294,301,1,P, , , , ,space,1500,1.5,611c1fa8d50a2ad182a9d2f7,001,2021-08-19_16h26.49.574,natb3,2021.2.3,Win32,59.97720866,611c1fa8d50a2ad182a9d2f7,611e07ecdcc96256ae8d5b80,611e7812d0208f92fcd21771,,
,,,,space,,0,295,295,274,1,F, , , , ,space,2000,2,611c1fa8d50a2ad182a9d2f7,001,2021-08-19_16h26.49.574,natb3,2021.2.3,Win32,59.97720866,611c1fa8d50a2ad182a9d2f7,611e07ecdcc96256ae8d5b80,611e7812d0208f92fcd21771,0.5729,
,,,,space,,0,296,296,331,1,Y, , , , ,space,2500,2.5,611c1fa8d50a2ad182a9d2f7,001,2021-08-19_16h26.49.574,natb3,2021.2.3,Win32,59.97720866,611c1fa8d50a2ad182a9d2f7,611e07ecdcc96256ae8d5b80,611e7812d0208f92fcd21771,0.38,
,,,,space,,0,297,297,216,1,R, , , , ,space,1500,1.5,611c1fa8d50a2ad182a9d2f7,001,2021-08-19_16h26.49.574,natb3,2021.2.3,Win32,59.97720866,611c1fa8d50a2ad182a9d2f7,611e07ecdcc96256ae8d5b80,611e7812d0208f92fcd21771,0.4984,
,,,,space,,0,298,298,232,1,O, , , , ,space,2500,2.5,611c1fa8d50a2ad182a9d2f7,001,2021-08-19_16h26.49.574,natb3,2021.2.3,Win32,59.97720866,611c1fa8d50a2ad182a9d2f7,611e07ecdcc96256ae8d5b80,611e7812d0208f92fcd21771,0.6165,
,,,,,,0,299,299,148,1,X, , , , ,,2000,2,611c1fa8d50a2ad182a9d2f7,001,2021-08-19_16h26.49.574,natb3,2021.2.3,Win32,59.97720866,611c1fa8d50a2ad182a9d2f7,611e07ecdcc96256ae8d5b80,611e7812d0208f92fcd21771,,
,,,,space,,0,300,300,62,1,V, , , , ,space,1500,1.5,611c1fa8d50a2ad182a9d2f7,001,2021-08-19_16h26.49.574,natb3,2021.2.3,Win32,59.97720866,611c1fa8d50a2ad182a9d2f7,611e07ecdcc96256ae8d5b80,611e7812d0208f92fcd21771,0.513,
,,,,space,,0,301,301,40,1,T, , , , ,space,1500,1.5,611c1fa8d50a2ad182a9d2f7,001,2021-08-19_16h26.49.574,natb3,2021.2.3,Win32,59.97720866,611c1fa8d50a2ad182a9d2f7,611e07ecdcc96256ae8d5b80,611e7812d0208f92fcd21771,0.4676,
,,,,space,,0,302,302,110,1,I, , , , ,space,1500,1.5,611c1fa8d50a2ad182a9d2f7,001,2021-08-19_16h26.49.574,natb3,2021.2.3,Win32,59.97720866,611c1fa8d50a2ad182a9d2f7,611e07ecdcc96256ae8d5b80,611e7812d0208f92fcd21771,0.3695,
,,,,space,,0,303,303,176,1,N, , , , ,space,1500,1.5,611c1fa8d50a2ad182a9d2f7,001,2021-08-19_16h26.49.574,natb3,2021.2.3,Win32,59.97720866,611c1fa8d50a2ad182a9d2f7,611e07ecdcc96256ae8d5b80,611e7812d0208f92fcd21771,0.5466,
,,,,,,0,304,304,74,1,X, ,4,3,2,,1500,1.5,611c1fa8d50a2ad182a9d2f7,001,2021-08-19_16h26.49.574,natb3,2021.2.3,Win32,59.97720866,611c1fa8d50a2ad182a9d2f7,611e07ecdcc96256ae8d5b80,611e7812d0208f92fcd21771,,
,,,,space,,0,305,305,94,1,C, , , , ,space,2000,2,611c1fa8d50a2ad182a9d2f7,001,2021-08-19_16h26.49.574,natb3,2021.2.3,Win32,59.97720866,611c1fa8d50a2ad182a9d2f7,611e07ecdcc96256ae8d5b80,611e7812d0208f92fcd21771,0.4593,
,,,,space,,0,306,306,140,1,B, , , , ,space,2500,2.5,611c1fa8d50a2ad182a9d2f7,001,2021-08-19_16h26.49.574,natb3,2021.2.3,Win32,59.97720866,611c1fa8d50a2ad182a9d2f7,611e07ecdcc96256ae8d5b80,611e7812d0208f92fcd21771,0.6051,
,,,,space,,0,307,307,104,1,E, , , , ,space,2000,2,611c1fa8d50a2ad182a9d2f7,001,2021-08-19_16h26.49.574,natb3,2021.2.3,Win32,59.97720866,611c1fa8d50a2ad182a9d2f7,611e07ecdcc96256ae8d5b80,611e7812d0208f92fcd21771,0.3756,
,,,,,,0,308,308,263,1,X,4, ,6, ,,1500,1.5,611c1fa8d50a2ad182a9d2f7,001,2021-08-19_16h26.49.574,natb3,2021.2.3,Win32,59.97720866,611c1fa8d50a2ad182a9d2f7,611e07ecdcc96256ae8d5b80,611e7812d0208f92fcd21771,,
,,,,,,0,309,309,236,1,X,3, ,4,7,,2500,2.5,611c1fa8d50a2ad182a9d2f7,001,2021-08-19_16h26.49.574,natb3,2021.2.3,Win32,59.97720866,611c1fa8d50a2ad182a9d2f7,611e07ecdcc96256ae8d5b80,611e7812d0208f92fcd21771,,
,,,,,,0,310,310,141,1,X,1, ,4,6,,1500,1.5,611c1fa8d50a2ad182a9d2f7,001,2021-08-19_16h26.49.574,natb3,2021.2.3,Win32,59.97720866,611c1fa8d50a2ad182a9d2f7,611e07ecdcc96256ae8d5b80,611e7812d0208f92fcd21771,,
,,,,space,,0,311,311,172,1,C, , , , ,space,1500,1.5,611c1fa8d50a2ad182a9d2f7,001,2021-08-19_16h26.49.574,natb3,2021.2.3,Win32,59.97720866,611c1fa8d50a2ad182a9d2f7,611e07ecdcc96256ae8d5b80,611e7812d0208f92fcd21771,0.6366,
,,,,space,,0,312,312,219,1,Y, , , , ,space,2000,2,611c1fa8d50a2ad182a9d2f7,001,2021-08-19_16h26.49.574,natb3,2021.2.3,Win32,59.97720866,611c1fa8d50a2ad182a9d2f7,611e07ecdcc96256ae8d5b80,611e7812d0208f92fcd21771,0.7791,
,,,,space,,0,313,313,149,1,R, , , , ,space,2000,2,611c1fa8d50a2ad182a9d2f7,001,2021-08-19_16h26.49.574,natb3,2021.2.3,Win32,59.97720866,611c1fa8d50a2ad182a9d2f7,611e07ecdcc96256ae8d5b80,611e7812d0208f92fcd21771,0.5869,
,,,,space,,0,314,314,303,1,A, , , , ,space,2000,2,611c1fa8d50a2ad182a9d2f7,001,2021-08-19_16h26.49.574,natb3,2021.2.3,Win32,59.97720866,611c1fa8d50a2ad182a9d2f7,611e07ecdcc96256ae8d5b80,611e7812d0208f92fcd21771,0.8231,
,,,,space,,0,315,315,170,1,Z, , , , ,space,2000,2,611c1fa8d50a2ad182a9d2f7,001,2021-08-19_16h26.49.574,natb3,2021.2.3,Win32,59.97720866,611c1fa8d50a2ad182a9d2f7,611e07ecdcc96256ae8d5b80,611e7812d0208f92fcd21771,0.3482,
,,,,space,,0,316,316,197,1,G, , , , ,space,2500,2.5,611c1fa8d50a2ad182a9d2f7,001,2021-08-19_16h26.49.574,natb3,2021.2.3,Win32,59.97720866,611c1fa8d50a2ad182a9d2f7,611e07ecdcc96256ae8d5b80,611e7812d0208f92fcd21771,0.4509,
,,,,space,,0,317,317,292,1,E, , , , ,space,2000,2,611c1fa8d50a2ad182a9d2f7,001,2021-08-19_16h26.49.574,natb3,2021.2.3,Win32,59.97720866,611c1fa8d50a2ad182a9d2f7,611e07ecdcc96256ae8d5b80,611e7812d0208f92fcd21771,0.4312,
,,,,space,,0,318,318,65,1,M, , , , ,space,1500,1.5,611c1fa8d50a2ad182a9d2f7,001,2021-08-19_16h26.49.574,natb3,2021.2.3,Win32,59.97720866,611c1fa8d50a2ad182a9d2f7,611e07ecdcc96256ae8d5b80,611e7812d0208f92fcd21771,0.547,
,,,,,,0,319,319,233,1,X, ,2, ,5,,1500,1.5,611c1fa8d50a2ad182a9d2f7,001,2021-08-19_16h26.49.574,natb3,2021.2.3,Win32,59.97720866,611c1fa8d50a2ad182a9d2f7,611e07ecdcc96256ae8d5b80,611e7812d0208f92fcd21771,,
,,,,,,0,320,320,96,1,X, , , , ,,1500,1.5,611c1fa8d50a2ad182a9d2f7,001,2021-08-19_16h26.49.574,natb3,2021.2.3,Win32,59.97720866,611c1fa8d50a2ad182a9d2f7,611e07ecdcc96256ae8d5b80,611e7812d0208f92fcd21771,,
,,,,,,0,321,321,315,1,X, , , , ,,2500,2.5,611c1fa8d50a2ad182a9d2f7,001,2021-08-19_16h26.49.574,natb3,2021.2.3,Win32,59.97720866,611c1fa8d50a2ad182a9d2f7,611e07ecdcc96256ae8d5b80,611e7812d0208f92fcd21771,,
,,,,space,,0,322,322,25,1,Z, , , , ,space,2500,2.5,611c1fa8d50a2ad182a9d2f7,001,2021-08-19_16h26.49.574,natb3,2021.2.3,Win32,59.97720866,611c1fa8d50a2ad182a9d2f7,611e07ecdcc96256ae8d5b80,611e7812d0208f92fcd21771,0.6569,
,,,,,,0,323,323,107,1,X,9,3, ,2,,2000,2,611c1fa8d50a2ad182a9d2f7,001,2021-08-19_16h26.49.574,natb3,2021.2.3,Win32,59.97720866,611c1fa8d50a2ad182a9d2f7,611e07ecdcc96256ae8d5b80,611e7812d0208f92fcd21771,,
,,,,space,,0,324,324,1,1,W, , , , ,space,2000,2,611c1fa8d50a2ad182a9d2f7,001,2021-08-19_16h26.49.574,natb3,2021.2.3,Win32,59.97720866,611c1fa8d50a2ad182a9d2f7,611e07ecdcc96256ae8d5b80,611e7812d0208f92fcd21771,0.4161,
,,,,space,,0,325,325,278,1,J, , , , ,space,2000,2,611c1fa8d50a2ad182a9d2f7,001,2021-08-19_16h26.49.574,natb3,2021.2.3,Win32,59.97720866,611c1fa8d50a2ad182a9d2f7,611e07ecdcc96256ae8d5b80,611e7812d0208f92fcd21771,0.3786,
,,,,space,,0,326,326,57,1,K, , , , ,space,2500,2.5,611c1fa8d50a2ad182a9d2f7,001,2021-08-19_16h26.49.574,natb3,2021.2.3,Win32,59.97720866,611c1fa8d50a2ad182a9d2f7,611e07ecdcc96256ae8d5b80,611e7812d0208f92fcd21771,0.4506,
,,,,,,0,327,327,277,1,X,8,5, ,2,,2000,2,611c1fa8d50a2ad182a9d2f7,001,2021-08-19_16h26.49.574,natb3,2021.2.3,Win32,59.97720866,611c1fa8d50a2ad182a9d2f7,611e07ecdcc96256ae8d5b80,611e7812d0208f92fcd21771,,
,,,,space,,0,328,328,174,1,B, , , , ,space,2500,2.5,611c1fa8d50a2ad182a9d2f7,001,2021-08-19_16h26.49.574,natb3,2021.2.3,Win32,59.97720866,611c1fa8d50a2ad182a9d2f7,611e07ecdcc96256ae8d5b80,611e7812d0208f92fcd21771,0.4844,
,,,,space,,0,329,329,223,1,Q, , , , ,space,2000,2,611c1fa8d50a2ad182a9d2f7,001,2021-08-19_16h26.49.574,natb3,2021.2.3,Win32,59.97720866,611c1fa8d50a2ad182a9d2f7,611e07ecdcc96256ae8d5b80,611e7812d0208f92fcd21771,0.7022,
,,,,space,,0,330,330,167,1,K, , , , ,space,1500,1.5,611c1fa8d50a2ad182a9d2f7,001,2021-08-19_16h26.49.574,natb3,2021.2.3,Win32,59.97720866,611c1fa8d50a2ad182a9d2f7,611e07ecdcc96256ae8d5b80,611e7812d0208f92fcd21771,0.4537,
,,,,space,,0,331,331,70,1,E, , , , ,space,2500,2.5,611c1fa8d50a2ad182a9d2f7,001,2021-08-19_16h26.49.574,natb3,2021.2.3,Win32,59.97720866,611c1fa8d50a2ad182a9d2f7,611e07ecdcc96256ae8d5b80,611e7812d0208f92fcd21771,0.3972,
,,,,space,,0,332,332,99,1,N, , , , ,space,2500,2.5,611c1fa8d50a2ad182a9d2f7,001,2021-08-19_16h26.49.574,natb3,2021.2.3,Win32,59.97720866,611c1fa8d50a2ad182a9d2f7,611e07ecdcc96256ae8d5b80,611e7812d0208f92fcd21771,0.4379,
,,,,space,,0,333,333,326,1,W, , , , ,space,2000,2,611c1fa8d50a2ad182a9d2f7,001,2021-08-19_16h26.49.574,natb3,2021.2.3,Win32,59.97720866,611c1fa8d50a2ad182a9d2f7,611e07ecdcc96256ae8d5b80,611e7812d0208f92fcd21771,0.6706,
,,,,space,,0,334,334,0,1,Q, , , , ,space,1500,1.5,611c1fa8d50a2ad182a9d2f7,001,2021-08-19_16h26.49.574,natb3,2021.2.3,Win32,59.97720866,611c1fa8d50a2ad182a9d2f7,611e07ecdcc96256ae8d5b80,611e7812d0208f92fcd21771,0.5519,
,,,,space,,0,335,335,165,1,J, , , , ,space,2500,2.5,611c1fa8d50a2ad182a9d2f7,001,2021-08-19_16h26.49.574,natb3,2021.2.3,Win32,59.97720866,611c1fa8d50a2ad182a9d2f7,611e07ecdcc96256ae8d5b80,611e7812d0208f92fcd21771,0.5022,
