key_resp_2.keys,key_resp_2.rt,key_resp_3.keys,key_resp_3.rt,key_resp.keys,key_resp_4.keys,trials.thisRepN,trials.thisTrialN,trials.thisN,trials.thisIndex,trials.ran,stimulus,distractor1,distractor2,distractor3,distractor4,CorrAns,isi_duration,isi_dur_in_seconds,participant,session,date,expName,psychopyVersion,OS,frameRate,PROLIFIC_PID,STUDY_ID,SESSION_ID,key_resp.rt,key_resp_4.rt
return,34.1235,space,24.4402,,,0,0,0,55,1,H, , , , ,space,2500,2.5,611c1794aea18553c59d5bfc,001,2021-08-19_16h11.23.647,natb3,2021.2.3,Win32,60.14314067,611c1794aea18553c59d5bfc,611e07ecdcc96256ae8d5b80,611e7486ec841801db97a08f,,
,,,,space,,0,1,1,165,1,J, , , , ,space,2500,2.5,611c1794aea18553c59d5bfc,001,2021-08-19_16h11.23.647,natb3,2021.2.3,Win32,60.14314067,611c1794aea18553c59d5bfc,611e07ecdcc96256ae8d5b80,611e7486ec841801db97a08f,0.5624,
,,,,space,,0,2,2,275,1,G, , , , ,space,1500,1.5,611c1794aea18553c59d5bfc,001,2021-08-19_16h11.23.647,natb3,2021.2.3,Win32,60.14314067,611c1794aea18553c59d5bfc,611e07ecdcc96256ae8d5b80,611e7486ec841801db97a08f,0.3173,
,,,,,,0,3,3,325,1,X, , , , ,,2500,2.5,611c1794aea18553c59d5bfc,001,2021-08-19_16h11.23.647,natb3,2021.2.3,Win32,60.14314067,611c1794aea18553c59d5bfc,611e07ecdcc96256ae8d5b80,611e7486ec841801db97a08f,,
,,,,space,,0,4,4,121,1,I, , , , ,space,2000,2,611c1794aea18553c59d5bfc,001,2021-08-19_16h11.23.647,natb3,2021.2.3,Win32,60.14314067,611c1794aea18553c59d5bfc,611e07ecdcc96256ae8d5b80,611e7486ec841801db97a08f,0.3575,
,,,,space,,0,5,5,321,1,N, , , , ,space,2000,2,611c1794aea18553c59d5bfc,001,2021-08-19_16h11.23.647,natb3,2021.2.3,Win32,60.14314067,611c1794aea18553c59d5bfc,611e07ecdcc96256ae8d5b80,611e7486ec841801db97a08f,0.3999,
,,,,,,0,6,6,329,1,X,3,4, ,2,,2500,2.5,611c1794aea18553c59d5bfc,001,2021-08-19_16h11.23.647,natb3,2021.2.3,Win32,60.14314067,611c1794aea18553c59d5bfc,611e07ecdcc96256ae8d5b80,611e7486ec841801db97a08f,,
,,,,,,0,7,7,313,1,X, , , , ,,2500,2.5,611c1794aea18553c59d5bfc,001,2021-08-19_16h11.23.647,natb3,2021.2.3,Win32,60.14314067,611c1794aea18553c59d5bfc,611e07ecdcc96256ae8d5b80,611e7486ec841801db97a08f,,
,,,,space,,0,8,8,29,1,B, , , , ,space,1500,1.5,611c1794aea18553c59d5bfc,001,2021-08-19_16h11.23.647,natb3,2021.2.3,Win32,60.14314067,611c1794aea18553c59d5bfc,611e07ecdcc96256ae8d5b80,611e7486ec841801db97a08f,0.383,
,,,,,,0,9,9,302,1,X, , , , ,,2000,2,611c1794aea18553c59d5bfc,001,2021-08-19_16h11.23.647,natb3,2021.2.3,Win32,60.14314067,611c1794aea18553c59d5bfc,611e07ecdcc96256ae8d5b80,611e7486ec841801db97a08f,,
,,,,space,,0,10,10,326,1,W, , , , ,space,2000,2,611c1794aea18553c59d5bfc,001,2021-08-19_16h11.23.647,natb3,2021.2.3,Win32,60.14314067,611c1794aea18553c59d5bfc,611e07ecdcc96256ae8d5b80,611e7486ec841801db97a08f,0.3989,
,,,,space,,0,11,11,134,1,J, , , , ,space,2000,2,611c1794aea18553c59d5bfc,001,2021-08-19_16h11.23.647,natb3,2021.2.3,Win32,60.14314067,611c1794aea18553c59d5bfc,611e07ecdcc96256ae8d5b80,611e7486ec841801db97a08f,0.4,
,,,,space,,0,12,12,250,1,V, , , , ,space,2000,2,611c1794aea18553c59d5bfc,001,2021-08-19_16h11.23.647,natb3,2021.2.3,Win32,60.14314067,611c1794aea18553c59d5bfc,611e07ecdcc96256ae8d5b80,611e7486ec841801db97a08f,0.3339,
,,,,space,,0,13,13,36,1,W, , , , ,space,2000,2,611c1794aea18553c59d5bfc,001,2021-08-19_16h11.23.647,natb3,2021.2.3,Win32,60.14314067,611c1794aea18553c59d5bfc,611e07ecdcc96256ae8d5b80,611e7486ec841801db97a08f,0.3173,
,,,,space,,0,14,14,126,1,A, , , , ,space,2500,2.5,611c1794aea18553c59d5bfc,001,2021-08-19_16h11.23.647,natb3,2021.2.3,Win32,60.14314067,611c1794aea18553c59d5bfc,611e07ecdcc96256ae8d5b80,611e7486ec841801db97a08f,0.3172,
,,,,space,,0,15,15,294,1,T, , , , ,space,2000,2,611c1794aea18553c59d5bfc,001,2021-08-19_16h11.23.647,natb3,2021.2.3,Win32,60.14314067,611c1794aea18553c59d5bfc,611e07ecdcc96256ae8d5b80,611e7486ec841801db97a08f,0.3333,
,,,,space,,0,16,16,41,1,Y, , , , ,space,2500,2.5,611c1794aea18553c59d5bfc,001,2021-08-19_16h11.23.647,natb3,2021.2.3,Win32,60.14314067,611c1794aea18553c59d5bfc,611e07ecdcc96256ae8d5b80,611e7486ec841801db97a08f,0.3512,
,,,,space,,0,17,17,249,1,C, , , , ,space,2000,2,611c1794aea18553c59d5bfc,001,2021-08-19_16h11.23.647,natb3,2021.2.3,Win32,60.14314067,611c1794aea18553c59d5bfc,611e07ecdcc96256ae8d5b80,611e7486ec841801db97a08f,0.3,
,,,,space,,0,18,18,2,1,E, , , , ,space,2500,2.5,611c1794aea18553c59d5bfc,001,2021-08-19_16h11.23.647,natb3,2021.2.3,Win32,60.14314067,611c1794aea18553c59d5bfc,611e07ecdcc96256ae8d5b80,611e7486ec841801db97a08f,0.4331,
,,,,space,,0,19,19,137,1,C, , , , ,space,2500,2.5,611c1794aea18553c59d5bfc,001,2021-08-19_16h11.23.647,natb3,2021.2.3,Win32,60.14314067,611c1794aea18553c59d5bfc,611e07ecdcc96256ae8d5b80,611e7486ec841801db97a08f,0.3544,
,,,,space,,0,20,20,327,1,E, , , , ,space,1500,1.5,611c1794aea18553c59d5bfc,001,2021-08-19_16h11.23.647,natb3,2021.2.3,Win32,60.14314067,611c1794aea18553c59d5bfc,611e07ecdcc96256ae8d5b80,611e7486ec841801db97a08f,0.3501,
,,,,space,,0,21,21,205,1,C, , , , ,space,2000,2,611c1794aea18553c59d5bfc,001,2021-08-19_16h11.23.647,natb3,2021.2.3,Win32,60.14314067,611c1794aea18553c59d5bfc,611e07ecdcc96256ae8d5b80,611e7486ec841801db97a08f,0.3558,
,,,,space,,0,22,22,181,1,E, , , , ,space,1500,1.5,611c1794aea18553c59d5bfc,001,2021-08-19_16h11.23.647,natb3,2021.2.3,Win32,60.14314067,611c1794aea18553c59d5bfc,611e07ecdcc96256ae8d5b80,611e7486ec841801db97a08f,0.3339,
,,,,space,,0,23,23,30,1,N, , , , ,space,2500,2.5,611c1794aea18553c59d5bfc,001,2021-08-19_16h11.23.647,natb3,2021.2.3,Win32,60.14314067,611c1794aea18553c59d5bfc,611e07ecdcc96256ae8d5b80,611e7486ec841801db97a08f,0.3673,
,,,,space,,0,24,24,159,1,S, , , , ,space,2500,2.5,611c1794aea18553c59d5bfc,001,2021-08-19_16h11.23.647,natb3,2021.2.3,Win32,60.14314067,611c1794aea18553c59d5bfc,611e07ecdcc96256ae8d5b80,611e7486ec841801db97a08f,0.3335,
,,,,space,,0,25,25,8,1,U, , , , ,space,1500,1.5,611c1794aea18553c59d5bfc,001,2021-08-19_16h11.23.647,natb3,2021.2.3,Win32,60.14314067,611c1794aea18553c59d5bfc,611e07ecdcc96256ae8d5b80,611e7486ec841801db97a08f,0.3553,
,,,,space,,0,26,26,197,1,G, , , , ,space,2500,2.5,611c1794aea18553c59d5bfc,001,2021-08-19_16h11.23.647,natb3,2021.2.3,Win32,60.14314067,611c1794aea18553c59d5bfc,611e07ecdcc96256ae8d5b80,611e7486ec841801db97a08f,0.3002,
,,,,space,,0,27,27,212,1,Q, , , , ,space,2500,2.5,611c1794aea18553c59d5bfc,001,2021-08-19_16h11.23.647,natb3,2021.2.3,Win32,60.14314067,611c1794aea18553c59d5bfc,611e07ecdcc96256ae8d5b80,611e7486ec841801db97a08f,0.35,
,,,,space,,0,28,28,213,1,X, , , , ,,2500,2.5,611c1794aea18553c59d5bfc,001,2021-08-19_16h11.23.647,natb3,2021.2.3,Win32,60.14314067,611c1794aea18553c59d5bfc,611e07ecdcc96256ae8d5b80,611e7486ec841801db97a08f,0.3521,
,,,,space,,0,29,29,266,1,O, , , , ,space,1500,1.5,611c1794aea18553c59d5bfc,001,2021-08-19_16h11.23.647,natb3,2021.2.3,Win32,60.14314067,611c1794aea18553c59d5bfc,611e07ecdcc96256ae8d5b80,611e7486ec841801db97a08f,0.385,
,,,,,,0,30,30,141,1,X,1, ,4,6,,1500,1.5,611c1794aea18553c59d5bfc,001,2021-08-19_16h11.23.647,natb3,2021.2.3,Win32,60.14314067,611c1794aea18553c59d5bfc,611e07ecdcc96256ae8d5b80,611e7486ec841801db97a08f,,
,,,,space,,0,31,31,328,1,R, , , , ,space,1500,1.5,611c1794aea18553c59d5bfc,001,2021-08-19_16h11.23.647,natb3,2021.2.3,Win32,60.14314067,611c1794aea18553c59d5bfc,611e07ecdcc96256ae8d5b80,611e7486ec841801db97a08f,0.4165,
,,,,space,,0,32,32,290,1,W, , , , ,space,1500,1.5,611c1794aea18553c59d5bfc,001,2021-08-19_16h11.23.647,natb3,2021.2.3,Win32,60.14314067,611c1794aea18553c59d5bfc,611e07ecdcc96256ae8d5b80,611e7486ec841801db97a08f,0.3374,
,,,,space,,0,33,33,300,1,O, , , , ,space,2500,2.5,611c1794aea18553c59d5bfc,001,2021-08-19_16h11.23.647,natb3,2021.2.3,Win32,60.14314067,611c1794aea18553c59d5bfc,611e07ecdcc96256ae8d5b80,611e7486ec841801db97a08f,0.3341,
,,,,space,,0,34,34,177,1,M, , , , ,space,2500,2.5,611c1794aea18553c59d5bfc,001,2021-08-19_16h11.23.647,natb3,2021.2.3,Win32,60.14314067,611c1794aea18553c59d5bfc,611e07ecdcc96256ae8d5b80,611e7486ec841801db97a08f,0.338,
,,,,,,0,35,35,268,1,X,6, ,3, ,,2500,2.5,611c1794aea18553c59d5bfc,001,2021-08-19_16h11.23.647,natb3,2021.2.3,Win32,60.14314067,611c1794aea18553c59d5bfc,611e07ecdcc96256ae8d5b80,611e7486ec841801db97a08f,,
,,,,space,,0,36,36,48,1,A, , , , ,space,2500,2.5,611c1794aea18553c59d5bfc,001,2021-08-19_16h11.23.647,natb3,2021.2.3,Win32,60.14314067,611c1794aea18553c59d5bfc,611e07ecdcc96256ae8d5b80,611e7486ec841801db97a08f,0.4656,
,,,,space,,0,37,37,258,1,E, , , , ,space,1500,1.5,611c1794aea18553c59d5bfc,001,2021-08-19_16h11.23.647,natb3,2021.2.3,Win32,60.14314067,611c1794aea18553c59d5bfc,611e07ecdcc96256ae8d5b80,611e7486ec841801db97a08f,0.4168,
,,,,,,0,38,38,33,1,X, , , , ,,1500,1.5,611c1794aea18553c59d5bfc,001,2021-08-19_16h11.23.647,natb3,2021.2.3,Win32,60.14314067,611c1794aea18553c59d5bfc,611e07ecdcc96256ae8d5b80,611e7486ec841801db97a08f,,
,,,,space,,0,39,39,42,1,U, , , , ,space,1500,1.5,611c1794aea18553c59d5bfc,001,2021-08-19_16h11.23.647,natb3,2021.2.3,Win32,60.14314067,611c1794aea18553c59d5bfc,611e07ecdcc96256ae8d5b80,611e7486ec841801db97a08f,0.6716,
,,,,,,0,40,40,295,1,X,8,7,5, ,,2500,2.5,611c1794aea18553c59d5bfc,001,2021-08-19_16h11.23.647,natb3,2021.2.3,Win32,60.14314067,611c1794aea18553c59d5bfc,611e07ecdcc96256ae8d5b80,611e7486ec841801db97a08f,,
,,,,space,,0,41,41,276,1,H, , , , ,space,2000,2,611c1794aea18553c59d5bfc,001,2021-08-19_16h11.23.647,natb3,2021.2.3,Win32,60.14314067,611c1794aea18553c59d5bfc,611e07ecdcc96256ae8d5b80,611e7486ec841801db97a08f,0.4536,
,,,,space,,0,42,42,215,1,E, , , , ,space,2500,2.5,611c1794aea18553c59d5bfc,001,2021-08-19_16h11.23.647,natb3,2021.2.3,Win32,60.14314067,611c1794aea18553c59d5bfc,611e07ecdcc96256ae8d5b80,611e7486ec841801db97a08f,0.4856,
,,,,,,0,43,43,31,1,X, , , , ,,1500,1.5,611c1794aea18553c59d5bfc,001,2021-08-19_16h11.23.647,natb3,2021.2.3,Win32,60.14314067,611c1794aea18553c59d5bfc,611e07ecdcc96256ae8d5b80,611e7486ec841801db97a08f,,
,,,,,,0,44,44,243,1,X, , , , ,,2500,2.5,611c1794aea18553c59d5bfc,001,2021-08-19_16h11.23.647,natb3,2021.2.3,Win32,60.14314067,611c1794aea18553c59d5bfc,611e07ecdcc96256ae8d5b80,611e7486ec841801db97a08f,,
,,,,space,,0,45,45,11,1,P, , , , ,space,2500,2.5,611c1794aea18553c59d5bfc,001,2021-08-19_16h11.23.647,natb3,2021.2.3,Win32,60.14314067,611c1794aea18553c59d5bfc,611e07ecdcc96256ae8d5b80,611e7486ec841801db97a08f,0.3501,
,,,,space,,0,46,46,298,1,I, , , , ,space,2000,2,611c1794aea18553c59d5bfc,001,2021-08-19_16h11.23.647,natb3,2021.2.3,Win32,60.14314067,611c1794aea18553c59d5bfc,611e07ecdcc96256ae8d5b80,611e7486ec841801db97a08f,0.3664,
,,,,space,,0,47,47,307,1,F, , , , ,space,2500,2.5,611c1794aea18553c59d5bfc,001,2021-08-19_16h11.23.647,natb3,2021.2.3,Win32,60.14314067,611c1794aea18553c59d5bfc,611e07ecdcc96256ae8d5b80,611e7486ec841801db97a08f,0.3219,
,,,,space,,0,48,48,45,1,O, , , , ,space,2000,2,611c1794aea18553c59d5bfc,001,2021-08-19_16h11.23.647,natb3,2021.2.3,Win32,60.14314067,611c1794aea18553c59d5bfc,611e07ecdcc96256ae8d5b80,611e7486ec841801db97a08f,0.3216,
,,,,space,,0,49,49,160,1,D, , , , ,space,1500,1.5,611c1794aea18553c59d5bfc,001,2021-08-19_16h11.23.647,natb3,2021.2.3,Win32,60.14314067,611c1794aea18553c59d5bfc,611e07ecdcc96256ae8d5b80,611e7486ec841801db97a08f,0.3398,
,,,,space,,0,50,50,32,1,M, , , , ,space,1500,1.5,611c1794aea18553c59d5bfc,001,2021-08-19_16h11.23.647,natb3,2021.2.3,Win32,60.14314067,611c1794aea18553c59d5bfc,611e07ecdcc96256ae8d5b80,611e7486ec841801db97a08f,0.3023,
,,,,space,,0,51,51,224,1,W, , , , ,space,1500,1.5,611c1794aea18553c59d5bfc,001,2021-08-19_16h11.23.647,natb3,2021.2.3,Win32,60.14314067,611c1794aea18553c59d5bfc,611e07ecdcc96256ae8d5b80,611e7486ec841801db97a08f,0.3049,
,,,,space,,0,52,52,106,1,T, , , , ,space,1500,1.5,611c1794aea18553c59d5bfc,001,2021-08-19_16h11.23.647,natb3,2021.2.3,Win32,60.14314067,611c1794aea18553c59d5bfc,611e07ecdcc96256ae8d5b80,611e7486ec841801db97a08f,0.3502,
,,,,space,,0,53,53,81,1,S, , , , ,space,2000,2,611c1794aea18553c59d5bfc,001,2021-08-19_16h11.23.647,natb3,2021.2.3,Win32,60.14314067,611c1794aea18553c59d5bfc,611e07ecdcc96256ae8d5b80,611e7486ec841801db97a08f,0.3335,
,,,,space,,0,54,54,26,1,C, , , , ,space,2000,2,611c1794aea18553c59d5bfc,001,2021-08-19_16h11.23.647,natb3,2021.2.3,Win32,60.14314067,611c1794aea18553c59d5bfc,611e07ecdcc96256ae8d5b80,611e7486ec841801db97a08f,0.3004,
,,,,space,,0,55,55,254,1,M, , , , ,space,1500,1.5,611c1794aea18553c59d5bfc,001,2021-08-19_16h11.23.647,natb3,2021.2.3,Win32,60.14314067,611c1794aea18553c59d5bfc,611e07ecdcc96256ae8d5b80,611e7486ec841801db97a08f,0.3004,
,,,,space,,0,56,56,72,1,T, , , , ,space,1500,1.5,611c1794aea18553c59d5bfc,001,2021-08-19_16h11.23.647,natb3,2021.2.3,Win32,60.14314067,611c1794aea18553c59d5bfc,611e07ecdcc96256ae8d5b80,611e7486ec841801db97a08f,0.2717,
,,,,space,,0,57,57,293,1,R, , , , ,space,2500,2.5,611c1794aea18553c59d5bfc,001,2021-08-19_16h11.23.647,natb3,2021.2.3,Win32,60.14314067,611c1794aea18553c59d5bfc,611e07ecdcc96256ae8d5b80,611e7486ec841801db97a08f,0.5164,
,,,,space,,0,58,58,333,1,I, , , , ,space,1500,1.5,611c1794aea18553c59d5bfc,001,2021-08-19_16h11.23.647,natb3,2021.2.3,Win32,60.14314067,611c1794aea18553c59d5bfc,611e07ecdcc96256ae8d5b80,611e7486ec841801db97a08f,0.3843,
,,,,space,,0,59,59,189,1,O, , , , ,space,1500,1.5,611c1794aea18553c59d5bfc,001,2021-08-19_16h11.23.647,natb3,2021.2.3,Win32,60.14314067,611c1794aea18553c59d5bfc,611e07ecdcc96256ae8d5b80,611e7486ec841801db97a08f,0.3171,
,,,,space,,0,60,60,291,1,X, , , , ,,2000,2,611c1794aea18553c59d5bfc,001,2021-08-19_16h11.23.647,natb3,2021.2.3,Win32,60.14314067,611c1794aea18553c59d5bfc,611e07ecdcc96256ae8d5b80,611e7486ec841801db97a08f,0.2892,
,,,,space,,0,61,61,114,1,E, , , , ,space,2000,2,611c1794aea18553c59d5bfc,001,2021-08-19_16h11.23.647,natb3,2021.2.3,Win32,60.14314067,611c1794aea18553c59d5bfc,611e07ecdcc96256ae8d5b80,611e7486ec841801db97a08f,0.3168,
,,,,space,,0,62,62,86,1,G, , , , ,space,2000,2,611c1794aea18553c59d5bfc,001,2021-08-19_16h11.23.647,natb3,2021.2.3,Win32,60.14314067,611c1794aea18553c59d5bfc,611e07ecdcc96256ae8d5b80,611e7486ec841801db97a08f,0.3498,
,,,,space,,0,63,63,270,1,S, , , , ,space,1500,1.5,611c1794aea18553c59d5bfc,001,2021-08-19_16h11.23.647,natb3,2021.2.3,Win32,60.14314067,611c1794aea18553c59d5bfc,611e07ecdcc96256ae8d5b80,611e7486ec841801db97a08f,0.3704,
,,,,,,0,64,64,66,1,X, ,4,7, ,,2000,2,611c1794aea18553c59d5bfc,001,2021-08-19_16h11.23.647,natb3,2021.2.3,Win32,60.14314067,611c1794aea18553c59d5bfc,611e07ecdcc96256ae8d5b80,611e7486ec841801db97a08f,,
,,,,space,,0,65,65,157,1,A, , , , ,space,2500,2.5,611c1794aea18553c59d5bfc,001,2021-08-19_16h11.23.647,natb3,2021.2.3,Win32,60.14314067,611c1794aea18553c59d5bfc,611e07ecdcc96256ae8d5b80,611e7486ec841801db97a08f,0.4686,
,,,,space,,0,66,66,232,1,O, , , , ,space,2500,2.5,611c1794aea18553c59d5bfc,001,2021-08-19_16h11.23.647,natb3,2021.2.3,Win32,60.14314067,611c1794aea18553c59d5bfc,611e07ecdcc96256ae8d5b80,611e7486ec841801db97a08f,0.3832,
,,,,space,,0,67,67,161,1,F, , , , ,space,1500,1.5,611c1794aea18553c59d5bfc,001,2021-08-19_16h11.23.647,natb3,2021.2.3,Win32,60.14314067,611c1794aea18553c59d5bfc,611e07ecdcc96256ae8d5b80,611e7486ec841801db97a08f,0.3834,
,,,,space,,0,68,68,332,1,U, , , , ,space,2000,2,611c1794aea18553c59d5bfc,001,2021-08-19_16h11.23.647,natb3,2021.2.3,Win32,60.14314067,611c1794aea18553c59d5bfc,611e07ecdcc96256ae8d5b80,611e7486ec841801db97a08f,0.35,
,,,,space,,0,69,69,238,1,D, , , , ,space,1500,1.5,611c1794aea18553c59d5bfc,001,2021-08-19_16h11.23.647,natb3,2021.2.3,Win32,60.14314067,611c1794aea18553c59d5bfc,611e07ecdcc96256ae8d5b80,611e7486ec841801db97a08f,0.3336,
,,,,space,,0,70,70,248,1,X, ,1,5, ,,1500,1.5,611c1794aea18553c59d5bfc,001,2021-08-19_16h11.23.647,natb3,2021.2.3,Win32,60.14314067,611c1794aea18553c59d5bfc,611e07ecdcc96256ae8d5b80,611e7486ec841801db97a08f,0.3821,
,,,,space,,0,71,71,70,1,E, , , , ,space,2500,2.5,611c1794aea18553c59d5bfc,001,2021-08-19_16h11.23.647,natb3,2021.2.3,Win32,60.14314067,611c1794aea18553c59d5bfc,611e07ecdcc96256ae8d5b80,611e7486ec841801db97a08f,0.3502,
,,,,space,,0,72,72,285,1,B, , , , ,space,1500,1.5,611c1794aea18553c59d5bfc,001,2021-08-19_16h11.23.647,natb3,2021.2.3,Win32,60.14314067,611c1794aea18553c59d5bfc,611e07ecdcc96256ae8d5b80,611e7486ec841801db97a08f,0.3898,
,,,,space,,0,73,73,199,1,J, , , , ,space,2500,2.5,611c1794aea18553c59d5bfc,001,2021-08-19_16h11.23.647,natb3,2021.2.3,Win32,60.14314067,611c1794aea18553c59d5bfc,611e07ecdcc96256ae8d5b80,611e7486ec841801db97a08f,0.3666,
,,,,,,0,74,74,200,1,X,7, ,5,3,,1500,1.5,611c1794aea18553c59d5bfc,001,2021-08-19_16h11.23.647,natb3,2021.2.3,Win32,60.14314067,611c1794aea18553c59d5bfc,611e07ecdcc96256ae8d5b80,611e7486ec841801db97a08f,,
,,,,space,,0,75,75,59,1,Z, , , , ,space,2000,2,611c1794aea18553c59d5bfc,001,2021-08-19_16h11.23.647,natb3,2021.2.3,Win32,60.14314067,611c1794aea18553c59d5bfc,611e07ecdcc96256ae8d5b80,611e7486ec841801db97a08f,0.4004,
,,,,,,0,76,76,305,1,X, , , , ,,1500,1.5,611c1794aea18553c59d5bfc,001,2021-08-19_16h11.23.647,natb3,2021.2.3,Win32,60.14314067,611c1794aea18553c59d5bfc,611e07ecdcc96256ae8d5b80,611e7486ec841801db97a08f,,
,,,,space,,0,77,77,38,1,R, , , , ,space,2500,2.5,611c1794aea18553c59d5bfc,001,2021-08-19_16h11.23.647,natb3,2021.2.3,Win32,60.14314067,611c1794aea18553c59d5bfc,611e07ecdcc96256ae8d5b80,611e7486ec841801db97a08f,0.323,
,,,,,,0,78,78,207,1,X,9, ,2, ,,2500,2.5,611c1794aea18553c59d5bfc,001,2021-08-19_16h11.23.647,natb3,2021.2.3,Win32,60.14314067,611c1794aea18553c59d5bfc,611e07ecdcc96256ae8d5b80,611e7486ec841801db97a08f,,
,,,,,,0,79,79,263,1,X,4, ,6, ,,1500,1.5,611c1794aea18553c59d5bfc,001,2021-08-19_16h11.23.647,natb3,2021.2.3,Win32,60.14314067,611c1794aea18553c59d5bfc,611e07ecdcc96256ae8d5b80,611e7486ec841801db97a08f,,
,,,,space,,0,80,80,108,1,Y, , , , ,space,2500,2.5,611c1794aea18553c59d5bfc,001,2021-08-19_16h11.23.647,natb3,2021.2.3,Win32,60.14314067,611c1794aea18553c59d5bfc,611e07ecdcc96256ae8d5b80,611e7486ec841801db97a08f,0.4541,
,,,,,,0,81,81,138,1,X,8,5, ,3,,2000,2,611c1794aea18553c59d5bfc,001,2021-08-19_16h11.23.647,natb3,2021.2.3,Win32,60.14314067,611c1794aea18553c59d5bfc,611e07ecdcc96256ae8d5b80,611e7486ec841801db97a08f,,
,,,,,,0,82,82,252,1,X,3, ,6,9,,2000,2,611c1794aea18553c59d5bfc,001,2021-08-19_16h11.23.647,natb3,2021.2.3,Win32,60.14314067,611c1794aea18553c59d5bfc,611e07ecdcc96256ae8d5b80,611e7486ec841801db97a08f,,
,,,,space,,0,83,83,120,1,U, , , , ,space,1500,1.5,611c1794aea18553c59d5bfc,001,2021-08-19_16h11.23.647,natb3,2021.2.3,Win32,60.14314067,611c1794aea18553c59d5bfc,611e07ecdcc96256ae8d5b80,611e7486ec841801db97a08f,0.5204,
,,,,space,,0,84,84,334,1,O, , , , ,space,1500,1.5,611c1794aea18553c59d5bfc,001,2021-08-19_16h11.23.647,natb3,2021.2.3,Win32,60.14314067,611c1794aea18553c59d5bfc,611e07ecdcc96256ae8d5b80,611e7486ec841801db97a08f,0.4361,
,,,,space,,0,85,85,6,1,Y, , , , ,space,2500,2.5,611c1794aea18553c59d5bfc,001,2021-08-19_16h11.23.647,natb3,2021.2.3,Win32,60.14314067,611c1794aea18553c59d5bfc,611e07ecdcc96256ae8d5b80,611e7486ec841801db97a08f,0.3719,
,,,,space,,0,86,86,242,1,H, , , , ,space,2500,2.5,611c1794aea18553c59d5bfc,001,2021-08-19_16h11.23.647,natb3,2021.2.3,Win32,60.14314067,611c1794aea18553c59d5bfc,611e07ecdcc96256ae8d5b80,611e7486ec841801db97a08f,0.3669,
,,,,space,,0,87,87,257,1,W, , , , ,space,2000,2,611c1794aea18553c59d5bfc,001,2021-08-19_16h11.23.647,natb3,2021.2.3,Win32,60.14314067,611c1794aea18553c59d5bfc,611e07ecdcc96256ae8d5b80,611e7486ec841801db97a08f,0.4013,
,,,,space,,0,88,88,214,1,W, , , , ,space,2000,2,611c1794aea18553c59d5bfc,001,2021-08-19_16h11.23.647,natb3,2021.2.3,Win32,60.14314067,611c1794aea18553c59d5bfc,611e07ecdcc96256ae8d5b80,611e7486ec841801db97a08f,0.4667,
,,,,space,,0,89,89,47,1,P, , , , ,space,2000,2,611c1794aea18553c59d5bfc,001,2021-08-19_16h11.23.647,natb3,2021.2.3,Win32,60.14314067,611c1794aea18553c59d5bfc,611e07ecdcc96256ae8d5b80,611e7486ec841801db97a08f,0.3836,
,,,,space,,0,90,90,274,1,F, , , , ,space,2000,2,611c1794aea18553c59d5bfc,001,2021-08-19_16h11.23.647,natb3,2021.2.3,Win32,60.14314067,611c1794aea18553c59d5bfc,611e07ecdcc96256ae8d5b80,611e7486ec841801db97a08f,0.3678,
,,,,,,0,91,91,273,1,X, , , , ,,2000,2,611c1794aea18553c59d5bfc,001,2021-08-19_16h11.23.647,natb3,2021.2.3,Win32,60.14314067,611c1794aea18553c59d5bfc,611e07ecdcc96256ae8d5b80,611e7486ec841801db97a08f,,
,,,,space,,0,92,92,94,1,C, , , , ,space,2000,2,611c1794aea18553c59d5bfc,001,2021-08-19_16h11.23.647,natb3,2021.2.3,Win32,60.14314067,611c1794aea18553c59d5bfc,611e07ecdcc96256ae8d5b80,611e7486ec841801db97a08f,0.4003,
,,,,space,,0,93,93,230,1,U, , , , ,space,1500,1.5,611c1794aea18553c59d5bfc,001,2021-08-19_16h11.23.647,natb3,2021.2.3,Win32,60.14314067,611c1794aea18553c59d5bfc,611e07ecdcc96256ae8d5b80,611e7486ec841801db97a08f,0.3239,
,,,,space,,0,94,94,303,1,A, , , , ,space,2000,2,611c1794aea18553c59d5bfc,001,2021-08-19_16h11.23.647,natb3,2021.2.3,Win32,60.14314067,611c1794aea18553c59d5bfc,611e07ecdcc96256ae8d5b80,611e7486ec841801db97a08f,0.3166,
,,,,space,,0,95,95,164,1,H, , , , ,space,2500,2.5,611c1794aea18553c59d5bfc,001,2021-08-19_16h11.23.647,natb3,2021.2.3,Win32,60.14314067,611c1794aea18553c59d5bfc,611e07ecdcc96256ae8d5b80,611e7486ec841801db97a08f,0.3499,
,,,,space,,0,96,96,113,1,W, , , , ,space,2500,2.5,611c1794aea18553c59d5bfc,001,2021-08-19_16h11.23.647,natb3,2021.2.3,Win32,60.14314067,611c1794aea18553c59d5bfc,611e07ecdcc96256ae8d5b80,611e7486ec841801db97a08f,0.3501,
,,,,space,,0,97,97,188,1,I, , , , ,space,2500,2.5,611c1794aea18553c59d5bfc,001,2021-08-19_16h11.23.647,natb3,2021.2.3,Win32,60.14314067,611c1794aea18553c59d5bfc,611e07ecdcc96256ae8d5b80,611e7486ec841801db97a08f,0.3669,
,,,,,,0,98,98,12,1,X, , , , ,,1500,1.5,611c1794aea18553c59d5bfc,001,2021-08-19_16h11.23.647,natb3,2021.2.3,Win32,60.14314067,611c1794aea18553c59d5bfc,611e07ecdcc96256ae8d5b80,611e7486ec841801db97a08f,,
,,,,space,,0,99,99,103,1,W, , , , ,space,2000,2,611c1794aea18553c59d5bfc,001,2021-08-19_16h11.23.647,natb3,2021.2.3,Win32,60.14314067,611c1794aea18553c59d5bfc,611e07ecdcc96256ae8d5b80,611e7486ec841801db97a08f,0.3997,
,,,,space,,0,100,100,40,1,T, , , , ,space,1500,1.5,611c1794aea18553c59d5bfc,001,2021-08-19_16h11.23.647,natb3,2021.2.3,Win32,60.14314067,611c1794aea18553c59d5bfc,611e07ecdcc96256ae8d5b80,611e7486ec841801db97a08f,0.5177,
,,,,space,,0,101,101,63,1,B, , , , ,space,2000,2,611c1794aea18553c59d5bfc,001,2021-08-19_16h11.23.647,natb3,2021.2.3,Win32,60.14314067,611c1794aea18553c59d5bfc,611e07ecdcc96256ae8d5b80,611e7486ec841801db97a08f,0.3178,
,,,,space,,0,102,102,208,1,B, , , , ,space,1500,1.5,611c1794aea18553c59d5bfc,001,2021-08-19_16h11.23.647,natb3,2021.2.3,Win32,60.14314067,611c1794aea18553c59d5bfc,611e07ecdcc96256ae8d5b80,611e7486ec841801db97a08f,0.4011,
,,,,space,,0,103,103,19,1,G, , , , ,space,1500,1.5,611c1794aea18553c59d5bfc,001,2021-08-19_16h11.23.647,natb3,2021.2.3,Win32,60.14314067,611c1794aea18553c59d5bfc,611e07ecdcc96256ae8d5b80,611e7486ec841801db97a08f,0.3363,
,,,,space,,0,104,104,128,1,D, , , , ,space,2500,2.5,611c1794aea18553c59d5bfc,001,2021-08-19_16h11.23.647,natb3,2021.2.3,Win32,60.14314067,611c1794aea18553c59d5bfc,611e07ecdcc96256ae8d5b80,611e7486ec841801db97a08f,0.3406,
,,,,space,,0,105,105,62,1,V, , , , ,space,1500,1.5,611c1794aea18553c59d5bfc,001,2021-08-19_16h11.23.647,natb3,2021.2.3,Win32,60.14314067,611c1794aea18553c59d5bfc,611e07ecdcc96256ae8d5b80,611e7486ec841801db97a08f,0.3738,
,,,,space,,0,106,106,68,1,W, , , , ,space,2500,2.5,611c1794aea18553c59d5bfc,001,2021-08-19_16h11.23.647,natb3,2021.2.3,Win32,60.14314067,611c1794aea18553c59d5bfc,611e07ecdcc96256ae8d5b80,611e7486ec841801db97a08f,0.3502,
,,,,space,,0,107,107,49,1,S, , , , ,space,1500,1.5,611c1794aea18553c59d5bfc,001,2021-08-19_16h11.23.647,natb3,2021.2.3,Win32,60.14314067,611c1794aea18553c59d5bfc,611e07ecdcc96256ae8d5b80,611e7486ec841801db97a08f,0.3833,
,,,,space,,0,108,108,83,1,D, , , , ,space,2000,2,611c1794aea18553c59d5bfc,001,2021-08-19_16h11.23.647,natb3,2021.2.3,Win32,60.14314067,611c1794aea18553c59d5bfc,611e07ecdcc96256ae8d5b80,611e7486ec841801db97a08f,0.4872,
,,,,,,0,109,109,107,1,X,9,3, ,2,,2000,2,611c1794aea18553c59d5bfc,001,2021-08-19_16h11.23.647,natb3,2021.2.3,Win32,60.14314067,611c1794aea18553c59d5bfc,611e07ecdcc96256ae8d5b80,611e7486ec841801db97a08f,,
,,,,,,0,110,110,218,1,X,1,3, ,8,,1500,1.5,611c1794aea18553c59d5bfc,001,2021-08-19_16h11.23.647,natb3,2021.2.3,Win32,60.14314067,611c1794aea18553c59d5bfc,611e07ecdcc96256ae8d5b80,611e7486ec841801db97a08f,,
,,,,space,,0,111,111,309,1,H, , , , ,space,2500,2.5,611c1794aea18553c59d5bfc,001,2021-08-19_16h11.23.647,natb3,2021.2.3,Win32,60.14314067,611c1794aea18553c59d5bfc,611e07ecdcc96256ae8d5b80,611e7486ec841801db97a08f,0.3744,
,,,,space,,0,112,112,319,1,V, , , , ,space,2000,2,611c1794aea18553c59d5bfc,001,2021-08-19_16h11.23.647,natb3,2021.2.3,Win32,60.14314067,611c1794aea18553c59d5bfc,611e07ecdcc96256ae8d5b80,611e7486ec841801db97a08f,0.3881,
,,,,space,,0,113,113,75,1,U, , , , ,space,1500,1.5,611c1794aea18553c59d5bfc,001,2021-08-19_16h11.23.647,natb3,2021.2.3,Win32,60.14314067,611c1794aea18553c59d5bfc,611e07ecdcc96256ae8d5b80,611e7486ec841801db97a08f,0.3712,
,,,,space,,0,114,114,227,1,T, , , , ,space,1500,1.5,611c1794aea18553c59d5bfc,001,2021-08-19_16h11.23.647,natb3,2021.2.3,Win32,60.14314067,611c1794aea18553c59d5bfc,611e07ecdcc96256ae8d5b80,611e7486ec841801db97a08f,0.3832,
,,,,space,,0,115,115,158,1,X, , , , ,,1500,1.5,611c1794aea18553c59d5bfc,001,2021-08-19_16h11.23.647,natb3,2021.2.3,Win32,60.14314067,611c1794aea18553c59d5bfc,611e07ecdcc96256ae8d5b80,611e7486ec841801db97a08f,0.3671,
,,,,space,,0,116,116,150,1,T, , , , ,space,2500,2.5,611c1794aea18553c59d5bfc,001,2021-08-19_16h11.23.647,natb3,2021.2.3,Win32,60.14314067,611c1794aea18553c59d5bfc,611e07ecdcc96256ae8d5b80,611e7486ec841801db97a08f,0.4004,
,,,,,,0,117,117,311,1,X,1,2,7,3,,2500,2.5,611c1794aea18553c59d5bfc,001,2021-08-19_16h11.23.647,natb3,2021.2.3,Win32,60.14314067,611c1794aea18553c59d5bfc,611e07ecdcc96256ae8d5b80,611e7486ec841801db97a08f,,
,,,,,,0,118,118,166,1,X, , , , ,,2000,2,611c1794aea18553c59d5bfc,001,2021-08-19_16h11.23.647,natb3,2021.2.3,Win32,60.14314067,611c1794aea18553c59d5bfc,611e07ecdcc96256ae8d5b80,611e7486ec841801db97a08f,,
,,,,,,0,119,119,162,1,X,1,6, ,2,,1500,1.5,611c1794aea18553c59d5bfc,001,2021-08-19_16h11.23.647,natb3,2021.2.3,Win32,60.14314067,611c1794aea18553c59d5bfc,611e07ecdcc96256ae8d5b80,611e7486ec841801db97a08f,,
,,,,,,0,120,120,43,1,X, ,6, ,2,,2500,2.5,611c1794aea18553c59d5bfc,001,2021-08-19_16h11.23.647,natb3,2021.2.3,Win32,60.14314067,611c1794aea18553c59d5bfc,611e07ecdcc96256ae8d5b80,611e7486ec841801db97a08f,,
,,,,,,0,121,121,299,1,X, , , , ,,2500,2.5,611c1794aea18553c59d5bfc,001,2021-08-19_16h11.23.647,natb3,2021.2.3,Win32,60.14314067,611c1794aea18553c59d5bfc,611e07ecdcc96256ae8d5b80,611e7486ec841801db97a08f,,
,,,,space,,0,122,122,65,1,M, , , , ,space,1500,1.5,611c1794aea18553c59d5bfc,001,2021-08-19_16h11.23.647,natb3,2021.2.3,Win32,60.14314067,611c1794aea18553c59d5bfc,611e07ecdcc96256ae8d5b80,611e7486ec841801db97a08f,0.4997,
,,,,space,,0,123,123,10,1,O, , , , ,space,2000,2,611c1794aea18553c59d5bfc,001,2021-08-19_16h11.23.647,natb3,2021.2.3,Win32,60.14314067,611c1794aea18553c59d5bfc,611e07ecdcc96256ae8d5b80,611e7486ec841801db97a08f,0.4031,
,,,,,,0,124,124,46,1,X, , , , ,,2000,2,611c1794aea18553c59d5bfc,001,2021-08-19_16h11.23.647,natb3,2021.2.3,Win32,60.14314067,611c1794aea18553c59d5bfc,611e07ecdcc96256ae8d5b80,611e7486ec841801db97a08f,,
,,,,space,,0,125,125,193,1,S, , , , ,space,2500,2.5,611c1794aea18553c59d5bfc,001,2021-08-19_16h11.23.647,natb3,2021.2.3,Win32,60.14314067,611c1794aea18553c59d5bfc,611e07ecdcc96256ae8d5b80,611e7486ec841801db97a08f,0.3873,
,,,,space,,0,126,126,289,1,Q, , , , ,space,2000,2,611c1794aea18553c59d5bfc,001,2021-08-19_16h11.23.647,natb3,2021.2.3,Win32,60.14314067,611c1794aea18553c59d5bfc,611e07ecdcc96256ae8d5b80,611e7486ec841801db97a08f,0.3834,
,,,,,,0,127,127,27,1,X,5, ,1,3,,1500,1.5,611c1794aea18553c59d5bfc,001,2021-08-19_16h11.23.647,natb3,2021.2.3,Win32,60.14314067,611c1794aea18553c59d5bfc,611e07ecdcc96256ae8d5b80,611e7486ec841801db97a08f,,
,,,,space,,0,128,128,280,1,L, , , , ,space,1500,1.5,611c1794aea18553c59d5bfc,001,2021-08-19_16h11.23.647,natb3,2021.2.3,Win32,60.14314067,611c1794aea18553c59d5bfc,611e07ecdcc96256ae8d5b80,611e7486ec841801db97a08f,0.4189,
,,,,space,,0,129,129,278,1,J, , , , ,space,2000,2,611c1794aea18553c59d5bfc,001,2021-08-19_16h11.23.647,natb3,2021.2.3,Win32,60.14314067,611c1794aea18553c59d5bfc,611e07ecdcc96256ae8d5b80,611e7486ec841801db97a08f,0.4068,
,,,,space,,0,130,130,142,1,N, , , , ,space,2500,2.5,611c1794aea18553c59d5bfc,001,2021-08-19_16h11.23.647,natb3,2021.2.3,Win32,60.14314067,611c1794aea18553c59d5bfc,611e07ecdcc96256ae8d5b80,611e7486ec841801db97a08f,0.4005,
,,,,,,0,131,131,89,1,X,3, , , ,,2000,2,611c1794aea18553c59d5bfc,001,2021-08-19_16h11.23.647,natb3,2021.2.3,Win32,60.14314067,611c1794aea18553c59d5bfc,611e07ecdcc96256ae8d5b80,611e7486ec841801db97a08f,,
,,,,space,,0,132,132,115,1,R, , , , ,space,1500,1.5,611c1794aea18553c59d5bfc,001,2021-08-19_16h11.23.647,natb3,2021.2.3,Win32,60.14314067,611c1794aea18553c59d5bfc,611e07ecdcc96256ae8d5b80,611e7486ec841801db97a08f,0.4334,
,,,,,,0,133,133,187,1,X, ,3,7,4,,1500,1.5,611c1794aea18553c59d5bfc,001,2021-08-19_16h11.23.647,natb3,2021.2.3,Win32,60.14314067,611c1794aea18553c59d5bfc,611e07ecdcc96256ae8d5b80,611e7486ec841801db97a08f,,
,,,,space,,0,134,134,216,1,R, , , , ,space,1500,1.5,611c1794aea18553c59d5bfc,001,2021-08-19_16h11.23.647,natb3,2021.2.3,Win32,60.14314067,611c1794aea18553c59d5bfc,611e07ecdcc96256ae8d5b80,611e7486ec841801db97a08f,0.432,
,,,,space,,0,135,135,169,1,L, , , , ,space,2500,2.5,611c1794aea18553c59d5bfc,001,2021-08-19_16h11.23.647,natb3,2021.2.3,Win32,60.14314067,611c1794aea18553c59d5bfc,611e07ecdcc96256ae8d5b80,611e7486ec841801db97a08f,0.8703,
,,,,,,0,136,136,203,1,X, , , , ,,2500,2.5,611c1794aea18553c59d5bfc,001,2021-08-19_16h11.23.647,natb3,2021.2.3,Win32,60.14314067,611c1794aea18553c59d5bfc,611e07ecdcc96256ae8d5b80,611e7486ec841801db97a08f,,
,,,,space,,0,137,137,99,1,N, , , , ,space,2500,2.5,611c1794aea18553c59d5bfc,001,2021-08-19_16h11.23.647,natb3,2021.2.3,Win32,60.14314067,611c1794aea18553c59d5bfc,611e07ecdcc96256ae8d5b80,611e7486ec841801db97a08f,0.4666,
,,,,,,0,138,138,282,1,X, , , , ,,2500,2.5,611c1794aea18553c59d5bfc,001,2021-08-19_16h11.23.647,natb3,2021.2.3,Win32,60.14314067,611c1794aea18553c59d5bfc,611e07ecdcc96256ae8d5b80,611e7486ec841801db97a08f,,
,,,,space,,0,139,139,58,1,L, , , , ,space,2000,2,611c1794aea18553c59d5bfc,001,2021-08-19_16h11.23.647,natb3,2021.2.3,Win32,60.14314067,611c1794aea18553c59d5bfc,611e07ecdcc96256ae8d5b80,611e7486ec841801db97a08f,0.3838,
,,,,space,,0,140,140,156,1,P, , , , ,space,1500,1.5,611c1794aea18553c59d5bfc,001,2021-08-19_16h11.23.647,natb3,2021.2.3,Win32,60.14314067,611c1794aea18553c59d5bfc,611e07ecdcc96256ae8d5b80,611e7486ec841801db97a08f,0.4876,
,,,,space,,0,141,141,262,1,Y, , , , ,space,2500,2.5,611c1794aea18553c59d5bfc,001,2021-08-19_16h11.23.647,natb3,2021.2.3,Win32,60.14314067,611c1794aea18553c59d5bfc,611e07ecdcc96256ae8d5b80,611e7486ec841801db97a08f,0.3838,
,,,,space,,0,142,142,314,1,L, , , , ,space,1500,1.5,611c1794aea18553c59d5bfc,001,2021-08-19_16h11.23.647,natb3,2021.2.3,Win32,60.14314067,611c1794aea18553c59d5bfc,611e07ecdcc96256ae8d5b80,611e7486ec841801db97a08f,0.3832,
,,,,space,,0,143,143,105,1,R, , , , ,space,2500,2.5,611c1794aea18553c59d5bfc,001,2021-08-19_16h11.23.647,natb3,2021.2.3,Win32,60.14314067,611c1794aea18553c59d5bfc,611e07ecdcc96256ae8d5b80,611e7486ec841801db97a08f,0.417,
,,,,space,,0,144,144,22,1,K, , , , ,space,2000,2,611c1794aea18553c59d5bfc,001,2021-08-19_16h11.23.647,natb3,2021.2.3,Win32,60.14314067,611c1794aea18553c59d5bfc,611e07ecdcc96256ae8d5b80,611e7486ec841801db97a08f,0.404,
,,,,space,,0,145,145,241,1,G, , , , ,space,2500,2.5,611c1794aea18553c59d5bfc,001,2021-08-19_16h11.23.647,natb3,2021.2.3,Win32,60.14314067,611c1794aea18553c59d5bfc,611e07ecdcc96256ae8d5b80,611e7486ec841801db97a08f,0.374,
,,,,,,0,146,146,93,1,X,5, ,7, ,,2500,2.5,611c1794aea18553c59d5bfc,001,2021-08-19_16h11.23.647,natb3,2021.2.3,Win32,60.14314067,611c1794aea18553c59d5bfc,611e07ecdcc96256ae8d5b80,611e7486ec841801db97a08f,,
,,,,space,,0,147,147,67,1,Q, , , , ,space,2000,2,611c1794aea18553c59d5bfc,001,2021-08-19_16h11.23.647,natb3,2021.2.3,Win32,60.14314067,611c1794aea18553c59d5bfc,611e07ecdcc96256ae8d5b80,611e7486ec841801db97a08f,0.3848,
,,,,space,,0,148,148,288,1,M, , , , ,space,1500,1.5,611c1794aea18553c59d5bfc,001,2021-08-19_16h11.23.647,natb3,2021.2.3,Win32,60.14314067,611c1794aea18553c59d5bfc,611e07ecdcc96256ae8d5b80,611e7486ec841801db97a08f,0.4001,
,,,,space,,0,149,149,194,1,D, , , , ,space,2000,2,611c1794aea18553c59d5bfc,001,2021-08-19_16h11.23.647,natb3,2021.2.3,Win32,60.14314067,611c1794aea18553c59d5bfc,611e07ecdcc96256ae8d5b80,611e7486ec841801db97a08f,0.3996,
,,,,,,0,150,150,51,1,X,7,5,8, ,,1500,1.5,611c1794aea18553c59d5bfc,001,2021-08-19_16h11.23.647,natb3,2021.2.3,Win32,60.14314067,611c1794aea18553c59d5bfc,611e07ecdcc96256ae8d5b80,611e7486ec841801db97a08f,,
,,,,space,,0,151,151,184,1,T, , , , ,space,2000,2,611c1794aea18553c59d5bfc,001,2021-08-19_16h11.23.647,natb3,2021.2.3,Win32,60.14314067,611c1794aea18553c59d5bfc,611e07ecdcc96256ae8d5b80,611e7486ec841801db97a08f,0.3832,
,,,,space,,0,152,152,50,1,D, , , , ,space,1500,1.5,611c1794aea18553c59d5bfc,001,2021-08-19_16h11.23.647,natb3,2021.2.3,Win32,60.14314067,611c1794aea18553c59d5bfc,611e07ecdcc96256ae8d5b80,611e7486ec841801db97a08f,0.3698,
,,,,space,,0,153,153,97,1,B, , , , ,space,2500,2.5,611c1794aea18553c59d5bfc,001,2021-08-19_16h11.23.647,natb3,2021.2.3,Win32,60.14314067,611c1794aea18553c59d5bfc,611e07ecdcc96256ae8d5b80,611e7486ec841801db97a08f,0.3562,
,,,,space,,0,154,154,306,1,D, , , , ,space,2000,2,611c1794aea18553c59d5bfc,001,2021-08-19_16h11.23.647,natb3,2021.2.3,Win32,60.14314067,611c1794aea18553c59d5bfc,611e07ecdcc96256ae8d5b80,611e7486ec841801db97a08f,0.4001,
,,,,,,0,155,155,236,1,X,3, ,4,7,,2500,2.5,611c1794aea18553c59d5bfc,001,2021-08-19_16h11.23.647,natb3,2021.2.3,Win32,60.14314067,611c1794aea18553c59d5bfc,611e07ecdcc96256ae8d5b80,611e7486ec841801db97a08f,,
,,,,space,,0,156,156,226,1,R, , , , ,space,2000,2,611c1794aea18553c59d5bfc,001,2021-08-19_16h11.23.647,natb3,2021.2.3,Win32,60.14314067,611c1794aea18553c59d5bfc,611e07ecdcc96256ae8d5b80,611e7486ec841801db97a08f,0.4503,
,,,,space,,0,157,157,301,1,P, , , , ,space,1500,1.5,611c1794aea18553c59d5bfc,001,2021-08-19_16h11.23.647,natb3,2021.2.3,Win32,60.14314067,611c1794aea18553c59d5bfc,611e07ecdcc96256ae8d5b80,611e7486ec841801db97a08f,0.5502,
,,,,,,0,158,158,122,1,X,1, , ,8,,1500,1.5,611c1794aea18553c59d5bfc,001,2021-08-19_16h11.23.647,natb3,2021.2.3,Win32,60.14314067,611c1794aea18553c59d5bfc,611e07ecdcc96256ae8d5b80,611e7486ec841801db97a08f,,
,,,,,,0,159,159,18,1,X, ,2,5,8,,2500,2.5,611c1794aea18553c59d5bfc,001,2021-08-19_16h11.23.647,natb3,2021.2.3,Win32,60.14314067,611c1794aea18553c59d5bfc,611e07ecdcc96256ae8d5b80,611e7486ec841801db97a08f,,
,,,,,,0,160,160,78,1,X, , , , ,,2000,2,611c1794aea18553c59d5bfc,001,2021-08-19_16h11.23.647,natb3,2021.2.3,Win32,60.14314067,611c1794aea18553c59d5bfc,611e07ecdcc96256ae8d5b80,611e7486ec841801db97a08f,,
,,,,space,,0,161,161,253,1,N, , , , ,space,2500,2.5,611c1794aea18553c59d5bfc,001,2021-08-19_16h11.23.647,natb3,2021.2.3,Win32,60.14314067,611c1794aea18553c59d5bfc,611e07ecdcc96256ae8d5b80,611e7486ec841801db97a08f,0.4892,
,,,,space,,0,162,162,219,1,Y, , , , ,space,2000,2,611c1794aea18553c59d5bfc,001,2021-08-19_16h11.23.647,natb3,2021.2.3,Win32,60.14314067,611c1794aea18553c59d5bfc,611e07ecdcc96256ae8d5b80,611e7486ec841801db97a08f,0.4498,
,,,,,,0,163,163,98,1,X, , , , ,,2500,2.5,611c1794aea18553c59d5bfc,001,2021-08-19_16h11.23.647,natb3,2021.2.3,Win32,60.14314067,611c1794aea18553c59d5bfc,611e07ecdcc96256ae8d5b80,611e7486ec841801db97a08f,,
,,,,space,,0,164,164,281,1,Z, , , , ,space,1500,1.5,611c1794aea18553c59d5bfc,001,2021-08-19_16h11.23.647,natb3,2021.2.3,Win32,60.14314067,611c1794aea18553c59d5bfc,611e07ecdcc96256ae8d5b80,611e7486ec841801db97a08f,0.4496,
,,,,space,,0,165,165,44,1,I, , , , ,space,2500,2.5,611c1794aea18553c59d5bfc,001,2021-08-19_16h11.23.647,natb3,2021.2.3,Win32,60.14314067,611c1794aea18553c59d5bfc,611e07ecdcc96256ae8d5b80,611e7486ec841801db97a08f,0.4205,
,,,,space,,0,166,166,90,1,K, , , , ,space,2000,2,611c1794aea18553c59d5bfc,001,2021-08-19_16h11.23.647,natb3,2021.2.3,Win32,60.14314067,611c1794aea18553c59d5bfc,611e07ecdcc96256ae8d5b80,611e7486ec841801db97a08f,0.439,
,,,,space,space,0,167,167,202,1,L, , , , ,space,2500,2.5,611c1794aea18553c59d5bfc,001,2021-08-19_16h11.23.647,natb3,2021.2.3,Win32,60.14314067,611c1794aea18553c59d5bfc,611e07ecdcc96256ae8d5b80,611e7486ec841801db97a08f,0.4074,25.9425
,,,,space,,0,168,168,176,1,N, , , , ,space,1500,1.5,611c1794aea18553c59d5bfc,001,2021-08-19_16h11.23.647,natb3,2021.2.3,Win32,60.14314067,611c1794aea18553c59d5bfc,611e07ecdcc96256ae8d5b80,611e7486ec841801db97a08f,0.5828,
,,,,,,0,169,169,133,1,X, ,4, ,6,,2500,2.5,611c1794aea18553c59d5bfc,001,2021-08-19_16h11.23.647,natb3,2021.2.3,Win32,60.14314067,611c1794aea18553c59d5bfc,611e07ecdcc96256ae8d5b80,611e7486ec841801db97a08f,,
,,,,,,0,170,170,82,1,X,4,6,1,7,,2000,2,611c1794aea18553c59d5bfc,001,2021-08-19_16h11.23.647,natb3,2021.2.3,Win32,60.14314067,611c1794aea18553c59d5bfc,611e07ecdcc96256ae8d5b80,611e7486ec841801db97a08f,,
,,,,space,,0,171,171,330,1,T, , , , ,space,2500,2.5,611c1794aea18553c59d5bfc,001,2021-08-19_16h11.23.647,natb3,2021.2.3,Win32,60.14314067,611c1794aea18553c59d5bfc,611e07ecdcc96256ae8d5b80,611e7486ec841801db97a08f,0.4666,
,,,,,,0,172,172,271,1,X, , , , ,,2500,2.5,611c1794aea18553c59d5bfc,001,2021-08-19_16h11.23.647,natb3,2021.2.3,Win32,60.14314067,611c1794aea18553c59d5bfc,611e07ecdcc96256ae8d5b80,611e7486ec841801db97a08f,,
,,,,space,,0,173,173,140,1,B, , , , ,space,2500,2.5,611c1794aea18553c59d5bfc,001,2021-08-19_16h11.23.647,natb3,2021.2.3,Win32,60.14314067,611c1794aea18553c59d5bfc,611e07ecdcc96256ae8d5b80,611e7486ec841801db97a08f,0.3719,
,,,,space,,0,174,174,87,1,H, , , , ,space,1500,1.5,611c1794aea18553c59d5bfc,001,2021-08-19_16h11.23.647,natb3,2021.2.3,Win32,60.14314067,611c1794aea18553c59d5bfc,611e07ecdcc96256ae8d5b80,611e7486ec841801db97a08f,0.4336,
,,,,space,,0,175,175,225,1,E, , , , ,space,2000,2,611c1794aea18553c59d5bfc,001,2021-08-19_16h11.23.647,natb3,2021.2.3,Win32,60.14314067,611c1794aea18553c59d5bfc,611e07ecdcc96256ae8d5b80,611e7486ec841801db97a08f,0.4017,
,,,,space,,0,176,176,111,1,O, , , , ,space,2000,2,611c1794aea18553c59d5bfc,001,2021-08-19_16h11.23.647,natb3,2021.2.3,Win32,60.14314067,611c1794aea18553c59d5bfc,611e07ecdcc96256ae8d5b80,611e7486ec841801db97a08f,0.3718,
,,,,space,,0,177,177,279,1,K, , , , ,space,2500,2.5,611c1794aea18553c59d5bfc,001,2021-08-19_16h11.23.647,natb3,2021.2.3,Win32,60.14314067,611c1794aea18553c59d5bfc,611e07ecdcc96256ae8d5b80,611e7486ec841801db97a08f,0.5511,
,,,,space,,0,178,178,251,1,B, , , , ,space,1500,1.5,611c1794aea18553c59d5bfc,001,2021-08-19_16h11.23.647,natb3,2021.2.3,Win32,60.14314067,611c1794aea18553c59d5bfc,611e07ecdcc96256ae8d5b80,611e7486ec841801db97a08f,0.4568,
,,,,space,,0,179,179,247,1,Z, , , , ,space,1500,1.5,611c1794aea18553c59d5bfc,001,2021-08-19_16h11.23.647,natb3,2021.2.3,Win32,60.14314067,611c1794aea18553c59d5bfc,611e07ecdcc96256ae8d5b80,611e7486ec841801db97a08f,0.3902,
,,,,space,,0,180,180,104,1,E, , , , ,space,2000,2,611c1794aea18553c59d5bfc,001,2021-08-19_16h11.23.647,natb3,2021.2.3,Win32,60.14314067,611c1794aea18553c59d5bfc,611e07ecdcc96256ae8d5b80,611e7486ec841801db97a08f,0.3999,
,,,,space,,0,181,181,286,1,N, , , , ,space,1500,1.5,611c1794aea18553c59d5bfc,001,2021-08-19_16h11.23.647,natb3,2021.2.3,Win32,60.14314067,611c1794aea18553c59d5bfc,611e07ecdcc96256ae8d5b80,611e7486ec841801db97a08f,0.3375,
,,,,space,,0,182,182,183,1,R, , , , ,space,1500,1.5,611c1794aea18553c59d5bfc,001,2021-08-19_16h11.23.647,natb3,2021.2.3,Win32,60.14314067,611c1794aea18553c59d5bfc,611e07ecdcc96256ae8d5b80,611e7486ec841801db97a08f,0.3657,
,,,,space,,0,183,183,201,1,K, , , , ,space,1500,1.5,611c1794aea18553c59d5bfc,001,2021-08-19_16h11.23.647,natb3,2021.2.3,Win32,60.14314067,611c1794aea18553c59d5bfc,611e07ecdcc96256ae8d5b80,611e7486ec841801db97a08f,0.3333,
,,,,space,,0,184,184,1,1,W, , , , ,space,2000,2,611c1794aea18553c59d5bfc,001,2021-08-19_16h11.23.647,natb3,2021.2.3,Win32,60.14314067,611c1794aea18553c59d5bfc,611e07ecdcc96256ae8d5b80,611e7486ec841801db97a08f,0.3491,
,,,,space,,0,185,185,267,1,P, , , , ,space,2000,2,611c1794aea18553c59d5bfc,001,2021-08-19_16h11.23.647,natb3,2021.2.3,Win32,60.14314067,611c1794aea18553c59d5bfc,611e07ecdcc96256ae8d5b80,611e7486ec841801db97a08f,0.3071,
,,,,space,,0,186,186,296,1,Y, , , , ,space,2500,2.5,611c1794aea18553c59d5bfc,001,2021-08-19_16h11.23.647,natb3,2021.2.3,Win32,60.14314067,611c1794aea18553c59d5bfc,611e07ecdcc96256ae8d5b80,611e7486ec841801db97a08f,0.3517,
,,,,,,0,187,187,7,1,X, , , , ,,1500,1.5,611c1794aea18553c59d5bfc,001,2021-08-19_16h11.23.647,natb3,2021.2.3,Win32,60.14314067,611c1794aea18553c59d5bfc,611e07ecdcc96256ae8d5b80,611e7486ec841801db97a08f,,
,,,,space,,0,188,188,167,1,K, , , , ,space,1500,1.5,611c1794aea18553c59d5bfc,001,2021-08-19_16h11.23.647,natb3,2021.2.3,Win32,60.14314067,611c1794aea18553c59d5bfc,611e07ecdcc96256ae8d5b80,611e7486ec841801db97a08f,0.4835,
,,,,space,,0,189,189,73,1,Y, , , , ,space,2000,2,611c1794aea18553c59d5bfc,001,2021-08-19_16h11.23.647,natb3,2021.2.3,Win32,60.14314067,611c1794aea18553c59d5bfc,611e07ecdcc96256ae8d5b80,611e7486ec841801db97a08f,0.3499,
,,,,space,,0,190,190,171,1,X, , , , ,,1500,1.5,611c1794aea18553c59d5bfc,001,2021-08-19_16h11.23.647,natb3,2021.2.3,Win32,60.14314067,611c1794aea18553c59d5bfc,611e07ecdcc96256ae8d5b80,611e7486ec841801db97a08f,0.3506,
,,,,space,,0,191,191,210,1,M, , , , ,space,1500,1.5,611c1794aea18553c59d5bfc,001,2021-08-19_16h11.23.647,natb3,2021.2.3,Win32,60.14314067,611c1794aea18553c59d5bfc,611e07ecdcc96256ae8d5b80,611e7486ec841801db97a08f,0.3508,
,,,,,,0,192,192,179,1,X, ,9, ,2,,1500,1.5,611c1794aea18553c59d5bfc,001,2021-08-19_16h11.23.647,natb3,2021.2.3,Win32,60.14314067,611c1794aea18553c59d5bfc,611e07ecdcc96256ae8d5b80,611e7486ec841801db97a08f,,
,,,,space,,0,193,193,240,1,F, , , , ,space,2500,2.5,611c1794aea18553c59d5bfc,001,2021-08-19_16h11.23.647,natb3,2021.2.3,Win32,60.14314067,611c1794aea18553c59d5bfc,611e07ecdcc96256ae8d5b80,611e7486ec841801db97a08f,0.3664,
,,,,,,0,194,194,191,1,X,1, ,3,4,,2500,2.5,611c1794aea18553c59d5bfc,001,2021-08-19_16h11.23.647,natb3,2021.2.3,Win32,60.14314067,611c1794aea18553c59d5bfc,611e07ecdcc96256ae8d5b80,611e7486ec841801db97a08f,,
,,,,space,,0,195,195,79,1,P, , , , ,space,2000,2,611c1794aea18553c59d5bfc,001,2021-08-19_16h11.23.647,natb3,2021.2.3,Win32,60.14314067,611c1794aea18553c59d5bfc,611e07ecdcc96256ae8d5b80,611e7486ec841801db97a08f,0.4496,
,,,,space,,0,196,196,123,1,O, , , , ,space,1500,1.5,611c1794aea18553c59d5bfc,001,2021-08-19_16h11.23.647,natb3,2021.2.3,Win32,60.14314067,611c1794aea18553c59d5bfc,611e07ecdcc96256ae8d5b80,611e7486ec841801db97a08f,0.3998,
,,,,space,,0,197,197,174,1,B, , , , ,space,2500,2.5,611c1794aea18553c59d5bfc,001,2021-08-19_16h11.23.647,natb3,2021.2.3,Win32,60.14314067,611c1794aea18553c59d5bfc,611e07ecdcc96256ae8d5b80,611e7486ec841801db97a08f,0.35,
,,,,space,,0,198,198,144,1,Q, , , , ,space,2500,2.5,611c1794aea18553c59d5bfc,001,2021-08-19_16h11.23.647,natb3,2021.2.3,Win32,60.14314067,611c1794aea18553c59d5bfc,611e07ecdcc96256ae8d5b80,611e7486ec841801db97a08f,0.4503,
,,,,space,,0,199,199,235,1,A, , , , ,space,1500,1.5,611c1794aea18553c59d5bfc,001,2021-08-19_16h11.23.647,natb3,2021.2.3,Win32,60.14314067,611c1794aea18553c59d5bfc,611e07ecdcc96256ae8d5b80,611e7486ec841801db97a08f,0.5169,
,,,,space,,0,200,200,269,1,A, , , , ,space,2500,2.5,611c1794aea18553c59d5bfc,001,2021-08-19_16h11.23.647,natb3,2021.2.3,Win32,60.14314067,611c1794aea18553c59d5bfc,611e07ecdcc96256ae8d5b80,611e7486ec841801db97a08f,0.4164,
,,,,space,,0,201,201,304,1,S, , , , ,space,2000,2,611c1794aea18553c59d5bfc,001,2021-08-19_16h11.23.647,natb3,2021.2.3,Win32,60.14314067,611c1794aea18553c59d5bfc,611e07ecdcc96256ae8d5b80,611e7486ec841801db97a08f,0.583,
,,,,space,,0,202,202,139,1,V, , , , ,space,2000,2,611c1794aea18553c59d5bfc,001,2021-08-19_16h11.23.647,natb3,2021.2.3,Win32,60.14314067,611c1794aea18553c59d5bfc,611e07ecdcc96256ae8d5b80,611e7486ec841801db97a08f,0.3668,
,,,,space,,0,203,203,143,1,M, , , , ,space,2500,2.5,611c1794aea18553c59d5bfc,001,2021-08-19_16h11.23.647,natb3,2021.2.3,Win32,60.14314067,611c1794aea18553c59d5bfc,611e07ecdcc96256ae8d5b80,611e7486ec841801db97a08f,0.3683,
,,,,space,,0,204,204,190,1,P, , , , ,space,2000,2,611c1794aea18553c59d5bfc,001,2021-08-19_16h11.23.647,natb3,2021.2.3,Win32,60.14314067,611c1794aea18553c59d5bfc,611e07ecdcc96256ae8d5b80,611e7486ec841801db97a08f,0.4012,
,,,,space,,0,205,205,287,1,X, ,2, ,9,,2000,2,611c1794aea18553c59d5bfc,001,2021-08-19_16h11.23.647,natb3,2021.2.3,Win32,60.14314067,611c1794aea18553c59d5bfc,611e07ecdcc96256ae8d5b80,611e7486ec841801db97a08f,0.3205,
,,,,space,,0,206,206,260,1,R, , , , ,space,2000,2,611c1794aea18553c59d5bfc,001,2021-08-19_16h11.23.647,natb3,2021.2.3,Win32,60.14314067,611c1794aea18553c59d5bfc,611e07ecdcc96256ae8d5b80,611e7486ec841801db97a08f,0.3842,
,,,,space,,0,207,207,92,1,Z, , , , ,space,1500,1.5,611c1794aea18553c59d5bfc,001,2021-08-19_16h11.23.647,natb3,2021.2.3,Win32,60.14314067,611c1794aea18553c59d5bfc,611e07ecdcc96256ae8d5b80,611e7486ec841801db97a08f,0.44,
,,,,space,,0,208,208,222,1,O, , , , ,space,2000,2,611c1794aea18553c59d5bfc,001,2021-08-19_16h11.23.647,natb3,2021.2.3,Win32,60.14314067,611c1794aea18553c59d5bfc,611e07ecdcc96256ae8d5b80,611e7486ec841801db97a08f,0.3829,
,,,,space,,0,209,209,256,1,Q, , , , ,space,2000,2,611c1794aea18553c59d5bfc,001,2021-08-19_16h11.23.647,natb3,2021.2.3,Win32,60.14314067,611c1794aea18553c59d5bfc,611e07ecdcc96256ae8d5b80,611e7486ec841801db97a08f,0.3853,
,,,,space,,0,210,210,119,1,Y, , , , ,space,2500,2.5,611c1794aea18553c59d5bfc,001,2021-08-19_16h11.23.647,natb3,2021.2.3,Win32,60.14314067,611c1794aea18553c59d5bfc,611e07ecdcc96256ae8d5b80,611e7486ec841801db97a08f,0.4199,
,,,,space,,0,211,211,17,1,F, , , , ,space,2500,2.5,611c1794aea18553c59d5bfc,001,2021-08-19_16h11.23.647,natb3,2021.2.3,Win32,60.14314067,611c1794aea18553c59d5bfc,611e07ecdcc96256ae8d5b80,611e7486ec841801db97a08f,0.3553,
,,,,space,,0,212,212,244,1,J, , , , ,space,1500,1.5,611c1794aea18553c59d5bfc,001,2021-08-19_16h11.23.647,natb3,2021.2.3,Win32,60.14314067,611c1794aea18553c59d5bfc,611e07ecdcc96256ae8d5b80,611e7486ec841801db97a08f,0.3835,
,,,,space,,0,213,213,136,1,Z, , , , ,space,2500,2.5,611c1794aea18553c59d5bfc,001,2021-08-19_16h11.23.647,natb3,2021.2.3,Win32,60.14314067,611c1794aea18553c59d5bfc,611e07ecdcc96256ae8d5b80,611e7486ec841801db97a08f,0.6393,
,,,,space,,0,214,214,182,1,X, , , , ,,1500,1.5,611c1794aea18553c59d5bfc,001,2021-08-19_16h11.23.647,natb3,2021.2.3,Win32,60.14314067,611c1794aea18553c59d5bfc,611e07ecdcc96256ae8d5b80,611e7486ec841801db97a08f,0.3887,
,,,,,,0,215,215,233,1,X, ,2, ,5,,1500,1.5,611c1794aea18553c59d5bfc,001,2021-08-19_16h11.23.647,natb3,2021.2.3,Win32,60.14314067,611c1794aea18553c59d5bfc,611e07ecdcc96256ae8d5b80,611e7486ec841801db97a08f,,
,,,,space,,0,216,216,154,1,I, , , , ,space,2500,2.5,611c1794aea18553c59d5bfc,001,2021-08-19_16h11.23.647,natb3,2021.2.3,Win32,60.14314067,611c1794aea18553c59d5bfc,611e07ecdcc96256ae8d5b80,611e7486ec841801db97a08f,0.4015,
,,,,space,,0,217,217,220,1,U, , , , ,space,2500,2.5,611c1794aea18553c59d5bfc,001,2021-08-19_16h11.23.647,natb3,2021.2.3,Win32,60.14314067,611c1794aea18553c59d5bfc,611e07ecdcc96256ae8d5b80,611e7486ec841801db97a08f,0.451,
,,,,space,,0,218,218,132,1,H, , , , ,space,2500,2.5,611c1794aea18553c59d5bfc,001,2021-08-19_16h11.23.647,natb3,2021.2.3,Win32,60.14314067,611c1794aea18553c59d5bfc,611e07ecdcc96256ae8d5b80,611e7486ec841801db97a08f,0.4163,
,,,,space,,0,219,219,163,1,G, , , , ,space,2500,2.5,611c1794aea18553c59d5bfc,001,2021-08-19_16h11.23.647,natb3,2021.2.3,Win32,60.14314067,611c1794aea18553c59d5bfc,611e07ecdcc96256ae8d5b80,611e7486ec841801db97a08f,0.3329,
,,,,space,,0,220,220,5,1,T, , , , ,space,2000,2,611c1794aea18553c59d5bfc,001,2021-08-19_16h11.23.647,natb3,2021.2.3,Win32,60.14314067,611c1794aea18553c59d5bfc,611e07ecdcc96256ae8d5b80,611e7486ec841801db97a08f,0.4995,
,,,,space,,0,221,221,147,1,E, , , , ,space,2000,2,611c1794aea18553c59d5bfc,001,2021-08-19_16h11.23.647,natb3,2021.2.3,Win32,60.14314067,611c1794aea18553c59d5bfc,611e07ecdcc96256ae8d5b80,611e7486ec841801db97a08f,0.3555,
,,,,space,,0,222,222,172,1,C, , , , ,space,1500,1.5,611c1794aea18553c59d5bfc,001,2021-08-19_16h11.23.647,natb3,2021.2.3,Win32,60.14314067,611c1794aea18553c59d5bfc,611e07ecdcc96256ae8d5b80,611e7486ec841801db97a08f,0.3835,
,,,,space,,0,223,223,221,1,I, , , , ,space,2500,2.5,611c1794aea18553c59d5bfc,001,2021-08-19_16h11.23.647,natb3,2021.2.3,Win32,60.14314067,611c1794aea18553c59d5bfc,611e07ecdcc96256ae8d5b80,611e7486ec841801db97a08f,0.3672,
,,,,space,,0,224,224,223,1,Q, , , , ,space,2000,2,611c1794aea18553c59d5bfc,001,2021-08-19_16h11.23.647,natb3,2021.2.3,Win32,60.14314067,611c1794aea18553c59d5bfc,611e07ecdcc96256ae8d5b80,611e7486ec841801db97a08f,0.3336,
,,,,space,,0,225,225,130,1,F, , , , ,space,2000,2,611c1794aea18553c59d5bfc,001,2021-08-19_16h11.23.647,natb3,2021.2.3,Win32,60.14314067,611c1794aea18553c59d5bfc,611e07ecdcc96256ae8d5b80,611e7486ec841801db97a08f,0.3708,
,,,,space,,0,226,226,3,1,R, , , , ,space,2000,2,611c1794aea18553c59d5bfc,001,2021-08-19_16h11.23.647,natb3,2021.2.3,Win32,60.14314067,611c1794aea18553c59d5bfc,611e07ecdcc96256ae8d5b80,611e7486ec841801db97a08f,0.3693,
,,,,,,0,227,227,168,1,X, , , , ,,2500,2.5,611c1794aea18553c59d5bfc,001,2021-08-19_16h11.23.647,natb3,2021.2.3,Win32,60.14314067,611c1794aea18553c59d5bfc,611e07ecdcc96256ae8d5b80,611e7486ec841801db97a08f,,
,,,,,,0,228,228,145,1,X, , , , ,,2000,2,611c1794aea18553c59d5bfc,001,2021-08-19_16h11.23.647,natb3,2021.2.3,Win32,60.14314067,611c1794aea18553c59d5bfc,611e07ecdcc96256ae8d5b80,611e7486ec841801db97a08f,,
,,,,space,,0,229,229,149,1,R, , , , ,space,2000,2,611c1794aea18553c59d5bfc,001,2021-08-19_16h11.23.647,natb3,2021.2.3,Win32,60.14314067,611c1794aea18553c59d5bfc,611e07ecdcc96256ae8d5b80,611e7486ec841801db97a08f,0.3667,
,,,,,,0,230,230,125,1,X, , , , ,,2000,2,611c1794aea18553c59d5bfc,001,2021-08-19_16h11.23.647,natb3,2021.2.3,Win32,60.14314067,611c1794aea18553c59d5bfc,611e07ecdcc96256ae8d5b80,611e7486ec841801db97a08f,,
,,,,,,0,231,231,195,1,X, , , , ,,1500,1.5,611c1794aea18553c59d5bfc,001,2021-08-19_16h11.23.647,natb3,2021.2.3,Win32,60.14314067,611c1794aea18553c59d5bfc,611e07ecdcc96256ae8d5b80,611e7486ec841801db97a08f,,
,,,,space,,0,232,232,234,1,P, , , , ,space,2000,2,611c1794aea18553c59d5bfc,001,2021-08-19_16h11.23.647,natb3,2021.2.3,Win32,60.14314067,611c1794aea18553c59d5bfc,611e07ecdcc96256ae8d5b80,611e7486ec841801db97a08f,0.4172,
,,,,space,,0,233,233,228,1,Y, , , , ,space,2000,2,611c1794aea18553c59d5bfc,001,2021-08-19_16h11.23.647,natb3,2021.2.3,Win32,60.14314067,611c1794aea18553c59d5bfc,611e07ecdcc96256ae8d5b80,611e7486ec841801db97a08f,0.4677,
,,,,,,0,234,234,35,1,X, , , , ,,2500,2.5,611c1794aea18553c59d5bfc,001,2021-08-19_16h11.23.647,natb3,2021.2.3,Win32,60.14314067,611c1794aea18553c59d5bfc,611e07ecdcc96256ae8d5b80,611e7486ec841801db97a08f,,
,,,,space,,0,235,235,110,1,I, , , , ,space,1500,1.5,611c1794aea18553c59d5bfc,001,2021-08-19_16h11.23.647,natb3,2021.2.3,Win32,60.14314067,611c1794aea18553c59d5bfc,611e07ecdcc96256ae8d5b80,611e7486ec841801db97a08f,0.4332,
,,,,space,,0,236,236,264,1,U, , , , ,space,2000,2,611c1794aea18553c59d5bfc,001,2021-08-19_16h11.23.647,natb3,2021.2.3,Win32,60.14314067,611c1794aea18553c59d5bfc,611e07ecdcc96256ae8d5b80,611e7486ec841801db97a08f,0.3838,
,,,,space,,0,237,237,192,1,A, , , , ,space,2000,2,611c1794aea18553c59d5bfc,001,2021-08-19_16h11.23.647,natb3,2021.2.3,Win32,60.14314067,611c1794aea18553c59d5bfc,611e07ecdcc96256ae8d5b80,611e7486ec841801db97a08f,0.4691,
,,,,space,,0,238,238,152,1,U, , , , ,space,2000,2,611c1794aea18553c59d5bfc,001,2021-08-19_16h11.23.647,natb3,2021.2.3,Win32,60.14314067,611c1794aea18553c59d5bfc,611e07ecdcc96256ae8d5b80,611e7486ec841801db97a08f,0.3507,
,,,,space,,0,239,239,292,1,E, , , , ,space,2000,2,611c1794aea18553c59d5bfc,001,2021-08-19_16h11.23.647,natb3,2021.2.3,Win32,60.14314067,611c1794aea18553c59d5bfc,611e07ecdcc96256ae8d5b80,611e7486ec841801db97a08f,0.4001,
,,,,space,,0,240,240,76,1,I, , , , ,space,2000,2,611c1794aea18553c59d5bfc,001,2021-08-19_16h11.23.647,natb3,2021.2.3,Win32,60.14314067,611c1794aea18553c59d5bfc,611e07ecdcc96256ae8d5b80,611e7486ec841801db97a08f,0.3695,
,,,,space,,0,241,241,101,1,Q, , , , ,space,2500,2.5,611c1794aea18553c59d5bfc,001,2021-08-19_16h11.23.647,natb3,2021.2.3,Win32,60.14314067,611c1794aea18553c59d5bfc,611e07ecdcc96256ae8d5b80,611e7486ec841801db97a08f,0.3401,
,,,,,,0,242,242,118,1,X, , , , ,,2000,2,611c1794aea18553c59d5bfc,001,2021-08-19_16h11.23.647,natb3,2021.2.3,Win32,60.14314067,611c1794aea18553c59d5bfc,611e07ecdcc96256ae8d5b80,611e7486ec841801db97a08f,,
,,,,space,,0,243,243,331,1,Y, , , , ,space,2500,2.5,611c1794aea18553c59d5bfc,001,2021-08-19_16h11.23.647,natb3,2021.2.3,Win32,60.14314067,611c1794aea18553c59d5bfc,611e07ecdcc96256ae8d5b80,611e7486ec841801db97a08f,0.3487,
,,,,,,0,244,244,318,1,X, , , , ,,1500,1.5,611c1794aea18553c59d5bfc,001,2021-08-19_16h11.23.647,natb3,2021.2.3,Win32,60.14314067,611c1794aea18553c59d5bfc,611e07ecdcc96256ae8d5b80,611e7486ec841801db97a08f,,
,,,,space,,0,245,245,155,1,O, , , , ,space,1500,1.5,611c1794aea18553c59d5bfc,001,2021-08-19_16h11.23.647,natb3,2021.2.3,Win32,60.14314067,611c1794aea18553c59d5bfc,611e07ecdcc96256ae8d5b80,611e7486ec841801db97a08f,0.3997,
,,,,space,,0,246,246,88,1,J, , , , ,space,2500,2.5,611c1794aea18553c59d5bfc,001,2021-08-19_16h11.23.647,natb3,2021.2.3,Win32,60.14314067,611c1794aea18553c59d5bfc,611e07ecdcc96256ae8d5b80,611e7486ec841801db97a08f,0.3561,
,,,,,,0,247,247,69,1,X, , , , ,,1500,1.5,611c1794aea18553c59d5bfc,001,2021-08-19_16h11.23.647,natb3,2021.2.3,Win32,60.14314067,611c1794aea18553c59d5bfc,611e07ecdcc96256ae8d5b80,611e7486ec841801db97a08f,,
,,,,space,,0,248,248,272,1,D, , , , ,space,2000,2,611c1794aea18553c59d5bfc,001,2021-08-19_16h11.23.647,natb3,2021.2.3,Win32,60.14314067,611c1794aea18553c59d5bfc,611e07ecdcc96256ae8d5b80,611e7486ec841801db97a08f,0.3397,
,,,,space,,0,249,249,178,1,Q, , , , ,space,1500,1.5,611c1794aea18553c59d5bfc,001,2021-08-19_16h11.23.647,natb3,2021.2.3,Win32,60.14314067,611c1794aea18553c59d5bfc,611e07ecdcc96256ae8d5b80,611e7486ec841801db97a08f,0.3735,
,,,,space,,0,250,250,255,1,X, , , , ,,1500,1.5,611c1794aea18553c59d5bfc,001,2021-08-19_16h11.23.647,natb3,2021.2.3,Win32,60.14314067,611c1794aea18553c59d5bfc,611e07ecdcc96256ae8d5b80,611e7486ec841801db97a08f,0.3498,
,,,,space,,0,251,251,64,1,N, , , , ,space,2000,2,611c1794aea18553c59d5bfc,001,2021-08-19_16h11.23.647,natb3,2021.2.3,Win32,60.14314067,611c1794aea18553c59d5bfc,611e07ecdcc96256ae8d5b80,611e7486ec841801db97a08f,0.4688,
,,,,space,,0,252,252,0,1,Q, , , , ,space,1500,1.5,611c1794aea18553c59d5bfc,001,2021-08-19_16h11.23.647,natb3,2021.2.3,Win32,60.14314067,611c1794aea18553c59d5bfc,611e07ecdcc96256ae8d5b80,611e7486ec841801db97a08f,0.3667,
,,,,,,0,253,253,335,1,P,,,,,space,1500,1.5,611c1794aea18553c59d5bfc,001,2021-08-19_16h11.23.647,natb3,2021.2.3,Win32,60.14314067,611c1794aea18553c59d5bfc,611e07ecdcc96256ae8d5b80,611e7486ec841801db97a08f,,
,,,,space,,0,254,254,34,1,Q, , , , ,space,2500,2.5,611c1794aea18553c59d5bfc,001,2021-08-19_16h11.23.647,natb3,2021.2.3,Win32,60.14314067,611c1794aea18553c59d5bfc,611e07ecdcc96256ae8d5b80,611e7486ec841801db97a08f,0.3823,
,,,,space,,0,255,255,283,1,C, , , , ,space,1500,1.5,611c1794aea18553c59d5bfc,001,2021-08-19_16h11.23.647,natb3,2021.2.3,Win32,60.14314067,611c1794aea18553c59d5bfc,611e07ecdcc96256ae8d5b80,611e7486ec841801db97a08f,0.3671,
,,,,,,0,256,256,153,1,X,4,7, ,6,,2000,2,611c1794aea18553c59d5bfc,001,2021-08-19_16h11.23.647,natb3,2021.2.3,Win32,60.14314067,611c1794aea18553c59d5bfc,611e07ecdcc96256ae8d5b80,611e7486ec841801db97a08f,,
,,,,space,,0,257,257,80,1,A, , , , ,space,2000,2,611c1794aea18553c59d5bfc,001,2021-08-19_16h11.23.647,natb3,2021.2.3,Win32,60.14314067,611c1794aea18553c59d5bfc,611e07ecdcc96256ae8d5b80,611e7486ec841801db97a08f,0.7162,
,,,,,,0,258,258,229,1,X,8, ,2,6,,2500,2.5,611c1794aea18553c59d5bfc,001,2021-08-19_16h11.23.647,natb3,2021.2.3,Win32,60.14314067,611c1794aea18553c59d5bfc,611e07ecdcc96256ae8d5b80,611e7486ec841801db97a08f,,
,,,,,,0,259,259,60,1,X,7,3,5, ,,1500,1.5,611c1794aea18553c59d5bfc,001,2021-08-19_16h11.23.647,natb3,2021.2.3,Win32,60.14314067,611c1794aea18553c59d5bfc,611e07ecdcc96256ae8d5b80,611e7486ec841801db97a08f,,
,,,,space,,0,260,260,180,1,W, , , , ,space,2000,2,611c1794aea18553c59d5bfc,001,2021-08-19_16h11.23.647,natb3,2021.2.3,Win32,60.14314067,611c1794aea18553c59d5bfc,611e07ecdcc96256ae8d5b80,611e7486ec841801db97a08f,0.3856,
,,,,,,0,261,261,129,1,X,2,3,5, ,,1500,1.5,611c1794aea18553c59d5bfc,001,2021-08-19_16h11.23.647,natb3,2021.2.3,Win32,60.14314067,611c1794aea18553c59d5bfc,611e07ecdcc96256ae8d5b80,611e7486ec841801db97a08f,,
,,,,space,,0,262,262,61,1,C, , , , ,space,2000,2,611c1794aea18553c59d5bfc,001,2021-08-19_16h11.23.647,natb3,2021.2.3,Win32,60.14314067,611c1794aea18553c59d5bfc,611e07ecdcc96256ae8d5b80,611e7486ec841801db97a08f,0.4339,
,,,,space,,0,263,263,127,1,S, , , , ,space,2500,2.5,611c1794aea18553c59d5bfc,001,2021-08-19_16h11.23.647,natb3,2021.2.3,Win32,60.14314067,611c1794aea18553c59d5bfc,611e07ecdcc96256ae8d5b80,611e7486ec841801db97a08f,0.3526,
,,,,space,,0,264,264,217,1,T, , , , ,space,2500,2.5,611c1794aea18553c59d5bfc,001,2021-08-19_16h11.23.647,natb3,2021.2.3,Win32,60.14314067,611c1794aea18553c59d5bfc,611e07ecdcc96256ae8d5b80,611e7486ec841801db97a08f,0.3504,
,,,,,,0,265,265,259,1,X,8, , ,3,,2500,2.5,611c1794aea18553c59d5bfc,001,2021-08-19_16h11.23.647,natb3,2021.2.3,Win32,60.14314067,611c1794aea18553c59d5bfc,611e07ecdcc96256ae8d5b80,611e7486ec841801db97a08f,,
,,,,space,,0,266,266,112,1,Q, , , , ,space,2500,2.5,611c1794aea18553c59d5bfc,001,2021-08-19_16h11.23.647,natb3,2021.2.3,Win32,60.14314067,611c1794aea18553c59d5bfc,611e07ecdcc96256ae8d5b80,611e7486ec841801db97a08f,0.3662,
,,,,,,0,267,267,148,1,X, , , , ,,2000,2,611c1794aea18553c59d5bfc,001,2021-08-19_16h11.23.647,natb3,2021.2.3,Win32,60.14314067,611c1794aea18553c59d5bfc,611e07ecdcc96256ae8d5b80,611e7486ec841801db97a08f,,
,,,,,,0,268,268,15,1,X, , , , ,,1500,1.5,611c1794aea18553c59d5bfc,001,2021-08-19_16h11.23.647,natb3,2021.2.3,Win32,60.14314067,611c1794aea18553c59d5bfc,611e07ecdcc96256ae8d5b80,611e7486ec841801db97a08f,,
,,,,space,,0,269,269,109,1,U, , , , ,space,1500,1.5,611c1794aea18553c59d5bfc,001,2021-08-19_16h11.23.647,natb3,2021.2.3,Win32,60.14314067,611c1794aea18553c59d5bfc,611e07ecdcc96256ae8d5b80,611e7486ec841801db97a08f,0.3886,
,,,,space,,0,270,270,117,1,T, , , , ,space,2500,2.5,611c1794aea18553c59d5bfc,001,2021-08-19_16h11.23.647,natb3,2021.2.3,Win32,60.14314067,611c1794aea18553c59d5bfc,611e07ecdcc96256ae8d5b80,611e7486ec841801db97a08f,0.3669,
,,,,space,,0,271,271,170,1,Z, , , , ,space,2000,2,611c1794aea18553c59d5bfc,001,2021-08-19_16h11.23.647,natb3,2021.2.3,Win32,60.14314067,611c1794aea18553c59d5bfc,611e07ecdcc96256ae8d5b80,611e7486ec841801db97a08f,0.3502,
,,,,space,,0,272,272,261,1,T, , , , ,space,2000,2,611c1794aea18553c59d5bfc,001,2021-08-19_16h11.23.647,natb3,2021.2.3,Win32,60.14314067,611c1794aea18553c59d5bfc,611e07ecdcc96256ae8d5b80,611e7486ec841801db97a08f,0.4834,
,,,,space,,0,273,273,198,1,H, , , , ,space,2500,2.5,611c1794aea18553c59d5bfc,001,2021-08-19_16h11.23.647,natb3,2021.2.3,Win32,60.14314067,611c1794aea18553c59d5bfc,611e07ecdcc96256ae8d5b80,611e7486ec841801db97a08f,0.3501,
,,,,space,,0,274,274,9,1,I, , , , ,space,1500,1.5,611c1794aea18553c59d5bfc,001,2021-08-19_16h11.23.647,natb3,2021.2.3,Win32,60.14314067,611c1794aea18553c59d5bfc,611e07ecdcc96256ae8d5b80,611e7486ec841801db97a08f,0.3669,
,,,,space,,0,275,275,206,1,V, , , , ,space,2000,2,611c1794aea18553c59d5bfc,001,2021-08-19_16h11.23.647,natb3,2021.2.3,Win32,60.14314067,611c1794aea18553c59d5bfc,611e07ecdcc96256ae8d5b80,611e7486ec841801db97a08f,0.2877,
,,,,space,,0,276,276,204,1,Z, , , , ,space,2000,2,611c1794aea18553c59d5bfc,001,2021-08-19_16h11.23.647,natb3,2021.2.3,Win32,60.14314067,611c1794aea18553c59d5bfc,611e07ecdcc96256ae8d5b80,611e7486ec841801db97a08f,0.4002,
,,,,space,,0,277,277,56,1,J, , , , ,space,1500,1.5,611c1794aea18553c59d5bfc,001,2021-08-19_16h11.23.647,natb3,2021.2.3,Win32,60.14314067,611c1794aea18553c59d5bfc,611e07ecdcc96256ae8d5b80,611e7486ec841801db97a08f,0.3837,
,,,,space,,0,278,278,317,1,C, , , , ,space,2000,2,611c1794aea18553c59d5bfc,001,2021-08-19_16h11.23.647,natb3,2021.2.3,Win32,60.14314067,611c1794aea18553c59d5bfc,611e07ecdcc96256ae8d5b80,611e7486ec841801db97a08f,0.3338,
,,,,space,,0,279,279,312,1,K, , , , ,space,2000,2,611c1794aea18553c59d5bfc,001,2021-08-19_16h11.23.647,natb3,2021.2.3,Win32,60.14314067,611c1794aea18553c59d5bfc,611e07ecdcc96256ae8d5b80,611e7486ec841801db97a08f,0.3335,
,,,,space,,0,280,280,265,1,I, , , , ,space,2000,2,611c1794aea18553c59d5bfc,001,2021-08-19_16h11.23.647,natb3,2021.2.3,Win32,60.14314067,611c1794aea18553c59d5bfc,611e07ecdcc96256ae8d5b80,611e7486ec841801db97a08f,0.3667,
,,,,space,,0,281,281,84,1,X, , , , ,,2000,2,611c1794aea18553c59d5bfc,001,2021-08-19_16h11.23.647,natb3,2021.2.3,Win32,60.14314067,611c1794aea18553c59d5bfc,611e07ecdcc96256ae8d5b80,611e7486ec841801db97a08f,0.3368,
,,,,,,0,282,282,175,1,X,7, ,4,2,,1500,1.5,611c1794aea18553c59d5bfc,001,2021-08-19_16h11.23.647,natb3,2021.2.3,Win32,60.14314067,611c1794aea18553c59d5bfc,611e07ecdcc96256ae8d5b80,611e7486ec841801db97a08f,,
,,,,space,,0,283,283,185,1,Y, , , , ,space,2500,2.5,611c1794aea18553c59d5bfc,001,2021-08-19_16h11.23.647,natb3,2021.2.3,Win32,60.14314067,611c1794aea18553c59d5bfc,611e07ecdcc96256ae8d5b80,611e7486ec841801db97a08f,0.3833,
,,,,space,,0,284,284,28,1,V, , , , ,space,1500,1.5,611c1794aea18553c59d5bfc,001,2021-08-19_16h11.23.647,natb3,2021.2.3,Win32,60.14314067,611c1794aea18553c59d5bfc,611e07ecdcc96256ae8d5b80,611e7486ec841801db97a08f,0.3665,
,,,,space,,0,285,285,77,1,O, , , , ,space,2000,2,611c1794aea18553c59d5bfc,001,2021-08-19_16h11.23.647,natb3,2021.2.3,Win32,60.14314067,611c1794aea18553c59d5bfc,611e07ecdcc96256ae8d5b80,611e7486ec841801db97a08f,0.3392,
,,,,space,,0,286,286,4,1,X, , , , ,,2000,2,611c1794aea18553c59d5bfc,001,2021-08-19_16h11.23.647,natb3,2021.2.3,Win32,60.14314067,611c1794aea18553c59d5bfc,611e07ecdcc96256ae8d5b80,611e7486ec841801db97a08f,0.338,
,,,,space,,0,287,287,13,1,A, , , , ,space,2000,2,611c1794aea18553c59d5bfc,001,2021-08-19_16h11.23.647,natb3,2021.2.3,Win32,60.14314067,611c1794aea18553c59d5bfc,611e07ecdcc96256ae8d5b80,611e7486ec841801db97a08f,0.3333,
,,,,space,,0,288,288,131,1,G, , , , ,space,1500,1.5,611c1794aea18553c59d5bfc,001,2021-08-19_16h11.23.647,natb3,2021.2.3,Win32,60.14314067,611c1794aea18553c59d5bfc,611e07ecdcc96256ae8d5b80,611e7486ec841801db97a08f,0.4502,
,,,,space,,0,289,289,237,1,S, , , , ,space,1500,1.5,611c1794aea18553c59d5bfc,001,2021-08-19_16h11.23.647,natb3,2021.2.3,Win32,60.14314067,611c1794aea18553c59d5bfc,611e07ecdcc96256ae8d5b80,611e7486ec841801db97a08f,0.3669,
,,,,space,,0,290,290,52,1,F, , , , ,space,1500,1.5,611c1794aea18553c59d5bfc,001,2021-08-19_16h11.23.647,natb3,2021.2.3,Win32,60.14314067,611c1794aea18553c59d5bfc,611e07ecdcc96256ae8d5b80,611e7486ec841801db97a08f,0.3336,
,,,,space,,0,291,291,53,1,G, , , , ,space,2500,2.5,611c1794aea18553c59d5bfc,001,2021-08-19_16h11.23.647,natb3,2021.2.3,Win32,60.14314067,611c1794aea18553c59d5bfc,611e07ecdcc96256ae8d5b80,611e7486ec841801db97a08f,0.3565,
,,,,space,,0,292,292,316,1,Z, , , , ,space,1500,1.5,611c1794aea18553c59d5bfc,001,2021-08-19_16h11.23.647,natb3,2021.2.3,Win32,60.14314067,611c1794aea18553c59d5bfc,611e07ecdcc96256ae8d5b80,611e7486ec841801db97a08f,0.4059,
,,,,,,0,293,293,239,1,X, , , , ,,2000,2,611c1794aea18553c59d5bfc,001,2021-08-19_16h11.23.647,natb3,2021.2.3,Win32,60.14314067,611c1794aea18553c59d5bfc,611e07ecdcc96256ae8d5b80,611e7486ec841801db97a08f,,
,,,,,,0,294,294,102,1,X, ,6, , ,,1500,1.5,611c1794aea18553c59d5bfc,001,2021-08-19_16h11.23.647,natb3,2021.2.3,Win32,60.14314067,611c1794aea18553c59d5bfc,611e07ecdcc96256ae8d5b80,611e7486ec841801db97a08f,,
,,,,,,0,295,295,96,1,X, , , , ,,1500,1.5,611c1794aea18553c59d5bfc,001,2021-08-19_16h11.23.647,natb3,2021.2.3,Win32,60.14314067,611c1794aea18553c59d5bfc,611e07ecdcc96256ae8d5b80,611e7486ec841801db97a08f,,
,,,,space,,0,296,296,173,1,V, , , , ,space,1500,1.5,611c1794aea18553c59d5bfc,001,2021-08-19_16h11.23.647,natb3,2021.2.3,Win32,60.14314067,611c1794aea18553c59d5bfc,611e07ecdcc96256ae8d5b80,611e7486ec841801db97a08f,0.3529,
,,,,space,,0,297,297,322,1,X, , ,1,6,,2000,2,611c1794aea18553c59d5bfc,001,2021-08-19_16h11.23.647,natb3,2021.2.3,Win32,60.14314067,611c1794aea18553c59d5bfc,611e07ecdcc96256ae8d5b80,611e7486ec841801db97a08f,0.8154,
,,,,,,0,298,298,151,1,Y, , , , ,space,2500,2.5,611c1794aea18553c59d5bfc,001,2021-08-19_16h11.23.647,natb3,2021.2.3,Win32,60.14314067,611c1794aea18553c59d5bfc,611e07ecdcc96256ae8d5b80,611e7486ec841801db97a08f,,
,,,,space,,0,299,299,135,1,K, , , , ,space,1500,1.5,611c1794aea18553c59d5bfc,001,2021-08-19_16h11.23.647,natb3,2021.2.3,Win32,60.14314067,611c1794aea18553c59d5bfc,611e07ecdcc96256ae8d5b80,611e7486ec841801db97a08f,0.6499,
,,,,,,0,300,300,277,1,X,8,5, ,2,,2000,2,611c1794aea18553c59d5bfc,001,2021-08-19_16h11.23.647,natb3,2021.2.3,Win32,60.14314067,611c1794aea18553c59d5bfc,611e07ecdcc96256ae8d5b80,611e7486ec841801db97a08f,,
,,,,space,,0,301,301,14,1,S, , , , ,space,2500,2.5,611c1794aea18553c59d5bfc,001,2021-08-19_16h11.23.647,natb3,2021.2.3,Win32,60.14314067,611c1794aea18553c59d5bfc,611e07ecdcc96256ae8d5b80,611e7486ec841801db97a08f,0.3691,
,,,,space,,0,302,302,320,1,B, , , , ,space,1500,1.5,611c1794aea18553c59d5bfc,001,2021-08-19_16h11.23.647,natb3,2021.2.3,Win32,60.14314067,611c1794aea18553c59d5bfc,611e07ecdcc96256ae8d5b80,611e7486ec841801db97a08f,0.383,
,,,,space,,0,303,303,297,1,U, , , , ,space,2000,2,611c1794aea18553c59d5bfc,001,2021-08-19_16h11.23.647,natb3,2021.2.3,Win32,60.14314067,611c1794aea18553c59d5bfc,611e07ecdcc96256ae8d5b80,611e7486ec841801db97a08f,0.432,
,,,,space,,0,304,304,16,1,D, , , , ,space,1500,1.5,611c1794aea18553c59d5bfc,001,2021-08-19_16h11.23.647,natb3,2021.2.3,Win32,60.14314067,611c1794aea18553c59d5bfc,611e07ecdcc96256ae8d5b80,611e7486ec841801db97a08f,0.3838,
,,,,space,,0,305,305,231,1,I, , , , ,space,2500,2.5,611c1794aea18553c59d5bfc,001,2021-08-19_16h11.23.647,natb3,2021.2.3,Win32,60.14314067,611c1794aea18553c59d5bfc,611e07ecdcc96256ae8d5b80,611e7486ec841801db97a08f,0.4175,
,,,,space,,0,306,306,186,1,U, , , , ,space,2500,2.5,611c1794aea18553c59d5bfc,001,2021-08-19_16h11.23.647,natb3,2021.2.3,Win32,60.14314067,611c1794aea18553c59d5bfc,611e07ecdcc96256ae8d5b80,611e7486ec841801db97a08f,0.3844,
,,,,space,,0,307,307,310,1,J, , , , ,space,2500,2.5,611c1794aea18553c59d5bfc,001,2021-08-19_16h11.23.647,natb3,2021.2.3,Win32,60.14314067,611c1794aea18553c59d5bfc,611e07ecdcc96256ae8d5b80,611e7486ec841801db97a08f,0.3388,
,,,,space,,0,308,308,71,1,R, , , , ,space,2500,2.5,611c1794aea18553c59d5bfc,001,2021-08-19_16h11.23.647,natb3,2021.2.3,Win32,60.14314067,611c1794aea18553c59d5bfc,611e07ecdcc96256ae8d5b80,611e7486ec841801db97a08f,0.3344,
,,,,space,,0,309,309,324,1,Q, , , , ,space,2000,2,611c1794aea18553c59d5bfc,001,2021-08-19_16h11.23.647,natb3,2021.2.3,Win32,60.14314067,611c1794aea18553c59d5bfc,611e07ecdcc96256ae8d5b80,611e7486ec841801db97a08f,0.3505,
,,,,space,,0,310,310,24,1,L, , , , ,space,2500,2.5,611c1794aea18553c59d5bfc,001,2021-08-19_16h11.23.647,natb3,2021.2.3,Win32,60.14314067,611c1794aea18553c59d5bfc,611e07ecdcc96256ae8d5b80,611e7486ec841801db97a08f,0.4663,
,,,,space,,0,311,311,37,1,E, , , , ,space,2500,2.5,611c1794aea18553c59d5bfc,001,2021-08-19_16h11.23.647,natb3,2021.2.3,Win32,60.14314067,611c1794aea18553c59d5bfc,611e07ecdcc96256ae8d5b80,611e7486ec841801db97a08f,0.5834,
,,,,space,,0,312,312,20,1,H, , , , ,space,1500,1.5,611c1794aea18553c59d5bfc,001,2021-08-19_16h11.23.647,natb3,2021.2.3,Win32,60.14314067,611c1794aea18553c59d5bfc,611e07ecdcc96256ae8d5b80,611e7486ec841801db97a08f,0.5688,
,,,,space,,0,313,313,323,1,M, , , , ,space,2500,2.5,611c1794aea18553c59d5bfc,001,2021-08-19_16h11.23.647,natb3,2021.2.3,Win32,60.14314067,611c1794aea18553c59d5bfc,611e07ecdcc96256ae8d5b80,611e7486ec841801db97a08f,0.3668,
,,,,,,0,314,314,39,1,X,6,2, , ,,1500,1.5,611c1794aea18553c59d5bfc,001,2021-08-19_16h11.23.647,natb3,2021.2.3,Win32,60.14314067,611c1794aea18553c59d5bfc,611e07ecdcc96256ae8d5b80,611e7486ec841801db97a08f,,
,,,,space,,0,315,315,308,1,G, , , , ,space,1500,1.5,611c1794aea18553c59d5bfc,001,2021-08-19_16h11.23.647,natb3,2021.2.3,Win32,60.14314067,611c1794aea18553c59d5bfc,611e07ecdcc96256ae8d5b80,611e7486ec841801db97a08f,0.5497,
,,,,space,,0,316,316,196,1,F, , , , ,space,1500,1.5,611c1794aea18553c59d5bfc,001,2021-08-19_16h11.23.647,natb3,2021.2.3,Win32,60.14314067,611c1794aea18553c59d5bfc,611e07ecdcc96256ae8d5b80,611e7486ec841801db97a08f,0.6233,
,,,,,,0,317,317,21,1,J, , , , ,space,1500,1.5,611c1794aea18553c59d5bfc,001,2021-08-19_16h11.23.647,natb3,2021.2.3,Win32,60.14314067,611c1794aea18553c59d5bfc,611e07ecdcc96256ae8d5b80,611e7486ec841801db97a08f,,
,,,,space,,0,318,318,146,1,W, , , , ,space,1500,1.5,611c1794aea18553c59d5bfc,001,2021-08-19_16h11.23.647,natb3,2021.2.3,Win32,60.14314067,611c1794aea18553c59d5bfc,611e07ecdcc96256ae8d5b80,611e7486ec841801db97a08f,0.4566,
,,,,space,,0,319,319,57,1,K, , , , ,space,2500,2.5,611c1794aea18553c59d5bfc,001,2021-08-19_16h11.23.647,natb3,2021.2.3,Win32,60.14314067,611c1794aea18553c59d5bfc,611e07ecdcc96256ae8d5b80,611e7486ec841801db97a08f,0.4562,
,,,,space,,0,320,320,245,1,K, , , , ,space,2000,2,611c1794aea18553c59d5bfc,001,2021-08-19_16h11.23.647,natb3,2021.2.3,Win32,60.14314067,611c1794aea18553c59d5bfc,611e07ecdcc96256ae8d5b80,611e7486ec841801db97a08f,0.4664,
,,,,space,,0,321,321,95,1,V, , , , ,space,1500,1.5,611c1794aea18553c59d5bfc,001,2021-08-19_16h11.23.647,natb3,2021.2.3,Win32,60.14314067,611c1794aea18553c59d5bfc,611e07ecdcc96256ae8d5b80,611e7486ec841801db97a08f,0.5817,
,,,,space,,0,322,322,284,1,V, , , , ,space,2500,2.5,611c1794aea18553c59d5bfc,001,2021-08-19_16h11.23.647,natb3,2021.2.3,Win32,60.14314067,611c1794aea18553c59d5bfc,611e07ecdcc96256ae8d5b80,611e7486ec841801db97a08f,0.3552,
,,,,space,,0,323,323,25,1,Z, , , , ,space,2500,2.5,611c1794aea18553c59d5bfc,001,2021-08-19_16h11.23.647,natb3,2021.2.3,Win32,60.14314067,611c1794aea18553c59d5bfc,611e07ecdcc96256ae8d5b80,611e7486ec841801db97a08f,0.3896,
,,,,,,0,324,324,54,1,X, , , , ,,2000,2,611c1794aea18553c59d5bfc,001,2021-08-19_16h11.23.647,natb3,2021.2.3,Win32,60.14314067,611c1794aea18553c59d5bfc,611e07ecdcc96256ae8d5b80,611e7486ec841801db97a08f,,
,,,,,,0,325,325,211,1,X, , , , ,,2500,2.5,611c1794aea18553c59d5bfc,001,2021-08-19_16h11.23.647,natb3,2021.2.3,Win32,60.14314067,611c1794aea18553c59d5bfc,611e07ecdcc96256ae8d5b80,611e7486ec841801db97a08f,,
,,,,,,0,326,326,23,1,X,1, ,5, ,,2000,2,611c1794aea18553c59d5bfc,001,2021-08-19_16h11.23.647,natb3,2021.2.3,Win32,60.14314067,611c1794aea18553c59d5bfc,611e07ecdcc96256ae8d5b80,611e7486ec841801db97a08f,,
,,,,,,0,327,327,74,1,X, ,4,3,2,,1500,1.5,611c1794aea18553c59d5bfc,001,2021-08-19_16h11.23.647,natb3,2021.2.3,Win32,60.14314067,611c1794aea18553c59d5bfc,611e07ecdcc96256ae8d5b80,611e7486ec841801db97a08f,,
,,,,space,,0,328,328,91,1,L, , , , ,space,2000,2,611c1794aea18553c59d5bfc,001,2021-08-19_16h11.23.647,natb3,2021.2.3,Win32,60.14314067,611c1794aea18553c59d5bfc,611e07ecdcc96256ae8d5b80,611e7486ec841801db97a08f,0.499,
,,,,,,0,329,329,116,1,X, , , , ,,2000,2,611c1794aea18553c59d5bfc,001,2021-08-19_16h11.23.647,natb3,2021.2.3,Win32,60.14314067,611c1794aea18553c59d5bfc,611e07ecdcc96256ae8d5b80,611e7486ec841801db97a08f,,
,,,,space,,0,330,330,85,1,F, , , , ,space,2500,2.5,611c1794aea18553c59d5bfc,001,2021-08-19_16h11.23.647,natb3,2021.2.3,Win32,60.14314067,611c1794aea18553c59d5bfc,611e07ecdcc96256ae8d5b80,611e7486ec841801db97a08f,0.4836,
,,,,space,,0,331,331,209,1,N, , , , ,space,2000,2,611c1794aea18553c59d5bfc,001,2021-08-19_16h11.23.647,natb3,2021.2.3,Win32,60.14314067,611c1794aea18553c59d5bfc,611e07ecdcc96256ae8d5b80,611e7486ec841801db97a08f,0.4528,
,,,,,,0,332,332,315,1,X, , , , ,,2500,2.5,611c1794aea18553c59d5bfc,001,2021-08-19_16h11.23.647,natb3,2021.2.3,Win32,60.14314067,611c1794aea18553c59d5bfc,611e07ecdcc96256ae8d5b80,611e7486ec841801db97a08f,,
,,,,space,,0,333,333,100,1,M, , , , ,space,2000,2,611c1794aea18553c59d5bfc,001,2021-08-19_16h11.23.647,natb3,2021.2.3,Win32,60.14314067,611c1794aea18553c59d5bfc,611e07ecdcc96256ae8d5b80,611e7486ec841801db97a08f,0.3997,
,,,,space,,0,334,334,124,1,P, , , , ,space,2000,2,611c1794aea18553c59d5bfc,001,2021-08-19_16h11.23.647,natb3,2021.2.3,Win32,60.14314067,611c1794aea18553c59d5bfc,611e07ecdcc96256ae8d5b80,611e7486ec841801db97a08f,0.6326,
,,,,space,,0,335,335,246,1,L, , , , ,space,2500,2.5,611c1794aea18553c59d5bfc,001,2021-08-19_16h11.23.647,natb3,2021.2.3,Win32,60.14314067,611c1794aea18553c59d5bfc,611e07ecdcc96256ae8d5b80,611e7486ec841801db97a08f,0.3848,
