key_resp_2.keys,key_resp_2.rt,key_resp_3.keys,key_resp_3.rt,key_resp.keys,key_resp_4.keys,trials.thisRepN,trials.thisTrialN,trials.thisN,trials.thisIndex,trials.ran,stimulus,distractor1,distractor2,distractor3,distractor4,CorrAns,isi_duration,isi_dur_in_seconds,participant,session,date,expName,psychopyVersion,OS,frameRate,PROLIFIC_PID,STUDY_ID,SESSION_ID,key_resp.rt,key_resp_4.rt
return,36.9498,space,16.4619,,,0,0,0,268,1,X,6, ,3, ,,2500,2.5,611d566639d0da04c1620458,001,2021-08-19_15h44.32.433,natb3,2021.2.3,Win32,166.1129568,611d566639d0da04c1620458,611e07ecdcc96256ae8d5b80,611e6e336905e5518706e407,,
,,,,space,,0,1,1,75,1,U, , , , ,space,1500,1.5,611d566639d0da04c1620458,001,2021-08-19_15h44.32.433,natb3,2021.2.3,Win32,166.1129568,611d566639d0da04c1620458,611e07ecdcc96256ae8d5b80,611e6e336905e5518706e407,0.621,
,,,,,,0,2,2,335,1,P,,,,,space,1500,1.5,611d566639d0da04c1620458,001,2021-08-19_15h44.32.433,natb3,2021.2.3,Win32,166.1129568,611d566639d0da04c1620458,611e07ecdcc96256ae8d5b80,611e6e336905e5518706e407,,
,,,,space,,0,3,3,193,1,S, , , , ,space,2500,2.5,611d566639d0da04c1620458,001,2021-08-19_15h44.32.433,natb3,2021.2.3,Win32,166.1129568,611d566639d0da04c1620458,611e07ecdcc96256ae8d5b80,611e6e336905e5518706e407,0.5492,
,,,,space,,0,4,4,289,1,Q, , , , ,space,2000,2,611d566639d0da04c1620458,001,2021-08-19_15h44.32.433,natb3,2021.2.3,Win32,166.1129568,611d566639d0da04c1620458,611e07ecdcc96256ae8d5b80,611e6e336905e5518706e407,0.4753,
,,,,space,,0,5,5,185,1,Y, , , , ,space,2500,2.5,611d566639d0da04c1620458,001,2021-08-19_15h44.32.433,natb3,2021.2.3,Win32,166.1129568,611d566639d0da04c1620458,611e07ecdcc96256ae8d5b80,611e6e336905e5518706e407,0.5496,
,,,,space,,0,6,6,135,1,K, , , , ,space,1500,1.5,611d566639d0da04c1620458,001,2021-08-19_15h44.32.433,natb3,2021.2.3,Win32,166.1129568,611d566639d0da04c1620458,611e07ecdcc96256ae8d5b80,611e6e336905e5518706e407,0.5218,
,,,,space,,0,7,7,147,1,E, , , , ,space,2000,2,611d566639d0da04c1620458,001,2021-08-19_15h44.32.433,natb3,2021.2.3,Win32,166.1129568,611d566639d0da04c1620458,611e07ecdcc96256ae8d5b80,611e6e336905e5518706e407,0.3788,
,,,,space,,0,8,8,28,1,V, , , , ,space,1500,1.5,611d566639d0da04c1620458,001,2021-08-19_15h44.32.433,natb3,2021.2.3,Win32,166.1129568,611d566639d0da04c1620458,611e07ecdcc96256ae8d5b80,611e6e336905e5518706e407,0.2979,
,,,,,,0,9,9,233,1,X, ,2, ,5,,1500,1.5,611d566639d0da04c1620458,001,2021-08-19_15h44.32.433,natb3,2021.2.3,Win32,166.1129568,611d566639d0da04c1620458,611e07ecdcc96256ae8d5b80,611e6e336905e5518706e407,,
,,,,space,,0,10,10,225,1,E, , , , ,space,2000,2,611d566639d0da04c1620458,001,2021-08-19_15h44.32.433,natb3,2021.2.3,Win32,166.1129568,611d566639d0da04c1620458,611e07ecdcc96256ae8d5b80,611e6e336905e5518706e407,0.3416,
,,,,space,,0,11,11,221,1,I, , , , ,space,2500,2.5,611d566639d0da04c1620458,001,2021-08-19_15h44.32.433,natb3,2021.2.3,Win32,166.1129568,611d566639d0da04c1620458,611e07ecdcc96256ae8d5b80,611e6e336905e5518706e407,0.3388,
,,,,space,,0,12,12,254,1,M, , , , ,space,1500,1.5,611d566639d0da04c1620458,001,2021-08-19_15h44.32.433,natb3,2021.2.3,Win32,166.1129568,611d566639d0da04c1620458,611e07ecdcc96256ae8d5b80,611e6e336905e5518706e407,0.6988,
,,,,,,0,13,13,96,1,X, , , , ,,1500,1.5,611d566639d0da04c1620458,001,2021-08-19_15h44.32.433,natb3,2021.2.3,Win32,166.1129568,611d566639d0da04c1620458,611e07ecdcc96256ae8d5b80,611e6e336905e5518706e407,,
,,,,,,0,14,14,66,1,X, ,4,7, ,,2000,2,611d566639d0da04c1620458,001,2021-08-19_15h44.32.433,natb3,2021.2.3,Win32,166.1129568,611d566639d0da04c1620458,611e07ecdcc96256ae8d5b80,611e6e336905e5518706e407,,
,,,,space,,0,15,15,52,1,F, , , , ,space,1500,1.5,611d566639d0da04c1620458,001,2021-08-19_15h44.32.433,natb3,2021.2.3,Win32,166.1129568,611d566639d0da04c1620458,611e07ecdcc96256ae8d5b80,611e6e336905e5518706e407,0.4941,
,,,,space,,0,16,16,76,1,I, , , , ,space,2000,2,611d566639d0da04c1620458,001,2021-08-19_15h44.32.433,natb3,2021.2.3,Win32,166.1129568,611d566639d0da04c1620458,611e07ecdcc96256ae8d5b80,611e6e336905e5518706e407,0.5873,
,,,,space,,0,17,17,61,1,C, , , , ,space,2000,2,611d566639d0da04c1620458,001,2021-08-19_15h44.32.433,natb3,2021.2.3,Win32,166.1129568,611d566639d0da04c1620458,611e07ecdcc96256ae8d5b80,611e6e336905e5518706e407,0.4101,
,,,,space,,0,18,18,55,1,H, , , , ,space,2500,2.5,611d566639d0da04c1620458,001,2021-08-19_15h44.32.433,natb3,2021.2.3,Win32,166.1129568,611d566639d0da04c1620458,611e07ecdcc96256ae8d5b80,611e6e336905e5518706e407,0.4766,
,,,,space,,0,19,19,281,1,Z, , , , ,space,1500,1.5,611d566639d0da04c1620458,001,2021-08-19_15h44.32.433,natb3,2021.2.3,Win32,166.1129568,611d566639d0da04c1620458,611e07ecdcc96256ae8d5b80,611e6e336905e5518706e407,0.5687,
,,,,space,,0,20,20,1,1,W, , , , ,space,2000,2,611d566639d0da04c1620458,001,2021-08-19_15h44.32.433,natb3,2021.2.3,Win32,166.1129568,611d566639d0da04c1620458,611e07ecdcc96256ae8d5b80,611e6e336905e5518706e407,0.5507,
,,,,,,0,21,21,125,1,X, , , , ,,2000,2,611d566639d0da04c1620458,001,2021-08-19_15h44.32.433,natb3,2021.2.3,Win32,166.1129568,611d566639d0da04c1620458,611e07ecdcc96256ae8d5b80,611e6e336905e5518706e407,,
,,,,space,,0,22,22,269,1,A, , , , ,space,2500,2.5,611d566639d0da04c1620458,001,2021-08-19_15h44.32.433,natb3,2021.2.3,Win32,166.1129568,611d566639d0da04c1620458,611e07ecdcc96256ae8d5b80,611e6e336905e5518706e407,0.5325,
,,,,space,,0,23,23,24,1,L, , , , ,space,2500,2.5,611d566639d0da04c1620458,001,2021-08-19_15h44.32.433,natb3,2021.2.3,Win32,166.1129568,611d566639d0da04c1620458,611e07ecdcc96256ae8d5b80,611e6e336905e5518706e407,0.4503,
,,,,space,,0,24,24,248,1,X, ,1,5, ,,1500,1.5,611d566639d0da04c1620458,001,2021-08-19_15h44.32.433,natb3,2021.2.3,Win32,166.1129568,611d566639d0da04c1620458,611e07ecdcc96256ae8d5b80,611e6e336905e5518706e407,0.4441,
,,,,space,,0,25,25,143,1,M, , , , ,space,2500,2.5,611d566639d0da04c1620458,001,2021-08-19_15h44.32.433,natb3,2021.2.3,Win32,166.1129568,611d566639d0da04c1620458,611e07ecdcc96256ae8d5b80,611e6e336905e5518706e407,0.4105,
,,,,space,,0,26,26,204,1,Z, , , , ,space,2000,2,611d566639d0da04c1620458,001,2021-08-19_15h44.32.433,natb3,2021.2.3,Win32,166.1129568,611d566639d0da04c1620458,611e07ecdcc96256ae8d5b80,611e6e336905e5518706e407,0.4982,
,,,,,,0,27,27,213,1,X, , , , ,,2500,2.5,611d566639d0da04c1620458,001,2021-08-19_15h44.32.433,natb3,2021.2.3,Win32,166.1129568,611d566639d0da04c1620458,611e07ecdcc96256ae8d5b80,611e6e336905e5518706e407,,
,,,,space,,0,28,28,300,1,O, , , , ,space,2500,2.5,611d566639d0da04c1620458,001,2021-08-19_15h44.32.433,natb3,2021.2.3,Win32,166.1129568,611d566639d0da04c1620458,611e07ecdcc96256ae8d5b80,611e6e336905e5518706e407,0.6093,
,,,,space,,0,29,29,0,1,Q, , , , ,space,1500,1.5,611d566639d0da04c1620458,001,2021-08-19_15h44.32.433,natb3,2021.2.3,Win32,166.1129568,611d566639d0da04c1620458,611e07ecdcc96256ae8d5b80,611e6e336905e5518706e407,0.5319,
,,,,space,,0,30,30,258,1,E, , , , ,space,1500,1.5,611d566639d0da04c1620458,001,2021-08-19_15h44.32.433,natb3,2021.2.3,Win32,166.1129568,611d566639d0da04c1620458,611e07ecdcc96256ae8d5b80,611e6e336905e5518706e407,0.5477,
,,,,space,,0,31,31,327,1,E, , , , ,space,1500,1.5,611d566639d0da04c1620458,001,2021-08-19_15h44.32.433,natb3,2021.2.3,Win32,166.1129568,611d566639d0da04c1620458,611e07ecdcc96256ae8d5b80,611e6e336905e5518706e407,0.6146,
,,,,,,0,32,32,133,1,X, ,4, ,6,,2500,2.5,611d566639d0da04c1620458,001,2021-08-19_15h44.32.433,natb3,2021.2.3,Win32,166.1129568,611d566639d0da04c1620458,611e07ecdcc96256ae8d5b80,611e6e336905e5518706e407,,
,,,,,,0,33,33,18,1,X, ,2,5,8,,2500,2.5,611d566639d0da04c1620458,001,2021-08-19_15h44.32.433,natb3,2021.2.3,Win32,166.1129568,611d566639d0da04c1620458,611e07ecdcc96256ae8d5b80,611e6e336905e5518706e407,,
,,,,space,,0,34,34,132,1,H, , , , ,space,2500,2.5,611d566639d0da04c1620458,001,2021-08-19_15h44.32.433,natb3,2021.2.3,Win32,166.1129568,611d566639d0da04c1620458,611e07ecdcc96256ae8d5b80,611e6e336905e5518706e407,0.5331,
,,,,,,0,35,35,166,1,X, , , , ,,2000,2,611d566639d0da04c1620458,001,2021-08-19_15h44.32.433,natb3,2021.2.3,Win32,166.1129568,611d566639d0da04c1620458,611e07ecdcc96256ae8d5b80,611e6e336905e5518706e407,,
,,,,space,,0,36,36,320,1,B, , , , ,space,1500,1.5,611d566639d0da04c1620458,001,2021-08-19_15h44.32.433,natb3,2021.2.3,Win32,166.1129568,611d566639d0da04c1620458,611e07ecdcc96256ae8d5b80,611e6e336905e5518706e407,0.5697,
,,,,space,,0,37,37,192,1,A, , , , ,space,2000,2,611d566639d0da04c1620458,001,2021-08-19_15h44.32.433,natb3,2021.2.3,Win32,166.1129568,611d566639d0da04c1620458,611e07ecdcc96256ae8d5b80,611e6e336905e5518706e407,0.5453,
,,,,space,,0,38,38,285,1,B, , , , ,space,1500,1.5,611d566639d0da04c1620458,001,2021-08-19_15h44.32.433,natb3,2021.2.3,Win32,166.1129568,611d566639d0da04c1620458,611e07ecdcc96256ae8d5b80,611e6e336905e5518706e407,0.6902,
,,,,,,0,39,39,243,1,X, , , , ,,2500,2.5,611d566639d0da04c1620458,001,2021-08-19_15h44.32.433,natb3,2021.2.3,Win32,166.1129568,611d566639d0da04c1620458,611e07ecdcc96256ae8d5b80,611e6e336905e5518706e407,,
,,,,,,0,40,40,329,1,X,3,4, ,2,,2500,2.5,611d566639d0da04c1620458,001,2021-08-19_15h44.32.433,natb3,2021.2.3,Win32,166.1129568,611d566639d0da04c1620458,611e07ecdcc96256ae8d5b80,611e6e336905e5518706e407,,
,,,,,,0,41,41,302,1,X, , , , ,,2000,2,611d566639d0da04c1620458,001,2021-08-19_15h44.32.433,natb3,2021.2.3,Win32,166.1129568,611d566639d0da04c1620458,611e07ecdcc96256ae8d5b80,611e6e336905e5518706e407,,
,,,,,,0,42,42,27,1,X,5, ,1,3,,1500,1.5,611d566639d0da04c1620458,001,2021-08-19_15h44.32.433,natb3,2021.2.3,Win32,166.1129568,611d566639d0da04c1620458,611e07ecdcc96256ae8d5b80,611e6e336905e5518706e407,,
,,,,space,,0,43,43,222,1,O, , , , ,space,2000,2,611d566639d0da04c1620458,001,2021-08-19_15h44.32.433,natb3,2021.2.3,Win32,166.1129568,611d566639d0da04c1620458,611e07ecdcc96256ae8d5b80,611e6e336905e5518706e407,0.5068,
,,,,,,0,44,44,195,1,X, , , , ,,1500,1.5,611d566639d0da04c1620458,001,2021-08-19_15h44.32.433,natb3,2021.2.3,Win32,166.1129568,611d566639d0da04c1620458,611e07ecdcc96256ae8d5b80,611e6e336905e5518706e407,,
,,,,space,,0,45,45,223,1,Q, , , , ,space,2000,2,611d566639d0da04c1620458,001,2021-08-19_15h44.32.433,natb3,2021.2.3,Win32,166.1129568,611d566639d0da04c1620458,611e07ecdcc96256ae8d5b80,611e6e336905e5518706e407,0.6422,
,,,,space,,0,46,46,73,1,Y, , , , ,space,2000,2,611d566639d0da04c1620458,001,2021-08-19_15h44.32.433,natb3,2021.2.3,Win32,166.1129568,611d566639d0da04c1620458,611e07ecdcc96256ae8d5b80,611e6e336905e5518706e407,0.6832,
,,,,,,0,47,47,318,1,X, , , , ,,1500,1.5,611d566639d0da04c1620458,001,2021-08-19_15h44.32.433,natb3,2021.2.3,Win32,166.1129568,611d566639d0da04c1620458,611e07ecdcc96256ae8d5b80,611e6e336905e5518706e407,,
,,,,,,0,48,48,54,1,X, , , , ,,2000,2,611d566639d0da04c1620458,001,2021-08-19_15h44.32.433,natb3,2021.2.3,Win32,166.1129568,611d566639d0da04c1620458,611e07ecdcc96256ae8d5b80,611e6e336905e5518706e407,,
,,,,,,0,49,49,23,1,X,1, ,5, ,,2000,2,611d566639d0da04c1620458,001,2021-08-19_15h44.32.433,natb3,2021.2.3,Win32,166.1129568,611d566639d0da04c1620458,611e07ecdcc96256ae8d5b80,611e6e336905e5518706e407,,
,,,,space,,0,50,50,94,1,C, , , , ,space,2000,2,611d566639d0da04c1620458,001,2021-08-19_15h44.32.433,natb3,2021.2.3,Win32,166.1129568,611d566639d0da04c1620458,611e07ecdcc96256ae8d5b80,611e6e336905e5518706e407,0.4826,
,,,,,,0,51,51,287,1,X, ,2, ,9,,2000,2,611d566639d0da04c1620458,001,2021-08-19_15h44.32.433,natb3,2021.2.3,Win32,166.1129568,611d566639d0da04c1620458,611e07ecdcc96256ae8d5b80,611e6e336905e5518706e407,,
,,,,space,,0,52,52,331,1,Y, , , , ,space,2500,2.5,611d566639d0da04c1620458,001,2021-08-19_15h44.32.433,natb3,2021.2.3,Win32,166.1129568,611d566639d0da04c1620458,611e07ecdcc96256ae8d5b80,611e6e336905e5518706e407,0.7637,
,,,,space,,0,53,53,279,1,K, , , , ,space,2500,2.5,611d566639d0da04c1620458,001,2021-08-19_15h44.32.433,natb3,2021.2.3,Win32,166.1129568,611d566639d0da04c1620458,611e07ecdcc96256ae8d5b80,611e6e336905e5518706e407,0.6331,
,,,,space,,0,54,54,77,1,O, , , , ,space,2000,2,611d566639d0da04c1620458,001,2021-08-19_15h44.32.433,natb3,2021.2.3,Win32,166.1129568,611d566639d0da04c1620458,611e07ecdcc96256ae8d5b80,611e6e336905e5518706e407,0.6251,
,,,,,,0,55,55,175,1,X,7, ,4,2,,1500,1.5,611d566639d0da04c1620458,001,2021-08-19_15h44.32.433,natb3,2021.2.3,Win32,166.1129568,611d566639d0da04c1620458,611e07ecdcc96256ae8d5b80,611e6e336905e5518706e407,,
,,,,space,,0,56,56,62,1,V, , , , ,space,1500,1.5,611d566639d0da04c1620458,001,2021-08-19_15h44.32.433,natb3,2021.2.3,Win32,166.1129568,611d566639d0da04c1620458,611e07ecdcc96256ae8d5b80,611e6e336905e5518706e407,0.649,
,,,,,,0,57,57,168,1,X, , , , ,,2500,2.5,611d566639d0da04c1620458,001,2021-08-19_15h44.32.433,natb3,2021.2.3,Win32,166.1129568,611d566639d0da04c1620458,611e07ecdcc96256ae8d5b80,611e6e336905e5518706e407,,
,,,,space,,0,58,58,275,1,G, , , , ,space,1500,1.5,611d566639d0da04c1620458,001,2021-08-19_15h44.32.433,natb3,2021.2.3,Win32,166.1129568,611d566639d0da04c1620458,611e07ecdcc96256ae8d5b80,611e6e336905e5518706e407,0.5444,
,,,,space,,0,59,59,247,1,Z, , , , ,space,1500,1.5,611d566639d0da04c1620458,001,2021-08-19_15h44.32.433,natb3,2021.2.3,Win32,166.1129568,611d566639d0da04c1620458,611e07ecdcc96256ae8d5b80,611e6e336905e5518706e407,0.5273,
,,,,space,,0,60,60,246,1,L, , , , ,space,2500,2.5,611d566639d0da04c1620458,001,2021-08-19_15h44.32.433,natb3,2021.2.3,Win32,166.1129568,611d566639d0da04c1620458,611e07ecdcc96256ae8d5b80,611e6e336905e5518706e407,0.579,
,,,,space,,0,61,61,260,1,R, , , , ,space,2000,2,611d566639d0da04c1620458,001,2021-08-19_15h44.32.433,natb3,2021.2.3,Win32,166.1129568,611d566639d0da04c1620458,611e07ecdcc96256ae8d5b80,611e6e336905e5518706e407,0.4521,
,,,,space,,0,62,62,3,1,R, , , , ,space,2000,2,611d566639d0da04c1620458,001,2021-08-19_15h44.32.433,natb3,2021.2.3,Win32,166.1129568,611d566639d0da04c1620458,611e07ecdcc96256ae8d5b80,611e6e336905e5518706e407,0.6173,
,,,,,,0,63,63,299,1,X, , , , ,,2500,2.5,611d566639d0da04c1620458,001,2021-08-19_15h44.32.433,natb3,2021.2.3,Win32,166.1129568,611d566639d0da04c1620458,611e07ecdcc96256ae8d5b80,611e6e336905e5518706e407,,
,,,,space,,0,64,64,131,1,G, , , , ,space,1500,1.5,611d566639d0da04c1620458,001,2021-08-19_15h44.32.433,natb3,2021.2.3,Win32,166.1129568,611d566639d0da04c1620458,611e07ecdcc96256ae8d5b80,611e6e336905e5518706e407,0.4996,
,,,,space,,0,65,65,152,1,U, , , , ,space,2000,2,611d566639d0da04c1620458,001,2021-08-19_15h44.32.433,natb3,2021.2.3,Win32,166.1129568,611d566639d0da04c1620458,611e07ecdcc96256ae8d5b80,611e6e336905e5518706e407,0.8653,
,,,,,,0,66,66,89,1,X,3, , , ,,2000,2,611d566639d0da04c1620458,001,2021-08-19_15h44.32.433,natb3,2021.2.3,Win32,166.1129568,611d566639d0da04c1620458,611e07ecdcc96256ae8d5b80,611e6e336905e5518706e407,,
,,,,space,,0,67,67,214,1,W, , , , ,space,2000,2,611d566639d0da04c1620458,001,2021-08-19_15h44.32.433,natb3,2021.2.3,Win32,166.1129568,611d566639d0da04c1620458,611e07ecdcc96256ae8d5b80,611e6e336905e5518706e407,0.6241,
,,,,space,,0,68,68,321,1,N, , , , ,space,2000,2,611d566639d0da04c1620458,001,2021-08-19_15h44.32.433,natb3,2021.2.3,Win32,166.1129568,611d566639d0da04c1620458,611e07ecdcc96256ae8d5b80,611e6e336905e5518706e407,0.8541,
,,,,space,,0,69,69,328,1,R, , , , ,space,1500,1.5,611d566639d0da04c1620458,001,2021-08-19_15h44.32.433,natb3,2021.2.3,Win32,166.1129568,611d566639d0da04c1620458,611e07ecdcc96256ae8d5b80,611e6e336905e5518706e407,0.55,
,,,,space,,0,70,70,244,1,J, , , , ,space,1500,1.5,611d566639d0da04c1620458,001,2021-08-19_15h44.32.433,natb3,2021.2.3,Win32,166.1129568,611d566639d0da04c1620458,611e07ecdcc96256ae8d5b80,611e6e336905e5518706e407,0.5329,
,,,,space,,0,71,71,241,1,G, , , , ,space,2500,2.5,611d566639d0da04c1620458,001,2021-08-19_15h44.32.433,natb3,2021.2.3,Win32,166.1129568,611d566639d0da04c1620458,611e07ecdcc96256ae8d5b80,611e6e336905e5518706e407,0.5516,
,,,,,,0,72,72,313,1,X, , , , ,,2500,2.5,611d566639d0da04c1620458,001,2021-08-19_15h44.32.433,natb3,2021.2.3,Win32,166.1129568,611d566639d0da04c1620458,611e07ecdcc96256ae8d5b80,611e6e336905e5518706e407,,
,,,,space,,0,73,73,323,1,M, , , , ,space,2500,2.5,611d566639d0da04c1620458,001,2021-08-19_15h44.32.433,natb3,2021.2.3,Win32,166.1129568,611d566639d0da04c1620458,611e07ecdcc96256ae8d5b80,611e6e336905e5518706e407,0.5988,
,,,,space,,0,74,74,274,1,F, , , , ,space,2000,2,611d566639d0da04c1620458,001,2021-08-19_15h44.32.433,natb3,2021.2.3,Win32,166.1129568,611d566639d0da04c1620458,611e07ecdcc96256ae8d5b80,611e6e336905e5518706e407,0.9617,
,,,,space,,0,75,75,142,1,N, , , , ,space,2500,2.5,611d566639d0da04c1620458,001,2021-08-19_15h44.32.433,natb3,2021.2.3,Win32,166.1129568,611d566639d0da04c1620458,611e07ecdcc96256ae8d5b80,611e6e336905e5518706e407,0.8535,
,,,,,,0,76,76,200,1,X,7, ,5,3,,1500,1.5,611d566639d0da04c1620458,001,2021-08-19_15h44.32.433,natb3,2021.2.3,Win32,166.1129568,611d566639d0da04c1620458,611e07ecdcc96256ae8d5b80,611e6e336905e5518706e407,,
,,,,space,,0,77,77,228,1,Y, , , , ,space,2000,2,611d566639d0da04c1620458,001,2021-08-19_15h44.32.433,natb3,2021.2.3,Win32,166.1129568,611d566639d0da04c1620458,611e07ecdcc96256ae8d5b80,611e6e336905e5518706e407,0.5988,
,,,,space,,0,78,78,41,1,Y, , , , ,space,2500,2.5,611d566639d0da04c1620458,001,2021-08-19_15h44.32.433,natb3,2021.2.3,Win32,166.1129568,611d566639d0da04c1620458,611e07ecdcc96256ae8d5b80,611e6e336905e5518706e407,0.6693,
,,,,,,0,79,79,158,1,X, , , , ,,1500,1.5,611d566639d0da04c1620458,001,2021-08-19_15h44.32.433,natb3,2021.2.3,Win32,166.1129568,611d566639d0da04c1620458,611e07ecdcc96256ae8d5b80,611e6e336905e5518706e407,,
,,,,space,,0,80,80,220,1,U, , , , ,space,2500,2.5,611d566639d0da04c1620458,001,2021-08-19_15h44.32.433,natb3,2021.2.3,Win32,166.1129568,611d566639d0da04c1620458,611e07ecdcc96256ae8d5b80,611e6e336905e5518706e407,0.693,
,,,,space,,0,81,81,238,1,D, , , , ,space,1500,1.5,611d566639d0da04c1620458,001,2021-08-19_15h44.32.433,natb3,2021.2.3,Win32,166.1129568,611d566639d0da04c1620458,611e07ecdcc96256ae8d5b80,611e6e336905e5518706e407,0.5637,
,,,,space,,0,82,82,121,1,I, , , , ,space,2000,2,611d566639d0da04c1620458,001,2021-08-19_15h44.32.433,natb3,2021.2.3,Win32,166.1129568,611d566639d0da04c1620458,611e07ecdcc96256ae8d5b80,611e6e336905e5518706e407,0.6362,
,,,,space,,0,83,83,235,1,A, , , , ,space,1500,1.5,611d566639d0da04c1620458,001,2021-08-19_15h44.32.433,natb3,2021.2.3,Win32,166.1129568,611d566639d0da04c1620458,611e07ecdcc96256ae8d5b80,611e6e336905e5518706e407,0.4874,
,,,,,,0,84,84,122,1,X,1, , ,8,,1500,1.5,611d566639d0da04c1620458,001,2021-08-19_15h44.32.433,natb3,2021.2.3,Win32,166.1129568,611d566639d0da04c1620458,611e07ecdcc96256ae8d5b80,611e6e336905e5518706e407,,
,,,,,,0,85,85,203,1,X, , , , ,,2500,2.5,611d566639d0da04c1620458,001,2021-08-19_15h44.32.433,natb3,2021.2.3,Win32,166.1129568,611d566639d0da04c1620458,611e07ecdcc96256ae8d5b80,611e6e336905e5518706e407,,
,,,,space,,0,86,86,202,1,L, , , , ,space,2500,2.5,611d566639d0da04c1620458,001,2021-08-19_15h44.32.433,natb3,2021.2.3,Win32,166.1129568,611d566639d0da04c1620458,611e07ecdcc96256ae8d5b80,611e6e336905e5518706e407,0.5498,
,,,,,,0,87,87,207,1,X,9, ,2, ,,2500,2.5,611d566639d0da04c1620458,001,2021-08-19_15h44.32.433,natb3,2021.2.3,Win32,166.1129568,611d566639d0da04c1620458,611e07ecdcc96256ae8d5b80,611e6e336905e5518706e407,,
,,,,space,,0,88,88,172,1,C, , , , ,space,1500,1.5,611d566639d0da04c1620458,001,2021-08-19_15h44.32.433,natb3,2021.2.3,Win32,166.1129568,611d566639d0da04c1620458,611e07ecdcc96256ae8d5b80,611e6e336905e5518706e407,0.5591,
,,,,space,,0,89,89,208,1,B, , , , ,space,1500,1.5,611d566639d0da04c1620458,001,2021-08-19_15h44.32.433,natb3,2021.2.3,Win32,166.1129568,611d566639d0da04c1620458,611e07ecdcc96256ae8d5b80,611e6e336905e5518706e407,0.5506,
,,,,space,,0,90,90,6,1,Y, , , , ,space,2500,2.5,611d566639d0da04c1620458,001,2021-08-19_15h44.32.433,natb3,2021.2.3,Win32,166.1129568,611d566639d0da04c1620458,611e07ecdcc96256ae8d5b80,611e6e336905e5518706e407,0.6803,
,,,,space,,0,91,91,330,1,T, , , , ,space,2500,2.5,611d566639d0da04c1620458,001,2021-08-19_15h44.32.433,natb3,2021.2.3,Win32,166.1129568,611d566639d0da04c1620458,611e07ecdcc96256ae8d5b80,611e6e336905e5518706e407,0.5897,
,,,,space,,0,92,92,86,1,G, , , , ,space,2000,2,611d566639d0da04c1620458,001,2021-08-19_15h44.32.433,natb3,2021.2.3,Win32,166.1129568,611d566639d0da04c1620458,611e07ecdcc96256ae8d5b80,611e6e336905e5518706e407,0.5289,
,,,,space,,0,93,93,101,1,Q, , , , ,space,2500,2.5,611d566639d0da04c1620458,001,2021-08-19_15h44.32.433,natb3,2021.2.3,Win32,166.1129568,611d566639d0da04c1620458,611e07ecdcc96256ae8d5b80,611e6e336905e5518706e407,0.4976,
,,,,,,0,94,94,148,1,X, , , , ,,2000,2,611d566639d0da04c1620458,001,2021-08-19_15h44.32.433,natb3,2021.2.3,Win32,166.1129568,611d566639d0da04c1620458,611e07ecdcc96256ae8d5b80,611e6e336905e5518706e407,,
,,,,space,,0,95,95,149,1,R, , , , ,space,2000,2,611d566639d0da04c1620458,001,2021-08-19_15h44.32.433,natb3,2021.2.3,Win32,166.1129568,611d566639d0da04c1620458,611e07ecdcc96256ae8d5b80,611e6e336905e5518706e407,0.506,
,,,,,,0,96,96,118,1,X, , , , ,,2000,2,611d566639d0da04c1620458,001,2021-08-19_15h44.32.433,natb3,2021.2.3,Win32,166.1129568,611d566639d0da04c1620458,611e07ecdcc96256ae8d5b80,611e6e336905e5518706e407,,
,,,,,,0,97,97,31,1,X, , , , ,,1500,1.5,611d566639d0da04c1620458,001,2021-08-19_15h44.32.433,natb3,2021.2.3,Win32,166.1129568,611d566639d0da04c1620458,611e07ecdcc96256ae8d5b80,611e6e336905e5518706e407,,
,,,,,,0,98,98,116,1,X, , , , ,,2000,2,611d566639d0da04c1620458,001,2021-08-19_15h44.32.433,natb3,2021.2.3,Win32,166.1129568,611d566639d0da04c1620458,611e07ecdcc96256ae8d5b80,611e6e336905e5518706e407,,
,,,,space,,0,99,99,48,1,A, , , , ,space,2500,2.5,611d566639d0da04c1620458,001,2021-08-19_15h44.32.433,natb3,2021.2.3,Win32,166.1129568,611d566639d0da04c1620458,611e07ecdcc96256ae8d5b80,611e6e336905e5518706e407,0.646,
,,,,space,,0,100,100,169,1,L, , , , ,space,2500,2.5,611d566639d0da04c1620458,001,2021-08-19_15h44.32.433,natb3,2021.2.3,Win32,166.1129568,611d566639d0da04c1620458,611e07ecdcc96256ae8d5b80,611e6e336905e5518706e407,0.5329,
,,,,space,,0,101,101,215,1,E, , , , ,space,2500,2.5,611d566639d0da04c1620458,001,2021-08-19_15h44.32.433,natb3,2021.2.3,Win32,166.1129568,611d566639d0da04c1620458,611e07ecdcc96256ae8d5b80,611e6e336905e5518706e407,0.5808,
,,,,space,,0,102,102,290,1,W, , , , ,space,1500,1.5,611d566639d0da04c1620458,001,2021-08-19_15h44.32.433,natb3,2021.2.3,Win32,166.1129568,611d566639d0da04c1620458,611e07ecdcc96256ae8d5b80,611e6e336905e5518706e407,0.8225,
,,,,space,,0,103,103,87,1,H, , , , ,space,1500,1.5,611d566639d0da04c1620458,001,2021-08-19_15h44.32.433,natb3,2021.2.3,Win32,166.1129568,611d566639d0da04c1620458,611e07ecdcc96256ae8d5b80,611e6e336905e5518706e407,0.5163,
,,,,space,,0,104,104,130,1,F, , , , ,space,2000,2,611d566639d0da04c1620458,001,2021-08-19_15h44.32.433,natb3,2021.2.3,Win32,166.1129568,611d566639d0da04c1620458,611e07ecdcc96256ae8d5b80,611e6e336905e5518706e407,0.5583,
,,,,space,,0,105,105,189,1,O, , , , ,space,1500,1.5,611d566639d0da04c1620458,001,2021-08-19_15h44.32.433,natb3,2021.2.3,Win32,166.1129568,611d566639d0da04c1620458,611e07ecdcc96256ae8d5b80,611e6e336905e5518706e407,0.579,
,,,,space,,0,106,106,98,1,X, , , , ,,2500,2.5,611d566639d0da04c1620458,001,2021-08-19_15h44.32.433,natb3,2021.2.3,Win32,166.1129568,611d566639d0da04c1620458,611e07ecdcc96256ae8d5b80,611e6e336905e5518706e407,0.721,
,,,,space,,0,107,107,176,1,N, , , , ,space,1500,1.5,611d566639d0da04c1620458,001,2021-08-19_15h44.32.433,natb3,2021.2.3,Win32,166.1129568,611d566639d0da04c1620458,611e07ecdcc96256ae8d5b80,611e6e336905e5518706e407,0.4847,
,,,,space,,0,108,108,45,1,O, , , , ,space,2000,2,611d566639d0da04c1620458,001,2021-08-19_15h44.32.433,natb3,2021.2.3,Win32,166.1129568,611d566639d0da04c1620458,611e07ecdcc96256ae8d5b80,611e6e336905e5518706e407,0.5496,
,,,,space,,0,109,109,198,1,H, , , , ,space,2500,2.5,611d566639d0da04c1620458,001,2021-08-19_15h44.32.433,natb3,2021.2.3,Win32,166.1129568,611d566639d0da04c1620458,611e07ecdcc96256ae8d5b80,611e6e336905e5518706e407,0.5606,
,,,,space,,0,110,110,217,1,T, , , , ,space,2500,2.5,611d566639d0da04c1620458,001,2021-08-19_15h44.32.433,natb3,2021.2.3,Win32,166.1129568,611d566639d0da04c1620458,611e07ecdcc96256ae8d5b80,611e6e336905e5518706e407,0.4136,
,,,,,,0,111,111,229,1,X,8, ,2,6,,2500,2.5,611d566639d0da04c1620458,001,2021-08-19_15h44.32.433,natb3,2021.2.3,Win32,166.1129568,611d566639d0da04c1620458,611e07ecdcc96256ae8d5b80,611e6e336905e5518706e407,,
,,,,space,,0,112,112,38,1,R, , , , ,space,2500,2.5,611d566639d0da04c1620458,001,2021-08-19_15h44.32.433,natb3,2021.2.3,Win32,166.1129568,611d566639d0da04c1620458,611e07ecdcc96256ae8d5b80,611e6e336905e5518706e407,0.4336,
,,,,space,,0,113,113,146,1,W, , , , ,space,1500,1.5,611d566639d0da04c1620458,001,2021-08-19_15h44.32.433,natb3,2021.2.3,Win32,166.1129568,611d566639d0da04c1620458,611e07ecdcc96256ae8d5b80,611e6e336905e5518706e407,0.8126,
,,,,space,,0,114,114,2,1,E, , , , ,space,2500,2.5,611d566639d0da04c1620458,001,2021-08-19_15h44.32.433,natb3,2021.2.3,Win32,166.1129568,611d566639d0da04c1620458,611e07ecdcc96256ae8d5b80,611e6e336905e5518706e407,0.4356,
,,,,space,,0,115,115,126,1,A, , , , ,space,2500,2.5,611d566639d0da04c1620458,001,2021-08-19_15h44.32.433,natb3,2021.2.3,Win32,166.1129568,611d566639d0da04c1620458,611e07ecdcc96256ae8d5b80,611e6e336905e5518706e407,0.6316,
,,,,space,,0,116,116,205,1,C, , , , ,space,2000,2,611d566639d0da04c1620458,001,2021-08-19_15h44.32.433,natb3,2021.2.3,Win32,166.1129568,611d566639d0da04c1620458,611e07ecdcc96256ae8d5b80,611e6e336905e5518706e407,0.5964,
,,,,,,0,117,117,4,1,X, , , , ,,2000,2,611d566639d0da04c1620458,001,2021-08-19_15h44.32.433,natb3,2021.2.3,Win32,166.1129568,611d566639d0da04c1620458,611e07ecdcc96256ae8d5b80,611e6e336905e5518706e407,,
,,,,,,0,118,118,162,1,X,1,6, ,2,,1500,1.5,611d566639d0da04c1620458,001,2021-08-19_15h44.32.433,natb3,2021.2.3,Win32,166.1129568,611d566639d0da04c1620458,611e07ecdcc96256ae8d5b80,611e6e336905e5518706e407,,
,,,,space,,0,119,119,293,1,R, , , , ,space,2500,2.5,611d566639d0da04c1620458,001,2021-08-19_15h44.32.433,natb3,2021.2.3,Win32,166.1129568,611d566639d0da04c1620458,611e07ecdcc96256ae8d5b80,611e6e336905e5518706e407,0.4831,
,,,,space,,0,120,120,10,1,O, , , , ,space,2000,2,611d566639d0da04c1620458,001,2021-08-19_15h44.32.433,natb3,2021.2.3,Win32,166.1129568,611d566639d0da04c1620458,611e07ecdcc96256ae8d5b80,611e6e336905e5518706e407,0.5874,
,,,,space,,0,121,121,124,1,P, , , , ,space,2000,2,611d566639d0da04c1620458,001,2021-08-19_15h44.32.433,natb3,2021.2.3,Win32,166.1129568,611d566639d0da04c1620458,611e07ecdcc96256ae8d5b80,611e6e336905e5518706e407,0.4774,
,,,,space,,0,122,122,134,1,J, , , , ,space,2000,2,611d566639d0da04c1620458,001,2021-08-19_15h44.32.433,natb3,2021.2.3,Win32,166.1129568,611d566639d0da04c1620458,611e07ecdcc96256ae8d5b80,611e6e336905e5518706e407,0.6847,
,,,,space,,0,123,123,286,1,N, , , , ,space,1500,1.5,611d566639d0da04c1620458,001,2021-08-19_15h44.32.433,natb3,2021.2.3,Win32,166.1129568,611d566639d0da04c1620458,611e07ecdcc96256ae8d5b80,611e6e336905e5518706e407,0.5165,
,,,,space,,0,124,124,64,1,N, , , , ,space,2000,2,611d566639d0da04c1620458,001,2021-08-19_15h44.32.433,natb3,2021.2.3,Win32,166.1129568,611d566639d0da04c1620458,611e07ecdcc96256ae8d5b80,611e6e336905e5518706e407,0.8183,
,,,,space,,0,125,125,127,1,S, , , , ,space,2500,2.5,611d566639d0da04c1620458,001,2021-08-19_15h44.32.433,natb3,2021.2.3,Win32,166.1129568,611d566639d0da04c1620458,611e07ecdcc96256ae8d5b80,611e6e336905e5518706e407,0.5677,
,,,,space,,0,126,126,7,1,X, , , , ,,1500,1.5,611d566639d0da04c1620458,001,2021-08-19_15h44.32.433,natb3,2021.2.3,Win32,166.1129568,611d566639d0da04c1620458,611e07ecdcc96256ae8d5b80,611e6e336905e5518706e407,0.3795,
,,,,,,0,127,127,282,1,X, , , , ,,2500,2.5,611d566639d0da04c1620458,001,2021-08-19_15h44.32.433,natb3,2021.2.3,Win32,166.1129568,611d566639d0da04c1620458,611e07ecdcc96256ae8d5b80,611e6e336905e5518706e407,,
,,,,space,,0,128,128,85,1,F, , , , ,space,2500,2.5,611d566639d0da04c1620458,001,2021-08-19_15h44.32.433,natb3,2021.2.3,Win32,166.1129568,611d566639d0da04c1620458,611e07ecdcc96256ae8d5b80,611e6e336905e5518706e407,0.51,
,,,,space,,0,129,129,326,1,W, , , , ,space,2000,2,611d566639d0da04c1620458,001,2021-08-19_15h44.32.433,natb3,2021.2.3,Win32,166.1129568,611d566639d0da04c1620458,611e07ecdcc96256ae8d5b80,611e6e336905e5518706e407,0.8448,
,,,,,,0,130,130,322,1,X, , ,1,6,,2000,2,611d566639d0da04c1620458,001,2021-08-19_15h44.32.433,natb3,2021.2.3,Win32,166.1129568,611d566639d0da04c1620458,611e07ecdcc96256ae8d5b80,611e6e336905e5518706e407,,
,,,,space,,0,131,131,105,1,R, , , , ,space,2500,2.5,611d566639d0da04c1620458,001,2021-08-19_15h44.32.433,natb3,2021.2.3,Win32,166.1129568,611d566639d0da04c1620458,611e07ecdcc96256ae8d5b80,611e6e336905e5518706e407,0.8626,
,,,,space,,0,132,132,106,1,T, , , , ,space,1500,1.5,611d566639d0da04c1620458,001,2021-08-19_15h44.32.433,natb3,2021.2.3,Win32,166.1129568,611d566639d0da04c1620458,611e07ecdcc96256ae8d5b80,611e6e336905e5518706e407,0.7326,
,,,,,,0,133,133,187,1,X, ,3,7,4,,1500,1.5,611d566639d0da04c1620458,001,2021-08-19_15h44.32.433,natb3,2021.2.3,Win32,166.1129568,611d566639d0da04c1620458,611e07ecdcc96256ae8d5b80,611e6e336905e5518706e407,,
,,,,space,,0,134,134,159,1,S, , , , ,space,2500,2.5,611d566639d0da04c1620458,001,2021-08-19_15h44.32.433,natb3,2021.2.3,Win32,166.1129568,611d566639d0da04c1620458,611e07ecdcc96256ae8d5b80,611e6e336905e5518706e407,0.5193,
,,,,space,,0,135,135,80,1,A, , , , ,space,2000,2,611d566639d0da04c1620458,001,2021-08-19_15h44.32.433,natb3,2021.2.3,Win32,166.1129568,611d566639d0da04c1620458,611e07ecdcc96256ae8d5b80,611e6e336905e5518706e407,0.6396,
,,,,space,,0,136,136,216,1,R, , , , ,space,1500,1.5,611d566639d0da04c1620458,001,2021-08-19_15h44.32.433,natb3,2021.2.3,Win32,166.1129568,611d566639d0da04c1620458,611e07ecdcc96256ae8d5b80,611e6e336905e5518706e407,0.5636,
,,,,space,,0,137,137,178,1,Q, , , , ,space,1500,1.5,611d566639d0da04c1620458,001,2021-08-19_15h44.32.433,natb3,2021.2.3,Win32,166.1129568,611d566639d0da04c1620458,611e07ecdcc96256ae8d5b80,611e6e336905e5518706e407,0.5861,
,,,,space,,0,138,138,137,1,C, , , , ,space,2500,2.5,611d566639d0da04c1620458,001,2021-08-19_15h44.32.433,natb3,2021.2.3,Win32,166.1129568,611d566639d0da04c1620458,611e07ecdcc96256ae8d5b80,611e6e336905e5518706e407,0.7574,
,,,,space,,0,139,139,308,1,G, , , , ,space,1500,1.5,611d566639d0da04c1620458,001,2021-08-19_15h44.32.433,natb3,2021.2.3,Win32,166.1129568,611d566639d0da04c1620458,611e07ecdcc96256ae8d5b80,611e6e336905e5518706e407,0.7282,
,,,,space,,0,140,140,30,1,N, , , , ,space,2500,2.5,611d566639d0da04c1620458,001,2021-08-19_15h44.32.433,natb3,2021.2.3,Win32,166.1129568,611d566639d0da04c1620458,611e07ecdcc96256ae8d5b80,611e6e336905e5518706e407,0.574,
,,,,space,,0,141,141,266,1,O, , , , ,space,1500,1.5,611d566639d0da04c1620458,001,2021-08-19_15h44.32.433,natb3,2021.2.3,Win32,166.1129568,611d566639d0da04c1620458,611e07ecdcc96256ae8d5b80,611e6e336905e5518706e407,0.63,
,,,,space,,0,142,142,212,1,Q, , , , ,space,2500,2.5,611d566639d0da04c1620458,001,2021-08-19_15h44.32.433,natb3,2021.2.3,Win32,166.1129568,611d566639d0da04c1620458,611e07ecdcc96256ae8d5b80,611e6e336905e5518706e407,0.6487,
,,,,space,,0,143,143,111,1,O, , , , ,space,2000,2,611d566639d0da04c1620458,001,2021-08-19_15h44.32.433,natb3,2021.2.3,Win32,166.1129568,611d566639d0da04c1620458,611e07ecdcc96256ae8d5b80,611e6e336905e5518706e407,0.5778,
,,,,,,0,144,144,315,1,X, , , , ,,2500,2.5,611d566639d0da04c1620458,001,2021-08-19_15h44.32.433,natb3,2021.2.3,Win32,166.1129568,611d566639d0da04c1620458,611e07ecdcc96256ae8d5b80,611e6e336905e5518706e407,,
,,,,,,0,145,145,196,1,F, , , , ,space,1500,1.5,611d566639d0da04c1620458,001,2021-08-19_15h44.32.433,natb3,2021.2.3,Win32,166.1129568,611d566639d0da04c1620458,611e07ecdcc96256ae8d5b80,611e6e336905e5518706e407,,
,,,,space,,0,146,146,256,1,Q, , , , ,space,2000,2,611d566639d0da04c1620458,001,2021-08-19_15h44.32.433,natb3,2021.2.3,Win32,166.1129568,611d566639d0da04c1620458,611e07ecdcc96256ae8d5b80,611e6e336905e5518706e407,0.4655,
,,,,space,,0,147,147,332,1,U, , , , ,space,2000,2,611d566639d0da04c1620458,001,2021-08-19_15h44.32.433,natb3,2021.2.3,Win32,166.1129568,611d566639d0da04c1620458,611e07ecdcc96256ae8d5b80,611e6e336905e5518706e407,0.5028,
,,,,space,,0,148,148,240,1,F, , , , ,space,2500,2.5,611d566639d0da04c1620458,001,2021-08-19_15h44.32.433,natb3,2021.2.3,Win32,166.1129568,611d566639d0da04c1620458,611e07ecdcc96256ae8d5b80,611e6e336905e5518706e407,0.4836,
,,,,space,,0,149,149,312,1,K, , , , ,space,2000,2,611d566639d0da04c1620458,001,2021-08-19_15h44.32.433,natb3,2021.2.3,Win32,166.1129568,611d566639d0da04c1620458,611e07ecdcc96256ae8d5b80,611e6e336905e5518706e407,0.4642,
,,,,space,,0,150,150,242,1,H, , , , ,space,2500,2.5,611d566639d0da04c1620458,001,2021-08-19_15h44.32.433,natb3,2021.2.3,Win32,166.1129568,611d566639d0da04c1620458,611e07ecdcc96256ae8d5b80,611e6e336905e5518706e407,0.4337,
,,,,space,,0,151,151,307,1,F, , , , ,space,2500,2.5,611d566639d0da04c1620458,001,2021-08-19_15h44.32.433,natb3,2021.2.3,Win32,166.1129568,611d566639d0da04c1620458,611e07ecdcc96256ae8d5b80,611e6e336905e5518706e407,0.4661,
,,,,space,,0,152,152,22,1,K, , , , ,space,2000,2,611d566639d0da04c1620458,001,2021-08-19_15h44.32.433,natb3,2021.2.3,Win32,166.1129568,611d566639d0da04c1620458,611e07ecdcc96256ae8d5b80,611e6e336905e5518706e407,0.6177,
,,,,,,0,153,153,93,1,X,5, ,7, ,,2500,2.5,611d566639d0da04c1620458,001,2021-08-19_15h44.32.433,natb3,2021.2.3,Win32,166.1129568,611d566639d0da04c1620458,611e07ecdcc96256ae8d5b80,611e6e336905e5518706e407,,
,,,,space,,0,154,154,59,1,Z, , , , ,space,2000,2,611d566639d0da04c1620458,001,2021-08-19_15h44.32.433,natb3,2021.2.3,Win32,166.1129568,611d566639d0da04c1620458,611e07ecdcc96256ae8d5b80,611e6e336905e5518706e407,0.5955,
,,,,space,,0,155,155,160,1,D, , , , ,space,1500,1.5,611d566639d0da04c1620458,001,2021-08-19_15h44.32.433,natb3,2021.2.3,Win32,166.1129568,611d566639d0da04c1620458,611e07ecdcc96256ae8d5b80,611e6e336905e5518706e407,0.6413,
,,,,,,0,156,156,295,1,X,8,7,5, ,,2500,2.5,611d566639d0da04c1620458,001,2021-08-19_15h44.32.433,natb3,2021.2.3,Win32,166.1129568,611d566639d0da04c1620458,611e07ecdcc96256ae8d5b80,611e6e336905e5518706e407,,
,,,,,,0,157,157,263,1,X,4, ,6, ,,1500,1.5,611d566639d0da04c1620458,001,2021-08-19_15h44.32.433,natb3,2021.2.3,Win32,166.1129568,611d566639d0da04c1620458,611e07ecdcc96256ae8d5b80,611e6e336905e5518706e407,,
,,,,space,,0,158,158,11,1,P, , , , ,space,2500,2.5,611d566639d0da04c1620458,001,2021-08-19_15h44.32.433,natb3,2021.2.3,Win32,166.1129568,611d566639d0da04c1620458,611e07ecdcc96256ae8d5b80,611e6e336905e5518706e407,0.4673,
,,,,,,0,159,159,33,1,X, , , , ,,1500,1.5,611d566639d0da04c1620458,001,2021-08-19_15h44.32.433,natb3,2021.2.3,Win32,166.1129568,611d566639d0da04c1620458,611e07ecdcc96256ae8d5b80,611e6e336905e5518706e407,,
,,,,space,,0,160,160,226,1,R, , , , ,space,2000,2,611d566639d0da04c1620458,001,2021-08-19_15h44.32.433,natb3,2021.2.3,Win32,166.1129568,611d566639d0da04c1620458,611e07ecdcc96256ae8d5b80,611e6e336905e5518706e407,0.6448,
,,,,,,0,161,161,230,1,U, , , , ,space,1500,1.5,611d566639d0da04c1620458,001,2021-08-19_15h44.32.433,natb3,2021.2.3,Win32,166.1129568,611d566639d0da04c1620458,611e07ecdcc96256ae8d5b80,611e6e336905e5518706e407,,
,,,,space,,0,162,162,90,1,K, , , , ,space,2000,2,611d566639d0da04c1620458,001,2021-08-19_15h44.32.433,natb3,2021.2.3,Win32,166.1129568,611d566639d0da04c1620458,611e07ecdcc96256ae8d5b80,611e6e336905e5518706e407,0.7612,
,,,,space,,0,163,163,297,1,U, , , , ,space,2000,2,611d566639d0da04c1620458,001,2021-08-19_15h44.32.433,natb3,2021.2.3,Win32,166.1129568,611d566639d0da04c1620458,611e07ecdcc96256ae8d5b80,611e6e336905e5518706e407,0.5362,
,,,,space,,0,164,164,151,1,Y, , , , ,space,2500,2.5,611d566639d0da04c1620458,001,2021-08-19_15h44.32.433,natb3,2021.2.3,Win32,166.1129568,611d566639d0da04c1620458,611e07ecdcc96256ae8d5b80,611e6e336905e5518706e407,0.5694,
,,,,space,,0,165,165,155,1,O, , , , ,space,1500,1.5,611d566639d0da04c1620458,001,2021-08-19_15h44.32.433,natb3,2021.2.3,Win32,166.1129568,611d566639d0da04c1620458,611e07ecdcc96256ae8d5b80,611e6e336905e5518706e407,0.558,
,,,,space,,0,166,166,13,1,A, , , , ,space,2000,2,611d566639d0da04c1620458,001,2021-08-19_15h44.32.433,natb3,2021.2.3,Win32,166.1129568,611d566639d0da04c1620458,611e07ecdcc96256ae8d5b80,611e6e336905e5518706e407,0.6157,
,,,,space,space,0,167,167,67,1,Q, , , , ,space,2000,2,611d566639d0da04c1620458,001,2021-08-19_15h44.32.433,natb3,2021.2.3,Win32,166.1129568,611d566639d0da04c1620458,611e07ecdcc96256ae8d5b80,611e6e336905e5518706e407,0.4968,50.7196
,,,,,,0,168,168,46,1,X, , , , ,,2000,2,611d566639d0da04c1620458,001,2021-08-19_15h44.32.433,natb3,2021.2.3,Win32,166.1129568,611d566639d0da04c1620458,611e07ecdcc96256ae8d5b80,611e6e336905e5518706e407,,
,,,,space,,0,169,169,319,1,V, , , , ,space,2000,2,611d566639d0da04c1620458,001,2021-08-19_15h44.32.433,natb3,2021.2.3,Win32,166.1129568,611d566639d0da04c1620458,611e07ecdcc96256ae8d5b80,611e6e336905e5518706e407,0.6225,
,,,,space,,0,170,170,262,1,Y, , , , ,space,2500,2.5,611d566639d0da04c1620458,001,2021-08-19_15h44.32.433,natb3,2021.2.3,Win32,166.1129568,611d566639d0da04c1620458,611e07ecdcc96256ae8d5b80,611e6e336905e5518706e407,0.5732,
,,,,space,,0,171,171,278,1,J, , , , ,space,2000,2,611d566639d0da04c1620458,001,2021-08-19_15h44.32.433,natb3,2021.2.3,Win32,166.1129568,611d566639d0da04c1620458,611e07ecdcc96256ae8d5b80,611e6e336905e5518706e407,0.6038,
,,,,space,,0,172,172,173,1,V, , , , ,space,1500,1.5,611d566639d0da04c1620458,001,2021-08-19_15h44.32.433,natb3,2021.2.3,Win32,166.1129568,611d566639d0da04c1620458,611e07ecdcc96256ae8d5b80,611e6e336905e5518706e407,0.5878,
,,,,,,0,173,173,271,1,X, , , , ,,2500,2.5,611d566639d0da04c1620458,001,2021-08-19_15h44.32.433,natb3,2021.2.3,Win32,166.1129568,611d566639d0da04c1620458,611e07ecdcc96256ae8d5b80,611e6e336905e5518706e407,,
,,,,space,,0,174,174,280,1,L, , , , ,space,1500,1.5,611d566639d0da04c1620458,001,2021-08-19_15h44.32.433,natb3,2021.2.3,Win32,166.1129568,611d566639d0da04c1620458,611e07ecdcc96256ae8d5b80,611e6e336905e5518706e407,0.8849,
,,,,space,,0,175,175,197,1,G, , , , ,space,2500,2.5,611d566639d0da04c1620458,001,2021-08-19_15h44.32.433,natb3,2021.2.3,Win32,166.1129568,611d566639d0da04c1620458,611e07ecdcc96256ae8d5b80,611e6e336905e5518706e407,0.7014,
,,,,space,,0,176,176,167,1,K, , , , ,space,1500,1.5,611d566639d0da04c1620458,001,2021-08-19_15h44.32.433,natb3,2021.2.3,Win32,166.1129568,611d566639d0da04c1620458,611e07ecdcc96256ae8d5b80,611e6e336905e5518706e407,0.6167,
,,,,space,,0,177,177,188,1,I, , , , ,space,2500,2.5,611d566639d0da04c1620458,001,2021-08-19_15h44.32.433,natb3,2021.2.3,Win32,166.1129568,611d566639d0da04c1620458,611e07ecdcc96256ae8d5b80,611e6e336905e5518706e407,0.6132,
,,,,space,,0,178,178,150,1,T, , , , ,space,2500,2.5,611d566639d0da04c1620458,001,2021-08-19_15h44.32.433,natb3,2021.2.3,Win32,166.1129568,611d566639d0da04c1620458,611e07ecdcc96256ae8d5b80,611e6e336905e5518706e407,0.533,
,,,,space,,0,179,179,44,1,I, , , , ,space,2500,2.5,611d566639d0da04c1620458,001,2021-08-19_15h44.32.433,natb3,2021.2.3,Win32,166.1129568,611d566639d0da04c1620458,611e07ecdcc96256ae8d5b80,611e6e336905e5518706e407,0.7273,
,,,,space,,0,180,180,20,1,H, , , , ,space,1500,1.5,611d566639d0da04c1620458,001,2021-08-19_15h44.32.433,natb3,2021.2.3,Win32,166.1129568,611d566639d0da04c1620458,611e07ecdcc96256ae8d5b80,611e6e336905e5518706e407,0.6564,
,,,,,,0,181,181,15,1,X, , , , ,,1500,1.5,611d566639d0da04c1620458,001,2021-08-19_15h44.32.433,natb3,2021.2.3,Win32,166.1129568,611d566639d0da04c1620458,611e07ecdcc96256ae8d5b80,611e6e336905e5518706e407,,
,,,,space,,0,182,182,117,1,T, , , , ,space,2500,2.5,611d566639d0da04c1620458,001,2021-08-19_15h44.32.433,natb3,2021.2.3,Win32,166.1129568,611d566639d0da04c1620458,611e07ecdcc96256ae8d5b80,611e6e336905e5518706e407,0.5778,
,,,,space,,0,183,183,50,1,D, , , , ,space,1500,1.5,611d566639d0da04c1620458,001,2021-08-19_15h44.32.433,natb3,2021.2.3,Win32,166.1129568,611d566639d0da04c1620458,611e07ecdcc96256ae8d5b80,611e6e336905e5518706e407,0.5928,
,,,,,,0,184,184,51,1,X,7,5,8, ,,1500,1.5,611d566639d0da04c1620458,001,2021-08-19_15h44.32.433,natb3,2021.2.3,Win32,166.1129568,611d566639d0da04c1620458,611e07ecdcc96256ae8d5b80,611e6e336905e5518706e407,,
,,,,space,,0,185,185,190,1,P, , , , ,space,2000,2,611d566639d0da04c1620458,001,2021-08-19_15h44.32.433,natb3,2021.2.3,Win32,166.1129568,611d566639d0da04c1620458,611e07ecdcc96256ae8d5b80,611e6e336905e5518706e407,0.5415,
,,,,,,0,186,186,69,1,X, , , , ,,1500,1.5,611d566639d0da04c1620458,001,2021-08-19_15h44.32.433,natb3,2021.2.3,Win32,166.1129568,611d566639d0da04c1620458,611e07ecdcc96256ae8d5b80,611e6e336905e5518706e407,,
,,,,space,,0,187,187,47,1,P, , , , ,space,2000,2,611d566639d0da04c1620458,001,2021-08-19_15h44.32.433,natb3,2021.2.3,Win32,166.1129568,611d566639d0da04c1620458,611e07ecdcc96256ae8d5b80,611e6e336905e5518706e407,0.5003,
,,,,,,0,188,188,255,1,X, , , , ,,1500,1.5,611d566639d0da04c1620458,001,2021-08-19_15h44.32.433,natb3,2021.2.3,Win32,166.1129568,611d566639d0da04c1620458,611e07ecdcc96256ae8d5b80,611e6e336905e5518706e407,,
,,,,,,0,189,189,60,1,X,7,3,5, ,,1500,1.5,611d566639d0da04c1620458,001,2021-08-19_15h44.32.433,natb3,2021.2.3,Win32,166.1129568,611d566639d0da04c1620458,611e07ecdcc96256ae8d5b80,611e6e336905e5518706e407,,
,,,,,,0,190,190,292,1,E, , , , ,space,2000,2,611d566639d0da04c1620458,001,2021-08-19_15h44.32.433,natb3,2021.2.3,Win32,166.1129568,611d566639d0da04c1620458,611e07ecdcc96256ae8d5b80,611e6e336905e5518706e407,,
,,,,space,,0,191,191,310,1,J, , , , ,space,2500,2.5,611d566639d0da04c1620458,001,2021-08-19_15h44.32.433,natb3,2021.2.3,Win32,166.1129568,611d566639d0da04c1620458,611e07ecdcc96256ae8d5b80,611e6e336905e5518706e407,0.5506,
,,,,,,0,192,192,129,1,X,2,3,5, ,,1500,1.5,611d566639d0da04c1620458,001,2021-08-19_15h44.32.433,natb3,2021.2.3,Win32,166.1129568,611d566639d0da04c1620458,611e07ecdcc96256ae8d5b80,611e6e336905e5518706e407,,
,,,,space,,0,193,193,164,1,H, , , , ,space,2500,2.5,611d566639d0da04c1620458,001,2021-08-19_15h44.32.433,natb3,2021.2.3,Win32,166.1129568,611d566639d0da04c1620458,611e07ecdcc96256ae8d5b80,611e6e336905e5518706e407,0.7252,
,,,,space,,0,194,194,194,1,D, , , , ,space,2000,2,611d566639d0da04c1620458,001,2021-08-19_15h44.32.433,natb3,2021.2.3,Win32,166.1129568,611d566639d0da04c1620458,611e07ecdcc96256ae8d5b80,611e6e336905e5518706e407,0.6989,
,,,,space,,0,195,195,267,1,P, , , , ,space,2000,2,611d566639d0da04c1620458,001,2021-08-19_15h44.32.433,natb3,2021.2.3,Win32,166.1129568,611d566639d0da04c1620458,611e07ecdcc96256ae8d5b80,611e6e336905e5518706e407,0.7253,
,,,,space,,0,196,196,63,1,B, , , , ,space,2000,2,611d566639d0da04c1620458,001,2021-08-19_15h44.32.433,natb3,2021.2.3,Win32,166.1129568,611d566639d0da04c1620458,611e07ecdcc96256ae8d5b80,611e6e336905e5518706e407,0.5536,
,,,,space,,0,197,197,231,1,I, , , , ,space,2500,2.5,611d566639d0da04c1620458,001,2021-08-19_15h44.32.433,natb3,2021.2.3,Win32,166.1129568,611d566639d0da04c1620458,611e07ecdcc96256ae8d5b80,611e6e336905e5518706e407,0.592,
,,,,space,,0,198,198,156,1,P, , , , ,space,1500,1.5,611d566639d0da04c1620458,001,2021-08-19_15h44.32.433,natb3,2021.2.3,Win32,166.1129568,611d566639d0da04c1620458,611e07ecdcc96256ae8d5b80,611e6e336905e5518706e407,0.7291,
,,,,space,,0,199,199,210,1,M, , , , ,space,1500,1.5,611d566639d0da04c1620458,001,2021-08-19_15h44.32.433,natb3,2021.2.3,Win32,166.1129568,611d566639d0da04c1620458,611e07ecdcc96256ae8d5b80,611e6e336905e5518706e407,0.6275,
,,,,,,0,200,200,82,1,X,4,6,1,7,,2000,2,611d566639d0da04c1620458,001,2021-08-19_15h44.32.433,natb3,2021.2.3,Win32,166.1129568,611d566639d0da04c1620458,611e07ecdcc96256ae8d5b80,611e6e336905e5518706e407,,
,,,,space,,0,201,201,99,1,N, , , , ,space,2500,2.5,611d566639d0da04c1620458,001,2021-08-19_15h44.32.433,natb3,2021.2.3,Win32,166.1129568,611d566639d0da04c1620458,611e07ecdcc96256ae8d5b80,611e6e336905e5518706e407,0.6676,
,,,,space,,0,202,202,334,1,O, , , , ,space,1500,1.5,611d566639d0da04c1620458,001,2021-08-19_15h44.32.433,natb3,2021.2.3,Win32,166.1129568,611d566639d0da04c1620458,611e07ecdcc96256ae8d5b80,611e6e336905e5518706e407,0.5463,
,,,,space,,0,203,203,154,1,I, , , , ,space,2500,2.5,611d566639d0da04c1620458,001,2021-08-19_15h44.32.433,natb3,2021.2.3,Win32,166.1129568,611d566639d0da04c1620458,611e07ecdcc96256ae8d5b80,611e6e336905e5518706e407,0.9526,
,,,,space,,0,204,204,294,1,T, , , , ,space,2000,2,611d566639d0da04c1620458,001,2021-08-19_15h44.32.433,natb3,2021.2.3,Win32,166.1129568,611d566639d0da04c1620458,611e07ecdcc96256ae8d5b80,611e6e336905e5518706e407,0.5714,
,,,,space,,0,205,205,140,1,B, , , , ,space,2500,2.5,611d566639d0da04c1620458,001,2021-08-19_15h44.32.433,natb3,2021.2.3,Win32,166.1129568,611d566639d0da04c1620458,611e07ecdcc96256ae8d5b80,611e6e336905e5518706e407,0.5146,
,,,,space,,0,206,206,265,1,I, , , , ,space,2000,2,611d566639d0da04c1620458,001,2021-08-19_15h44.32.433,natb3,2021.2.3,Win32,166.1129568,611d566639d0da04c1620458,611e07ecdcc96256ae8d5b80,611e6e336905e5518706e407,0.4317,
,,,,space,,0,207,207,16,1,D, , , , ,space,1500,1.5,611d566639d0da04c1620458,001,2021-08-19_15h44.32.433,natb3,2021.2.3,Win32,166.1129568,611d566639d0da04c1620458,611e07ecdcc96256ae8d5b80,611e6e336905e5518706e407,0.4762,
,,,,space,,0,208,208,91,1,L, , , , ,space,2000,2,611d566639d0da04c1620458,001,2021-08-19_15h44.32.433,natb3,2021.2.3,Win32,166.1129568,611d566639d0da04c1620458,611e07ecdcc96256ae8d5b80,611e6e336905e5518706e407,0.5846,
,,,,space,,0,209,209,19,1,G, , , , ,space,1500,1.5,611d566639d0da04c1620458,001,2021-08-19_15h44.32.433,natb3,2021.2.3,Win32,166.1129568,611d566639d0da04c1620458,611e07ecdcc96256ae8d5b80,611e6e336905e5518706e407,0.7525,
,,,,space,,0,210,210,174,1,B, , , , ,space,2500,2.5,611d566639d0da04c1620458,001,2021-08-19_15h44.32.433,natb3,2021.2.3,Win32,166.1129568,611d566639d0da04c1620458,611e07ecdcc96256ae8d5b80,611e6e336905e5518706e407,0.5452,
,,,,,,0,211,211,273,1,X, , , , ,,2000,2,611d566639d0da04c1620458,001,2021-08-19_15h44.32.433,natb3,2021.2.3,Win32,166.1129568,611d566639d0da04c1620458,611e07ecdcc96256ae8d5b80,611e6e336905e5518706e407,,
,,,,space,,0,212,212,306,1,D, , , , ,space,2000,2,611d566639d0da04c1620458,001,2021-08-19_15h44.32.433,natb3,2021.2.3,Win32,166.1129568,611d566639d0da04c1620458,611e07ecdcc96256ae8d5b80,611e6e336905e5518706e407,0.5675,
,,,,space,,0,213,213,114,1,E, , , , ,space,2000,2,611d566639d0da04c1620458,001,2021-08-19_15h44.32.433,natb3,2021.2.3,Win32,166.1129568,611d566639d0da04c1620458,611e07ecdcc96256ae8d5b80,611e6e336905e5518706e407,0.5509,
,,,,space,,0,214,214,79,1,P, , , , ,space,2000,2,611d566639d0da04c1620458,001,2021-08-19_15h44.32.433,natb3,2021.2.3,Win32,166.1129568,611d566639d0da04c1620458,611e07ecdcc96256ae8d5b80,611e6e336905e5518706e407,0.6658,
,,,,space,,0,215,215,136,1,Z, , , , ,space,2500,2.5,611d566639d0da04c1620458,001,2021-08-19_15h44.32.433,natb3,2021.2.3,Win32,166.1129568,611d566639d0da04c1620458,611e07ecdcc96256ae8d5b80,611e6e336905e5518706e407,0.6509,
,,,,,,0,216,216,325,1,X, , , , ,,2500,2.5,611d566639d0da04c1620458,001,2021-08-19_15h44.32.433,natb3,2021.2.3,Win32,166.1129568,611d566639d0da04c1620458,611e07ecdcc96256ae8d5b80,611e6e336905e5518706e407,,
,,,,space,,0,217,217,250,1,V, , , , ,space,2000,2,611d566639d0da04c1620458,001,2021-08-19_15h44.32.433,natb3,2021.2.3,Win32,166.1129568,611d566639d0da04c1620458,611e07ecdcc96256ae8d5b80,611e6e336905e5518706e407,0.4608,
,,,,space,,0,218,218,157,1,A, , , , ,space,2500,2.5,611d566639d0da04c1620458,001,2021-08-19_15h44.32.433,natb3,2021.2.3,Win32,166.1129568,611d566639d0da04c1620458,611e07ecdcc96256ae8d5b80,611e6e336905e5518706e407,0.5759,
,,,,space,,0,219,219,206,1,V, , , , ,space,2000,2,611d566639d0da04c1620458,001,2021-08-19_15h44.32.433,natb3,2021.2.3,Win32,166.1129568,611d566639d0da04c1620458,611e07ecdcc96256ae8d5b80,611e6e336905e5518706e407,0.6103,
,,,,space,,0,220,220,8,1,U, , , , ,space,1500,1.5,611d566639d0da04c1620458,001,2021-08-19_15h44.32.433,natb3,2021.2.3,Win32,166.1129568,611d566639d0da04c1620458,611e07ecdcc96256ae8d5b80,611e6e336905e5518706e407,0.7129,
,,,,,,0,221,221,218,1,X,1,3, ,8,,1500,1.5,611d566639d0da04c1620458,001,2021-08-19_15h44.32.433,natb3,2021.2.3,Win32,166.1129568,611d566639d0da04c1620458,611e07ecdcc96256ae8d5b80,611e6e336905e5518706e407,,
,,,,space,,0,222,222,103,1,W, , , , ,space,2000,2,611d566639d0da04c1620458,001,2021-08-19_15h44.32.433,natb3,2021.2.3,Win32,166.1129568,611d566639d0da04c1620458,611e07ecdcc96256ae8d5b80,611e6e336905e5518706e407,0.764,
,,,,space,,0,223,223,333,1,I, , , , ,space,1500,1.5,611d566639d0da04c1620458,001,2021-08-19_15h44.32.433,natb3,2021.2.3,Win32,166.1129568,611d566639d0da04c1620458,611e07ecdcc96256ae8d5b80,611e6e336905e5518706e407,0.519,
,,,,space,,0,224,224,276,1,H, , , , ,space,2000,2,611d566639d0da04c1620458,001,2021-08-19_15h44.32.433,natb3,2021.2.3,Win32,166.1129568,611d566639d0da04c1620458,611e07ecdcc96256ae8d5b80,611e6e336905e5518706e407,0.3737,
,,,,space,,0,225,225,170,1,Z, , , , ,space,2000,2,611d566639d0da04c1620458,001,2021-08-19_15h44.32.433,natb3,2021.2.3,Win32,166.1129568,611d566639d0da04c1620458,611e07ecdcc96256ae8d5b80,611e6e336905e5518706e407,0.392,
,,,,space,,0,226,226,68,1,W, , , , ,space,2500,2.5,611d566639d0da04c1620458,001,2021-08-19_15h44.32.433,natb3,2021.2.3,Win32,166.1129568,611d566639d0da04c1620458,611e07ecdcc96256ae8d5b80,611e6e336905e5518706e407,0.5971,
,,,,space,,0,227,227,261,1,T, , , , ,space,2000,2,611d566639d0da04c1620458,001,2021-08-19_15h44.32.433,natb3,2021.2.3,Win32,166.1129568,611d566639d0da04c1620458,611e07ecdcc96256ae8d5b80,611e6e336905e5518706e407,0.4266,
,,,,space,,0,228,228,298,1,I, , , , ,space,2000,2,611d566639d0da04c1620458,001,2021-08-19_15h44.32.433,natb3,2021.2.3,Win32,166.1129568,611d566639d0da04c1620458,611e07ecdcc96256ae8d5b80,611e6e336905e5518706e407,0.4159,
,,,,,,0,229,229,311,1,X,1,2,7,3,,2500,2.5,611d566639d0da04c1620458,001,2021-08-19_15h44.32.433,natb3,2021.2.3,Win32,166.1129568,611d566639d0da04c1620458,611e07ecdcc96256ae8d5b80,611e6e336905e5518706e407,,
,,,,space,,0,230,230,123,1,O, , , , ,space,1500,1.5,611d566639d0da04c1620458,001,2021-08-19_15h44.32.433,natb3,2021.2.3,Win32,166.1129568,611d566639d0da04c1620458,611e07ecdcc96256ae8d5b80,611e6e336905e5518706e407,0.4225,
,,,,space,,0,231,231,72,1,T, , , , ,space,1500,1.5,611d566639d0da04c1620458,001,2021-08-19_15h44.32.433,natb3,2021.2.3,Win32,166.1129568,611d566639d0da04c1620458,611e07ecdcc96256ae8d5b80,611e6e336905e5518706e407,0.5065,
,,,,space,,0,232,232,224,1,W, , , , ,space,1500,1.5,611d566639d0da04c1620458,001,2021-08-19_15h44.32.433,natb3,2021.2.3,Win32,166.1129568,611d566639d0da04c1620458,611e07ecdcc96256ae8d5b80,611e6e336905e5518706e407,0.4186,
,,,,space,,0,233,233,119,1,Y, , , , ,space,2500,2.5,611d566639d0da04c1620458,001,2021-08-19_15h44.32.433,natb3,2021.2.3,Win32,166.1129568,611d566639d0da04c1620458,611e07ecdcc96256ae8d5b80,611e6e336905e5518706e407,0.4519,
,,,,space,,0,234,234,296,1,Y, , , , ,space,2500,2.5,611d566639d0da04c1620458,001,2021-08-19_15h44.32.433,natb3,2021.2.3,Win32,166.1129568,611d566639d0da04c1620458,611e07ecdcc96256ae8d5b80,611e6e336905e5518706e407,0.3904,
,,,,,,0,235,235,236,1,X,3, ,4,7,,2500,2.5,611d566639d0da04c1620458,001,2021-08-19_15h44.32.433,natb3,2021.2.3,Win32,166.1129568,611d566639d0da04c1620458,611e07ecdcc96256ae8d5b80,611e6e336905e5518706e407,,
,,,,space,,0,236,236,161,1,F, , , , ,space,1500,1.5,611d566639d0da04c1620458,001,2021-08-19_15h44.32.433,natb3,2021.2.3,Win32,166.1129568,611d566639d0da04c1620458,611e07ecdcc96256ae8d5b80,611e6e336905e5518706e407,0.5477,
,,,,space,,0,237,237,100,1,M, , , , ,space,2000,2,611d566639d0da04c1620458,001,2021-08-19_15h44.32.433,natb3,2021.2.3,Win32,166.1129568,611d566639d0da04c1620458,611e07ecdcc96256ae8d5b80,611e6e336905e5518706e407,0.5562,
,,,,space,,0,238,238,109,1,U, , , , ,space,1500,1.5,611d566639d0da04c1620458,001,2021-08-19_15h44.32.433,natb3,2021.2.3,Win32,166.1129568,611d566639d0da04c1620458,611e07ecdcc96256ae8d5b80,611e6e336905e5518706e407,0.4404,
,,,,space,,0,239,239,9,1,I, , , , ,space,1500,1.5,611d566639d0da04c1620458,001,2021-08-19_15h44.32.433,natb3,2021.2.3,Win32,166.1129568,611d566639d0da04c1620458,611e07ecdcc96256ae8d5b80,611e6e336905e5518706e407,0.3851,
,,,,space,,0,240,240,34,1,Q, , , , ,space,2500,2.5,611d566639d0da04c1620458,001,2021-08-19_15h44.32.433,natb3,2021.2.3,Win32,166.1129568,611d566639d0da04c1620458,611e07ecdcc96256ae8d5b80,611e6e336905e5518706e407,0.3784,
,,,,space,,0,241,241,288,1,M, , , , ,space,1500,1.5,611d566639d0da04c1620458,001,2021-08-19_15h44.32.433,natb3,2021.2.3,Win32,166.1129568,611d566639d0da04c1620458,611e07ecdcc96256ae8d5b80,611e6e336905e5518706e407,0.517,
,,,,space,,0,242,242,165,1,J, , , , ,space,2500,2.5,611d566639d0da04c1620458,001,2021-08-19_15h44.32.433,natb3,2021.2.3,Win32,166.1129568,611d566639d0da04c1620458,611e07ecdcc96256ae8d5b80,611e6e336905e5518706e407,0.3938,
,,,,space,,0,243,243,309,1,H, , , , ,space,2500,2.5,611d566639d0da04c1620458,001,2021-08-19_15h44.32.433,natb3,2021.2.3,Win32,166.1129568,611d566639d0da04c1620458,611e07ecdcc96256ae8d5b80,611e6e336905e5518706e407,0.5075,
,,,,space,,0,244,244,270,1,S, , , , ,space,1500,1.5,611d566639d0da04c1620458,001,2021-08-19_15h44.32.433,natb3,2021.2.3,Win32,166.1129568,611d566639d0da04c1620458,611e07ecdcc96256ae8d5b80,611e6e336905e5518706e407,0.5577,
,,,,space,,0,245,245,26,1,C, , , , ,space,2000,2,611d566639d0da04c1620458,001,2021-08-19_15h44.32.433,natb3,2021.2.3,Win32,166.1129568,611d566639d0da04c1620458,611e07ecdcc96256ae8d5b80,611e6e336905e5518706e407,0.4971,
,,,,space,,0,246,246,139,1,V, , , , ,space,2000,2,611d566639d0da04c1620458,001,2021-08-19_15h44.32.433,natb3,2021.2.3,Win32,166.1129568,611d566639d0da04c1620458,611e07ecdcc96256ae8d5b80,611e6e336905e5518706e407,0.4481,
,,,,space,,0,247,247,108,1,Y, , , , ,space,2500,2.5,611d566639d0da04c1620458,001,2021-08-19_15h44.32.433,natb3,2021.2.3,Win32,166.1129568,611d566639d0da04c1620458,611e07ecdcc96256ae8d5b80,611e6e336905e5518706e407,0.3664,
,,,,space,,0,248,248,92,1,Z, , , , ,space,1500,1.5,611d566639d0da04c1620458,001,2021-08-19_15h44.32.433,natb3,2021.2.3,Win32,166.1129568,611d566639d0da04c1620458,611e07ecdcc96256ae8d5b80,611e6e336905e5518706e407,0.749,
,,,,,,0,249,249,182,1,X, , , , ,,1500,1.5,611d566639d0da04c1620458,001,2021-08-19_15h44.32.433,natb3,2021.2.3,Win32,166.1129568,611d566639d0da04c1620458,611e07ecdcc96256ae8d5b80,611e6e336905e5518706e407,,
,,,,,,0,250,250,211,1,X, , , , ,,2500,2.5,611d566639d0da04c1620458,001,2021-08-19_15h44.32.433,natb3,2021.2.3,Win32,166.1129568,611d566639d0da04c1620458,611e07ecdcc96256ae8d5b80,611e6e336905e5518706e407,,
,,,,space,,0,251,251,71,1,R, , , , ,space,2500,2.5,611d566639d0da04c1620458,001,2021-08-19_15h44.32.433,natb3,2021.2.3,Win32,166.1129568,611d566639d0da04c1620458,611e07ecdcc96256ae8d5b80,611e6e336905e5518706e407,0.6221,
,,,,space,,0,252,252,177,1,M, , , , ,space,2500,2.5,611d566639d0da04c1620458,001,2021-08-19_15h44.32.433,natb3,2021.2.3,Win32,166.1129568,611d566639d0da04c1620458,611e07ecdcc96256ae8d5b80,611e6e336905e5518706e407,0.4808,
,,,,space,,0,253,253,209,1,N, , , , ,space,2000,2,611d566639d0da04c1620458,001,2021-08-19_15h44.32.433,natb3,2021.2.3,Win32,166.1129568,611d566639d0da04c1620458,611e07ecdcc96256ae8d5b80,611e6e336905e5518706e407,0.4,
,,,,,,0,254,254,252,1,X,3, ,6,9,,2000,2,611d566639d0da04c1620458,001,2021-08-19_15h44.32.433,natb3,2021.2.3,Win32,166.1129568,611d566639d0da04c1620458,611e07ecdcc96256ae8d5b80,611e6e336905e5518706e407,,
,,,,space,,0,255,255,232,1,O, , , , ,space,2500,2.5,611d566639d0da04c1620458,001,2021-08-19_15h44.32.433,natb3,2021.2.3,Win32,166.1129568,611d566639d0da04c1620458,611e07ecdcc96256ae8d5b80,611e6e336905e5518706e407,0.7453,
,,,,space,,0,256,256,201,1,K, , , , ,space,1500,1.5,611d566639d0da04c1620458,001,2021-08-19_15h44.32.433,natb3,2021.2.3,Win32,166.1129568,611d566639d0da04c1620458,611e07ecdcc96256ae8d5b80,611e6e336905e5518706e407,0.9413,
,,,,space,,0,257,257,237,1,S, , , , ,space,1500,1.5,611d566639d0da04c1620458,001,2021-08-19_15h44.32.433,natb3,2021.2.3,Win32,166.1129568,611d566639d0da04c1620458,611e07ecdcc96256ae8d5b80,611e6e336905e5518706e407,0.8443,
,,,,space,,0,258,258,53,1,G, , , , ,space,2500,2.5,611d566639d0da04c1620458,001,2021-08-19_15h44.32.433,natb3,2021.2.3,Win32,166.1129568,611d566639d0da04c1620458,611e07ecdcc96256ae8d5b80,611e6e336905e5518706e407,0.6337,
,,,,space,,0,259,259,180,1,W, , , , ,space,2000,2,611d566639d0da04c1620458,001,2021-08-19_15h44.32.433,natb3,2021.2.3,Win32,166.1129568,611d566639d0da04c1620458,611e07ecdcc96256ae8d5b80,611e6e336905e5518706e407,0.521,
,,,,,,0,260,260,171,1,X, , , , ,,1500,1.5,611d566639d0da04c1620458,001,2021-08-19_15h44.32.433,natb3,2021.2.3,Win32,166.1129568,611d566639d0da04c1620458,611e07ecdcc96256ae8d5b80,611e6e336905e5518706e407,,
,,,,space,,0,261,261,35,1,X, , , , ,,2500,2.5,611d566639d0da04c1620458,001,2021-08-19_15h44.32.433,natb3,2021.2.3,Win32,166.1129568,611d566639d0da04c1620458,611e07ecdcc96256ae8d5b80,611e6e336905e5518706e407,0.405,
,,,,space,,0,262,262,97,1,B, , , , ,space,2500,2.5,611d566639d0da04c1620458,001,2021-08-19_15h44.32.433,natb3,2021.2.3,Win32,166.1129568,611d566639d0da04c1620458,611e07ecdcc96256ae8d5b80,611e6e336905e5518706e407,0.4003,
,,,,space,,0,263,263,324,1,Q, , , , ,space,2000,2,611d566639d0da04c1620458,001,2021-08-19_15h44.32.433,natb3,2021.2.3,Win32,166.1129568,611d566639d0da04c1620458,611e07ecdcc96256ae8d5b80,611e6e336905e5518706e407,0.6963,
,,,,space,,0,264,264,257,1,W, , , , ,space,2000,2,611d566639d0da04c1620458,001,2021-08-19_15h44.32.433,natb3,2021.2.3,Win32,166.1129568,611d566639d0da04c1620458,611e07ecdcc96256ae8d5b80,611e6e336905e5518706e407,0.4561,
,,,,space,,0,265,265,163,1,G, , , , ,space,2500,2.5,611d566639d0da04c1620458,001,2021-08-19_15h44.32.433,natb3,2021.2.3,Win32,166.1129568,611d566639d0da04c1620458,611e07ecdcc96256ae8d5b80,611e6e336905e5518706e407,0.4663,
,,,,space,,0,266,266,181,1,E, , , , ,space,1500,1.5,611d566639d0da04c1620458,001,2021-08-19_15h44.32.433,natb3,2021.2.3,Win32,166.1129568,611d566639d0da04c1620458,611e07ecdcc96256ae8d5b80,611e6e336905e5518706e407,0.5232,
,,,,space,,0,267,267,314,1,L, , , , ,space,1500,1.5,611d566639d0da04c1620458,001,2021-08-19_15h44.32.433,natb3,2021.2.3,Win32,166.1129568,611d566639d0da04c1620458,611e07ecdcc96256ae8d5b80,611e6e336905e5518706e407,0.4932,
,,,,space,,0,268,268,25,1,Z, , , , ,space,2500,2.5,611d566639d0da04c1620458,001,2021-08-19_15h44.32.433,natb3,2021.2.3,Win32,166.1129568,611d566639d0da04c1620458,611e07ecdcc96256ae8d5b80,611e6e336905e5518706e407,0.7435,
,,,,space,,0,269,269,144,1,Q, , , , ,space,2500,2.5,611d566639d0da04c1620458,001,2021-08-19_15h44.32.433,natb3,2021.2.3,Win32,166.1129568,611d566639d0da04c1620458,611e07ecdcc96256ae8d5b80,611e6e336905e5518706e407,0.5674,
,,,,space,,0,270,270,29,1,B, , , , ,space,1500,1.5,611d566639d0da04c1620458,001,2021-08-19_15h44.32.433,natb3,2021.2.3,Win32,166.1129568,611d566639d0da04c1620458,611e07ecdcc96256ae8d5b80,611e6e336905e5518706e407,0.615,
,,,,,,0,271,271,39,1,X,6,2, , ,,1500,1.5,611d566639d0da04c1620458,001,2021-08-19_15h44.32.433,natb3,2021.2.3,Win32,166.1129568,611d566639d0da04c1620458,611e07ecdcc96256ae8d5b80,611e6e336905e5518706e407,,
,,,,space,,0,272,272,305,1,X, , , , ,,1500,1.5,611d566639d0da04c1620458,001,2021-08-19_15h44.32.433,natb3,2021.2.3,Win32,166.1129568,611d566639d0da04c1620458,611e07ecdcc96256ae8d5b80,611e6e336905e5518706e407,0.3991,
,,,,space,,0,273,273,83,1,D, , , , ,space,2000,2,611d566639d0da04c1620458,001,2021-08-19_15h44.32.433,natb3,2021.2.3,Win32,166.1129568,611d566639d0da04c1620458,611e07ecdcc96256ae8d5b80,611e6e336905e5518706e407,0.5156,
,,,,space,,0,274,274,249,1,C, , , , ,space,2000,2,611d566639d0da04c1620458,001,2021-08-19_15h44.32.433,natb3,2021.2.3,Win32,166.1129568,611d566639d0da04c1620458,611e07ecdcc96256ae8d5b80,611e6e336905e5518706e407,0.4847,
,,,,,,0,275,275,239,1,X, , , , ,,2000,2,611d566639d0da04c1620458,001,2021-08-19_15h44.32.433,natb3,2021.2.3,Win32,166.1129568,611d566639d0da04c1620458,611e07ecdcc96256ae8d5b80,611e6e336905e5518706e407,,
,,,,,,0,276,276,191,1,X,1, ,3,4,,2500,2.5,611d566639d0da04c1620458,001,2021-08-19_15h44.32.433,natb3,2021.2.3,Win32,166.1129568,611d566639d0da04c1620458,611e07ecdcc96256ae8d5b80,611e6e336905e5518706e407,,
,,,,space,,0,277,277,57,1,K, , , , ,space,2500,2.5,611d566639d0da04c1620458,001,2021-08-19_15h44.32.433,natb3,2021.2.3,Win32,166.1129568,611d566639d0da04c1620458,611e07ecdcc96256ae8d5b80,611e6e336905e5518706e407,0.5803,
,,,,,,0,278,278,179,1,X, ,9, ,2,,1500,1.5,611d566639d0da04c1620458,001,2021-08-19_15h44.32.433,natb3,2021.2.3,Win32,166.1129568,611d566639d0da04c1620458,611e07ecdcc96256ae8d5b80,611e6e336905e5518706e407,,
,,,,space,,0,279,279,272,1,D, , , , ,space,2000,2,611d566639d0da04c1620458,001,2021-08-19_15h44.32.433,natb3,2021.2.3,Win32,166.1129568,611d566639d0da04c1620458,611e07ecdcc96256ae8d5b80,611e6e336905e5518706e407,0.5692,
,,,,space,,0,280,280,317,1,C, , , , ,space,2000,2,611d566639d0da04c1620458,001,2021-08-19_15h44.32.433,natb3,2021.2.3,Win32,166.1129568,611d566639d0da04c1620458,611e07ecdcc96256ae8d5b80,611e6e336905e5518706e407,0.5661,
,,,,space,,0,281,281,32,1,M, , , , ,space,1500,1.5,611d566639d0da04c1620458,001,2021-08-19_15h44.32.433,natb3,2021.2.3,Win32,166.1129568,611d566639d0da04c1620458,611e07ecdcc96256ae8d5b80,611e6e336905e5518706e407,0.4624,
,,,,space,,0,282,282,251,1,B, , , , ,space,1500,1.5,611d566639d0da04c1620458,001,2021-08-19_15h44.32.433,natb3,2021.2.3,Win32,166.1129568,611d566639d0da04c1620458,611e07ecdcc96256ae8d5b80,611e6e336905e5518706e407,0.5851,
,,,,space,,0,283,283,234,1,P, , , , ,space,2000,2,611d566639d0da04c1620458,001,2021-08-19_15h44.32.433,natb3,2021.2.3,Win32,166.1129568,611d566639d0da04c1620458,611e07ecdcc96256ae8d5b80,611e6e336905e5518706e407,0.5652,
,,,,,,0,284,284,277,1,X,8,5, ,2,,2000,2,611d566639d0da04c1620458,001,2021-08-19_15h44.32.433,natb3,2021.2.3,Win32,166.1129568,611d566639d0da04c1620458,611e07ecdcc96256ae8d5b80,611e6e336905e5518706e407,,
,,,,,,0,285,285,291,1,X, , , , ,,2000,2,611d566639d0da04c1620458,001,2021-08-19_15h44.32.433,natb3,2021.2.3,Win32,166.1129568,611d566639d0da04c1620458,611e07ecdcc96256ae8d5b80,611e6e336905e5518706e407,,
,,,,space,,0,286,286,58,1,L, , , , ,space,2000,2,611d566639d0da04c1620458,001,2021-08-19_15h44.32.433,natb3,2021.2.3,Win32,166.1129568,611d566639d0da04c1620458,611e07ecdcc96256ae8d5b80,611e6e336905e5518706e407,0.5244,
,,,,space,,0,287,287,42,1,U, , , , ,space,1500,1.5,611d566639d0da04c1620458,001,2021-08-19_15h44.32.433,natb3,2021.2.3,Win32,166.1129568,611d566639d0da04c1620458,611e07ecdcc96256ae8d5b80,611e6e336905e5518706e407,0.7332,
,,,,space,,0,288,288,301,1,P, , , , ,space,1500,1.5,611d566639d0da04c1620458,001,2021-08-19_15h44.32.433,natb3,2021.2.3,Win32,166.1129568,611d566639d0da04c1620458,611e07ecdcc96256ae8d5b80,611e6e336905e5518706e407,0.5634,
,,,,space,,0,289,289,253,1,N, , , , ,space,2500,2.5,611d566639d0da04c1620458,001,2021-08-19_15h44.32.433,natb3,2021.2.3,Win32,166.1129568,611d566639d0da04c1620458,611e07ecdcc96256ae8d5b80,611e6e336905e5518706e407,0.5575,
,,,,space,,0,290,290,17,1,F, , , , ,space,2500,2.5,611d566639d0da04c1620458,001,2021-08-19_15h44.32.433,natb3,2021.2.3,Win32,166.1129568,611d566639d0da04c1620458,611e07ecdcc96256ae8d5b80,611e6e336905e5518706e407,0.5679,
,,,,,,0,291,291,259,1,X,8, , ,3,,2500,2.5,611d566639d0da04c1620458,001,2021-08-19_15h44.32.433,natb3,2021.2.3,Win32,166.1129568,611d566639d0da04c1620458,611e07ecdcc96256ae8d5b80,611e6e336905e5518706e407,,
,,,,space,,0,292,292,81,1,S, , , , ,space,2000,2,611d566639d0da04c1620458,001,2021-08-19_15h44.32.433,natb3,2021.2.3,Win32,166.1129568,611d566639d0da04c1620458,611e07ecdcc96256ae8d5b80,611e6e336905e5518706e407,0.6205,
,,,,space,,0,293,293,186,1,U, , , , ,space,2500,2.5,611d566639d0da04c1620458,001,2021-08-19_15h44.32.433,natb3,2021.2.3,Win32,166.1129568,611d566639d0da04c1620458,611e07ecdcc96256ae8d5b80,611e6e336905e5518706e407,0.6336,
,,,,space,,0,294,294,36,1,W, , , , ,space,2000,2,611d566639d0da04c1620458,001,2021-08-19_15h44.32.433,natb3,2021.2.3,Win32,166.1129568,611d566639d0da04c1620458,611e07ecdcc96256ae8d5b80,611e6e336905e5518706e407,0.5516,
,,,,space,,0,295,295,49,1,S, , , , ,space,1500,1.5,611d566639d0da04c1620458,001,2021-08-19_15h44.32.433,natb3,2021.2.3,Win32,166.1129568,611d566639d0da04c1620458,611e07ecdcc96256ae8d5b80,611e6e336905e5518706e407,0.5595,
,,,,space,,0,296,296,5,1,T, , , , ,space,2000,2,611d566639d0da04c1620458,001,2021-08-19_15h44.32.433,natb3,2021.2.3,Win32,166.1129568,611d566639d0da04c1620458,611e07ecdcc96256ae8d5b80,611e6e336905e5518706e407,0.5567,
,,,,space,,0,297,297,304,1,S, , , , ,space,2000,2,611d566639d0da04c1620458,001,2021-08-19_15h44.32.433,natb3,2021.2.3,Win32,166.1129568,611d566639d0da04c1620458,611e07ecdcc96256ae8d5b80,611e6e336905e5518706e407,0.5819,
,,,,space,,0,298,298,115,1,R, , , , ,space,1500,1.5,611d566639d0da04c1620458,001,2021-08-19_15h44.32.433,natb3,2021.2.3,Win32,166.1129568,611d566639d0da04c1620458,611e07ecdcc96256ae8d5b80,611e6e336905e5518706e407,0.5174,
,,,,space,,0,299,299,56,1,J, , , , ,space,1500,1.5,611d566639d0da04c1620458,001,2021-08-19_15h44.32.433,natb3,2021.2.3,Win32,166.1129568,611d566639d0da04c1620458,611e07ecdcc96256ae8d5b80,611e6e336905e5518706e407,0.5107,
,,,,,,0,300,300,74,1,X, ,4,3,2,,1500,1.5,611d566639d0da04c1620458,001,2021-08-19_15h44.32.433,natb3,2021.2.3,Win32,166.1129568,611d566639d0da04c1620458,611e07ecdcc96256ae8d5b80,611e6e336905e5518706e407,,
,,,,space,,0,301,301,264,1,U, , , , ,space,2000,2,611d566639d0da04c1620458,001,2021-08-19_15h44.32.433,natb3,2021.2.3,Win32,166.1129568,611d566639d0da04c1620458,611e07ecdcc96256ae8d5b80,611e6e336905e5518706e407,0.8757,
,,,,space,,0,302,302,37,1,E, , , , ,space,2500,2.5,611d566639d0da04c1620458,001,2021-08-19_15h44.32.433,natb3,2021.2.3,Win32,166.1129568,611d566639d0da04c1620458,611e07ecdcc96256ae8d5b80,611e6e336905e5518706e407,0.5379,
,,,,space,,0,303,303,284,1,V, , , , ,space,2500,2.5,611d566639d0da04c1620458,001,2021-08-19_15h44.32.433,natb3,2021.2.3,Win32,166.1129568,611d566639d0da04c1620458,611e07ecdcc96256ae8d5b80,611e6e336905e5518706e407,0.534,
,,,,,,0,304,304,138,1,X,8,5, ,3,,2000,2,611d566639d0da04c1620458,001,2021-08-19_15h44.32.433,natb3,2021.2.3,Win32,166.1129568,611d566639d0da04c1620458,611e07ecdcc96256ae8d5b80,611e6e336905e5518706e407,,
,,,,space,,0,305,305,113,1,W, , , , ,space,2500,2.5,611d566639d0da04c1620458,001,2021-08-19_15h44.32.433,natb3,2021.2.3,Win32,166.1129568,611d566639d0da04c1620458,611e07ecdcc96256ae8d5b80,611e6e336905e5518706e407,0.7489,
,,,,space,,0,306,306,227,1,T, , , , ,space,1500,1.5,611d566639d0da04c1620458,001,2021-08-19_15h44.32.433,natb3,2021.2.3,Win32,166.1129568,611d566639d0da04c1620458,611e07ecdcc96256ae8d5b80,611e6e336905e5518706e407,0.5645,
,,,,,,0,307,307,102,1,X, ,6, , ,,1500,1.5,611d566639d0da04c1620458,001,2021-08-19_15h44.32.433,natb3,2021.2.3,Win32,166.1129568,611d566639d0da04c1620458,611e07ecdcc96256ae8d5b80,611e6e336905e5518706e407,,
,,,,space,,0,308,308,70,1,E, , , , ,space,2500,2.5,611d566639d0da04c1620458,001,2021-08-19_15h44.32.433,natb3,2021.2.3,Win32,166.1129568,611d566639d0da04c1620458,611e07ecdcc96256ae8d5b80,611e6e336905e5518706e407,0.535,
,,,,space,,0,309,309,40,1,T, , , , ,space,1500,1.5,611d566639d0da04c1620458,001,2021-08-19_15h44.32.433,natb3,2021.2.3,Win32,166.1129568,611d566639d0da04c1620458,611e07ecdcc96256ae8d5b80,611e6e336905e5518706e407,0.605,
,,,,space,,0,310,310,120,1,U, , , , ,space,1500,1.5,611d566639d0da04c1620458,001,2021-08-19_15h44.32.433,natb3,2021.2.3,Win32,166.1129568,611d566639d0da04c1620458,611e07ecdcc96256ae8d5b80,611e6e336905e5518706e407,0.5251,
,,,,space,,0,311,311,104,1,E, , , , ,space,2000,2,611d566639d0da04c1620458,001,2021-08-19_15h44.32.433,natb3,2021.2.3,Win32,166.1129568,611d566639d0da04c1620458,611e07ecdcc96256ae8d5b80,611e6e336905e5518706e407,0.6477,
,,,,space,,0,312,312,316,1,Z, , , , ,space,1500,1.5,611d566639d0da04c1620458,001,2021-08-19_15h44.32.433,natb3,2021.2.3,Win32,166.1129568,611d566639d0da04c1620458,611e07ecdcc96256ae8d5b80,611e6e336905e5518706e407,0.4833,
,,,,,,0,313,313,43,1,X, ,6, ,2,,2500,2.5,611d566639d0da04c1620458,001,2021-08-19_15h44.32.433,natb3,2021.2.3,Win32,166.1129568,611d566639d0da04c1620458,611e07ecdcc96256ae8d5b80,611e6e336905e5518706e407,,
,,,,,,0,314,314,12,1,X, , , , ,,1500,1.5,611d566639d0da04c1620458,001,2021-08-19_15h44.32.433,natb3,2021.2.3,Win32,166.1129568,611d566639d0da04c1620458,611e07ecdcc96256ae8d5b80,611e6e336905e5518706e407,,
,,,,space,,0,315,315,14,1,S, , , , ,space,2500,2.5,611d566639d0da04c1620458,001,2021-08-19_15h44.32.433,natb3,2021.2.3,Win32,166.1129568,611d566639d0da04c1620458,611e07ecdcc96256ae8d5b80,611e6e336905e5518706e407,0.5878,
,,,,,,0,316,316,145,1,X, , , , ,,2000,2,611d566639d0da04c1620458,001,2021-08-19_15h44.32.433,natb3,2021.2.3,Win32,166.1129568,611d566639d0da04c1620458,611e07ecdcc96256ae8d5b80,611e6e336905e5518706e407,,
,,,,,,0,317,317,107,1,X,9,3, ,2,,2000,2,611d566639d0da04c1620458,001,2021-08-19_15h44.32.433,natb3,2021.2.3,Win32,166.1129568,611d566639d0da04c1620458,611e07ecdcc96256ae8d5b80,611e6e336905e5518706e407,,
,,,,,,0,318,318,153,1,X,4,7, ,6,,2000,2,611d566639d0da04c1620458,001,2021-08-19_15h44.32.433,natb3,2021.2.3,Win32,166.1129568,611d566639d0da04c1620458,611e07ecdcc96256ae8d5b80,611e6e336905e5518706e407,,
,,,,space,,0,319,319,283,1,C, , , , ,space,1500,1.5,611d566639d0da04c1620458,001,2021-08-19_15h44.32.433,natb3,2021.2.3,Win32,166.1129568,611d566639d0da04c1620458,611e07ecdcc96256ae8d5b80,611e6e336905e5518706e407,0.534,
,,,,space,,0,320,320,184,1,T, , , , ,space,2000,2,611d566639d0da04c1620458,001,2021-08-19_15h44.32.433,natb3,2021.2.3,Win32,166.1129568,611d566639d0da04c1620458,611e07ecdcc96256ae8d5b80,611e6e336905e5518706e407,0.7695,
,,,,,,0,321,321,141,1,X,1, ,4,6,,1500,1.5,611d566639d0da04c1620458,001,2021-08-19_15h44.32.433,natb3,2021.2.3,Win32,166.1129568,611d566639d0da04c1620458,611e07ecdcc96256ae8d5b80,611e6e336905e5518706e407,,
,,,,space,,0,322,322,128,1,D, , , , ,space,2500,2.5,611d566639d0da04c1620458,001,2021-08-19_15h44.32.433,natb3,2021.2.3,Win32,166.1129568,611d566639d0da04c1620458,611e07ecdcc96256ae8d5b80,611e6e336905e5518706e407,0.6299,
,,,,space,,0,323,323,95,1,V, , , , ,space,1500,1.5,611d566639d0da04c1620458,001,2021-08-19_15h44.32.433,natb3,2021.2.3,Win32,166.1129568,611d566639d0da04c1620458,611e07ecdcc96256ae8d5b80,611e6e336905e5518706e407,0.7473,
,,,,space,,0,324,324,219,1,Y, , , , ,space,2000,2,611d566639d0da04c1620458,001,2021-08-19_15h44.32.433,natb3,2021.2.3,Win32,166.1129568,611d566639d0da04c1620458,611e07ecdcc96256ae8d5b80,611e6e336905e5518706e407,0.6189,
,,,,,,0,325,325,78,1,X, , , , ,,2000,2,611d566639d0da04c1620458,001,2021-08-19_15h44.32.433,natb3,2021.2.3,Win32,166.1129568,611d566639d0da04c1620458,611e07ecdcc96256ae8d5b80,611e6e336905e5518706e407,,
,,,,space,,0,326,326,88,1,J, , , , ,space,2500,2.5,611d566639d0da04c1620458,001,2021-08-19_15h44.32.433,natb3,2021.2.3,Win32,166.1129568,611d566639d0da04c1620458,611e07ecdcc96256ae8d5b80,611e6e336905e5518706e407,0.6488,
,,,,space,,0,327,327,110,1,I, , , , ,space,1500,1.5,611d566639d0da04c1620458,001,2021-08-19_15h44.32.433,natb3,2021.2.3,Win32,166.1129568,611d566639d0da04c1620458,611e07ecdcc96256ae8d5b80,611e6e336905e5518706e407,0.5178,
,,,,space,,0,328,328,112,1,Q, , , , ,space,2500,2.5,611d566639d0da04c1620458,001,2021-08-19_15h44.32.433,natb3,2021.2.3,Win32,166.1129568,611d566639d0da04c1620458,611e07ecdcc96256ae8d5b80,611e6e336905e5518706e407,0.5077,
,,,,,,0,329,329,84,1,X, , , , ,,2000,2,611d566639d0da04c1620458,001,2021-08-19_15h44.32.433,natb3,2021.2.3,Win32,166.1129568,611d566639d0da04c1620458,611e07ecdcc96256ae8d5b80,611e6e336905e5518706e407,,
,,,,space,,0,330,330,21,1,J, , , , ,space,1500,1.5,611d566639d0da04c1620458,001,2021-08-19_15h44.32.433,natb3,2021.2.3,Win32,166.1129568,611d566639d0da04c1620458,611e07ecdcc96256ae8d5b80,611e6e336905e5518706e407,0.5511,
,,,,space,,0,331,331,183,1,R, , , , ,space,1500,1.5,611d566639d0da04c1620458,001,2021-08-19_15h44.32.433,natb3,2021.2.3,Win32,166.1129568,611d566639d0da04c1620458,611e07ecdcc96256ae8d5b80,611e6e336905e5518706e407,0.5234,
,,,,space,,0,332,332,199,1,J, , , , ,space,2500,2.5,611d566639d0da04c1620458,001,2021-08-19_15h44.32.433,natb3,2021.2.3,Win32,166.1129568,611d566639d0da04c1620458,611e07ecdcc96256ae8d5b80,611e6e336905e5518706e407,0.6954,
,,,,space,,0,333,333,65,1,M, , , , ,space,1500,1.5,611d566639d0da04c1620458,001,2021-08-19_15h44.32.433,natb3,2021.2.3,Win32,166.1129568,611d566639d0da04c1620458,611e07ecdcc96256ae8d5b80,611e6e336905e5518706e407,0.5633,
,,,,space,,0,334,334,303,1,A, , , , ,space,2000,2,611d566639d0da04c1620458,001,2021-08-19_15h44.32.433,natb3,2021.2.3,Win32,166.1129568,611d566639d0da04c1620458,611e07ecdcc96256ae8d5b80,611e6e336905e5518706e407,0.5661,
,,,,space,,0,335,335,245,1,K, , , , ,space,2000,2,611d566639d0da04c1620458,001,2021-08-19_15h44.32.433,natb3,2021.2.3,Win32,166.1129568,611d566639d0da04c1620458,611e07ecdcc96256ae8d5b80,611e6e336905e5518706e407,0.6294,
