key_resp_2.keys,key_resp_2.rt,key_resp_3.keys,key_resp_3.rt,key_resp.keys,key_resp.rt,key_resp_4.keys,trials.thisRepN,trials.thisTrialN,trials.thisN,trials.thisIndex,trials.ran,stimulus,distractor1,distractor2,distractor3,distractor4,CorrAns,isi_duration,isi_dur_in_seconds,participant,session,date,expName,psychopyVersion,OS,frameRate,PROLIFIC_PID,STUDY_ID,SESSION_ID,key_resp_4.rt
return,19.7965,space,14.3423,space,0.2609,,0,0,0,38,1,R, , , , ,space,2500,2.5,611d2107850c303bdd8b6d02,001,2021-08-19_16h12.49.586,natb3,2021.2.3,Win32,59.86231667,611d2107850c303bdd8b6d02,611e07ecdcc96256ae8d5b80,611e74d55d6b1aa95b71dfce,
,,,,space,0.2963,,0,1,1,188,1,I, , , , ,space,2500,2.5,611d2107850c303bdd8b6d02,001,2021-08-19_16h12.49.586,natb3,2021.2.3,Win32,59.86231667,611d2107850c303bdd8b6d02,611e07ecdcc96256ae8d5b80,611e74d55d6b1aa95b71dfce,
,,,,space,0.2574,,0,2,2,1,1,W, , , , ,space,2000,2,611d2107850c303bdd8b6d02,001,2021-08-19_16h12.49.586,natb3,2021.2.3,Win32,59.86231667,611d2107850c303bdd8b6d02,611e07ecdcc96256ae8d5b80,611e74d55d6b1aa95b71dfce,
,,,,space,0.2955,,0,3,3,321,1,N, , , , ,space,2000,2,611d2107850c303bdd8b6d02,001,2021-08-19_16h12.49.586,natb3,2021.2.3,Win32,59.86231667,611d2107850c303bdd8b6d02,611e07ecdcc96256ae8d5b80,611e74d55d6b1aa95b71dfce,
,,,,space,0.2874,,0,4,4,67,1,Q, , , , ,space,2000,2,611d2107850c303bdd8b6d02,001,2021-08-19_16h12.49.586,natb3,2021.2.3,Win32,59.86231667,611d2107850c303bdd8b6d02,611e07ecdcc96256ae8d5b80,611e74d55d6b1aa95b71dfce,
,,,,,,,0,5,5,318,1,X, , , , ,,1500,1.5,611d2107850c303bdd8b6d02,001,2021-08-19_16h12.49.586,natb3,2021.2.3,Win32,59.86231667,611d2107850c303bdd8b6d02,611e07ecdcc96256ae8d5b80,611e74d55d6b1aa95b71dfce,
,,,,space,0.2173,,0,6,6,208,1,B, , , , ,space,1500,1.5,611d2107850c303bdd8b6d02,001,2021-08-19_16h12.49.586,natb3,2021.2.3,Win32,59.86231667,611d2107850c303bdd8b6d02,611e07ecdcc96256ae8d5b80,611e74d55d6b1aa95b71dfce,
,,,,,,,0,7,7,27,1,X,5, ,1,3,,1500,1.5,611d2107850c303bdd8b6d02,001,2021-08-19_16h12.49.586,natb3,2021.2.3,Win32,59.86231667,611d2107850c303bdd8b6d02,611e07ecdcc96256ae8d5b80,611e74d55d6b1aa95b71dfce,
,,,,space,0.3328,,0,8,8,37,1,E, , , , ,space,2500,2.5,611d2107850c303bdd8b6d02,001,2021-08-19_16h12.49.586,natb3,2021.2.3,Win32,59.86231667,611d2107850c303bdd8b6d02,611e07ecdcc96256ae8d5b80,611e74d55d6b1aa95b71dfce,
,,,,space,0.3315,,0,9,9,101,1,Q, , , , ,space,2500,2.5,611d2107850c303bdd8b6d02,001,2021-08-19_16h12.49.586,natb3,2021.2.3,Win32,59.86231667,611d2107850c303bdd8b6d02,611e07ecdcc96256ae8d5b80,611e74d55d6b1aa95b71dfce,
,,,,space,0.3111,,0,10,10,217,1,T, , , , ,space,2500,2.5,611d2107850c303bdd8b6d02,001,2021-08-19_16h12.49.586,natb3,2021.2.3,Win32,59.86231667,611d2107850c303bdd8b6d02,611e07ecdcc96256ae8d5b80,611e74d55d6b1aa95b71dfce,
,,,,space,0.3268,,0,11,11,269,1,A, , , , ,space,2500,2.5,611d2107850c303bdd8b6d02,001,2021-08-19_16h12.49.586,natb3,2021.2.3,Win32,59.86231667,611d2107850c303bdd8b6d02,611e07ecdcc96256ae8d5b80,611e74d55d6b1aa95b71dfce,
,,,,,,,0,12,12,236,1,X,3, ,4,7,,2500,2.5,611d2107850c303bdd8b6d02,001,2021-08-19_16h12.49.586,natb3,2021.2.3,Win32,59.86231667,611d2107850c303bdd8b6d02,611e07ecdcc96256ae8d5b80,611e74d55d6b1aa95b71dfce,
,,,,space,0.2086,,0,13,13,53,1,G, , , , ,space,2500,2.5,611d2107850c303bdd8b6d02,001,2021-08-19_16h12.49.586,natb3,2021.2.3,Win32,59.86231667,611d2107850c303bdd8b6d02,611e07ecdcc96256ae8d5b80,611e74d55d6b1aa95b71dfce,
,,,,space,0.2634,,0,14,14,143,1,M, , , , ,space,2500,2.5,611d2107850c303bdd8b6d02,001,2021-08-19_16h12.49.586,natb3,2021.2.3,Win32,59.86231667,611d2107850c303bdd8b6d02,611e07ecdcc96256ae8d5b80,611e74d55d6b1aa95b71dfce,
,,,,,,,0,15,15,69,1,X, , , , ,,1500,1.5,611d2107850c303bdd8b6d02,001,2021-08-19_16h12.49.586,natb3,2021.2.3,Win32,59.86231667,611d2107850c303bdd8b6d02,611e07ecdcc96256ae8d5b80,611e74d55d6b1aa95b71dfce,
,,,,space,0.2732,,0,16,16,307,1,F, , , , ,space,2500,2.5,611d2107850c303bdd8b6d02,001,2021-08-19_16h12.49.586,natb3,2021.2.3,Win32,59.86231667,611d2107850c303bdd8b6d02,611e07ecdcc96256ae8d5b80,611e74d55d6b1aa95b71dfce,
,,,,,,,0,17,17,313,1,X, , , , ,,2500,2.5,611d2107850c303bdd8b6d02,001,2021-08-19_16h12.49.586,natb3,2021.2.3,Win32,59.86231667,611d2107850c303bdd8b6d02,611e07ecdcc96256ae8d5b80,611e74d55d6b1aa95b71dfce,
,,,,space,0.2201,,0,18,18,24,1,L, , , , ,space,2500,2.5,611d2107850c303bdd8b6d02,001,2021-08-19_16h12.49.586,natb3,2021.2.3,Win32,59.86231667,611d2107850c303bdd8b6d02,611e07ecdcc96256ae8d5b80,611e74d55d6b1aa95b71dfce,
,,,,space,0.3206,,0,19,19,260,1,R, , , , ,space,2000,2,611d2107850c303bdd8b6d02,001,2021-08-19_16h12.49.586,natb3,2021.2.3,Win32,59.86231667,611d2107850c303bdd8b6d02,611e07ecdcc96256ae8d5b80,611e74d55d6b1aa95b71dfce,
,,,,space,0.3034,,0,20,20,45,1,O, , , , ,space,2000,2,611d2107850c303bdd8b6d02,001,2021-08-19_16h12.49.586,natb3,2021.2.3,Win32,59.86231667,611d2107850c303bdd8b6d02,611e07ecdcc96256ae8d5b80,611e74d55d6b1aa95b71dfce,
,,,,space,0.2609,,0,21,21,169,1,L, , , , ,space,2500,2.5,611d2107850c303bdd8b6d02,001,2021-08-19_16h12.49.586,natb3,2021.2.3,Win32,59.86231667,611d2107850c303bdd8b6d02,611e07ecdcc96256ae8d5b80,611e74d55d6b1aa95b71dfce,
,,,,space,0.2963,,0,22,22,134,1,J, , , , ,space,2000,2,611d2107850c303bdd8b6d02,001,2021-08-19_16h12.49.586,natb3,2021.2.3,Win32,59.86231667,611d2107850c303bdd8b6d02,611e07ecdcc96256ae8d5b80,611e74d55d6b1aa95b71dfce,
,,,,space,0.2911,,0,23,23,42,1,U, , , , ,space,1500,1.5,611d2107850c303bdd8b6d02,001,2021-08-19_16h12.49.586,natb3,2021.2.3,Win32,59.86231667,611d2107850c303bdd8b6d02,611e07ecdcc96256ae8d5b80,611e74d55d6b1aa95b71dfce,
,,,,space,0.3065,,0,24,24,240,1,F, , , , ,space,2500,2.5,611d2107850c303bdd8b6d02,001,2021-08-19_16h12.49.586,natb3,2021.2.3,Win32,59.86231667,611d2107850c303bdd8b6d02,611e07ecdcc96256ae8d5b80,611e74d55d6b1aa95b71dfce,
,,,,space,0.2771,,0,25,25,130,1,F, , , , ,space,2000,2,611d2107850c303bdd8b6d02,001,2021-08-19_16h12.49.586,natb3,2021.2.3,Win32,59.86231667,611d2107850c303bdd8b6d02,611e07ecdcc96256ae8d5b80,611e74d55d6b1aa95b71dfce,
,,,,space,0.2974,,0,26,26,47,1,P, , , , ,space,2000,2,611d2107850c303bdd8b6d02,001,2021-08-19_16h12.49.586,natb3,2021.2.3,Win32,59.86231667,611d2107850c303bdd8b6d02,611e07ecdcc96256ae8d5b80,611e74d55d6b1aa95b71dfce,
,,,,space,0.2662,,0,27,27,306,1,D, , , , ,space,2000,2,611d2107850c303bdd8b6d02,001,2021-08-19_16h12.49.586,natb3,2021.2.3,Win32,59.86231667,611d2107850c303bdd8b6d02,611e07ecdcc96256ae8d5b80,611e74d55d6b1aa95b71dfce,
,,,,,,,0,28,28,239,1,X, , , , ,,2000,2,611d2107850c303bdd8b6d02,001,2021-08-19_16h12.49.586,natb3,2021.2.3,Win32,59.86231667,611d2107850c303bdd8b6d02,611e07ecdcc96256ae8d5b80,611e74d55d6b1aa95b71dfce,
,,,,space,0.2348,,0,29,29,163,1,G, , , , ,space,2500,2.5,611d2107850c303bdd8b6d02,001,2021-08-19_16h12.49.586,natb3,2021.2.3,Win32,59.86231667,611d2107850c303bdd8b6d02,611e07ecdcc96256ae8d5b80,611e74d55d6b1aa95b71dfce,
,,,,space,0.2307,,0,30,30,186,1,U, , , , ,space,2500,2.5,611d2107850c303bdd8b6d02,001,2021-08-19_16h12.49.586,natb3,2021.2.3,Win32,59.86231667,611d2107850c303bdd8b6d02,611e07ecdcc96256ae8d5b80,611e74d55d6b1aa95b71dfce,
,,,,space,0.2785,,0,31,31,288,1,M, , , , ,space,1500,1.5,611d2107850c303bdd8b6d02,001,2021-08-19_16h12.49.586,natb3,2021.2.3,Win32,59.86231667,611d2107850c303bdd8b6d02,611e07ecdcc96256ae8d5b80,611e74d55d6b1aa95b71dfce,
,,,,space,0.2972,,0,32,32,3,1,R, , , , ,space,2000,2,611d2107850c303bdd8b6d02,001,2021-08-19_16h12.49.586,natb3,2021.2.3,Win32,59.86231667,611d2107850c303bdd8b6d02,611e07ecdcc96256ae8d5b80,611e74d55d6b1aa95b71dfce,
,,,,space,0.2641,,0,33,33,76,1,I, , , , ,space,2000,2,611d2107850c303bdd8b6d02,001,2021-08-19_16h12.49.586,natb3,2021.2.3,Win32,59.86231667,611d2107850c303bdd8b6d02,611e07ecdcc96256ae8d5b80,611e74d55d6b1aa95b71dfce,
,,,,space,0.2866,,0,34,34,41,1,Y, , , , ,space,2500,2.5,611d2107850c303bdd8b6d02,001,2021-08-19_16h12.49.586,natb3,2021.2.3,Win32,59.86231667,611d2107850c303bdd8b6d02,611e07ecdcc96256ae8d5b80,611e74d55d6b1aa95b71dfce,
,,,,space,0.2685,,0,35,35,227,1,T, , , , ,space,1500,1.5,611d2107850c303bdd8b6d02,001,2021-08-19_16h12.49.586,natb3,2021.2.3,Win32,59.86231667,611d2107850c303bdd8b6d02,611e07ecdcc96256ae8d5b80,611e74d55d6b1aa95b71dfce,
,,,,space,0.2481,,0,36,36,25,1,Z, , , , ,space,2500,2.5,611d2107850c303bdd8b6d02,001,2021-08-19_16h12.49.586,natb3,2021.2.3,Win32,59.86231667,611d2107850c303bdd8b6d02,611e07ecdcc96256ae8d5b80,611e74d55d6b1aa95b71dfce,
,,,,space,0.3205,,0,37,37,138,1,X,8,5, ,3,,2000,2,611d2107850c303bdd8b6d02,001,2021-08-19_16h12.49.586,natb3,2021.2.3,Win32,59.86231667,611d2107850c303bdd8b6d02,611e07ecdcc96256ae8d5b80,611e74d55d6b1aa95b71dfce,
,,,,space,0.6778,,0,38,38,258,1,E, , , , ,space,1500,1.5,611d2107850c303bdd8b6d02,001,2021-08-19_16h12.49.586,natb3,2021.2.3,Win32,59.86231667,611d2107850c303bdd8b6d02,611e07ecdcc96256ae8d5b80,611e74d55d6b1aa95b71dfce,
,,,,space,0.234,,0,39,39,229,1,X,8, ,2,6,,2500,2.5,611d2107850c303bdd8b6d02,001,2021-08-19_16h12.49.586,natb3,2021.2.3,Win32,59.86231667,611d2107850c303bdd8b6d02,611e07ecdcc96256ae8d5b80,611e74d55d6b1aa95b71dfce,
,,,,space,0.411,,0,40,40,280,1,L, , , , ,space,1500,1.5,611d2107850c303bdd8b6d02,001,2021-08-19_16h12.49.586,natb3,2021.2.3,Win32,59.86231667,611d2107850c303bdd8b6d02,611e07ecdcc96256ae8d5b80,611e74d55d6b1aa95b71dfce,
,,,,,,,0,41,41,263,1,X,4, ,6, ,,1500,1.5,611d2107850c303bdd8b6d02,001,2021-08-19_16h12.49.586,natb3,2021.2.3,Win32,59.86231667,611d2107850c303bdd8b6d02,611e07ecdcc96256ae8d5b80,611e74d55d6b1aa95b71dfce,
,,,,space,0.2843,,0,42,42,71,1,R, , , , ,space,2500,2.5,611d2107850c303bdd8b6d02,001,2021-08-19_16h12.49.586,natb3,2021.2.3,Win32,59.86231667,611d2107850c303bdd8b6d02,611e07ecdcc96256ae8d5b80,611e74d55d6b1aa95b71dfce,
,,,,space,0.3082,,0,43,43,65,1,M, , , , ,space,1500,1.5,611d2107850c303bdd8b6d02,001,2021-08-19_16h12.49.586,natb3,2021.2.3,Win32,59.86231667,611d2107850c303bdd8b6d02,611e07ecdcc96256ae8d5b80,611e74d55d6b1aa95b71dfce,
,,,,space,0.411,,0,44,44,215,1,E, , , , ,space,2500,2.5,611d2107850c303bdd8b6d02,001,2021-08-19_16h12.49.586,natb3,2021.2.3,Win32,59.86231667,611d2107850c303bdd8b6d02,611e07ecdcc96256ae8d5b80,611e74d55d6b1aa95b71dfce,
,,,,,,,0,45,45,171,1,X, , , , ,,1500,1.5,611d2107850c303bdd8b6d02,001,2021-08-19_16h12.49.586,natb3,2021.2.3,Win32,59.86231667,611d2107850c303bdd8b6d02,611e07ecdcc96256ae8d5b80,611e74d55d6b1aa95b71dfce,
,,,,,,,0,46,46,302,1,X, , , , ,,2000,2,611d2107850c303bdd8b6d02,001,2021-08-19_16h12.49.586,natb3,2021.2.3,Win32,59.86231667,611d2107850c303bdd8b6d02,611e07ecdcc96256ae8d5b80,611e74d55d6b1aa95b71dfce,
,,,,space,0.4021,,0,47,47,6,1,Y, , , , ,space,2500,2.5,611d2107850c303bdd8b6d02,001,2021-08-19_16h12.49.586,natb3,2021.2.3,Win32,59.86231667,611d2107850c303bdd8b6d02,611e07ecdcc96256ae8d5b80,611e74d55d6b1aa95b71dfce,
,,,,space,0.2986,,0,48,48,253,1,N, , , , ,space,2500,2.5,611d2107850c303bdd8b6d02,001,2021-08-19_16h12.49.586,natb3,2021.2.3,Win32,59.86231667,611d2107850c303bdd8b6d02,611e07ecdcc96256ae8d5b80,611e74d55d6b1aa95b71dfce,
,,,,space,0.439,,0,49,49,319,1,V, , , , ,space,2000,2,611d2107850c303bdd8b6d02,001,2021-08-19_16h12.49.586,natb3,2021.2.3,Win32,59.86231667,611d2107850c303bdd8b6d02,611e07ecdcc96256ae8d5b80,611e74d55d6b1aa95b71dfce,
,,,,space,0.2886,,0,50,50,182,1,X, , , , ,,1500,1.5,611d2107850c303bdd8b6d02,001,2021-08-19_16h12.49.586,natb3,2021.2.3,Win32,59.86231667,611d2107850c303bdd8b6d02,611e07ecdcc96256ae8d5b80,611e74d55d6b1aa95b71dfce,
,,,,space,0.2633,,0,51,51,36,1,W, , , , ,space,2000,2,611d2107850c303bdd8b6d02,001,2021-08-19_16h12.49.586,natb3,2021.2.3,Win32,59.86231667,611d2107850c303bdd8b6d02,611e07ecdcc96256ae8d5b80,611e74d55d6b1aa95b71dfce,
,,,,,,,0,52,52,60,1,X,7,3,5, ,,1500,1.5,611d2107850c303bdd8b6d02,001,2021-08-19_16h12.49.586,natb3,2021.2.3,Win32,59.86231667,611d2107850c303bdd8b6d02,611e07ecdcc96256ae8d5b80,611e74d55d6b1aa95b71dfce,
,,,,space,0.2648,,0,53,53,309,1,H, , , , ,space,2500,2.5,611d2107850c303bdd8b6d02,001,2021-08-19_16h12.49.586,natb3,2021.2.3,Win32,59.86231667,611d2107850c303bdd8b6d02,611e07ecdcc96256ae8d5b80,611e74d55d6b1aa95b71dfce,
,,,,space,0.3647,,0,54,54,324,1,Q, , , , ,space,2000,2,611d2107850c303bdd8b6d02,001,2021-08-19_16h12.49.586,natb3,2021.2.3,Win32,59.86231667,611d2107850c303bdd8b6d02,611e07ecdcc96256ae8d5b80,611e74d55d6b1aa95b71dfce,
,,,,space,0.3493,,0,55,55,104,1,E, , , , ,space,2000,2,611d2107850c303bdd8b6d02,001,2021-08-19_16h12.49.586,natb3,2021.2.3,Win32,59.86231667,611d2107850c303bdd8b6d02,611e07ecdcc96256ae8d5b80,611e74d55d6b1aa95b71dfce,
,,,,space,0.2814,,0,56,56,26,1,C, , , , ,space,2000,2,611d2107850c303bdd8b6d02,001,2021-08-19_16h12.49.586,natb3,2021.2.3,Win32,59.86231667,611d2107850c303bdd8b6d02,611e07ecdcc96256ae8d5b80,611e74d55d6b1aa95b71dfce,
,,,,space,0.2768,,0,57,57,78,1,X, , , , ,,2000,2,611d2107850c303bdd8b6d02,001,2021-08-19_16h12.49.586,natb3,2021.2.3,Win32,59.86231667,611d2107850c303bdd8b6d02,611e07ecdcc96256ae8d5b80,611e74d55d6b1aa95b71dfce,
,,,,,,,0,58,58,311,1,X,1,2,7,3,,2500,2.5,611d2107850c303bdd8b6d02,001,2021-08-19_16h12.49.586,natb3,2021.2.3,Win32,59.86231667,611d2107850c303bdd8b6d02,611e07ecdcc96256ae8d5b80,611e74d55d6b1aa95b71dfce,
,,,,space,0.3815,,0,59,59,58,1,L, , , , ,space,2000,2,611d2107850c303bdd8b6d02,001,2021-08-19_16h12.49.586,natb3,2021.2.3,Win32,59.86231667,611d2107850c303bdd8b6d02,611e07ecdcc96256ae8d5b80,611e74d55d6b1aa95b71dfce,
,,,,space,0.3788,,0,60,60,246,1,L, , , , ,space,2500,2.5,611d2107850c303bdd8b6d02,001,2021-08-19_16h12.49.586,natb3,2021.2.3,Win32,59.86231667,611d2107850c303bdd8b6d02,611e07ecdcc96256ae8d5b80,611e74d55d6b1aa95b71dfce,
,,,,,,,0,61,61,153,1,X,4,7, ,6,,2000,2,611d2107850c303bdd8b6d02,001,2021-08-19_16h12.49.586,natb3,2021.2.3,Win32,59.86231667,611d2107850c303bdd8b6d02,611e07ecdcc96256ae8d5b80,611e74d55d6b1aa95b71dfce,
,,,,space,0.4239,,0,62,62,296,1,Y, , , , ,space,2500,2.5,611d2107850c303bdd8b6d02,001,2021-08-19_16h12.49.586,natb3,2021.2.3,Win32,59.86231667,611d2107850c303bdd8b6d02,611e07ecdcc96256ae8d5b80,611e74d55d6b1aa95b71dfce,
,,,,space,0.3214,,0,63,63,127,1,S, , , , ,space,2500,2.5,611d2107850c303bdd8b6d02,001,2021-08-19_16h12.49.586,natb3,2021.2.3,Win32,59.86231667,611d2107850c303bdd8b6d02,611e07ecdcc96256ae8d5b80,611e74d55d6b1aa95b71dfce,
,,,,space,0.3334,,0,64,64,120,1,U, , , , ,space,1500,1.5,611d2107850c303bdd8b6d02,001,2021-08-19_16h12.49.586,natb3,2021.2.3,Win32,59.86231667,611d2107850c303bdd8b6d02,611e07ecdcc96256ae8d5b80,611e74d55d6b1aa95b71dfce,
,,,,space,0.2495,,0,65,65,283,1,C, , , , ,space,1500,1.5,611d2107850c303bdd8b6d02,001,2021-08-19_16h12.49.586,natb3,2021.2.3,Win32,59.86231667,611d2107850c303bdd8b6d02,611e07ecdcc96256ae8d5b80,611e74d55d6b1aa95b71dfce,
,,,,space,0.2831,,0,66,66,150,1,T, , , , ,space,2500,2.5,611d2107850c303bdd8b6d02,001,2021-08-19_16h12.49.586,natb3,2021.2.3,Win32,59.86231667,611d2107850c303bdd8b6d02,611e07ecdcc96256ae8d5b80,611e74d55d6b1aa95b71dfce,
,,,,space,0.2961,,0,67,67,256,1,Q, , , , ,space,2000,2,611d2107850c303bdd8b6d02,001,2021-08-19_16h12.49.586,natb3,2021.2.3,Win32,59.86231667,611d2107850c303bdd8b6d02,611e07ecdcc96256ae8d5b80,611e74d55d6b1aa95b71dfce,
,,,,space,0.3154,,0,68,68,193,1,S, , , , ,space,2500,2.5,611d2107850c303bdd8b6d02,001,2021-08-19_16h12.49.586,natb3,2021.2.3,Win32,59.86231667,611d2107850c303bdd8b6d02,611e07ecdcc96256ae8d5b80,611e74d55d6b1aa95b71dfce,
,,,,,,,0,69,69,33,1,X, , , , ,,1500,1.5,611d2107850c303bdd8b6d02,001,2021-08-19_16h12.49.586,natb3,2021.2.3,Win32,59.86231667,611d2107850c303bdd8b6d02,611e07ecdcc96256ae8d5b80,611e74d55d6b1aa95b71dfce,
,,,,space,0.2409,,0,70,70,268,1,X,6, ,3, ,,2500,2.5,611d2107850c303bdd8b6d02,001,2021-08-19_16h12.49.586,natb3,2021.2.3,Win32,59.86231667,611d2107850c303bdd8b6d02,611e07ecdcc96256ae8d5b80,611e74d55d6b1aa95b71dfce,
,,,,space,0.2628,,0,71,71,148,1,X, , , , ,,2000,2,611d2107850c303bdd8b6d02,001,2021-08-19_16h12.49.586,natb3,2021.2.3,Win32,59.86231667,611d2107850c303bdd8b6d02,611e07ecdcc96256ae8d5b80,611e74d55d6b1aa95b71dfce,
,,,,space,0.4255,,0,72,72,173,1,V, , , , ,space,1500,1.5,611d2107850c303bdd8b6d02,001,2021-08-19_16h12.49.586,natb3,2021.2.3,Win32,59.86231667,611d2107850c303bdd8b6d02,611e07ecdcc96256ae8d5b80,611e74d55d6b1aa95b71dfce,
,,,,space,0.337,,0,73,73,152,1,U, , , , ,space,2000,2,611d2107850c303bdd8b6d02,001,2021-08-19_16h12.49.586,natb3,2021.2.3,Win32,59.86231667,611d2107850c303bdd8b6d02,611e07ecdcc96256ae8d5b80,611e74d55d6b1aa95b71dfce,
,,,,,,,0,74,74,46,1,X, , , , ,,2000,2,611d2107850c303bdd8b6d02,001,2021-08-19_16h12.49.586,natb3,2021.2.3,Win32,59.86231667,611d2107850c303bdd8b6d02,611e07ecdcc96256ae8d5b80,611e74d55d6b1aa95b71dfce,
,,,,space,0.2826,,0,75,75,106,1,T, , , , ,space,1500,1.5,611d2107850c303bdd8b6d02,001,2021-08-19_16h12.49.586,natb3,2021.2.3,Win32,59.86231667,611d2107850c303bdd8b6d02,611e07ecdcc96256ae8d5b80,611e74d55d6b1aa95b71dfce,
,,,,space,0.3172,,0,76,76,232,1,O, , , , ,space,2500,2.5,611d2107850c303bdd8b6d02,001,2021-08-19_16h12.49.586,natb3,2021.2.3,Win32,59.86231667,611d2107850c303bdd8b6d02,611e07ecdcc96256ae8d5b80,611e74d55d6b1aa95b71dfce,
,,,,space,0.4314,,0,77,77,177,1,M, , , , ,space,2500,2.5,611d2107850c303bdd8b6d02,001,2021-08-19_16h12.49.586,natb3,2021.2.3,Win32,59.86231667,611d2107850c303bdd8b6d02,611e07ecdcc96256ae8d5b80,611e74d55d6b1aa95b71dfce,
,,,,space,0.3342,,0,78,78,282,1,X, , , , ,,2500,2.5,611d2107850c303bdd8b6d02,001,2021-08-19_16h12.49.586,natb3,2021.2.3,Win32,59.86231667,611d2107850c303bdd8b6d02,611e07ecdcc96256ae8d5b80,611e74d55d6b1aa95b71dfce,
,,,,space,0.4429,,0,79,79,254,1,M, , , , ,space,1500,1.5,611d2107850c303bdd8b6d02,001,2021-08-19_16h12.49.586,natb3,2021.2.3,Win32,59.86231667,611d2107850c303bdd8b6d02,611e07ecdcc96256ae8d5b80,611e74d55d6b1aa95b71dfce,
,,,,space,0.3756,,0,80,80,117,1,T, , , , ,space,2500,2.5,611d2107850c303bdd8b6d02,001,2021-08-19_16h12.49.586,natb3,2021.2.3,Win32,59.86231667,611d2107850c303bdd8b6d02,611e07ecdcc96256ae8d5b80,611e74d55d6b1aa95b71dfce,
,,,,space,0.3335,,0,81,81,176,1,N, , , , ,space,1500,1.5,611d2107850c303bdd8b6d02,001,2021-08-19_16h12.49.586,natb3,2021.2.3,Win32,59.86231667,611d2107850c303bdd8b6d02,611e07ecdcc96256ae8d5b80,611e74d55d6b1aa95b71dfce,
,,,,space,0.4324,,0,82,82,135,1,K, , , , ,space,1500,1.5,611d2107850c303bdd8b6d02,001,2021-08-19_16h12.49.586,natb3,2021.2.3,Win32,59.86231667,611d2107850c303bdd8b6d02,611e07ecdcc96256ae8d5b80,611e74d55d6b1aa95b71dfce,
,,,,space,0.3221,,0,83,83,330,1,T, , , , ,space,2500,2.5,611d2107850c303bdd8b6d02,001,2021-08-19_16h12.49.586,natb3,2021.2.3,Win32,59.86231667,611d2107850c303bdd8b6d02,611e07ecdcc96256ae8d5b80,611e74d55d6b1aa95b71dfce,
,,,,space,0.3091,,0,84,84,105,1,R, , , , ,space,2500,2.5,611d2107850c303bdd8b6d02,001,2021-08-19_16h12.49.586,natb3,2021.2.3,Win32,59.86231667,611d2107850c303bdd8b6d02,611e07ecdcc96256ae8d5b80,611e74d55d6b1aa95b71dfce,
,,,,space,0.3173,,0,85,85,192,1,A, , , , ,space,2000,2,611d2107850c303bdd8b6d02,001,2021-08-19_16h12.49.586,natb3,2021.2.3,Win32,59.86231667,611d2107850c303bdd8b6d02,611e07ecdcc96256ae8d5b80,611e74d55d6b1aa95b71dfce,
,,,,space,0.3391,,0,86,86,111,1,O, , , , ,space,2000,2,611d2107850c303bdd8b6d02,001,2021-08-19_16h12.49.586,natb3,2021.2.3,Win32,59.86231667,611d2107850c303bdd8b6d02,611e07ecdcc96256ae8d5b80,611e74d55d6b1aa95b71dfce,
,,,,space,0.2564,,0,87,87,63,1,B, , , , ,space,2000,2,611d2107850c303bdd8b6d02,001,2021-08-19_16h12.49.586,natb3,2021.2.3,Win32,59.86231667,611d2107850c303bdd8b6d02,611e07ecdcc96256ae8d5b80,611e74d55d6b1aa95b71dfce,
,,,,space,0.3425,,0,88,88,144,1,Q, , , , ,space,2500,2.5,611d2107850c303bdd8b6d02,001,2021-08-19_16h12.49.586,natb3,2021.2.3,Win32,59.86231667,611d2107850c303bdd8b6d02,611e07ecdcc96256ae8d5b80,611e74d55d6b1aa95b71dfce,
,,,,,,,0,89,89,191,1,X,1, ,3,4,,2500,2.5,611d2107850c303bdd8b6d02,001,2021-08-19_16h12.49.586,natb3,2021.2.3,Win32,59.86231667,611d2107850c303bdd8b6d02,611e07ecdcc96256ae8d5b80,611e74d55d6b1aa95b71dfce,
,,,,space,0.4219,,0,90,90,223,1,Q, , , , ,space,2000,2,611d2107850c303bdd8b6d02,001,2021-08-19_16h12.49.586,natb3,2021.2.3,Win32,59.86231667,611d2107850c303bdd8b6d02,611e07ecdcc96256ae8d5b80,611e74d55d6b1aa95b71dfce,
,,,,space,0.2937,,0,91,91,304,1,S, , , , ,space,2000,2,611d2107850c303bdd8b6d02,001,2021-08-19_16h12.49.586,natb3,2021.2.3,Win32,59.86231667,611d2107850c303bdd8b6d02,611e07ecdcc96256ae8d5b80,611e74d55d6b1aa95b71dfce,
,,,,space,0.3221,,0,92,92,8,1,U, , , , ,space,1500,1.5,611d2107850c303bdd8b6d02,001,2021-08-19_16h12.49.586,natb3,2021.2.3,Win32,59.86231667,611d2107850c303bdd8b6d02,611e07ecdcc96256ae8d5b80,611e74d55d6b1aa95b71dfce,
,,,,space,0.29,,0,93,93,300,1,O, , , , ,space,2500,2.5,611d2107850c303bdd8b6d02,001,2021-08-19_16h12.49.586,natb3,2021.2.3,Win32,59.86231667,611d2107850c303bdd8b6d02,611e07ecdcc96256ae8d5b80,611e74d55d6b1aa95b71dfce,
,,,,space,0.2936,,0,94,94,139,1,V, , , , ,space,2000,2,611d2107850c303bdd8b6d02,001,2021-08-19_16h12.49.586,natb3,2021.2.3,Win32,59.86231667,611d2107850c303bdd8b6d02,611e07ecdcc96256ae8d5b80,611e74d55d6b1aa95b71dfce,
,,,,space,0.2693,,0,95,95,308,1,G, , , , ,space,1500,1.5,611d2107850c303bdd8b6d02,001,2021-08-19_16h12.49.586,natb3,2021.2.3,Win32,59.86231667,611d2107850c303bdd8b6d02,611e07ecdcc96256ae8d5b80,611e74d55d6b1aa95b71dfce,
,,,,space,0.3014,,0,96,96,154,1,I, , , , ,space,2500,2.5,611d2107850c303bdd8b6d02,001,2021-08-19_16h12.49.586,natb3,2021.2.3,Win32,59.86231667,611d2107850c303bdd8b6d02,611e07ecdcc96256ae8d5b80,611e74d55d6b1aa95b71dfce,
,,,,,,,0,97,97,129,1,X,2,3,5, ,,1500,1.5,611d2107850c303bdd8b6d02,001,2021-08-19_16h12.49.586,natb3,2021.2.3,Win32,59.86231667,611d2107850c303bdd8b6d02,611e07ecdcc96256ae8d5b80,611e74d55d6b1aa95b71dfce,
,,,,space,0.4139,,0,98,98,87,1,H, , , , ,space,1500,1.5,611d2107850c303bdd8b6d02,001,2021-08-19_16h12.49.586,natb3,2021.2.3,Win32,59.86231667,611d2107850c303bdd8b6d02,611e07ecdcc96256ae8d5b80,611e74d55d6b1aa95b71dfce,
,,,,,,,0,99,99,102,1,X, ,6, , ,,1500,1.5,611d2107850c303bdd8b6d02,001,2021-08-19_16h12.49.586,natb3,2021.2.3,Win32,59.86231667,611d2107850c303bdd8b6d02,611e07ecdcc96256ae8d5b80,611e74d55d6b1aa95b71dfce,
,,,,space,0.2516,,0,100,100,272,1,D, , , , ,space,2000,2,611d2107850c303bdd8b6d02,001,2021-08-19_16h12.49.586,natb3,2021.2.3,Win32,59.86231667,611d2107850c303bdd8b6d02,611e07ecdcc96256ae8d5b80,611e74d55d6b1aa95b71dfce,
,,,,,,,0,101,101,273,1,X, , , , ,,2000,2,611d2107850c303bdd8b6d02,001,2021-08-19_16h12.49.586,natb3,2021.2.3,Win32,59.86231667,611d2107850c303bdd8b6d02,611e07ecdcc96256ae8d5b80,611e74d55d6b1aa95b71dfce,
,,,,space,0.3165,,0,102,102,121,1,I, , , , ,space,2000,2,611d2107850c303bdd8b6d02,001,2021-08-19_16h12.49.586,natb3,2021.2.3,Win32,59.86231667,611d2107850c303bdd8b6d02,611e07ecdcc96256ae8d5b80,611e74d55d6b1aa95b71dfce,
,,,,space,0.334,,0,103,103,230,1,U, , , , ,space,1500,1.5,611d2107850c303bdd8b6d02,001,2021-08-19_16h12.49.586,natb3,2021.2.3,Win32,59.86231667,611d2107850c303bdd8b6d02,611e07ecdcc96256ae8d5b80,611e74d55d6b1aa95b71dfce,
,,,,space,0.3061,,0,104,104,70,1,E, , , , ,space,2500,2.5,611d2107850c303bdd8b6d02,001,2021-08-19_16h12.49.586,natb3,2021.2.3,Win32,59.86231667,611d2107850c303bdd8b6d02,611e07ecdcc96256ae8d5b80,611e74d55d6b1aa95b71dfce,
,,,,space,0.2662,,0,105,105,44,1,I, , , , ,space,2500,2.5,611d2107850c303bdd8b6d02,001,2021-08-19_16h12.49.586,natb3,2021.2.3,Win32,59.86231667,611d2107850c303bdd8b6d02,611e07ecdcc96256ae8d5b80,611e74d55d6b1aa95b71dfce,
,,,,space,0.3654,,0,106,106,334,1,O, , , , ,space,1500,1.5,611d2107850c303bdd8b6d02,001,2021-08-19_16h12.49.586,natb3,2021.2.3,Win32,59.86231667,611d2107850c303bdd8b6d02,611e07ecdcc96256ae8d5b80,611e74d55d6b1aa95b71dfce,
,,,,space,0.3017,,0,107,107,34,1,Q, , , , ,space,2500,2.5,611d2107850c303bdd8b6d02,001,2021-08-19_16h12.49.586,natb3,2021.2.3,Win32,59.86231667,611d2107850c303bdd8b6d02,611e07ecdcc96256ae8d5b80,611e74d55d6b1aa95b71dfce,
,,,,space,0.2834,,0,108,108,15,1,X, , , , ,,1500,1.5,611d2107850c303bdd8b6d02,001,2021-08-19_16h12.49.586,natb3,2021.2.3,Win32,59.86231667,611d2107850c303bdd8b6d02,611e07ecdcc96256ae8d5b80,611e74d55d6b1aa95b71dfce,
,,,,space,0.3623,,0,109,109,242,1,H, , , , ,space,2500,2.5,611d2107850c303bdd8b6d02,001,2021-08-19_16h12.49.586,natb3,2021.2.3,Win32,59.86231667,611d2107850c303bdd8b6d02,611e07ecdcc96256ae8d5b80,611e74d55d6b1aa95b71dfce,
,,,,space,0.4239,,0,110,110,205,1,C, , , , ,space,2000,2,611d2107850c303bdd8b6d02,001,2021-08-19_16h12.49.586,natb3,2021.2.3,Win32,59.86231667,611d2107850c303bdd8b6d02,611e07ecdcc96256ae8d5b80,611e74d55d6b1aa95b71dfce,
,,,,space,0.2893,,0,111,111,30,1,N, , , , ,space,2500,2.5,611d2107850c303bdd8b6d02,001,2021-08-19_16h12.49.586,natb3,2021.2.3,Win32,59.86231667,611d2107850c303bdd8b6d02,611e07ecdcc96256ae8d5b80,611e74d55d6b1aa95b71dfce,
,,,,space,0.4821,,0,112,112,224,1,W, , , , ,space,1500,1.5,611d2107850c303bdd8b6d02,001,2021-08-19_16h12.49.586,natb3,2021.2.3,Win32,59.86231667,611d2107850c303bdd8b6d02,611e07ecdcc96256ae8d5b80,611e74d55d6b1aa95b71dfce,
,,,,space,0.2987,,0,113,113,140,1,B, , , , ,space,2500,2.5,611d2107850c303bdd8b6d02,001,2021-08-19_16h12.49.586,natb3,2021.2.3,Win32,59.86231667,611d2107850c303bdd8b6d02,611e07ecdcc96256ae8d5b80,611e74d55d6b1aa95b71dfce,
,,,,space,0.2495,,0,114,114,142,1,N, , , , ,space,2500,2.5,611d2107850c303bdd8b6d02,001,2021-08-19_16h12.49.586,natb3,2021.2.3,Win32,59.86231667,611d2107850c303bdd8b6d02,611e07ecdcc96256ae8d5b80,611e74d55d6b1aa95b71dfce,
,,,,space,0.3231,,0,115,115,219,1,Y, , , , ,space,2000,2,611d2107850c303bdd8b6d02,001,2021-08-19_16h12.49.586,natb3,2021.2.3,Win32,59.86231667,611d2107850c303bdd8b6d02,611e07ecdcc96256ae8d5b80,611e74d55d6b1aa95b71dfce,
,,,,space,0.3258,,0,116,116,275,1,G, , , , ,space,1500,1.5,611d2107850c303bdd8b6d02,001,2021-08-19_16h12.49.586,natb3,2021.2.3,Win32,59.86231667,611d2107850c303bdd8b6d02,611e07ecdcc96256ae8d5b80,611e74d55d6b1aa95b71dfce,
,,,,space,0.3618,,0,117,117,210,1,M, , , , ,space,1500,1.5,611d2107850c303bdd8b6d02,001,2021-08-19_16h12.49.586,natb3,2021.2.3,Win32,59.86231667,611d2107850c303bdd8b6d02,611e07ecdcc96256ae8d5b80,611e74d55d6b1aa95b71dfce,
,,,,space,0.2955,,0,118,118,170,1,Z, , , , ,space,2000,2,611d2107850c303bdd8b6d02,001,2021-08-19_16h12.49.586,natb3,2021.2.3,Win32,59.86231667,611d2107850c303bdd8b6d02,611e07ecdcc96256ae8d5b80,611e74d55d6b1aa95b71dfce,
,,,,space,0.3227,,0,119,119,115,1,R, , , , ,space,1500,1.5,611d2107850c303bdd8b6d02,001,2021-08-19_16h12.49.586,natb3,2021.2.3,Win32,59.86231667,611d2107850c303bdd8b6d02,611e07ecdcc96256ae8d5b80,611e74d55d6b1aa95b71dfce,
,,,,space,0.3114,,0,120,120,159,1,S, , , , ,space,2500,2.5,611d2107850c303bdd8b6d02,001,2021-08-19_16h12.49.586,natb3,2021.2.3,Win32,59.86231667,611d2107850c303bdd8b6d02,611e07ecdcc96256ae8d5b80,611e74d55d6b1aa95b71dfce,
,,,,space,0.2768,,0,121,121,32,1,M, , , , ,space,1500,1.5,611d2107850c303bdd8b6d02,001,2021-08-19_16h12.49.586,natb3,2021.2.3,Win32,59.86231667,611d2107850c303bdd8b6d02,611e07ecdcc96256ae8d5b80,611e74d55d6b1aa95b71dfce,
,,,,space,0.2678,,0,122,122,123,1,O, , , , ,space,1500,1.5,611d2107850c303bdd8b6d02,001,2021-08-19_16h12.49.586,natb3,2021.2.3,Win32,59.86231667,611d2107850c303bdd8b6d02,611e07ecdcc96256ae8d5b80,611e74d55d6b1aa95b71dfce,
,,,,space,0.3041,,0,123,123,287,1,X, ,2, ,9,,2000,2,611d2107850c303bdd8b6d02,001,2021-08-19_16h12.49.586,natb3,2021.2.3,Win32,59.86231667,611d2107850c303bdd8b6d02,611e07ecdcc96256ae8d5b80,611e74d55d6b1aa95b71dfce,
,,,,space,0.3971,,0,124,124,83,1,D, , , , ,space,2000,2,611d2107850c303bdd8b6d02,001,2021-08-19_16h12.49.586,natb3,2021.2.3,Win32,59.86231667,611d2107850c303bdd8b6d02,611e07ecdcc96256ae8d5b80,611e74d55d6b1aa95b71dfce,
,,,,space,0.2317,,0,125,125,278,1,J, , , , ,space,2000,2,611d2107850c303bdd8b6d02,001,2021-08-19_16h12.49.586,natb3,2021.2.3,Win32,59.86231667,611d2107850c303bdd8b6d02,611e07ecdcc96256ae8d5b80,611e74d55d6b1aa95b71dfce,
,,,,space,0.2322,,0,126,126,276,1,H, , , , ,space,2000,2,611d2107850c303bdd8b6d02,001,2021-08-19_16h12.49.586,natb3,2021.2.3,Win32,59.86231667,611d2107850c303bdd8b6d02,611e07ecdcc96256ae8d5b80,611e74d55d6b1aa95b71dfce,
,,,,space,0.2719,,0,127,127,156,1,P, , , , ,space,1500,1.5,611d2107850c303bdd8b6d02,001,2021-08-19_16h12.49.586,natb3,2021.2.3,Win32,59.86231667,611d2107850c303bdd8b6d02,611e07ecdcc96256ae8d5b80,611e74d55d6b1aa95b71dfce,
,,,,,,,0,128,128,145,1,X, , , , ,,2000,2,611d2107850c303bdd8b6d02,001,2021-08-19_16h12.49.586,natb3,2021.2.3,Win32,59.86231667,611d2107850c303bdd8b6d02,611e07ecdcc96256ae8d5b80,611e74d55d6b1aa95b71dfce,
,,,,space,0.2461,,0,129,129,212,1,Q, , , , ,space,2500,2.5,611d2107850c303bdd8b6d02,001,2021-08-19_16h12.49.586,natb3,2021.2.3,Win32,59.86231667,611d2107850c303bdd8b6d02,611e07ecdcc96256ae8d5b80,611e74d55d6b1aa95b71dfce,
,,,,space,0.2824,,0,130,130,327,1,E, , , , ,space,1500,1.5,611d2107850c303bdd8b6d02,001,2021-08-19_16h12.49.586,natb3,2021.2.3,Win32,59.86231667,611d2107850c303bdd8b6d02,611e07ecdcc96256ae8d5b80,611e74d55d6b1aa95b71dfce,
,,,,space,0.2644,,0,131,131,168,1,X, , , , ,,2500,2.5,611d2107850c303bdd8b6d02,001,2021-08-19_16h12.49.586,natb3,2021.2.3,Win32,59.86231667,611d2107850c303bdd8b6d02,611e07ecdcc96256ae8d5b80,611e74d55d6b1aa95b71dfce,
,,,,space,0.2568,,0,132,132,137,1,C, , , , ,space,2500,2.5,611d2107850c303bdd8b6d02,001,2021-08-19_16h12.49.586,natb3,2021.2.3,Win32,59.86231667,611d2107850c303bdd8b6d02,611e07ecdcc96256ae8d5b80,611e74d55d6b1aa95b71dfce,
,,,,space,0.283,,0,133,133,243,1,X, , , , ,,2500,2.5,611d2107850c303bdd8b6d02,001,2021-08-19_16h12.49.586,natb3,2021.2.3,Win32,59.86231667,611d2107850c303bdd8b6d02,611e07ecdcc96256ae8d5b80,611e74d55d6b1aa95b71dfce,
,,,,space,0.2553,,0,134,134,225,1,E, , , , ,space,2000,2,611d2107850c303bdd8b6d02,001,2021-08-19_16h12.49.586,natb3,2021.2.3,Win32,59.86231667,611d2107850c303bdd8b6d02,611e07ecdcc96256ae8d5b80,611e74d55d6b1aa95b71dfce,
,,,,,,,0,135,135,82,1,X,4,6,1,7,,2000,2,611d2107850c303bdd8b6d02,001,2021-08-19_16h12.49.586,natb3,2021.2.3,Win32,59.86231667,611d2107850c303bdd8b6d02,611e07ecdcc96256ae8d5b80,611e74d55d6b1aa95b71dfce,
,,,,space,0.2259,,0,136,136,126,1,A, , , , ,space,2500,2.5,611d2107850c303bdd8b6d02,001,2021-08-19_16h12.49.586,natb3,2021.2.3,Win32,59.86231667,611d2107850c303bdd8b6d02,611e07ecdcc96256ae8d5b80,611e74d55d6b1aa95b71dfce,
,,,,space,0.3042,,0,137,137,64,1,N, , , , ,space,2000,2,611d2107850c303bdd8b6d02,001,2021-08-19_16h12.49.586,natb3,2021.2.3,Win32,59.86231667,611d2107850c303bdd8b6d02,611e07ecdcc96256ae8d5b80,611e74d55d6b1aa95b71dfce,
,,,,space,0.312,,0,138,138,285,1,B, , , , ,space,1500,1.5,611d2107850c303bdd8b6d02,001,2021-08-19_16h12.49.586,natb3,2021.2.3,Win32,59.86231667,611d2107850c303bdd8b6d02,611e07ecdcc96256ae8d5b80,611e74d55d6b1aa95b71dfce,
,,,,space,0.2944,,0,139,139,50,1,D, , , , ,space,1500,1.5,611d2107850c303bdd8b6d02,001,2021-08-19_16h12.49.586,natb3,2021.2.3,Win32,59.86231667,611d2107850c303bdd8b6d02,611e07ecdcc96256ae8d5b80,611e74d55d6b1aa95b71dfce,
,,,,space,0.2359,,0,140,140,181,1,E, , , , ,space,1500,1.5,611d2107850c303bdd8b6d02,001,2021-08-19_16h12.49.586,natb3,2021.2.3,Win32,59.86231667,611d2107850c303bdd8b6d02,611e07ecdcc96256ae8d5b80,611e74d55d6b1aa95b71dfce,
,,,,space,0.3059,,0,141,141,235,1,A, , , , ,space,1500,1.5,611d2107850c303bdd8b6d02,001,2021-08-19_16h12.49.586,natb3,2021.2.3,Win32,59.86231667,611d2107850c303bdd8b6d02,611e07ecdcc96256ae8d5b80,611e74d55d6b1aa95b71dfce,
,,,,space,0.3879,,0,142,142,28,1,V, , , , ,space,1500,1.5,611d2107850c303bdd8b6d02,001,2021-08-19_16h12.49.586,natb3,2021.2.3,Win32,59.86231667,611d2107850c303bdd8b6d02,611e07ecdcc96256ae8d5b80,611e74d55d6b1aa95b71dfce,
,,,,,,,0,143,143,158,1,X, , , , ,,1500,1.5,611d2107850c303bdd8b6d02,001,2021-08-19_16h12.49.586,natb3,2021.2.3,Win32,59.86231667,611d2107850c303bdd8b6d02,611e07ecdcc96256ae8d5b80,611e74d55d6b1aa95b71dfce,
,,,,space,0.2543,,0,144,144,209,1,N, , , , ,space,2000,2,611d2107850c303bdd8b6d02,001,2021-08-19_16h12.49.586,natb3,2021.2.3,Win32,59.86231667,611d2107850c303bdd8b6d02,611e07ecdcc96256ae8d5b80,611e74d55d6b1aa95b71dfce,
,,,,space,0.4535,,0,145,145,214,1,W, , , , ,space,2000,2,611d2107850c303bdd8b6d02,001,2021-08-19_16h12.49.586,natb3,2021.2.3,Win32,59.86231667,611d2107850c303bdd8b6d02,611e07ecdcc96256ae8d5b80,611e74d55d6b1aa95b71dfce,
,,,,space,0.3906,,0,146,146,335,1,P,,,,,space,1500,1.5,611d2107850c303bdd8b6d02,001,2021-08-19_16h12.49.586,natb3,2021.2.3,Win32,59.86231667,611d2107850c303bdd8b6d02,611e07ecdcc96256ae8d5b80,611e74d55d6b1aa95b71dfce,
,,,,space,0.3512,,0,147,147,57,1,K, , , , ,space,2500,2.5,611d2107850c303bdd8b6d02,001,2021-08-19_16h12.49.586,natb3,2021.2.3,Win32,59.86231667,611d2107850c303bdd8b6d02,611e07ecdcc96256ae8d5b80,611e74d55d6b1aa95b71dfce,
,,,,space,0.2576,,0,148,148,216,1,R, , , , ,space,1500,1.5,611d2107850c303bdd8b6d02,001,2021-08-19_16h12.49.586,natb3,2021.2.3,Win32,59.86231667,611d2107850c303bdd8b6d02,611e07ecdcc96256ae8d5b80,611e74d55d6b1aa95b71dfce,
,,,,space,0.2871,,0,149,149,164,1,H, , , , ,space,2500,2.5,611d2107850c303bdd8b6d02,001,2021-08-19_16h12.49.586,natb3,2021.2.3,Win32,59.86231667,611d2107850c303bdd8b6d02,611e07ecdcc96256ae8d5b80,611e74d55d6b1aa95b71dfce,
,,,,space,0.2697,,0,150,150,195,1,X, , , , ,,1500,1.5,611d2107850c303bdd8b6d02,001,2021-08-19_16h12.49.586,natb3,2021.2.3,Win32,59.86231667,611d2107850c303bdd8b6d02,611e07ecdcc96256ae8d5b80,611e74d55d6b1aa95b71dfce,
,,,,space,0.2489,,0,151,151,73,1,Y, , , , ,space,2000,2,611d2107850c303bdd8b6d02,001,2021-08-19_16h12.49.586,natb3,2021.2.3,Win32,59.86231667,611d2107850c303bdd8b6d02,611e07ecdcc96256ae8d5b80,611e74d55d6b1aa95b71dfce,
,,,,space,0.268,,0,152,152,103,1,W, , , , ,space,2000,2,611d2107850c303bdd8b6d02,001,2021-08-19_16h12.49.586,natb3,2021.2.3,Win32,59.86231667,611d2107850c303bdd8b6d02,611e07ecdcc96256ae8d5b80,611e74d55d6b1aa95b71dfce,
,,,,space,0.2887,,0,153,153,281,1,Z, , , , ,space,1500,1.5,611d2107850c303bdd8b6d02,001,2021-08-19_16h12.49.586,natb3,2021.2.3,Win32,59.86231667,611d2107850c303bdd8b6d02,611e07ecdcc96256ae8d5b80,611e74d55d6b1aa95b71dfce,
,,,,space,0.2908,,0,154,154,222,1,O, , , , ,space,2000,2,611d2107850c303bdd8b6d02,001,2021-08-19_16h12.49.586,natb3,2021.2.3,Win32,59.86231667,611d2107850c303bdd8b6d02,611e07ecdcc96256ae8d5b80,611e74d55d6b1aa95b71dfce,
,,,,,,,0,155,155,118,1,X, , , , ,,2000,2,611d2107850c303bdd8b6d02,001,2021-08-19_16h12.49.586,natb3,2021.2.3,Win32,59.86231667,611d2107850c303bdd8b6d02,611e07ecdcc96256ae8d5b80,611e74d55d6b1aa95b71dfce,
,,,,space,0.2519,,0,156,156,213,1,X, , , , ,,2500,2.5,611d2107850c303bdd8b6d02,001,2021-08-19_16h12.49.586,natb3,2021.2.3,Win32,59.86231667,611d2107850c303bdd8b6d02,611e07ecdcc96256ae8d5b80,611e74d55d6b1aa95b71dfce,
,,,,,,,0,157,157,23,1,X,1, ,5, ,,2000,2,611d2107850c303bdd8b6d02,001,2021-08-19_16h12.49.586,natb3,2021.2.3,Win32,59.86231667,611d2107850c303bdd8b6d02,611e07ecdcc96256ae8d5b80,611e74d55d6b1aa95b71dfce,
,,,,space,0.437,,0,158,158,257,1,W, , , , ,space,2000,2,611d2107850c303bdd8b6d02,001,2021-08-19_16h12.49.586,natb3,2021.2.3,Win32,59.86231667,611d2107850c303bdd8b6d02,611e07ecdcc96256ae8d5b80,611e74d55d6b1aa95b71dfce,
,,,,space,0.3165,,0,159,159,84,1,X, , , , ,,2000,2,611d2107850c303bdd8b6d02,001,2021-08-19_16h12.49.586,natb3,2021.2.3,Win32,59.86231667,611d2107850c303bdd8b6d02,611e07ecdcc96256ae8d5b80,611e74d55d6b1aa95b71dfce,
,,,,space,0.3513,,0,160,160,55,1,H, , , , ,space,2500,2.5,611d2107850c303bdd8b6d02,001,2021-08-19_16h12.49.586,natb3,2021.2.3,Win32,59.86231667,611d2107850c303bdd8b6d02,611e07ecdcc96256ae8d5b80,611e74d55d6b1aa95b71dfce,
,,,,space,0.2994,,0,161,161,270,1,S, , , , ,space,1500,1.5,611d2107850c303bdd8b6d02,001,2021-08-19_16h12.49.586,natb3,2021.2.3,Win32,59.86231667,611d2107850c303bdd8b6d02,611e07ecdcc96256ae8d5b80,611e74d55d6b1aa95b71dfce,
,,,,space,0.3095,,0,162,162,61,1,C, , , , ,space,2000,2,611d2107850c303bdd8b6d02,001,2021-08-19_16h12.49.586,natb3,2021.2.3,Win32,59.86231667,611d2107850c303bdd8b6d02,611e07ecdcc96256ae8d5b80,611e74d55d6b1aa95b71dfce,
,,,,,,,0,163,163,255,1,X, , , , ,,1500,1.5,611d2107850c303bdd8b6d02,001,2021-08-19_16h12.49.586,natb3,2021.2.3,Win32,59.86231667,611d2107850c303bdd8b6d02,611e07ecdcc96256ae8d5b80,611e74d55d6b1aa95b71dfce,
,,,,space,0.2831,,0,164,164,293,1,R, , , , ,space,2500,2.5,611d2107850c303bdd8b6d02,001,2021-08-19_16h12.49.586,natb3,2021.2.3,Win32,59.86231667,611d2107850c303bdd8b6d02,611e07ecdcc96256ae8d5b80,611e74d55d6b1aa95b71dfce,
,,,,space,0.2862,,0,165,165,247,1,Z, , , , ,space,1500,1.5,611d2107850c303bdd8b6d02,001,2021-08-19_16h12.49.586,natb3,2021.2.3,Win32,59.86231667,611d2107850c303bdd8b6d02,611e07ecdcc96256ae8d5b80,611e74d55d6b1aa95b71dfce,
,,,,space,0.3282,,0,166,166,237,1,S, , , , ,space,1500,1.5,611d2107850c303bdd8b6d02,001,2021-08-19_16h12.49.586,natb3,2021.2.3,Win32,59.86231667,611d2107850c303bdd8b6d02,611e07ecdcc96256ae8d5b80,611e74d55d6b1aa95b71dfce,
,,,,space,0.2982,space,0,167,167,85,1,F, , , , ,space,2500,2.5,611d2107850c303bdd8b6d02,001,2021-08-19_16h12.49.586,natb3,2021.2.3,Win32,59.86231667,611d2107850c303bdd8b6d02,611e07ecdcc96256ae8d5b80,611e74d55d6b1aa95b71dfce,26.317
,,,,space,0.2834,,0,168,168,12,1,X, , , , ,,1500,1.5,611d2107850c303bdd8b6d02,001,2021-08-19_16h12.49.586,natb3,2021.2.3,Win32,59.86231667,611d2107850c303bdd8b6d02,611e07ecdcc96256ae8d5b80,611e74d55d6b1aa95b71dfce,
,,,,space,0.2601,,0,169,169,119,1,Y, , , , ,space,2500,2.5,611d2107850c303bdd8b6d02,001,2021-08-19_16h12.49.586,natb3,2021.2.3,Win32,59.86231667,611d2107850c303bdd8b6d02,611e07ecdcc96256ae8d5b80,611e74d55d6b1aa95b71dfce,
,,,,space,0.2949,,0,170,170,303,1,A, , , , ,space,2000,2,611d2107850c303bdd8b6d02,001,2021-08-19_16h12.49.586,natb3,2021.2.3,Win32,59.86231667,611d2107850c303bdd8b6d02,611e07ecdcc96256ae8d5b80,611e74d55d6b1aa95b71dfce,
,,,,space,0.3237,,0,171,171,244,1,J, , , , ,space,1500,1.5,611d2107850c303bdd8b6d02,001,2021-08-19_16h12.49.586,natb3,2021.2.3,Win32,59.86231667,611d2107850c303bdd8b6d02,611e07ecdcc96256ae8d5b80,611e74d55d6b1aa95b71dfce,
,,,,space,0.2352,,0,172,172,35,1,X, , , , ,,2500,2.5,611d2107850c303bdd8b6d02,001,2021-08-19_16h12.49.586,natb3,2021.2.3,Win32,59.86231667,611d2107850c303bdd8b6d02,611e07ecdcc96256ae8d5b80,611e74d55d6b1aa95b71dfce,
,,,,space,0.3891,,0,173,173,312,1,K, , , , ,space,2000,2,611d2107850c303bdd8b6d02,001,2021-08-19_16h12.49.586,natb3,2021.2.3,Win32,59.86231667,611d2107850c303bdd8b6d02,611e07ecdcc96256ae8d5b80,611e74d55d6b1aa95b71dfce,
,,,,space,0.3409,,0,174,174,241,1,G, , , , ,space,2500,2.5,611d2107850c303bdd8b6d02,001,2021-08-19_16h12.49.586,natb3,2021.2.3,Win32,59.86231667,611d2107850c303bdd8b6d02,611e07ecdcc96256ae8d5b80,611e74d55d6b1aa95b71dfce,
,,,,space,0.2839,,0,175,175,218,1,X,1,3, ,8,,1500,1.5,611d2107850c303bdd8b6d02,001,2021-08-19_16h12.49.586,natb3,2021.2.3,Win32,59.86231667,611d2107850c303bdd8b6d02,611e07ecdcc96256ae8d5b80,611e74d55d6b1aa95b71dfce,
,,,,space,0.2224,,0,176,176,18,1,X, ,2,5,8,,2500,2.5,611d2107850c303bdd8b6d02,001,2021-08-19_16h12.49.586,natb3,2021.2.3,Win32,59.86231667,611d2107850c303bdd8b6d02,611e07ecdcc96256ae8d5b80,611e74d55d6b1aa95b71dfce,
,,,,space,0.3473,,0,177,177,265,1,I, , , , ,space,2000,2,611d2107850c303bdd8b6d02,001,2021-08-19_16h12.49.586,natb3,2021.2.3,Win32,59.86231667,611d2107850c303bdd8b6d02,611e07ecdcc96256ae8d5b80,611e74d55d6b1aa95b71dfce,
,,,,,,,0,178,178,7,1,X, , , , ,,1500,1.5,611d2107850c303bdd8b6d02,001,2021-08-19_16h12.49.586,natb3,2021.2.3,Win32,59.86231667,611d2107850c303bdd8b6d02,611e07ecdcc96256ae8d5b80,611e74d55d6b1aa95b71dfce,
,,,,space,0.3618,,0,179,179,5,1,T, , , , ,space,2000,2,611d2107850c303bdd8b6d02,001,2021-08-19_16h12.49.586,natb3,2021.2.3,Win32,59.86231667,611d2107850c303bdd8b6d02,611e07ecdcc96256ae8d5b80,611e74d55d6b1aa95b71dfce,
,,,,space,0.3341,,0,180,180,80,1,A, , , , ,space,2000,2,611d2107850c303bdd8b6d02,001,2021-08-19_16h12.49.586,natb3,2021.2.3,Win32,59.86231667,611d2107850c303bdd8b6d02,611e07ecdcc96256ae8d5b80,611e74d55d6b1aa95b71dfce,
,,,,space,0.4066,,0,181,181,151,1,Y, , , , ,space,2500,2.5,611d2107850c303bdd8b6d02,001,2021-08-19_16h12.49.586,natb3,2021.2.3,Win32,59.86231667,611d2107850c303bdd8b6d02,611e07ecdcc96256ae8d5b80,611e74d55d6b1aa95b71dfce,
,,,,space,0.3715,,0,182,182,75,1,U, , , , ,space,1500,1.5,611d2107850c303bdd8b6d02,001,2021-08-19_16h12.49.586,natb3,2021.2.3,Win32,59.86231667,611d2107850c303bdd8b6d02,611e07ecdcc96256ae8d5b80,611e74d55d6b1aa95b71dfce,
,,,,space,0.4384,,0,183,183,180,1,W, , , , ,space,2000,2,611d2107850c303bdd8b6d02,001,2021-08-19_16h12.49.586,natb3,2021.2.3,Win32,59.86231667,611d2107850c303bdd8b6d02,611e07ecdcc96256ae8d5b80,611e74d55d6b1aa95b71dfce,
,,,,,,,0,184,184,96,1,X, , , , ,,1500,1.5,611d2107850c303bdd8b6d02,001,2021-08-19_16h12.49.586,natb3,2021.2.3,Win32,59.86231667,611d2107850c303bdd8b6d02,611e07ecdcc96256ae8d5b80,611e74d55d6b1aa95b71dfce,
,,,,space,0.3061,,0,185,185,14,1,S, , , , ,space,2500,2.5,611d2107850c303bdd8b6d02,001,2021-08-19_16h12.49.586,natb3,2021.2.3,Win32,59.86231667,611d2107850c303bdd8b6d02,611e07ecdcc96256ae8d5b80,611e74d55d6b1aa95b71dfce,
,,,,space,0.4239,,0,186,186,114,1,E, , , , ,space,2000,2,611d2107850c303bdd8b6d02,001,2021-08-19_16h12.49.586,natb3,2021.2.3,Win32,59.86231667,611d2107850c303bdd8b6d02,611e07ecdcc96256ae8d5b80,611e74d55d6b1aa95b71dfce,
,,,,space,0.3556,,0,187,187,110,1,I, , , , ,space,1500,1.5,611d2107850c303bdd8b6d02,001,2021-08-19_16h12.49.586,natb3,2021.2.3,Win32,59.86231667,611d2107850c303bdd8b6d02,611e07ecdcc96256ae8d5b80,611e74d55d6b1aa95b71dfce,
,,,,space,0.2911,,0,188,188,128,1,D, , , , ,space,2500,2.5,611d2107850c303bdd8b6d02,001,2021-08-19_16h12.49.586,natb3,2021.2.3,Win32,59.86231667,611d2107850c303bdd8b6d02,611e07ecdcc96256ae8d5b80,611e74d55d6b1aa95b71dfce,
,,,,space,0.4011,,0,189,189,2,1,E, , , , ,space,2500,2.5,611d2107850c303bdd8b6d02,001,2021-08-19_16h12.49.586,natb3,2021.2.3,Win32,59.86231667,611d2107850c303bdd8b6d02,611e07ecdcc96256ae8d5b80,611e74d55d6b1aa95b71dfce,
,,,,space,0.2746,,0,190,190,299,1,X, , , , ,,2500,2.5,611d2107850c303bdd8b6d02,001,2021-08-19_16h12.49.586,natb3,2021.2.3,Win32,59.86231667,611d2107850c303bdd8b6d02,611e07ecdcc96256ae8d5b80,611e74d55d6b1aa95b71dfce,
,,,,space,0.4659,,0,191,191,0,1,Q, , , , ,space,1500,1.5,611d2107850c303bdd8b6d02,001,2021-08-19_16h12.49.586,natb3,2021.2.3,Win32,59.86231667,611d2107850c303bdd8b6d02,611e07ecdcc96256ae8d5b80,611e74d55d6b1aa95b71dfce,
,,,,space,0.2846,,0,192,192,238,1,D, , , , ,space,1500,1.5,611d2107850c303bdd8b6d02,001,2021-08-19_16h12.49.586,natb3,2021.2.3,Win32,59.86231667,611d2107850c303bdd8b6d02,611e07ecdcc96256ae8d5b80,611e74d55d6b1aa95b71dfce,
,,,,space,0.2734,,0,193,193,320,1,B, , , , ,space,1500,1.5,611d2107850c303bdd8b6d02,001,2021-08-19_16h12.49.586,natb3,2021.2.3,Win32,59.86231667,611d2107850c303bdd8b6d02,611e07ecdcc96256ae8d5b80,611e74d55d6b1aa95b71dfce,
,,,,space,0.3454,,0,194,194,165,1,J, , , , ,space,2500,2.5,611d2107850c303bdd8b6d02,001,2021-08-19_16h12.49.586,natb3,2021.2.3,Win32,59.86231667,611d2107850c303bdd8b6d02,611e07ecdcc96256ae8d5b80,611e74d55d6b1aa95b71dfce,
,,,,space,0.3173,,0,195,195,132,1,H, , , , ,space,2500,2.5,611d2107850c303bdd8b6d02,001,2021-08-19_16h12.49.586,natb3,2021.2.3,Win32,59.86231667,611d2107850c303bdd8b6d02,611e07ecdcc96256ae8d5b80,611e74d55d6b1aa95b71dfce,
,,,,space,0.3421,,0,196,196,19,1,G, , , , ,space,1500,1.5,611d2107850c303bdd8b6d02,001,2021-08-19_16h12.49.586,natb3,2021.2.3,Win32,59.86231667,611d2107850c303bdd8b6d02,611e07ecdcc96256ae8d5b80,611e74d55d6b1aa95b71dfce,
,,,,space,0.3479,,0,197,197,266,1,O, , , , ,space,1500,1.5,611d2107850c303bdd8b6d02,001,2021-08-19_16h12.49.586,natb3,2021.2.3,Win32,59.86231667,611d2107850c303bdd8b6d02,611e07ecdcc96256ae8d5b80,611e74d55d6b1aa95b71dfce,
,,,,space,0.3518,,0,198,198,20,1,H, , , , ,space,1500,1.5,611d2107850c303bdd8b6d02,001,2021-08-19_16h12.49.586,natb3,2021.2.3,Win32,59.86231667,611d2107850c303bdd8b6d02,611e07ecdcc96256ae8d5b80,611e74d55d6b1aa95b71dfce,
,,,,space,0.3341,,0,199,199,204,1,Z, , , , ,space,2000,2,611d2107850c303bdd8b6d02,001,2021-08-19_16h12.49.586,natb3,2021.2.3,Win32,59.86231667,611d2107850c303bdd8b6d02,611e07ecdcc96256ae8d5b80,611e74d55d6b1aa95b71dfce,
,,,,space,0.3175,,0,200,200,79,1,P, , , , ,space,2000,2,611d2107850c303bdd8b6d02,001,2021-08-19_16h12.49.586,natb3,2021.2.3,Win32,59.86231667,611d2107850c303bdd8b6d02,611e07ecdcc96256ae8d5b80,611e74d55d6b1aa95b71dfce,
,,,,,,,0,201,201,166,1,X, , , , ,,2000,2,611d2107850c303bdd8b6d02,001,2021-08-19_16h12.49.586,natb3,2021.2.3,Win32,59.86231667,611d2107850c303bdd8b6d02,611e07ecdcc96256ae8d5b80,611e74d55d6b1aa95b71dfce,
,,,,space,0.2903,,0,202,202,325,1,X, , , , ,,2500,2.5,611d2107850c303bdd8b6d02,001,2021-08-19_16h12.49.586,natb3,2021.2.3,Win32,59.86231667,611d2107850c303bdd8b6d02,611e07ecdcc96256ae8d5b80,611e74d55d6b1aa95b71dfce,
,,,,space,0.2671,,0,203,203,315,1,X, , , , ,,2500,2.5,611d2107850c303bdd8b6d02,001,2021-08-19_16h12.49.586,natb3,2021.2.3,Win32,59.86231667,611d2107850c303bdd8b6d02,611e07ecdcc96256ae8d5b80,611e74d55d6b1aa95b71dfce,
,,,,space,0.283,,0,204,204,88,1,J, , , , ,space,2500,2.5,611d2107850c303bdd8b6d02,001,2021-08-19_16h12.49.586,natb3,2021.2.3,Win32,59.86231667,611d2107850c303bdd8b6d02,611e07ecdcc96256ae8d5b80,611e74d55d6b1aa95b71dfce,
,,,,space,0.4101,,0,205,205,72,1,T, , , , ,space,1500,1.5,611d2107850c303bdd8b6d02,001,2021-08-19_16h12.49.586,natb3,2021.2.3,Win32,59.86231667,611d2107850c303bdd8b6d02,611e07ecdcc96256ae8d5b80,611e74d55d6b1aa95b71dfce,
,,,,,,,0,206,206,93,1,X,5, ,7, ,,2500,2.5,611d2107850c303bdd8b6d02,001,2021-08-19_16h12.49.586,natb3,2021.2.3,Win32,59.86231667,611d2107850c303bdd8b6d02,611e07ecdcc96256ae8d5b80,611e74d55d6b1aa95b71dfce,
,,,,space,0.48,,0,207,207,292,1,E, , , , ,space,2000,2,611d2107850c303bdd8b6d02,001,2021-08-19_16h12.49.586,natb3,2021.2.3,Win32,59.86231667,611d2107850c303bdd8b6d02,611e07ecdcc96256ae8d5b80,611e74d55d6b1aa95b71dfce,
,,,,space,0.4169,,0,208,208,284,1,V, , , , ,space,2500,2.5,611d2107850c303bdd8b6d02,001,2021-08-19_16h12.49.586,natb3,2021.2.3,Win32,59.86231667,611d2107850c303bdd8b6d02,611e07ecdcc96256ae8d5b80,611e74d55d6b1aa95b71dfce,
,,,,space,0.3416,,0,209,209,178,1,Q, , , , ,space,1500,1.5,611d2107850c303bdd8b6d02,001,2021-08-19_16h12.49.586,natb3,2021.2.3,Win32,59.86231667,611d2107850c303bdd8b6d02,611e07ecdcc96256ae8d5b80,611e74d55d6b1aa95b71dfce,
,,,,space,0.3555,,0,210,210,174,1,B, , , , ,space,2500,2.5,611d2107850c303bdd8b6d02,001,2021-08-19_16h12.49.586,natb3,2021.2.3,Win32,59.86231667,611d2107850c303bdd8b6d02,611e07ecdcc96256ae8d5b80,611e74d55d6b1aa95b71dfce,
,,,,space,0.4518,,0,211,211,92,1,Z, , , , ,space,1500,1.5,611d2107850c303bdd8b6d02,001,2021-08-19_16h12.49.586,natb3,2021.2.3,Win32,59.86231667,611d2107850c303bdd8b6d02,611e07ecdcc96256ae8d5b80,611e74d55d6b1aa95b71dfce,
,,,,,,,0,212,212,179,1,X, ,9, ,2,,1500,1.5,611d2107850c303bdd8b6d02,001,2021-08-19_16h12.49.586,natb3,2021.2.3,Win32,59.86231667,611d2107850c303bdd8b6d02,611e07ecdcc96256ae8d5b80,611e74d55d6b1aa95b71dfce,
,,,,space,0.3016,,0,213,213,141,1,X,1, ,4,6,,1500,1.5,611d2107850c303bdd8b6d02,001,2021-08-19_16h12.49.586,natb3,2021.2.3,Win32,59.86231667,611d2107850c303bdd8b6d02,611e07ecdcc96256ae8d5b80,611e74d55d6b1aa95b71dfce,
,,,,space,0.4107,,0,214,214,289,1,Q, , , , ,space,2000,2,611d2107850c303bdd8b6d02,001,2021-08-19_16h12.49.586,natb3,2021.2.3,Win32,59.86231667,611d2107850c303bdd8b6d02,611e07ecdcc96256ae8d5b80,611e74d55d6b1aa95b71dfce,
,,,,space,0.4995,,0,215,215,95,1,V, , , , ,space,1500,1.5,611d2107850c303bdd8b6d02,001,2021-08-19_16h12.49.586,natb3,2021.2.3,Win32,59.86231667,611d2107850c303bdd8b6d02,611e07ecdcc96256ae8d5b80,611e74d55d6b1aa95b71dfce,
,,,,,,,0,216,216,122,1,X,1, , ,8,,1500,1.5,611d2107850c303bdd8b6d02,001,2021-08-19_16h12.49.586,natb3,2021.2.3,Win32,59.86231667,611d2107850c303bdd8b6d02,611e07ecdcc96256ae8d5b80,611e74d55d6b1aa95b71dfce,
,,,,space,0.3817,,0,217,217,113,1,W, , , , ,space,2500,2.5,611d2107850c303bdd8b6d02,001,2021-08-19_16h12.49.586,natb3,2021.2.3,Win32,59.86231667,611d2107850c303bdd8b6d02,611e07ecdcc96256ae8d5b80,611e74d55d6b1aa95b71dfce,
,,,,space,0.3611,,0,218,218,149,1,R, , , , ,space,2000,2,611d2107850c303bdd8b6d02,001,2021-08-19_16h12.49.586,natb3,2021.2.3,Win32,59.86231667,611d2107850c303bdd8b6d02,611e07ecdcc96256ae8d5b80,611e74d55d6b1aa95b71dfce,
,,,,space,0.3722,,0,219,219,17,1,F, , , , ,space,2500,2.5,611d2107850c303bdd8b6d02,001,2021-08-19_16h12.49.586,natb3,2021.2.3,Win32,59.86231667,611d2107850c303bdd8b6d02,611e07ecdcc96256ae8d5b80,611e74d55d6b1aa95b71dfce,
,,,,,,,0,220,220,271,1,X, , , , ,,2500,2.5,611d2107850c303bdd8b6d02,001,2021-08-19_16h12.49.586,natb3,2021.2.3,Win32,59.86231667,611d2107850c303bdd8b6d02,611e07ecdcc96256ae8d5b80,611e74d55d6b1aa95b71dfce,
,,,,,,,0,221,221,295,1,X,8,7,5, ,,2500,2.5,611d2107850c303bdd8b6d02,001,2021-08-19_16h12.49.586,natb3,2021.2.3,Win32,59.86231667,611d2107850c303bdd8b6d02,611e07ecdcc96256ae8d5b80,611e74d55d6b1aa95b71dfce,
,,,,space,0.3707,,0,222,222,264,1,U, , , , ,space,2000,2,611d2107850c303bdd8b6d02,001,2021-08-19_16h12.49.586,natb3,2021.2.3,Win32,59.86231667,611d2107850c303bdd8b6d02,611e07ecdcc96256ae8d5b80,611e74d55d6b1aa95b71dfce,
,,,,space,0.3352,,0,223,223,97,1,B, , , , ,space,2500,2.5,611d2107850c303bdd8b6d02,001,2021-08-19_16h12.49.586,natb3,2021.2.3,Win32,59.86231667,611d2107850c303bdd8b6d02,611e07ecdcc96256ae8d5b80,611e74d55d6b1aa95b71dfce,
,,,,space,0.3277,,0,224,224,231,1,I, , , , ,space,2500,2.5,611d2107850c303bdd8b6d02,001,2021-08-19_16h12.49.586,natb3,2021.2.3,Win32,59.86231667,611d2107850c303bdd8b6d02,611e07ecdcc96256ae8d5b80,611e74d55d6b1aa95b71dfce,
,,,,space,0.3146,,0,225,225,234,1,P, , , , ,space,2000,2,611d2107850c303bdd8b6d02,001,2021-08-19_16h12.49.586,natb3,2021.2.3,Win32,59.86231667,611d2107850c303bdd8b6d02,611e07ecdcc96256ae8d5b80,611e74d55d6b1aa95b71dfce,
,,,,space,0.312,,0,226,226,16,1,D, , , , ,space,1500,1.5,611d2107850c303bdd8b6d02,001,2021-08-19_16h12.49.586,natb3,2021.2.3,Win32,59.86231667,611d2107850c303bdd8b6d02,611e07ecdcc96256ae8d5b80,611e74d55d6b1aa95b71dfce,
,,,,space,0.3176,,0,227,227,161,1,F, , , , ,space,1500,1.5,611d2107850c303bdd8b6d02,001,2021-08-19_16h12.49.586,natb3,2021.2.3,Win32,59.86231667,611d2107850c303bdd8b6d02,611e07ecdcc96256ae8d5b80,611e74d55d6b1aa95b71dfce,
,,,,space,0.3333,,0,228,228,206,1,V, , , , ,space,2000,2,611d2107850c303bdd8b6d02,001,2021-08-19_16h12.49.586,natb3,2021.2.3,Win32,59.86231667,611d2107850c303bdd8b6d02,611e07ecdcc96256ae8d5b80,611e74d55d6b1aa95b71dfce,
,,,,,,,0,229,229,252,1,X,3, ,6,9,,2000,2,611d2107850c303bdd8b6d02,001,2021-08-19_16h12.49.586,natb3,2021.2.3,Win32,59.86231667,611d2107850c303bdd8b6d02,611e07ecdcc96256ae8d5b80,611e74d55d6b1aa95b71dfce,
,,,,space,0.3238,,0,230,230,196,1,F, , , , ,space,1500,1.5,611d2107850c303bdd8b6d02,001,2021-08-19_16h12.49.586,natb3,2021.2.3,Win32,59.86231667,611d2107850c303bdd8b6d02,611e07ecdcc96256ae8d5b80,611e74d55d6b1aa95b71dfce,
,,,,space,0.3827,,0,231,231,124,1,P, , , , ,space,2000,2,611d2107850c303bdd8b6d02,001,2021-08-19_16h12.49.586,natb3,2021.2.3,Win32,59.86231667,611d2107850c303bdd8b6d02,611e07ecdcc96256ae8d5b80,611e74d55d6b1aa95b71dfce,
,,,,space,0.3699,,0,232,232,301,1,P, , , , ,space,1500,1.5,611d2107850c303bdd8b6d02,001,2021-08-19_16h12.49.586,natb3,2021.2.3,Win32,59.86231667,611d2107850c303bdd8b6d02,611e07ecdcc96256ae8d5b80,611e74d55d6b1aa95b71dfce,
,,,,space,0.3149,,0,233,233,228,1,Y, , , , ,space,2000,2,611d2107850c303bdd8b6d02,001,2021-08-19_16h12.49.586,natb3,2021.2.3,Win32,59.86231667,611d2107850c303bdd8b6d02,611e07ecdcc96256ae8d5b80,611e74d55d6b1aa95b71dfce,
,,,,space,0.3554,,0,234,234,297,1,U, , , , ,space,2000,2,611d2107850c303bdd8b6d02,001,2021-08-19_16h12.49.586,natb3,2021.2.3,Win32,59.86231667,611d2107850c303bdd8b6d02,611e07ecdcc96256ae8d5b80,611e74d55d6b1aa95b71dfce,
,,,,,,,0,235,235,259,1,X,8, , ,3,,2500,2.5,611d2107850c303bdd8b6d02,001,2021-08-19_16h12.49.586,natb3,2021.2.3,Win32,59.86231667,611d2107850c303bdd8b6d02,611e07ecdcc96256ae8d5b80,611e74d55d6b1aa95b71dfce,
,,,,space,0.3318,,0,236,236,310,1,J, , , , ,space,2500,2.5,611d2107850c303bdd8b6d02,001,2021-08-19_16h12.49.586,natb3,2021.2.3,Win32,59.86231667,611d2107850c303bdd8b6d02,611e07ecdcc96256ae8d5b80,611e74d55d6b1aa95b71dfce,
,,,,space,0.3495,,0,237,237,155,1,O, , , , ,space,1500,1.5,611d2107850c303bdd8b6d02,001,2021-08-19_16h12.49.586,natb3,2021.2.3,Win32,59.86231667,611d2107850c303bdd8b6d02,611e07ecdcc96256ae8d5b80,611e74d55d6b1aa95b71dfce,
,,,,space,0.3281,,0,238,238,81,1,S, , , , ,space,2000,2,611d2107850c303bdd8b6d02,001,2021-08-19_16h12.49.586,natb3,2021.2.3,Win32,59.86231667,611d2107850c303bdd8b6d02,611e07ecdcc96256ae8d5b80,611e74d55d6b1aa95b71dfce,
,,,,space,0.299,,0,239,239,194,1,D, , , , ,space,2000,2,611d2107850c303bdd8b6d02,001,2021-08-19_16h12.49.586,natb3,2021.2.3,Win32,59.86231667,611d2107850c303bdd8b6d02,611e07ecdcc96256ae8d5b80,611e74d55d6b1aa95b71dfce,
,,,,space,0.3753,,0,240,240,183,1,R, , , , ,space,1500,1.5,611d2107850c303bdd8b6d02,001,2021-08-19_16h12.49.586,natb3,2021.2.3,Win32,59.86231667,611d2107850c303bdd8b6d02,611e07ecdcc96256ae8d5b80,611e74d55d6b1aa95b71dfce,
,,,,space,0.3986,,0,241,241,314,1,L, , , , ,space,1500,1.5,611d2107850c303bdd8b6d02,001,2021-08-19_16h12.49.586,natb3,2021.2.3,Win32,59.86231667,611d2107850c303bdd8b6d02,611e07ecdcc96256ae8d5b80,611e74d55d6b1aa95b71dfce,
,,,,space,0.356,,0,242,242,202,1,L, , , , ,space,2500,2.5,611d2107850c303bdd8b6d02,001,2021-08-19_16h12.49.586,natb3,2021.2.3,Win32,59.86231667,611d2107850c303bdd8b6d02,611e07ecdcc96256ae8d5b80,611e74d55d6b1aa95b71dfce,
,,,,space,0.2937,,0,243,243,51,1,X,7,5,8, ,,1500,1.5,611d2107850c303bdd8b6d02,001,2021-08-19_16h12.49.586,natb3,2021.2.3,Win32,59.86231667,611d2107850c303bdd8b6d02,611e07ecdcc96256ae8d5b80,611e74d55d6b1aa95b71dfce,
,,,,space,0.2717,,0,244,244,66,1,X, ,4,7, ,,2000,2,611d2107850c303bdd8b6d02,001,2021-08-19_16h12.49.586,natb3,2021.2.3,Win32,59.86231667,611d2107850c303bdd8b6d02,611e07ecdcc96256ae8d5b80,611e74d55d6b1aa95b71dfce,
,,,,space,0.2835,,0,245,245,331,1,Y, , , , ,space,2500,2.5,611d2107850c303bdd8b6d02,001,2021-08-19_16h12.49.586,natb3,2021.2.3,Win32,59.86231667,611d2107850c303bdd8b6d02,611e07ecdcc96256ae8d5b80,611e74d55d6b1aa95b71dfce,
,,,,,,,0,246,246,175,1,X,7, ,4,2,,1500,1.5,611d2107850c303bdd8b6d02,001,2021-08-19_16h12.49.586,natb3,2021.2.3,Win32,59.86231667,611d2107850c303bdd8b6d02,611e07ecdcc96256ae8d5b80,611e74d55d6b1aa95b71dfce,
,,,,space,0.344,,0,247,247,332,1,U, , , , ,space,2000,2,611d2107850c303bdd8b6d02,001,2021-08-19_16h12.49.586,natb3,2021.2.3,Win32,59.86231667,611d2107850c303bdd8b6d02,611e07ecdcc96256ae8d5b80,611e74d55d6b1aa95b71dfce,
,,,,,,,0,248,248,31,1,X, , , , ,,1500,1.5,611d2107850c303bdd8b6d02,001,2021-08-19_16h12.49.586,natb3,2021.2.3,Win32,59.86231667,611d2107850c303bdd8b6d02,611e07ecdcc96256ae8d5b80,611e74d55d6b1aa95b71dfce,
,,,,space,0.4156,,0,249,249,29,1,B, , , , ,space,1500,1.5,611d2107850c303bdd8b6d02,001,2021-08-19_16h12.49.586,natb3,2021.2.3,Win32,59.86231667,611d2107850c303bdd8b6d02,611e07ecdcc96256ae8d5b80,611e74d55d6b1aa95b71dfce,
,,,,,,,0,250,250,107,1,X,9,3, ,2,,2000,2,611d2107850c303bdd8b6d02,001,2021-08-19_16h12.49.586,natb3,2021.2.3,Win32,59.86231667,611d2107850c303bdd8b6d02,611e07ecdcc96256ae8d5b80,611e74d55d6b1aa95b71dfce,
,,,,,,,0,251,251,133,1,X, ,4, ,6,,2500,2.5,611d2107850c303bdd8b6d02,001,2021-08-19_16h12.49.586,natb3,2021.2.3,Win32,59.86231667,611d2107850c303bdd8b6d02,611e07ecdcc96256ae8d5b80,611e74d55d6b1aa95b71dfce,
,,,,space,0.3777,,0,252,252,48,1,A, , , , ,space,2500,2.5,611d2107850c303bdd8b6d02,001,2021-08-19_16h12.49.586,natb3,2021.2.3,Win32,59.86231667,611d2107850c303bdd8b6d02,611e07ecdcc96256ae8d5b80,611e74d55d6b1aa95b71dfce,
,,,,space,0.404,,0,253,253,100,1,M, , , , ,space,2000,2,611d2107850c303bdd8b6d02,001,2021-08-19_16h12.49.586,natb3,2021.2.3,Win32,59.86231667,611d2107850c303bdd8b6d02,611e07ecdcc96256ae8d5b80,611e74d55d6b1aa95b71dfce,
,,,,space,0.3815,,0,254,254,286,1,N, , , , ,space,1500,1.5,611d2107850c303bdd8b6d02,001,2021-08-19_16h12.49.586,natb3,2021.2.3,Win32,59.86231667,611d2107850c303bdd8b6d02,611e07ecdcc96256ae8d5b80,611e74d55d6b1aa95b71dfce,
,,,,space,0.3605,,0,255,255,199,1,J, , , , ,space,2500,2.5,611d2107850c303bdd8b6d02,001,2021-08-19_16h12.49.586,natb3,2021.2.3,Win32,59.86231667,611d2107850c303bdd8b6d02,611e07ecdcc96256ae8d5b80,611e74d55d6b1aa95b71dfce,
,,,,space,0.3904,,0,256,256,328,1,R, , , , ,space,1500,1.5,611d2107850c303bdd8b6d02,001,2021-08-19_16h12.49.586,natb3,2021.2.3,Win32,59.86231667,611d2107850c303bdd8b6d02,611e07ecdcc96256ae8d5b80,611e74d55d6b1aa95b71dfce,
,,,,space,0.351,,0,257,257,290,1,W, , , , ,space,1500,1.5,611d2107850c303bdd8b6d02,001,2021-08-19_16h12.49.586,natb3,2021.2.3,Win32,59.86231667,611d2107850c303bdd8b6d02,611e07ecdcc96256ae8d5b80,611e74d55d6b1aa95b71dfce,
,,,,space,0.3657,,0,258,258,77,1,O, , , , ,space,2000,2,611d2107850c303bdd8b6d02,001,2021-08-19_16h12.49.586,natb3,2021.2.3,Win32,59.86231667,611d2107850c303bdd8b6d02,611e07ecdcc96256ae8d5b80,611e74d55d6b1aa95b71dfce,
,,,,,,,0,259,259,248,1,X, ,1,5, ,,1500,1.5,611d2107850c303bdd8b6d02,001,2021-08-19_16h12.49.586,natb3,2021.2.3,Win32,59.86231667,611d2107850c303bdd8b6d02,611e07ecdcc96256ae8d5b80,611e74d55d6b1aa95b71dfce,
,,,,space,0.3076,,0,260,260,22,1,K, , , , ,space,2000,2,611d2107850c303bdd8b6d02,001,2021-08-19_16h12.49.586,natb3,2021.2.3,Win32,59.86231667,611d2107850c303bdd8b6d02,611e07ecdcc96256ae8d5b80,611e74d55d6b1aa95b71dfce,
,,,,space,0.3899,,0,261,261,146,1,W, , , , ,space,1500,1.5,611d2107850c303bdd8b6d02,001,2021-08-19_16h12.49.586,natb3,2021.2.3,Win32,59.86231667,611d2107850c303bdd8b6d02,611e07ecdcc96256ae8d5b80,611e74d55d6b1aa95b71dfce,
,,,,space,0.327,,0,262,262,49,1,S, , , , ,space,1500,1.5,611d2107850c303bdd8b6d02,001,2021-08-19_16h12.49.586,natb3,2021.2.3,Win32,59.86231667,611d2107850c303bdd8b6d02,611e07ecdcc96256ae8d5b80,611e74d55d6b1aa95b71dfce,
,,,,space,0.3395,,0,263,263,21,1,J, , , , ,space,1500,1.5,611d2107850c303bdd8b6d02,001,2021-08-19_16h12.49.586,natb3,2021.2.3,Win32,59.86231667,611d2107850c303bdd8b6d02,611e07ecdcc96256ae8d5b80,611e74d55d6b1aa95b71dfce,
,,,,space,0.2851,,0,264,264,279,1,K, , , , ,space,2500,2.5,611d2107850c303bdd8b6d02,001,2021-08-19_16h12.49.586,natb3,2021.2.3,Win32,59.86231667,611d2107850c303bdd8b6d02,611e07ecdcc96256ae8d5b80,611e74d55d6b1aa95b71dfce,
,,,,space,0.3253,,0,265,265,9,1,I, , , , ,space,1500,1.5,611d2107850c303bdd8b6d02,001,2021-08-19_16h12.49.586,natb3,2021.2.3,Win32,59.86231667,611d2107850c303bdd8b6d02,611e07ecdcc96256ae8d5b80,611e74d55d6b1aa95b71dfce,
,,,,space,0.3023,,0,266,266,108,1,Y, , , , ,space,2500,2.5,611d2107850c303bdd8b6d02,001,2021-08-19_16h12.49.586,natb3,2021.2.3,Win32,59.86231667,611d2107850c303bdd8b6d02,611e07ecdcc96256ae8d5b80,611e74d55d6b1aa95b71dfce,
,,,,space,0.3005,,0,267,267,298,1,I, , , , ,space,2000,2,611d2107850c303bdd8b6d02,001,2021-08-19_16h12.49.586,natb3,2021.2.3,Win32,59.86231667,611d2107850c303bdd8b6d02,611e07ecdcc96256ae8d5b80,611e74d55d6b1aa95b71dfce,
,,,,space,0.334,,0,268,268,333,1,I, , , , ,space,1500,1.5,611d2107850c303bdd8b6d02,001,2021-08-19_16h12.49.586,natb3,2021.2.3,Win32,59.86231667,611d2107850c303bdd8b6d02,611e07ecdcc96256ae8d5b80,611e74d55d6b1aa95b71dfce,
,,,,space,0.2994,,0,269,269,147,1,E, , , , ,space,2000,2,611d2107850c303bdd8b6d02,001,2021-08-19_16h12.49.586,natb3,2021.2.3,Win32,59.86231667,611d2107850c303bdd8b6d02,611e07ecdcc96256ae8d5b80,611e74d55d6b1aa95b71dfce,
,,,,space,0.3654,,0,270,270,109,1,U, , , , ,space,1500,1.5,611d2107850c303bdd8b6d02,001,2021-08-19_16h12.49.586,natb3,2021.2.3,Win32,59.86231667,611d2107850c303bdd8b6d02,611e07ecdcc96256ae8d5b80,611e74d55d6b1aa95b71dfce,
,,,,space,0.3144,,0,271,271,190,1,P, , , , ,space,2000,2,611d2107850c303bdd8b6d02,001,2021-08-19_16h12.49.586,natb3,2021.2.3,Win32,59.86231667,611d2107850c303bdd8b6d02,611e07ecdcc96256ae8d5b80,611e74d55d6b1aa95b71dfce,
,,,,space,0.3252,,0,272,272,99,1,N, , , , ,space,2500,2.5,611d2107850c303bdd8b6d02,001,2021-08-19_16h12.49.586,natb3,2021.2.3,Win32,59.86231667,611d2107850c303bdd8b6d02,611e07ecdcc96256ae8d5b80,611e74d55d6b1aa95b71dfce,
,,,,space,0.3579,,0,273,273,189,1,O, , , , ,space,1500,1.5,611d2107850c303bdd8b6d02,001,2021-08-19_16h12.49.586,natb3,2021.2.3,Win32,59.86231667,611d2107850c303bdd8b6d02,611e07ecdcc96256ae8d5b80,611e74d55d6b1aa95b71dfce,
,,,,space,0.3406,,0,274,274,11,1,P, , , , ,space,2500,2.5,611d2107850c303bdd8b6d02,001,2021-08-19_16h12.49.586,natb3,2021.2.3,Win32,59.86231667,611d2107850c303bdd8b6d02,611e07ecdcc96256ae8d5b80,611e74d55d6b1aa95b71dfce,
,,,,,,,0,275,275,322,1,X, , ,1,6,,2000,2,611d2107850c303bdd8b6d02,001,2021-08-19_16h12.49.586,natb3,2021.2.3,Win32,59.86231667,611d2107850c303bdd8b6d02,611e07ecdcc96256ae8d5b80,611e74d55d6b1aa95b71dfce,
,,,,,,,0,276,276,39,1,X,6,2, , ,,1500,1.5,611d2107850c303bdd8b6d02,001,2021-08-19_16h12.49.586,natb3,2021.2.3,Win32,59.86231667,611d2107850c303bdd8b6d02,611e07ecdcc96256ae8d5b80,611e74d55d6b1aa95b71dfce,
,,,,space,0.2913,,0,277,277,136,1,Z, , , , ,space,2500,2.5,611d2107850c303bdd8b6d02,001,2021-08-19_16h12.49.586,natb3,2021.2.3,Win32,59.86231667,611d2107850c303bdd8b6d02,611e07ecdcc96256ae8d5b80,611e74d55d6b1aa95b71dfce,
,,,,,,,0,278,278,233,1,X, ,2, ,5,,1500,1.5,611d2107850c303bdd8b6d02,001,2021-08-19_16h12.49.586,natb3,2021.2.3,Win32,59.86231667,611d2107850c303bdd8b6d02,611e07ecdcc96256ae8d5b80,611e74d55d6b1aa95b71dfce,
,,,,space,0.3663,,0,279,279,167,1,K, , , , ,space,1500,1.5,611d2107850c303bdd8b6d02,001,2021-08-19_16h12.49.586,natb3,2021.2.3,Win32,59.86231667,611d2107850c303bdd8b6d02,611e07ecdcc96256ae8d5b80,611e74d55d6b1aa95b71dfce,
,,,,,,,0,280,280,187,1,X, ,3,7,4,,1500,1.5,611d2107850c303bdd8b6d02,001,2021-08-19_16h12.49.586,natb3,2021.2.3,Win32,59.86231667,611d2107850c303bdd8b6d02,611e07ecdcc96256ae8d5b80,611e74d55d6b1aa95b71dfce,
,,,,space,0.3313,,0,281,281,226,1,R, , , , ,space,2000,2,611d2107850c303bdd8b6d02,001,2021-08-19_16h12.49.586,natb3,2021.2.3,Win32,59.86231667,611d2107850c303bdd8b6d02,611e07ecdcc96256ae8d5b80,611e74d55d6b1aa95b71dfce,
,,,,space,0.2547,,0,282,282,86,1,G, , , , ,space,2000,2,611d2107850c303bdd8b6d02,001,2021-08-19_16h12.49.586,natb3,2021.2.3,Win32,59.86231667,611d2107850c303bdd8b6d02,611e07ecdcc96256ae8d5b80,611e74d55d6b1aa95b71dfce,
,,,,space,0.2703,,0,283,283,267,1,P, , , , ,space,2000,2,611d2107850c303bdd8b6d02,001,2021-08-19_16h12.49.586,natb3,2021.2.3,Win32,59.86231667,611d2107850c303bdd8b6d02,611e07ecdcc96256ae8d5b80,611e74d55d6b1aa95b71dfce,
,,,,space,0.2981,,0,284,284,13,1,A, , , , ,space,2000,2,611d2107850c303bdd8b6d02,001,2021-08-19_16h12.49.586,natb3,2021.2.3,Win32,59.86231667,611d2107850c303bdd8b6d02,611e07ecdcc96256ae8d5b80,611e74d55d6b1aa95b71dfce,
,,,,space,0.3162,,0,285,285,323,1,M, , , , ,space,2500,2.5,611d2107850c303bdd8b6d02,001,2021-08-19_16h12.49.586,natb3,2021.2.3,Win32,59.86231667,611d2107850c303bdd8b6d02,611e07ecdcc96256ae8d5b80,611e74d55d6b1aa95b71dfce,
,,,,space,0.3718,,0,286,286,94,1,C, , , , ,space,2000,2,611d2107850c303bdd8b6d02,001,2021-08-19_16h12.49.586,natb3,2021.2.3,Win32,59.86231667,611d2107850c303bdd8b6d02,611e07ecdcc96256ae8d5b80,611e74d55d6b1aa95b71dfce,
,,,,space,0.2847,,0,287,287,54,1,X, , , , ,,2000,2,611d2107850c303bdd8b6d02,001,2021-08-19_16h12.49.586,natb3,2021.2.3,Win32,59.86231667,611d2107850c303bdd8b6d02,611e07ecdcc96256ae8d5b80,611e74d55d6b1aa95b71dfce,
,,,,space,0.4028,,0,288,288,294,1,T, , , , ,space,2000,2,611d2107850c303bdd8b6d02,001,2021-08-19_16h12.49.586,natb3,2021.2.3,Win32,59.86231667,611d2107850c303bdd8b6d02,611e07ecdcc96256ae8d5b80,611e74d55d6b1aa95b71dfce,
,,,,,,,0,289,289,291,1,X, , , , ,,2000,2,611d2107850c303bdd8b6d02,001,2021-08-19_16h12.49.586,natb3,2021.2.3,Win32,59.86231667,611d2107850c303bdd8b6d02,611e07ecdcc96256ae8d5b80,611e74d55d6b1aa95b71dfce,
,,,,space,0.2542,,0,290,290,245,1,K, , , , ,space,2000,2,611d2107850c303bdd8b6d02,001,2021-08-19_16h12.49.586,natb3,2021.2.3,Win32,59.86231667,611d2107850c303bdd8b6d02,611e07ecdcc96256ae8d5b80,611e74d55d6b1aa95b71dfce,
,,,,,,,0,291,291,329,1,X,3,4, ,2,,2500,2.5,611d2107850c303bdd8b6d02,001,2021-08-19_16h12.49.586,natb3,2021.2.3,Win32,59.86231667,611d2107850c303bdd8b6d02,611e07ecdcc96256ae8d5b80,611e74d55d6b1aa95b71dfce,
,,,,space,0.3045,,0,292,292,184,1,T, , , , ,space,2000,2,611d2107850c303bdd8b6d02,001,2021-08-19_16h12.49.586,natb3,2021.2.3,Win32,59.86231667,611d2107850c303bdd8b6d02,611e07ecdcc96256ae8d5b80,611e74d55d6b1aa95b71dfce,
,,,,space,0.3049,,0,293,293,116,1,X, , , , ,,2000,2,611d2107850c303bdd8b6d02,001,2021-08-19_16h12.49.586,natb3,2021.2.3,Win32,59.86231667,611d2107850c303bdd8b6d02,611e07ecdcc96256ae8d5b80,611e74d55d6b1aa95b71dfce,
,,,,space,0.3766,,0,294,294,59,1,Z, , , , ,space,2000,2,611d2107850c303bdd8b6d02,001,2021-08-19_16h12.49.586,natb3,2021.2.3,Win32,59.86231667,611d2107850c303bdd8b6d02,611e07ecdcc96256ae8d5b80,611e74d55d6b1aa95b71dfce,
,,,,,,,0,295,295,200,1,X,7, ,5,3,,1500,1.5,611d2107850c303bdd8b6d02,001,2021-08-19_16h12.49.586,natb3,2021.2.3,Win32,59.86231667,611d2107850c303bdd8b6d02,611e07ecdcc96256ae8d5b80,611e74d55d6b1aa95b71dfce,
,,,,space,0.2513,,0,296,296,125,1,X, , , , ,,2000,2,611d2107850c303bdd8b6d02,001,2021-08-19_16h12.49.586,natb3,2021.2.3,Win32,59.86231667,611d2107850c303bdd8b6d02,611e07ecdcc96256ae8d5b80,611e74d55d6b1aa95b71dfce,
,,,,space,0.3785,,0,297,297,201,1,K, , , , ,space,1500,1.5,611d2107850c303bdd8b6d02,001,2021-08-19_16h12.49.586,natb3,2021.2.3,Win32,59.86231667,611d2107850c303bdd8b6d02,611e07ecdcc96256ae8d5b80,611e74d55d6b1aa95b71dfce,
,,,,,,,0,298,298,98,1,X, , , , ,,2500,2.5,611d2107850c303bdd8b6d02,001,2021-08-19_16h12.49.586,natb3,2021.2.3,Win32,59.86231667,611d2107850c303bdd8b6d02,611e07ecdcc96256ae8d5b80,611e74d55d6b1aa95b71dfce,
,,,,space,0.3594,,0,299,299,316,1,Z, , , , ,space,1500,1.5,611d2107850c303bdd8b6d02,001,2021-08-19_16h12.49.586,natb3,2021.2.3,Win32,59.86231667,611d2107850c303bdd8b6d02,611e07ecdcc96256ae8d5b80,611e74d55d6b1aa95b71dfce,
,,,,space,0.456,,0,300,300,262,1,Y, , , , ,space,2500,2.5,611d2107850c303bdd8b6d02,001,2021-08-19_16h12.49.586,natb3,2021.2.3,Win32,59.86231667,611d2107850c303bdd8b6d02,611e07ecdcc96256ae8d5b80,611e74d55d6b1aa95b71dfce,
,,,,,,,0,301,301,277,1,X,8,5, ,2,,2000,2,611d2107850c303bdd8b6d02,001,2021-08-19_16h12.49.586,natb3,2021.2.3,Win32,59.86231667,611d2107850c303bdd8b6d02,611e07ecdcc96256ae8d5b80,611e74d55d6b1aa95b71dfce,
,,,,space,0.3132,,0,302,302,10,1,O, , , , ,space,2000,2,611d2107850c303bdd8b6d02,001,2021-08-19_16h12.49.586,natb3,2021.2.3,Win32,59.86231667,611d2107850c303bdd8b6d02,611e07ecdcc96256ae8d5b80,611e74d55d6b1aa95b71dfce,
,,,,,,,0,303,303,4,1,X, , , , ,,2000,2,611d2107850c303bdd8b6d02,001,2021-08-19_16h12.49.586,natb3,2021.2.3,Win32,59.86231667,611d2107850c303bdd8b6d02,611e07ecdcc96256ae8d5b80,611e74d55d6b1aa95b71dfce,
,,,,space,0.2997,,0,304,304,220,1,U, , , , ,space,2500,2.5,611d2107850c303bdd8b6d02,001,2021-08-19_16h12.49.586,natb3,2021.2.3,Win32,59.86231667,611d2107850c303bdd8b6d02,611e07ecdcc96256ae8d5b80,611e74d55d6b1aa95b71dfce,
,,,,space,0.3811,,0,305,305,131,1,G, , , , ,space,1500,1.5,611d2107850c303bdd8b6d02,001,2021-08-19_16h12.49.586,natb3,2021.2.3,Win32,59.86231667,611d2107850c303bdd8b6d02,611e07ecdcc96256ae8d5b80,611e74d55d6b1aa95b71dfce,
,,,,,,,0,306,306,211,1,X, , , , ,,2500,2.5,611d2107850c303bdd8b6d02,001,2021-08-19_16h12.49.586,natb3,2021.2.3,Win32,59.86231667,611d2107850c303bdd8b6d02,611e07ecdcc96256ae8d5b80,611e74d55d6b1aa95b71dfce,
,,,,space,0.3491,,0,307,307,112,1,Q, , , , ,space,2500,2.5,611d2107850c303bdd8b6d02,001,2021-08-19_16h12.49.586,natb3,2021.2.3,Win32,59.86231667,611d2107850c303bdd8b6d02,611e07ecdcc96256ae8d5b80,611e74d55d6b1aa95b71dfce,
,,,,,,,0,308,308,203,1,X, , , , ,,2500,2.5,611d2107850c303bdd8b6d02,001,2021-08-19_16h12.49.586,natb3,2021.2.3,Win32,59.86231667,611d2107850c303bdd8b6d02,611e07ecdcc96256ae8d5b80,611e74d55d6b1aa95b71dfce,
,,,,space,0.3581,,0,309,309,251,1,B, , , , ,space,1500,1.5,611d2107850c303bdd8b6d02,001,2021-08-19_16h12.49.586,natb3,2021.2.3,Win32,59.86231667,611d2107850c303bdd8b6d02,611e07ecdcc96256ae8d5b80,611e74d55d6b1aa95b71dfce,
,,,,,,,0,310,310,305,1,X, , , , ,,1500,1.5,611d2107850c303bdd8b6d02,001,2021-08-19_16h12.49.586,natb3,2021.2.3,Win32,59.86231667,611d2107850c303bdd8b6d02,611e07ecdcc96256ae8d5b80,611e74d55d6b1aa95b71dfce,
,,,,space,0.3687,,0,311,311,197,1,G, , , , ,space,2500,2.5,611d2107850c303bdd8b6d02,001,2021-08-19_16h12.49.586,natb3,2021.2.3,Win32,59.86231667,611d2107850c303bdd8b6d02,611e07ecdcc96256ae8d5b80,611e74d55d6b1aa95b71dfce,
,,,,space,0.4559,,0,312,312,185,1,Y, , , , ,space,2500,2.5,611d2107850c303bdd8b6d02,001,2021-08-19_16h12.49.586,natb3,2021.2.3,Win32,59.86231667,611d2107850c303bdd8b6d02,611e07ecdcc96256ae8d5b80,611e74d55d6b1aa95b71dfce,
,,,,space,0.4919,,0,313,313,250,1,V, , , , ,space,2000,2,611d2107850c303bdd8b6d02,001,2021-08-19_16h12.49.586,natb3,2021.2.3,Win32,59.86231667,611d2107850c303bdd8b6d02,611e07ecdcc96256ae8d5b80,611e74d55d6b1aa95b71dfce,
,,,,space,0.388,,0,314,314,274,1,F, , , , ,space,2000,2,611d2107850c303bdd8b6d02,001,2021-08-19_16h12.49.586,natb3,2021.2.3,Win32,59.86231667,611d2107850c303bdd8b6d02,611e07ecdcc96256ae8d5b80,611e74d55d6b1aa95b71dfce,
,,,,space,0.3473,,0,315,315,198,1,H, , , , ,space,2500,2.5,611d2107850c303bdd8b6d02,001,2021-08-19_16h12.49.586,natb3,2021.2.3,Win32,59.86231667,611d2107850c303bdd8b6d02,611e07ecdcc96256ae8d5b80,611e74d55d6b1aa95b71dfce,
,,,,space,0.3541,,0,316,316,326,1,W, , , , ,space,2000,2,611d2107850c303bdd8b6d02,001,2021-08-19_16h12.49.586,natb3,2021.2.3,Win32,59.86231667,611d2107850c303bdd8b6d02,611e07ecdcc96256ae8d5b80,611e74d55d6b1aa95b71dfce,
,,,,space,0.3472,,0,317,317,221,1,I, , , , ,space,2500,2.5,611d2107850c303bdd8b6d02,001,2021-08-19_16h12.49.586,natb3,2021.2.3,Win32,59.86231667,611d2107850c303bdd8b6d02,611e07ecdcc96256ae8d5b80,611e74d55d6b1aa95b71dfce,
,,,,space,0.3326,,0,318,318,40,1,T, , , , ,space,1500,1.5,611d2107850c303bdd8b6d02,001,2021-08-19_16h12.49.586,natb3,2021.2.3,Win32,59.86231667,611d2107850c303bdd8b6d02,611e07ecdcc96256ae8d5b80,611e74d55d6b1aa95b71dfce,
,,,,space,0.3084,,0,319,319,157,1,A, , , , ,space,2500,2.5,611d2107850c303bdd8b6d02,001,2021-08-19_16h12.49.586,natb3,2021.2.3,Win32,59.86231667,611d2107850c303bdd8b6d02,611e07ecdcc96256ae8d5b80,611e74d55d6b1aa95b71dfce,
,,,,,,,0,320,320,207,1,X,9, ,2, ,,2500,2.5,611d2107850c303bdd8b6d02,001,2021-08-19_16h12.49.586,natb3,2021.2.3,Win32,59.86231667,611d2107850c303bdd8b6d02,611e07ecdcc96256ae8d5b80,611e74d55d6b1aa95b71dfce,
,,,,,,,0,321,321,43,1,X, ,6, ,2,,2500,2.5,611d2107850c303bdd8b6d02,001,2021-08-19_16h12.49.586,natb3,2021.2.3,Win32,59.86231667,611d2107850c303bdd8b6d02,611e07ecdcc96256ae8d5b80,611e74d55d6b1aa95b71dfce,
,,,,space,0.3292,,0,322,322,91,1,L, , , , ,space,2000,2,611d2107850c303bdd8b6d02,001,2021-08-19_16h12.49.586,natb3,2021.2.3,Win32,59.86231667,611d2107850c303bdd8b6d02,611e07ecdcc96256ae8d5b80,611e74d55d6b1aa95b71dfce,
,,,,space,0.392,,0,323,323,52,1,F, , , , ,space,1500,1.5,611d2107850c303bdd8b6d02,001,2021-08-19_16h12.49.586,natb3,2021.2.3,Win32,59.86231667,611d2107850c303bdd8b6d02,611e07ecdcc96256ae8d5b80,611e74d55d6b1aa95b71dfce,
,,,,space,0.2899,,0,324,324,261,1,T, , , , ,space,2000,2,611d2107850c303bdd8b6d02,001,2021-08-19_16h12.49.586,natb3,2021.2.3,Win32,59.86231667,611d2107850c303bdd8b6d02,611e07ecdcc96256ae8d5b80,611e74d55d6b1aa95b71dfce,
,,,,space,0.3012,,0,325,325,249,1,C, , , , ,space,2000,2,611d2107850c303bdd8b6d02,001,2021-08-19_16h12.49.586,natb3,2021.2.3,Win32,59.86231667,611d2107850c303bdd8b6d02,611e07ecdcc96256ae8d5b80,611e74d55d6b1aa95b71dfce,
,,,,space,0.3236,,0,326,326,317,1,C, , , , ,space,2000,2,611d2107850c303bdd8b6d02,001,2021-08-19_16h12.49.586,natb3,2021.2.3,Win32,59.86231667,611d2107850c303bdd8b6d02,611e07ecdcc96256ae8d5b80,611e74d55d6b1aa95b71dfce,
,,,,,,,0,327,327,89,1,X,3, , , ,,2000,2,611d2107850c303bdd8b6d02,001,2021-08-19_16h12.49.586,natb3,2021.2.3,Win32,59.86231667,611d2107850c303bdd8b6d02,611e07ecdcc96256ae8d5b80,611e74d55d6b1aa95b71dfce,
,,,,space,0.307,,0,328,328,160,1,D, , , , ,space,1500,1.5,611d2107850c303bdd8b6d02,001,2021-08-19_16h12.49.586,natb3,2021.2.3,Win32,59.86231667,611d2107850c303bdd8b6d02,611e07ecdcc96256ae8d5b80,611e74d55d6b1aa95b71dfce,
,,,,space,0.276,,0,329,329,68,1,W, , , , ,space,2500,2.5,611d2107850c303bdd8b6d02,001,2021-08-19_16h12.49.586,natb3,2021.2.3,Win32,59.86231667,611d2107850c303bdd8b6d02,611e07ecdcc96256ae8d5b80,611e74d55d6b1aa95b71dfce,
,,,,space,0.3202,,0,330,330,56,1,J, , , , ,space,1500,1.5,611d2107850c303bdd8b6d02,001,2021-08-19_16h12.49.586,natb3,2021.2.3,Win32,59.86231667,611d2107850c303bdd8b6d02,611e07ecdcc96256ae8d5b80,611e74d55d6b1aa95b71dfce,
,,,,space,0.3014,,0,331,331,62,1,V, , , , ,space,1500,1.5,611d2107850c303bdd8b6d02,001,2021-08-19_16h12.49.586,natb3,2021.2.3,Win32,59.86231667,611d2107850c303bdd8b6d02,611e07ecdcc96256ae8d5b80,611e74d55d6b1aa95b71dfce,
,,,,,,,0,332,332,162,1,X,1,6, ,2,,1500,1.5,611d2107850c303bdd8b6d02,001,2021-08-19_16h12.49.586,natb3,2021.2.3,Win32,59.86231667,611d2107850c303bdd8b6d02,611e07ecdcc96256ae8d5b80,611e74d55d6b1aa95b71dfce,
,,,,space,0.3332,,0,333,333,172,1,C, , , , ,space,1500,1.5,611d2107850c303bdd8b6d02,001,2021-08-19_16h12.49.586,natb3,2021.2.3,Win32,59.86231667,611d2107850c303bdd8b6d02,611e07ecdcc96256ae8d5b80,611e74d55d6b1aa95b71dfce,
,,,,space,0.2728,,0,334,334,90,1,K, , , , ,space,2000,2,611d2107850c303bdd8b6d02,001,2021-08-19_16h12.49.586,natb3,2021.2.3,Win32,59.86231667,611d2107850c303bdd8b6d02,611e07ecdcc96256ae8d5b80,611e74d55d6b1aa95b71dfce,
,,,,,,,0,335,335,74,1,X, ,4,3,2,,1500,1.5,611d2107850c303bdd8b6d02,001,2021-08-19_16h12.49.586,natb3,2021.2.3,Win32,59.86231667,611d2107850c303bdd8b6d02,611e07ecdcc96256ae8d5b80,611e74d55d6b1aa95b71dfce,
